timestamp,acceleration_x,acceleration_y,acceleration_z,attitude_pitch,attitude_roll,attitude_yaw,gravity_x,gravity_y,gravity_z,rotation_x,rotation_y,rotation_z
0.0,0.019428342580795288,0.0757601261138916,-0.029129385948181152,-0.6298828090285796,-0.38789202286605473,2.8719019633880642,-0.3056527376174927,0.5890500545501709,-0.7480618357658386,0.45617392659187317,-0.19466324150562286,0.3422623872756958
0.014542818069458008,-0.015276193618774414,0.05670076608657837,0.01964515447616577,-0.625039976595583,-0.38474601144381454,2.8829891417343156,-0.304364949464798,0.5851296782493591,-0.7516550421714783,0.3077976703643799,-0.15020638704299927,0.30924880504608154
0.03429388999938965,-0.0009584128856658936,0.014975368976593018,0.05908322334289551,-0.6234511584320945,-0.38252641453433706,2.8917595421198516,-0.3030424416065216,0.5838404893875122,-0.7531902194023132,0.13637618720531464,-0.13249945640563965,0.3001629412174225
0.05508685111999512,0.008223921060562134,0.0017322301864624023,0.062047600746154785,-0.6235997167608968,-0.3799727186002547,2.8997834666605913,-0.30108585953712463,0.5839611291885376,-0.7538810968399048,0.10603710263967514,-0.08346134424209595,0.30876362323760986
0.07499885559082031,0.024617910385131836,-0.021042048931121826,0.09480297565460205,-0.6236285463491352,-0.3767323778642239,2.907768705494987,-0.29863524436950684,0.5839845538139343,-0.7548370957374573,0.1461123377084732,-0.06581994146108627,0.2984923720359802
0.09505891799926758,0.07810589671134949,-0.064677894115448,0.1429099440574646,-0.6226086137400836,-0.37424980104890965,2.916003593900514,-0.2969779968261719,0.5831562876701355,-0.7561301589012146,0.20561809837818146,-0.18368656933307648,0.2841947078704834
0.11556196212768555,0.12914201617240906,-0.09356069564819336,0.1492486596107483,-0.6198476594385686,-0.37443511665936713,2.924656400757457,-0.29770585894584656,0.5809111595153809,-0.7575708031654358,0.31075096130371094,-0.3330237567424774,0.26885074377059937
0.13450980186462402,0.13133832812309265,-0.08446270227432251,0.12073659896850586,-0.6151269023537891,-0.37689385460207175,2.9336096315546607,-0.30057355761528015,0.57706218957901,-0.7593778967857361,0.38397151231765747,-0.41506972908973694,0.2291121929883957
0.15511083602905273,0.10637277364730835,-0.053966403007507324,0.10137617588043213,-0.6094286473429419,-0.38053630582652453,2.9416530047636162,-0.30455395579338074,0.5723990797996521,-0.7613188028335571,0.38706058263778687,-0.3983263373374939,0.17556330561637878
0.17752480506896973,0.09159454703330994,-0.027359187602996826,0.08875882625579834,-0.6037876345127438,-0.3835970771225707,2.94873759939693,-0.3080862760543823,0.5677644610404968,-0.7633651494979858,0.3405503034591675,-0.30843764543533325,0.15943719446659088
0.19600582122802734,0.0731014609336853,0.0024021267890930176,0.06327509880065918,-0.5996518173448594,-0.385782933441655,2.953994181196669,-0.3106350600719452,0.5643550753593445,-0.7648589015007019,0.2100401222705841,-0.21534596383571625,0.07831307500600815
0.2150259017944336,0.06820091605186462,0.014317750930786133,0.04168891906738281,-0.5966439066643587,-0.38815455454616704,2.956477242072716,-0.3130892515182495,0.5618693828582764,-0.7656879425048828,0.160233736038208,-0.16668592393398285,0.00971069373190403
0.23470282554626465,0.07759097218513489,0.03550291061401367,0.01005488634109497,-0.5935779045893455,-0.39035811169402,2.9576808346751027,-0.3154297471046448,0.5593304634094238,-0.766585648059845,0.1651778519153595,-0.12513768672943115,-0.03972752019762993
0.254274845123291,0.06632271409034729,0.06676113605499268,-0.01234138011932373,-0.5898910624708527,-0.3921107178093581,2.957882125360332,-0.3175586760044098,0.5562704801559448,-0.767932116985321,0.18189825117588043,-0.053565409034490585,-0.07623285800218582
0.2750098705291748,0.04904139041900635,0.08733999729156494,-0.021265387535095215,-0.5860096908524639,-0.39269617985702276,2.957522935823316,-0.31883206963539124,0.5530409216880798,-0.7697350382804871,0.1616298109292984,0.008521398529410362,-0.10016082972288132
0.29503393173217773,0.04230254888534546,0.09201574325561523,-0.030882656574249268,-0.5824164282679909,-0.3927092428862291,2.956736147377852,-0.31960055232048035,0.5500435829162598,-0.7715618014335632,0.1475059688091278,0.03415166214108467,-0.10049176216125488
0.3150289058685303,0.020289838314056396,0.10042285919189453,-0.06353819370269775,-0.5787307304997426,-0.39220961494049034,2.9557437258859958,-0.3199877440929413,0.546961784362793,-0.7735894918441772,0.15778814256191254,0.0839238315820694,-0.12977443635463715
0.3349337577819824,-0.03486320376396179,0.10313498973846436,-0.08124208450317383,-0.5747488991990289,-0.39048096412409655,2.9532402226041268,-0.3194764256477356,0.5436240434646606,-0.7761492729187012,0.1084209457039833,0.23147547245025635,-0.23157483339309692
0.3550529479980469,-0.06110385060310364,0.08331525325775146,-0.037062108516693115,-0.5725853434256089,-0.3876947937737305,2.947100261665219,-0.31775662302970886,0.5418068170547485,-0.7781234383583069,-0.1033073291182518,0.3476616442203522,-0.34136855602264404
0.37503576278686523,-0.008806705474853516,0.04006165266036987,-0.000765383243560791,-0.5726700473783858,-0.3869003709862581,2.93722182084292,-0.31712105870246887,0.5418780446052551,-0.7783331274986267,-0.19525174796581268,0.22792769968509674,-0.4211634397506714
0.39507102966308594,0.010779112577438354,0.06913244724273682,-0.07376044988632202,-0.5725759162391235,-0.39020209085370305,2.9254956358128963,-0.31970855593681335,0.5417989492416382,-0.7773290276527405,-0.1487005352973938,0.10449888557195663,-0.5113036036491394
0.41503286361694336,-0.0756845474243164,0.1429508924484253,-0.1545301079750061,-0.5700043958052364,-0.39590879267410867,2.9118045105522747,-0.3246755599975586,0.5396357774734497,-0.7767748236656189,-0.0670609176158905,0.09738318622112274,-0.6338169574737549
0.43527698516845703,-0.10974112153053284,0.21126818656921387,-0.18892931938171387,-0.5675008548672175,-0.399362880645542,2.8974945435427784,-0.3278809189796448,0.5375263094902039,-0.7768909335136414,-0.22986947000026703,0.3566344380378723,-0.5541595816612244
0.45514678955078125,-0.11039778590202332,0.17483729124069214,-0.11232149600982666,-0.5714059793003402,-0.3971315070786137,2.8830938641697426,-0.3253322243690491,0.5408152341842651,-0.7756789922714233,-0.5885172486305237,0.627529501914978,-0.4039064049720764
0.47506093978881836,-0.003643602132797241,0.04704171419143677,-0.008554458618164062,-0.5824239830420529,-0.390672655410277,2.8706522126254503,-0.31802693009376526,0.550049901008606,-0.7722072005271912,-0.8116570711135864,0.6498562097549438,-0.1290448158979416
0.49498486518859863,0.045018136501312256,-0.02409219741821289,-0.003949403762817383,-0.5956525304021183,-0.38353643632491996,2.8627342264352817,-0.30975815653800964,0.5610490441322327,-0.7676417827606201,-0.5738130807876587,0.5136498212814331,-0.015033149160444736
0.5147147178649902,-0.028512537479400635,-0.05129331350326538,-0.03690129518508911,-0.601038523898744,-0.3758571578876696,2.859742039899464,-0.30274054408073425,0.5654993057250977,-0.7671758532524109,-0.011202475056052208,0.4397501051425934,-0.03339996933937073
0.5346348285675049,-0.1103672981262207,-0.06549042463302612,-0.023428022861480713,-0.5975536928263554,-0.3674633819731382,2.858800384959326,-0.2969965934753418,0.5626217722892761,-0.7715243101119995,0.21220988035202026,0.4694649577140808,-0.1841358244419098
0.5550358295440674,-0.16974329948425293,-0.11314088106155396,0.05581384897232056,-0.5938267979357466,-0.36036130933105176,2.8534368721358856,-0.29224708676338196,0.5595367550849915,-0.7755709290504456,-0.09475093334913254,0.562876284122467,-0.37214142084121704
0.5758109092712402,-0.16851529479026794,-0.14719313383102417,0.13973790407180786,-0.5972485593682201,-0.3551570375270752,2.840776693996755,-0.28753939270973206,0.5623694658279419,-0.7752817273139954,-0.5761401653289795,0.6448824405670166,-0.4815526604652405
0.5950107574462891,-0.11472785472869873,-0.14599037170410156,0.1206810474395752,-0.6067492754060997,-0.3522786151574539,2.823556640688244,-0.28345027565956116,0.5701999664306641,-0.7710564136505127,-0.7571408152580261,0.6131151914596558,-0.5014508366584778
0.6149818897247314,-0.06840476393699646,-0.10117501020431519,0.0697869062423706,-0.6165898427318456,-0.3508563663702215,2.8064268962700467,-0.28041115403175354,0.5782563090324402,-0.7661522030830383,-0.5989575982093811,0.5140693783760071,-0.48622292280197144
0.6349749565124512,-0.038831472396850586,-0.09805786609649658,0.05381429195404053,-0.6219435970024045,-0.3503388625932347,2.7917009018567813,-0.2789480686187744,0.5826159119606018,-0.7633784413337708,-0.3293628692626953,0.39218294620513916,-0.45533180236816406
0.6550219058990479,0.0026718974113464355,-0.10109859704971313,0.06458663940429688,-0.6235456513791733,-0.3508588652308962,2.779729988889073,-0.27902382612228394,0.5839172601699829,-0.7623558044433594,-0.19668029248714447,0.2552832365036011,-0.4067452549934387
0.6750197410583496,0.02706703543663025,-0.13751566410064697,0.07512021064758301,-0.6249866188903553,-0.3537402060161168,2.7688125316620793,-0.28092750906944275,0.5850864052772522,-0.7607585787773132,-0.2511885464191437,0.10070280730724335,-0.38309112191200256
0.6950428485870361,0.045673102140426636,-0.1486046314239502,0.06659328937530518,-0.6272789038110758,-0.3592076751604558,2.758182344805362,-0.2846105098724365,0.5869438648223877,-0.7579537034034729,-0.24823129177093506,-0.017640432342886925,-0.33128806948661804
0.7150168418884277,0.07416382431983948,-0.12555617094039917,0.03420311212539673,-0.6289288871444628,-0.36555428298625775,2.7498178918021328,-0.2890685796737671,0.5882789492607117,-0.7552266120910645,-0.13549810647964478,-0.12529419362545013,-0.24694353342056274
0.7351016998291016,0.09647327661514282,-0.11190283298492432,0.005441129207611084,-0.6289330045464886,-0.37229371052019644,2.7443764099238575,-0.2941509187221527,0.5882822871208191,-0.7532591223716736,-0.027568571269512177,-0.23259854316711426,-0.16501101851463318
0.7550218105316162,0.1054455041885376,-0.10612118244171143,-0.015116512775421143,-0.6275768134311106,-0.3792242674688191,2.741667627623709,-0.2996593713760376,0.5871850252151489,-0.7519428133964539,0.06754142045974731,-0.29882052540779114,-0.0942867249250412
0.7750186920166016,0.10269075632095337,-0.0966387391090393,-0.03771078586578369,-0.625157731002638,-0.3854318768694144,2.741271249208004,-0.30485448241233826,0.5852251648902893,-0.7513822317123413,0.14877118170261383,-0.2952534854412079,-0.03121206723153591
0.7950687408447266,0.09773588180541992,-0.09065669775009155,-0.05451381206512451,-0.6218678076462244,-0.3899934115856816,2.7425257339421396,-0.3090090751647949,0.5825543403625488,-0.7517606019973755,0.18486462533473969,-0.22780627012252808,-0.002745267003774643
0.815018892288208,0.10561612248420715,-0.09898769855499268,-0.052150726318359375,-0.6187170475696966,-0.3926033948066314,2.744222910524054,-0.31167080998420715,0.5799905061721802,-0.7526435852050781,0.14545013010501862,-0.1376524120569229,0.011579066514968872
0.8350179195404053,0.13252058625221252,-0.13038742542266846,-0.036380112171173096,-0.6170474857562035,-0.3942636318249963,2.7454860383808444,-0.31329146027565,0.5786296725273132,-0.7530180811882019,0.0497555211186409,-0.1121385246515274,0.016126777976751328
0.8550188541412354,0.1602838635444641,-0.13195264339447021,-0.04414856433868408,-0.6169086150806841,-0.3959149355879538,2.7463472317474884,-0.314565509557724,0.5785163640975952,-0.7525739073753357,0.008271504193544388,-0.10172779113054276,0.0472709946334362
0.8750200271606445,0.15378305315971375,-0.10507702827453613,-0.06326073408126831,-0.6167903801349105,-0.39677131690309736,2.7481260382624018,-0.31523630023002625,0.5784199237823486,-0.7523673176765442,0.05245869979262352,-0.09543047845363617,0.07645649462938309
0.8950448036193848,0.12513741850852966,-0.06791478395462036,-0.09044867753982544,-0.6159962745481464,-0.39689400514595974,2.7508110537319483,-0.31550607085227966,0.5777719616889954,-0.7527520060539246,0.09626951068639755,-0.08349933475255966,0.08320508897304535
0.9150190353393555,0.08085036277770996,-0.02979511022567749,-0.10381364822387695,-0.614198748168312,-0.39629340328555956,2.7539850951531384,-0.31545427441596985,0.5763038992881775,-0.7538981437683105,0.137655109167099,-0.06538709253072739,0.07800637185573578
0.935025691986084,0.05412140488624573,0.014544665813446045,-0.12808668613433838,-0.6115712929069647,-0.3952846570428517,2.7573264870728997,-0.3152756094932556,0.5741546750068665,-0.7556108236312866,0.18414492905139923,-0.09805529564619064,0.04677202180027962
0.9550168514251709,0.0621224045753479,0.09509789943695068,-0.18564820289611816,-0.6067871485614654,-0.39806920236260157,2.760525983914796,-0.3184395432472229,0.5702310800552368,-0.7572534084320068,0.38874873518943787,-0.3823094666004181,0.019476268440485
0.9750189781188965,0.0014544129371643066,0.24684888124465942,-0.3500162363052368,-0.5972497682936981,-0.40159211106017123,2.7666843119679956,-0.3232164978981018,0.5623704791069031,-0.7610982656478882,0.6550211906433105,-0.25037798285484314,0.05755648761987686
0.9950258731842041,-0.19808083772659302,0.3311753273010254,-0.3326755166053772,-0.5858633412583,-0.4002117483472169,2.77256783889686,-0.32463952898979187,0.5529189705848694,-0.7673916220664978,0.4866703152656555,0.056332241743803024,-0.05670623481273651
1.015038013458252,-0.16562706232070923,0.23438584804534912,-0.19970828294754028,-0.5829762484347178,-0.39672576074141125,2.773047187997099,-0.32257792353630066,0.5505110025405884,-0.7699877619743347,-0.22275294363498688,0.23625344038009644,0.014742167666554451
1.0350546836853027,-0.05476313829421997,0.11039221286773682,-0.09398585557937622,-0.5924380817874573,-0.39276899418813427,2.7708109678611943,-0.31752079725265503,0.5583852529525757,-0.7664114832878113,-0.6595859527587891,0.26120486855506897,0.16501058638095856
1.0550289154052734,-0.06919524073600769,0.09130775928497314,-0.057409822940826416,-0.6056432534181188,-0.38907421785833046,2.768938671674998,-0.3118625283241272,0.5692910552024841,-0.7606901526451111,-0.5324267745018005,0.21627546846866608,0.18945157527923584
1.0750188827514648,-0.08138182759284973,0.12010133266448975,-0.03849625587463379,-0.6132540834544363,-0.38409109605087144,2.7710758884054454,-0.30643558502197266,0.5755316019058228,-0.7581956386566162,-0.11016387492418289,0.14937767386436462,0.26712238788604736
1.0952019691467285,-0.0744040310382843,0.052724480628967285,0.028399944305419922,-0.6145907871149832,-0.3779186366641317,2.778547855689903,-0.3014656901359558,0.5766242146492004,-0.7593569159507751,0.18526530265808105,0.03559695929288864,0.3542042672634125
1.1150169372558594,-0.06216791272163391,-0.013381898403167725,0.11407709121704102,-0.6129361242709134,-0.3718616962381858,2.7897469889304567,-0.2972071170806885,0.5752715468406677,-0.762056827545166,0.28281450271606445,-0.06993328779935837,0.424460232257843
1.1351137161254883,-0.06917527318000793,-0.03847956657409668,0.16196471452713013,-0.6103044831294082,-0.36716487292106154,2.8018868806011374,-0.29416701197624207,0.5731170177459717,-0.7648547291755676,0.330512136220932,-0.1543768048286438,0.40638411045074463
1.1550569534301758,-0.08719849586486816,-0.05942487716674805,0.1561470627784729,-0.6064492212754622,-0.3636852414771915,2.8138607970252396,-0.2922876179218292,0.569953441619873,-0.7679329514503479,0.379079133272171,-0.16923083364963531,0.37571683526039124
1.1750149726867676,-0.11367234587669373,-0.06835430860519409,0.15684664249420166,-0.6017807263993501,-0.3604229703296031,2.8245641622962716,-0.29071611166000366,0.5661112666130066,-0.7713638544082642,0.3422508239746094,-0.11072465777397156,0.27072080969810486
1.1950139999389648,-0.12627747654914856,-0.0900493860244751,0.18628942966461182,-0.5981905882680444,-0.357308108492698,2.831671608817078,-0.28902101516723633,0.5631482005119324,-0.7741647362709045,0.19349803030490875,0.02058321051299572,0.15774334967136383
1.2163677215576172,-0.09760290384292603,-0.1174740195274353,0.2263197898864746,-0.5967380753864836,-0.3541690773796362,2.8348800142343444,-0.28687283396720886,0.5619472861289978,-0.7758345603942871,0.03564850613474846,0.10704592615365982,0.037147607654333115
1.2350008487701416,-0.03916841745376587,-0.1368466019630432,0.23557764291763306,-0.5973211629225064,-0.3525760930364839,2.8341736995146243,-0.28552335500717163,0.5624294877052307,-0.7759829163551331,-0.10388370603322983,0.06973397731781006,-0.06625024229288101
1.2551088333129883,0.016739606857299805,-0.13991683721542358,0.23091953992843628,-0.5982849559447431,-0.3539590458213747,2.8308562747873682,-0.2864082157611847,0.5632261633872986,-0.7750784754753113,-0.052529435604810715,-0.023681722581386566,-0.14920450747013092
1.2750239372253418,0.048739224672317505,-0.09915614128112793,0.2015874981880188,-0.5967291876968304,-0.3572500346908289,2.8272209081557724,-0.2892635464668274,0.5619399547576904,-0.7749517560005188,0.0894644483923912,-0.08953743427991867,-0.18126817047595978
1.2950258255004883,0.05913594365119934,-0.052847206592559814,0.16907691955566406,-0.5934511339155041,-0.3611476418532091,2.82374434248058,-0.29293110966682434,0.5592253804206848,-0.7755374908447266,0.09521181881427765,-0.10227719694375992,-0.21216803789138794
1.315046787261963,0.06323370337486267,-0.03129011392593384,0.15245139598846436,-0.5905501637344994,-0.3655315906728103,2.8191669540674402,-0.29690682888031006,0.5568180680274963,-0.7757576704025269,0.03140141814947128,-0.07477393001317978,-0.23803052306175232
1.3350467681884766,0.09531262516975403,-0.016351819038391113,0.13226544857025146,-0.5891547388566797,-0.3698415166216708,2.814038318547676,-0.30052807927131653,0.5556584596633911,-0.775194525718689,-0.04875615984201431,-0.07634768635034561,-0.2128104269504547
1.355010986328125,0.12830594182014465,-0.007853209972381592,0.09659922122955322,-0.5885131832772796,-0.37409118344173853,2.809304779318279,-0.30394986271858215,0.5551249384880066,-0.7742420434951782,-0.02281266078352928,-0.07899539917707443,-0.1775713860988617
1.3750410079956055,0.1331104040145874,0.022276103496551514,0.05886650085449219,-0.5871277936756959,-0.37707527866858387,2.805846163014711,-0.3065418004989624,0.5539721250534058,-0.7740458846092224,0.03528846055269241,-0.027200736105442047,-0.15156058967113495
1.3950157165527344,0.11908462643623352,0.022508561611175537,0.05153590440750122,-0.5855297239134862,-0.3791727150239572,2.8024251655294523,-0.30849194526672363,0.5526409149169922,-0.7742226719856262,-0.009296637028455734,0.0006596576422452927,-0.17826710641384125
1.4150409698486328,0.11074787378311157,0.013132691383361816,0.03285229206085205,-0.5849340626576058,-0.3820046215487267,2.7976466513499414,-0.31080588698387146,0.5521444082260132,-0.7736512422561646,-0.08607471734285355,-0.021940993145108223,-0.21653558313846588
1.4350147247314453,0.07109960913658142,0.04011738300323486,-0.014053106307983398,-0.5849621006246338,-0.38611025720364767,2.7908540498994934,-0.3139737546443939,0.5521677732467651,-0.7723543643951416,-0.1188146099448204,-0.006723157130181789,-0.3193206489086151
1.4550988674163818,0.012893885374069214,0.08493971824645996,-0.06253665685653687,-0.5853560866777415,-0.3909526605729321,2.781260063342161,-0.3176271915435791,0.5524961948394775,-0.7706236839294434,-0.24989400804042816,0.04494323208928108,-0.41566333174705505
1.4750328063964844,-0.029641836881637573,0.11948084831237793,-0.08593565225601196,-0.5890275311099494,-0.3965600536709197,2.768069606993696,-0.3211577236652374,0.5555527210235596,-0.7669543623924255,-0.5147184729576111,0.12027456611394882,-0.45014306902885437
1.4947688579559326,-0.021033644676208496,0.12517976760864258,-0.09307801723480225,-0.5968383826283834,-0.4016982655092878,2.7530953113317143,-0.3233877122402191,0.5620302557945251,-0.7612767815589905,-0.6618312001228333,0.19094553589820862,-0.3656519055366516
1.5150647163391113,0.05103299021720886,0.13149845600128174,-0.12015283107757568,-0.6066655546733084,-0.4061319126074916,2.739846493829109,-0.32456207275390625,0.5701311826705933,-0.7547250986099243,-0.6301931142807007,0.0957026407122612,-0.2641465663909912
1.5350139141082764,0.07250311970710754,0.15045452117919922,-0.19647705554962158,-0.6143325021073004,-0.41164415204702337,2.7292901765470923,-0.32695871591567993,0.5764132142066956,-0.7488964796066284,-0.4088740646839142,-0.0046157981269061565,-0.23921267688274384
1.5547618865966797,-0.030138880014419556,0.17442560195922852,-0.26132363080978394,-0.6185969074287446,-0.41540564419137327,2.7202095486356295,-0.32877838611602783,0.579892635345459,-0.7454054951667786,-0.3621920347213745,0.18577207624912262,-0.28363877534866333
1.575016975402832,-0.12439048290252686,0.1445218324661255,-0.19214725494384766,-0.6262552322497145,-0.41641879225629047,2.70727461583587,-0.32772743701934814,0.586114764213562,-0.7409886717796326,-0.8047296404838562,0.48365622758865356,-0.3291766941547394
1.5950148105621338,-0.05246293544769287,0.03798806667327881,-0.09866702556610107,-0.645043453102825,-0.41486441387324124,2.690632795940311,-0.3220793306827545,0.601233184337616,-0.7312890887260437,-1.4727028608322144,0.6106253862380981,-0.1433798372745514
1.6151068210601807,0.009005218744277954,-0.04983174800872803,-0.043374478816986084,-0.6746580107630046,-0.41571634506913296,2.6717407409872527,-0.31537115573883057,0.6246302723884583,-0.7144074440002441,-1.7177433967590332,0.4349379539489746,-0.030915185809135437
1.6350789070129395,-0.05215683579444885,-0.010820269584655762,-0.11146247386932373,-0.7012708658250097,-0.4185323285590409,2.6562181906331634,-0.31051409244537354,0.6451891660690308,-0.6980772614479065,-1.0939570665359497,0.30361276865005493,-0.017332857474684715
1.6545157432556152,-0.16537687182426453,0.05141496658325195,-0.1683172583580017,-0.7120519626700194,-0.4176821982834664,2.6483789211914157,-0.307081013917923,0.653388500213623,-0.6919427514076233,-0.15557362139225006,0.3017776608467102,-0.08101718127727509
1.6750187873840332,-0.15716290473937988,0.037380874156951904,-0.10220557451248169,-0.7100126553118414,-0.4122938374196468,2.64712662693843,-0.3038814067840576,0.6518433690071106,-0.694806694984436,0.1662365049123764,0.3136066496372223,-0.07610993832349777
1.6950228214263916,-0.09840419888496399,-0.05177730321884155,0.014429152011871338,-0.7090084481341294,-0.40722263889776217,2.6453740995932544,-0.3006131052970886,0.6510815024375916,-0.6969395279884338,-0.17192690074443817,0.3084957003593445,-0.08896470814943314
1.7150168418884277,-0.04197683930397034,-0.13328546285629272,0.08428055047988892,-0.7146656808696743,-0.4055279360843802,2.6392666850965014,-0.29797372221946716,0.6553649306297302,-0.6940522789955139,-0.4756421744823456,0.24147804081439972,-0.09994641691446304
1.7350077629089355,0.010500848293304443,-0.15025919675827026,0.08520221710205078,-0.7236990215755399,-0.4067255897173202,2.631400673335896,-0.29645058512687683,0.662161111831665,-0.688229501247406,-0.5545459985733032,0.1734691709280014,-0.09801171720027924
1.7550148963928223,0.029959887266159058,-0.15970063209533691,0.09871643781661987,-0.7314378528293481,-0.40913127468767213,2.6235826751272846,-0.29605793952941895,0.6679403781890869,-0.6827923655509949,-0.35078856348991394,0.10048291832208633,-0.11541803181171417
1.7745378017425537,0.09393036365509033,-0.15797632932662964,0.1112249493598938,-0.7343530679955519,-0.4112433237795668,2.619599208419066,-0.2967197000980377,0.6701071262359619,-0.6803777813911438,-0.03233325853943825,-0.06325843185186386,-0.02990768663585186
1.7950530052185059,0.12899896502494812,-0.14276552200317383,0.08848267793655396,-0.7326305278012801,-0.4136863908276238,2.620640414166713,-0.2988445460796356,0.6688275337219238,-0.6807067394256592,0.19385933876037598,-0.24876020848751068,0.021284280344843864
1.8150420188903809,0.09317666292190552,-0.13552725315093994,0.06866186857223511,-0.7291801442392827,-0.41815276152448577,2.6234801498222957,-0.3028171956539154,0.6662584543228149,-0.6814700961112976,0.19832751154899597,-0.3844441771507263,0.036026958376169205
1.835026741027832,0.037204861640930176,-0.09869897365570068,0.04791557788848877,-0.7258992352025745,-0.424205998433562,2.626217568633911,-0.30783477425575256,0.6638082265853882,-0.6816130876541138,0.2002490609884262,-0.3792059123516083,0.02740287221968174
1.855015754699707,-0.013204574584960938,-0.039893388748168945,0.015564441680908203,-0.7228250762830601,-0.42828228762703524,2.6297145736527856,-0.31145668029785156,0.661505937576294,-0.6822056770324707,0.17237013578414917,-0.23546960949897766,0.08966275304555893
1.875013828277588,-0.042619407176971436,-0.031212568283081055,0.017571687698364258,-0.7218507105012687,-0.4295953343583429,2.6330500916423345,-0.31262049078941345,0.6607749462127686,-0.682381808757782,0.032037168741226196,-0.14186100661754608,0.08286265283823013
1.8950228691101074,-0.02814224362373352,-0.040235817432403564,0.019816994667053223,-0.7232003607450112,-0.43089720928623076,2.6351191219199137,-0.3131358325481415,0.6617873311042786,-0.6811633706092834,-0.09363614767789841,-0.1402430385351181,0.11898759007453918
1.9150168895721436,-0.0008685886859893799,-0.06213730573654175,-0.00982820987701416,-0.7264072636696965,-0.43266381457089176,2.63713676246324,-0.3134472072124481,0.6641881465911865,-0.6786788702011108,-0.12382447719573975,-0.1846683919429779,0.14811693131923676
1.9350147247314453,0.012271583080291748,-0.08129346370697021,-0.0034731030464172363,-0.7289906052320975,-0.4344306276175198,2.640144464677068,-0.31392261385917664,0.6661171317100525,-0.6765653491020203,0.01166670210659504,-0.20599977672100067,0.17344804108142853
1.9550199508666992,0.0352112352848053,-0.07401841878890991,0.03563237190246582,-0.7291791905294398,-0.4351940343654395,2.646046973237402,-0.3143860399723053,0.6662577390670776,-0.6762115359306335,0.11960946768522263,-0.2553454041481018,0.23156632483005524
1.9750709533691406,0.05817592144012451,-0.08838647603988647,0.03709578514099121,-0.7292125673105958,-0.436878721182066,2.652624133756608,-0.315515398979187,0.6662826538085938,-0.6756608486175537,0.07167240977287292,-0.36604270339012146,0.19983018934726715
1.9950149059295654,0.05532902479171753,-0.10468339920043945,0.004716277122497559,-0.728988205196901,-0.4419714047867949,2.65797749494004,-0.31901615858078003,0.6661153435707092,-0.6741803884506226,0.13205280900001526,-0.502544641494751,0.1648637056350708
2.0150158405303955,0.04767501354217529,-0.04430687427520752,-0.06499838829040527,-0.7268658335398638,-0.44957112247634473,2.663604509771734,-0.3247441053390503,0.664530873298645,-0.6730082035064697,0.24378390610218048,-0.6347675323486328,0.1015043780207634
2.0350546836853027,0.0064643025398254395,0.027664601802825928,-0.13725006580352783,-0.7224084401313461,-0.4598737730779023,2.6685057810658024,-0.33297187089920044,0.6611934304237366,-0.6722744703292847,0.3201623857021332,-0.6733457446098328,0.061593737453222275
2.054586887359619,-0.035922616720199585,0.1025727391242981,-0.17402362823486328,-0.7165418829567685,-0.4654517956302675,2.676194435854736,-0.3384518325328827,0.6567808985710144,-0.6738614439964294,0.470037043094635,-0.3876805603504181,0.19204778969287872
2.0750138759613037,-0.04023909568786621,0.16652607917785645,-0.1259886622428894,-0.7109655787862744,-0.46328354261077576,2.687366308430057,-0.3386213481426239,0.6525657176971436,-0.6778595447540283,0.3225817382335663,-0.1550993174314499,0.3130745589733124
2.095036029815674,0.009121835231781006,0.14119631052017212,-0.10427868366241455,-0.7116305522469882,-0.4596073885127983,2.696892211421234,-0.3359346091747284,0.6530694365501404,-0.6787108182907104,-0.031025713309645653,-0.13896037638187408,0.3488834798336029
2.115111827850342,0.06028267741203308,0.07006555795669556,-0.12065720558166504,-0.7166105258147772,-0.4579077998298042,2.7050265760035606,-0.3333387076854706,0.6568326354026794,-0.6763551235198975,-0.10284820944070816,-0.2445928007364273,0.4204454720020294
2.1345067024230957,0.05515921115875244,0.11273026466369629,-0.13720065355300903,-0.7200747086127519,-0.45782373007097155,2.714924782958806,-0.3322741389274597,0.659440815448761,-0.6743380427360535,0.15539169311523438,-0.3820047080516815,0.4006826877593994
2.1550278663635254,0.01195475459098816,0.13355153799057007,-0.1363193392753601,-0.7180761666469725,-0.4580816804559937,2.727764030449836,-0.33303019404411316,0.6579371094703674,-0.6754329204559326,0.4401558041572571,-0.4965354800224304,0.35382989048957825
2.175018787384033,-0.02075675129890442,0.10263824462890625,-0.07817840576171875,-0.7120928356385593,-0.45995957569041096,2.7411068181849854,-0.33603954315185547,0.6534194946289062,-0.6783217787742615,0.5065745115280151,-0.546978235244751,0.291057288646698
2.195021867752075,-0.05991336703300476,0.07070660591125488,-0.006904482841491699,-0.7054133391205709,-0.46397501797817664,2.752286852712696,-0.34070613980293274,0.6483485698699951,-0.6808549165725708,0.47111546993255615,-0.5781947374343872,0.17047742009162903
2.21501088142395,-0.11230099201202393,0.05301225185394287,0.02032625675201416,-0.6990893983116571,-0.47060496000449104,2.7598036298427733,-0.3470648527145386,0.6435209512710571,-0.6822219491004944,0.33618760108947754,-0.5746040940284729,0.042796406894922256
2.235013008117676,-0.16534647345542908,0.04478412866592407,0.0556907057762146,-0.6944384176804234,-0.48112508781485286,2.7610005667994093,-0.35560381412506104,0.6399540305137634,-0.6811789274215698,0.12084311991930008,-0.5516669750213623,-0.16333702206611633
2.2550578117370605,-0.15634945034980774,0.004698693752288818,0.10644125938415527,-0.6919199707600163,-0.4941308398736739,2.7569676937578445,-0.36519598960876465,0.6380167603492737,-0.6779134273529053,-0.023985300213098526,-0.47408297657966614,-0.18756264448165894
2.2750158309936523,-0.12656909227371216,-0.010028302669525146,0.1556376814842224,-0.6909126231840723,-0.5047930549359321,2.753455781853184,-0.37271377444267273,0.6372407674789429,-0.6745432615280151,0.0069297906011343,-0.3751406669616699,-0.1098671481013298
2.2951138019561768,-0.1284509003162384,0.011091351509094238,0.13639074563980103,-0.6892289560001466,-0.5120975357417074,2.7524006172409403,-0.3781561553478241,0.6359423398971558,-0.6727371215820312,0.11380071192979813,-0.2888806462287903,-0.05654497072100639
2.3150277137756348,-0.12720733880996704,0.02094876766204834,0.1170547604560852,-0.6858128765148284,-0.5159893372520925,2.7537315066338497,-0.38184109330177307,0.6333023309707642,-0.6731460094451904,0.22943417727947235,-0.18059232831001282,-0.005889467895030975
2.3350799083709717,-0.07832255959510803,-0.007552921772003174,0.15764236450195312,-0.6821488613800509,-0.5161894401698277,2.7575344993945468,-0.38311851024627686,0.6304624676704407,-0.6750831604003906,0.20016106963157654,-0.09184940904378891,0.07442589104175568
2.35509991645813,-0.03258359432220459,-0.061603426933288574,0.1919940710067749,-0.6802093284564705,-0.5152878593533381,2.7612333517952434,-0.3831116259098053,0.6289557814598083,-0.6764911413192749,0.12328066676855087,-0.05839070305228233,0.0815245658159256
2.3750147819519043,-0.01721760630607605,-0.09707945585250854,0.21340107917785645,-0.6784824427624407,-0.513891608920445,2.7646499669449196,-0.38269999623298645,0.627612292766571,-0.6779701709747314,0.17461678385734558,-0.018028808757662773,0.05816875770688057
2.3950109481811523,0.0005333125591278076,-0.08529669046401978,0.21098268032073975,-0.674897124250276,-0.5118055943954776,2.768334011284481,-0.3823845088481903,0.6248170137405396,-0.6807245016098022,0.26252225041389465,-0.0076694670133292675,0.01228770799934864
2.415010929107666,0.005985885858535767,-0.08493471145629883,0.20070314407348633,-0.6704155552381639,-0.5106605623843491,2.770511592058624,-0.38296955823898315,0.6213116645812988,-0.683597981929779,0.1920844316482544,-0.015738312155008316,-0.09669025987386703
2.4350290298461914,0.01304677128791809,-0.09273475408554077,0.19911861419677734,-0.6666663190562025,-0.5119585726077173,2.769209721075649,-0.3849950134754181,0.6183695197105408,-0.6851263046264648,0.08880056440830231,-0.022499369457364082,-0.1582026481628418
2.4550089836120605,0.034502506256103516,-0.06394225358963013,0.1854163408279419,-0.6639326518480585,-0.5138696343612719,2.7661681868407637,-0.3871331214904785,0.6162188649177551,-0.6858588457107544,0.0267233494669199,0.01746411621570587,-0.18584279716014862
2.4750137329101562,0.05194196105003357,-0.040648698806762695,0.18185019493103027,-0.662740426784623,-0.5160551323984834,2.7615243688723528,-0.38899338245391846,0.6152794361114502,-0.6856496334075928,-0.113165482878685,0.0417693667113781,-0.20014771819114685
2.4950098991394043,0.07196998596191406,-0.03400474786758423,0.16112101078033447,-0.66331314135545,-0.5197093553478108,2.754602763856583,-0.39132124185562134,0.6157308220863342,-0.6839176416397095,-0.18429851531982422,0.007107526063919067,-0.2399635761976242
2.514951705932617,0.10226544737815857,-0.030409157276153564,0.15641015768051147,-0.663959282871242,-0.5245689058021431,2.7470235279783948,-0.39444077014923096,0.6162398457527161,-0.6816633939743042,-0.16729110479354858,-0.032016705721616745,-0.24564816057682037
2.5351309776306152,0.12873932719230652,-0.02179551124572754,0.13475549221038818,-0.6640077118922858,-0.5310498799321394,2.7389703268374785,-0.398835152387619,0.6162779927253723,-0.6790669560432434,-0.161884605884552,-0.12467465549707413,-0.30369529128074646
2.554407835006714,0.1544855535030365,-0.018902242183685303,0.09428960084915161,-0.6635114967646495,-0.5403555185690196,2.7297858606625716,-0.405294269323349,0.6158871054649353,-0.6755884289741516,-0.1689046323299408,-0.24083437025547028,-0.34732818603515625
2.5750107765197754,0.17300981283187866,-0.0011745691299438477,0.06748843193054199,-0.6626827475821311,-0.5525393942950182,2.71961557114497,-0.41376298666000366,0.6152340173721313,-0.6710345149040222,-0.16862107813358307,-0.35156258940696716,-0.37547144293785095
2.59506893157959,0.17300450801849365,0.022847473621368408,0.023471057415008545,-0.6612646365829947,-0.5662871877923118,2.7098644903309377,-0.42341652512550354,0.6141154170036316,-0.6660186052322388,-0.1137419268488884,-0.41929951310157776,-0.35823360085487366
2.61500883102417,0.14366042613983154,0.08486419916152954,-0.01372826099395752,-0.6587666636580797,-0.5795152878324169,2.701484602672673,-0.43302810192108154,0.6121420860290527,-0.6616410613059998,-0.030705122277140617,-0.37885260581970215,-0.3318661153316498
2.635009765625,0.11884301900863647,0.12493443489074707,-0.0411527156829834,-0.6555665494280379,-0.5900284976335314,2.6948088430279538,-0.44104763865470886,0.6096084713935852,-0.6586763262748718,-0.012808414176106453,-0.28966253995895386,-0.3078199028968811
2.6550118923187256,0.1284312605857849,0.10992133617401123,-0.019936800003051758,-0.6533720759061518,-0.6002548044651471,2.6869697214346653,-0.4485149085521698,0.607867419719696,-0.6552340984344482,-0.16871367394924164,-0.2721681296825409,-0.3306272625923157
2.6750998497009277,0.16794893145561218,0.04374414682388306,-0.029248416423797607,-0.6530067307705488,-0.6125670644107039,2.6764797763882826,-0.45667576789855957,0.6075772643089294,-0.6498439908027649,-0.26561039686203003,-0.3413001596927643,-0.38789138197898865
2.6951327323913574,0.18477502465248108,0.019517600536346436,-0.014071345329284668,-0.6522328835500711,-0.6278801850395812,2.6640798943887294,-0.4668489694595337,0.6069624423980713,-0.6431551575660706,-0.21082502603530884,-0.4510565996170044,-0.4782046377658844
2.715099811553955,0.12355777621269226,0.007862091064453125,-0.011879444122314453,-0.6480704159643167,-0.6469827275811024,2.6495793576129167,-0.48056772351264954,0.6036491990089417,-0.6361308097839355,-0.16923315823078156,-0.5959309339523315,-0.7338306307792664
2.735348701477051,0.024765878915786743,-0.0034111738204956055,-0.022783994674682617,-0.6410801323230968,-0.6733196594140669,2.6277505574696676,-0.4997720420360565,0.5980614423751831,-0.6265385150909424,-0.4199478030204773,-0.7188934087753296,-1.0644030570983887
2.755058765411377,0.020149588584899902,-0.045192718505859375,0.022684097290039062,-0.6371675353739615,-0.7061016638571596,2.595274074210812,-0.5215533971786499,0.5949211120605469,-0.6115970611572266,-0.9596426486968994,-0.5823456645011902,-1.1284414529800415
2.7750377655029297,0.0741809606552124,-0.09970176219940186,0.13504177331924438,-0.6402331533887823,-0.7375025015976889,2.5575942533406955,-0.5392688512802124,0.5973824262619019,-0.5935683846473694,-1.1843445301055908,-0.3336268961429596,-0.9851253032684326
2.7952868938446045,0.0034317970275878906,0.011330485343933105,0.05429482460021973,-0.6411732956157153,-0.764254044497874,2.5227771225508118,-0.5545639991760254,0.5981361269950867,-0.5785257816314697,-0.7226495146751404,-0.2887861132621765,-0.9878225326538086
2.8150887489318848,-0.061279296875,0.05098646879196167,-0.021028876304626465,-0.6343570385402132,-0.7866191453034548,2.4968101004791157,-0.5702362060546875,0.5926597714424133,-0.5688453912734985,-0.3352610170841217,-0.42958998680114746,-0.9985480308532715
2.8351759910583496,-0.0371701717376709,-0.03584170341491699,0.0515599250793457,-0.6246799504655413,-0.8095427570792221,2.4748675156139672,-0.5872500538825989,0.5848376750946045,-0.5595555305480957,-0.2821556329727173,-0.5629099607467651,-0.9504170417785645
2.8627939224243164,-0.0797034502029419,-0.012824714183807373,0.10342228412628174,-0.6031106023816006,-0.8587199157288053,2.4347423154496415,-0.6234520673751831,0.5672070384025574,-0.5381299257278442,-0.21597319841384888,-0.7544309496879578,-0.9405043125152588
2.8750009536743164,-0.0797034502029419,-0.012824714183807373,0.10342228412628174,-0.6031106023816006,-0.8587199157288053,2.4347423154496415,-0.6234520673751831,0.5672070384025574,-0.5381299257278442,-0.21597319841384888,-0.7544309496879578,-0.9405043125152588
2.903669834136963,0.06600755453109741,-0.17348909378051758,0.20735865831375122,-0.5811037674801683,-0.9143803611302157,2.3976503023810487,-0.6621532440185547,0.5489468574523926,-0.510108232498169,-0.27304807305336,-0.9903218746185303,-0.8247693777084351
2.924635887145996,0.1308431625366211,-0.20840054750442505,0.19936907291412354,-0.5718935572540937,-0.9408995900843606,2.384689575382474,-0.6795034408569336,0.541225254535675,-0.49532851576805115,0.02842460200190544,-0.9529058337211609,-0.5904303193092346
2.942549705505371,0.16720396280288696,-0.17352843284606934,0.15753692388534546,-0.5609465633877466,-0.9603048094844159,2.3832732820270754,-0.6938000917434692,0.5319879651069641,-0.48541775345802307,0.49264538288116455,-0.9256137013435364,-0.3956012427806854
2.961676836013794,0.17739057540893555,-0.16412782669067383,0.15715652704238892,-0.5485768994771661,-0.9755608489691209,2.3893947936207716,-0.7065196633338928,0.5214734673500061,-0.4784303605556488,0.5404807329177856,-0.9379463791847229,-0.35983556509017944
2.983301877975464,0.16770035028457642,-0.2260199785232544,0.214758038520813,-0.5384712683369672,-0.9934008579132678,2.39087393306216,-0.7193208932876587,0.5128241777420044,-0.4686032235622406,0.11416222155094147,-0.9088771343231201,-0.411883682012558
3.002213954925537,0.13177114725112915,-0.2204047441482544,0.2113991379737854,-0.5312351135140333,-1.0125473712396449,2.3857656955488156,-0.7312890291213989,0.5065985918045044,-0.4566994309425354,-0.02716558426618576,-0.738528311252594,-0.4167635142803192
3.023195743560791,0.039257049560546875,-0.15784871578216553,0.1709505319595337,-0.5234186186088925,-1.027915026260196,2.381549196948812,-0.7415886521339417,0.4998439848423004,-0.4474397599697113,0.13050325214862823,-0.628890335559845,-0.44938862323760986
3.04323673248291,-0.028894364833831787,-0.1254728138446808,0.06306391954421997,-0.5137771069689077,-1.0422441792894843,2.378174616602266,-0.7520505785942078,0.49147021770477295,-0.43917781114578247,0.07865806668996811,-0.6492839455604553,-0.5382095575332642
3.054236888885498,-0.028894364833831787,-0.1254728138446808,0.06306391954421997,-0.5137771069689077,-1.0422441792894843,2.378174616602266,-0.7520505785942078,0.49147021770477295,-0.43917781114578247,0.07865806668996811,-0.6492839455604553,-0.5382095575332642
3.082808017730713,-0.022829949855804443,-0.16416698694229126,0.10071897506713867,-0.49619989456640173,-1.0809439114750778,2.353239567717764,-0.7759829759597778,0.47608718276023865,-0.4137530028820038,-0.6275993585586548,-0.6580542325973511,-0.7339497208595276
3.101749897003174,0.03978484869003296,-0.14739415049552917,0.08298730850219727,-0.48925107216362335,-1.1033298592925689,2.332407046990017,-0.7879843711853027,0.4699649512767792,-0.39776089787483215,-0.6032223701477051,-0.5937570929527283,-0.7258841395378113
3.122943878173828,0.010055065155029297,-0.08440190553665161,0.0554564893245697,-0.4811908434842326,-1.120653045678533,2.317273697696924,-0.7981410622596741,0.4628351330757141,-0.3856871426105499,-0.25231167674064636,-0.4472854733467102,-0.5645331144332886
3.1428418159484863,-0.006094872951507568,-0.10040169954299927,0.06939896941184998,-0.47317851531580857,-1.1322761032547033,2.3099746574971167,-0.8059015870094299,0.45571786165237427,-0.3779469132423401,-0.0454913005232811,-0.400860071182251,-0.4562281668186188
3.1620168685913086,-0.0281984806060791,-0.06650614738464355,0.07285261154174805,-0.4651145739142629,-1.1401459165045904,2.3071594055709426,-0.8121641278266907,0.44852522015571594,-0.37311506271362305,0.1435140073299408,-0.2753889858722687,-0.36826199293136597
3.18178391456604,-0.06678080558776855,-0.08935171365737915,0.07350742816925049,-0.4568550151340304,-1.1451286094491133,2.306885298782219,-0.8173592686653137,0.44112783670425415,-0.370580792427063,0.15815101563930511,-0.22993209958076477,-0.4133847653865814
3.201610803604126,-0.07702553272247314,-0.09910213947296143,0.07237181067466736,-0.4487100573969804,-1.1505302854306876,2.3040002462722966,-0.8226021528244019,0.43380364775657654,-0.3676140606403351,-0.08429156243801117,-0.1682264804840088,-0.44341716170310974
3.222559928894043,-0.10918515920639038,-0.11635875701904297,0.10720464587211609,-0.442030242333102,-1.1562022610797582,2.2961749875721393,-0.827307939529419,0.42777544260025024,-0.3641015887260437,-0.2229379117488861,-0.005163432564586401,-0.4515793025493622
3.242532730102539,-0.16013109683990479,-0.08370864391326904,0.10095763206481934,-0.435982477392179,-1.1542015098665082,2.2916815916764466,-0.8289284110069275,0.42230117321014404,-0.36679622530937195,0.11252570152282715,0.3783402740955353,-0.28151872754096985
3.2622647285461426,-0.1763734221458435,-0.026683390140533447,0.11489078402519226,-0.43011208133603235,-1.1450812278805202,2.293203562083233,-0.827792227268219,0.41697266697883606,-0.3753582537174225,0.17512917518615723,0.41892728209495544,-0.19735094904899597
3.281237840652466,-0.12078595161437988,-0.06676843762397766,0.11031866073608398,-0.42588597302658454,-1.1384870180694913,2.293757738614905,-0.8268918395042419,0.4131277799606323,-0.3815436363220215,0.08869563788175583,0.20963852107524872,-0.1776735633611679
3.302374839782715,-0.1998632550239563,-0.05331653356552124,0.13858523964881897,-0.4206879716172132,-1.1349705510978507,2.296470297201627,-0.8274804949760437,0.40838852524757385,-0.3853503167629242,0.41848549246788025,0.030373966321349144,-0.1860664188861847
3.3201518058776855,-0.25782686471939087,-0.04596680402755737,0.14108780026435852,-0.41226749148837566,-1.13166544813903,2.307296366304977,-0.8292855620384216,0.4006878733634949,-0.38953137397766113,0.790515661239624,-0.12560667097568512,-0.17901074886322021
3.3411917686462402,-0.25932735204696655,-0.027445107698440552,0.1487310528755188,-0.4018681587425454,-1.1300860959305794,2.320442707999757,-0.8323932886123657,0.39113834500312805,-0.3925969898700714,0.6574410796165466,-0.23203624784946442,-0.267849862575531
3.362116813659668,-0.214419424533844,-0.0353236198425293,0.1796388030052185,-0.39221072991953737,-1.1326374994162296,2.3268468171461647,-0.8367739319801331,0.3822322189807892,-0.3920563757419586,0.31719455122947693,-0.26048707962036133,-0.3345191478729248
3.3819468021392822,-0.2226908802986145,0.001583486795425415,0.13140326738357544,-0.38365989181738347,-1.1374312309724268,2.328589799409796,-0.8415791392326355,0.3743167817592621,-0.38939887285232544,0.23315468430519104,-0.28643879294395447,-0.3744341731071472
3.4018139839172363,-0.28681039810180664,0.06753772497177124,0.0472312867641449,-0.37465253855133845,-1.1427551325417165,2.330605297203319,-0.8466734886169434,0.36594918370246887,-0.3862967789173126,0.299835205078125,-0.3099839687347412,-0.3513197898864746
3.4218008518218994,-0.3088188171386719,0.09048697352409363,0.014193356037139893,-0.36614069039850755,-1.1479400186377322,2.333615320647536,-0.8514748215675354,0.35801461338996887,-0.38316610455513,0.2284684032201767,-0.31665271520614624,-0.3180355727672577
3.4408438205718994,-0.3131042718887329,0.09661895036697388,0.07083272933959961,-0.35950007565975883,-1.154071122576083,2.3335784882403057,-0.8559631109237671,0.35180631279945374,-0.3788923919200897,0.04233428090810776,-0.2931152582168579,-0.2984170615673065
3.4597458839416504,-0.3100764751434326,0.08877545595169067,0.05122050642967224,-0.35415925307871093,-1.1605342421801452,2.3314058539462446,-0.8601047992706299,0.34680190682411194,-0.37409642338752747,-0.03060990199446678,-0.2764776647090912,-0.29515379667282104
3.482330799102783,-0.2995172142982483,0.07954317331314087,0.03869900107383728,-0.3494137782927951,-1.1675428466508835,2.3267152090280288,-0.8642095327377319,0.34234705567359924,-0.3687008023262024,-0.20561836659908295,-0.267190545797348,-0.3190532922744751
3.501356840133667,-0.2412903904914856,0.05340296030044556,0.04565221071243286,-0.34587774716984154,-1.1753996552843295,2.318830454752346,-0.8681915402412415,0.33902257680892944,-0.36236363649368286,-0.30158448219299316,-0.25063106417655945,-0.28800058364868164
3.521589756011963,-0.19345611333847046,0.06047293543815613,0.02807176113128662,-0.3429381402300884,-1.1829059258696897,2.311694738490228,-0.8718058466911316,0.33625558018684387,-0.3562120199203491,-0.1720273643732071,-0.26905909180641174,-0.24198472499847412
3.5409858226776123,-0.1700512170791626,0.06094580888748169,-0.018049269914627075,-0.3397968534570127,-1.1898134932248905,2.3082814963410607,-0.8752217888832092,0.3332955539226532,-0.35057252645492554,-0.0322052426636219,-0.30745163559913635,-0.1718030422925949
3.5606160163879395,-0.2037597894668579,0.05738675594329834,-0.04512310028076172,-0.3365496254211503,-1.196536156411056,2.306606567245734,-0.8785614371299744,0.33023226261138916,-0.3450746536254883,0.0017211795784533024,-0.2959016263484955,-0.18235202133655548
3.5813779830932617,-0.2079601287841797,0.09048518538475037,-0.07577383518218994,-0.33367134537781185,-1.2021412856253522,2.304836793254981,-0.8813648819923401,0.32751408219337463,-0.34048596024513245,-0.08829192072153091,-0.2021598517894745,-0.14746929705142975
3.600301742553711,-0.20809966325759888,0.07493147253990173,-0.08645957708358765,-0.33212672509681634,-1.2066920100600727,2.300873294323525,-0.8833767771720886,0.32605427503585815,-0.3366513252258301,-0.14533112943172455,-0.12845909595489502,-0.11941692233085632
3.620267868041992,-0.20753294229507446,0.07536560297012329,-0.15254291892051697,-0.3314093018919994,-1.20945858912821,2.298251522808276,-0.884523332118988,0.3253759741783142,-0.33428868651390076,-0.07760865241289139,-0.05822381004691124,-0.05120722949504852
3.640413761138916,-0.24809026718139648,0.06889349222183228,-0.1510646641254425,-0.3311859015659957,-1.210627909720895,2.296376498136056,-0.884981632232666,0.32516470551490784,-0.3332797884941101,-0.10191287845373154,-0.004120716359466314,-0.02315094880759716
3.659571886062622,-0.25114142894744873,0.07621058821678162,-0.16307300329208374,-0.33190353099760156,-1.2108277395769316,2.2944851012713805,-0.8848296999931335,0.32584327459335327,-0.3330206871032715,-0.10475633293390274,0.044604476541280746,0.02358352392911911
3.6812338829040527,-0.2551136612892151,0.07252782583236694,-0.1458318829536438,-0.33350748950383824,-1.210223624455537,2.2928520259672496,-0.8841381072998047,0.32735925912857056,-0.3333703279495239,-0.09174209088087082,0.06652247160673141,0.0695057287812233
3.698171854019165,-0.25510555505752563,0.06813567876815796,-0.14778339862823486,-0.3356858624827602,-1.208778501419515,2.2924345585581296,-0.8829864859580994,0.32941684126853943,-0.33439433574676514,-0.005797336809337139,0.0927254855632782,0.12399636209011078
3.720897912979126,-0.24295943975448608,0.07580476999282837,-0.16703087091445923,-0.3378263289280557,-1.2056116572321194,2.2948420741076268,-0.8812624216079712,0.3314370810985565,-0.336936354637146,0.17864292860031128,0.1564946174621582,0.1738133579492569
3.7399978637695312,-0.23997312784194946,0.0942234992980957,-0.1833682656288147,-0.33963679490113147,-1.1996552529603346,2.301747494696811,-0.8786792755126953,0.3331446647644043,-0.3419612944126129,0.3714613914489746,0.22064164280891418,0.24291174113750458
3.758760929107666,-0.24294161796569824,0.09473967552185059,-0.20281362533569336,-0.3420519311109168,-1.191075338351631,2.3122566068039965,-0.874963104724884,0.3354208469390869,-0.34918835759162903,0.4336607754230499,0.2983870208263397,0.35479938983917236
3.7808499336242676,-0.2705591320991516,0.09677955508232117,-0.1897047460079193,-0.3469365754696554,-1.180340068654953,2.322652304448705,-0.8696386218070984,0.34001851081848145,-0.3579331338405609,0.2486836463212967,0.43239232897758484,0.44799426198005676
3.7999267578125,-0.3072730302810669,0.09566983580589294,-0.15631428360939026,-0.35492675112633476,-1.1685951247019788,2.3284129220530705,-0.8628471493721008,0.34752169251441956,-0.3670468330383301,-0.06601297855377197,0.5392931699752808,0.503067672252655
3.820497989654541,-0.32406604290008545,0.08085516095161438,-0.15003558993339539,-0.3666347510642989,-1.1570474122589773,2.3295858648655376,-0.8547670245170593,0.35847586393356323,-0.37532442808151245,-0.2501465976238251,0.5604351758956909,0.6326504349708557
3.839735984802246,-0.3520684838294983,0.0927736759185791,-0.13608497381210327,-0.38130398049023523,-1.1460781382921863,2.3304812666771904,-0.8457159996032715,0.3721311092376709,-0.38246968388557434,-0.2519652545452118,0.5100023746490479,0.744111955165863
3.859515905380249,-0.3786391019821167,0.08818745613098145,-0.08238288760185242,-0.3974273625921643,-1.1355240871001198,2.333420157088076,-0.8360825181007385,0.38704749941825867,-0.3887932002544403,-0.18197287619113922,0.4338141083717346,0.8279179334640503
3.8822758197784424,-0.39753127098083496,0.0581207275390625,-0.05888223648071289,-0.4136922204210951,-1.1257158317682712,2.3379341902564073,-0.8264372944831848,0.4019928276538849,-0.3942122161388397,-0.14087486267089844,0.380288302898407,0.8163818120956421
3.9002928733825684,-0.3983069658279419,0.042859166860580444,-0.031021058559417725,-0.42921345402520555,-1.116173622695606,2.3426795272397536,-0.8169335722923279,0.41615572571754456,-0.3992919921875,-0.15064162015914917,0.3891485631465912,0.7648616433143616
3.920747756958008,-0.37066012620925903,0.03846272826194763,-0.027649760246276855,-0.4438646230304476,-1.1071980829374406,2.3463594513709327,-0.8077762126922607,0.42943280935287476,-0.40383824706077576,-0.1993233859539032,0.35413622856140137,0.702395498752594
3.9386448860168457,-0.32152730226516724,0.04495507478713989,-0.05131256580352783,-0.4580638110409061,-1.0994112895989034,2.349094449342353,-0.7990935444831848,0.4422123432159424,-0.40730562806129456,-0.20391112565994263,0.2939966320991516,0.6842600107192993
3.959284782409668,-0.30620092153549194,0.04670000076293945,-0.0342545211315155,-0.47195394426163373,-1.092818452777181,2.3528013645184207,-0.7908602356910706,0.45462748408317566,-0.4096998870372772,-0.12849079072475433,0.1924956738948822,0.7208390235900879
3.977142810821533,-0.2602357268333435,0.06450873613357544,-0.0194128155708313,-0.4865344047372808,-1.0872047902090938,2.359112105851158,-0.7825957536697388,0.46756526827812195,-0.4110070765018463,-0.06011507287621498,0.08062035590410233,0.8309993147850037
3.9949517250061035,-0.22750121355056763,0.06010019779205322,0.0009622275829315186,-0.5010546855738939,-1.082718875140162,2.36838916312407,-0.7746655344963074,0.4803508520126343,-0.41128629446029663,0.12406983226537704,-0.06768965721130371,0.8263121843338013
4.014214992523193,-0.2001475691795349,0.09297746419906616,0.007247209548950195,-0.5134028980505934,-1.0782863796532969,2.381953505663384,-0.7675496339797974,0.4911442697048187,-0.4118798077106476,0.3263393044471741,-0.13627324998378754,0.8260478377342224
4.034605979919434,-0.1498246192932129,0.0461505651473999,-0.0003326535224914551,-0.5243826595867387,-1.0725165742968599,2.398994738293128,-0.7603774666786194,0.5006787180900574,-0.41369926929473877,0.43986883759498596,-0.132673978805542,0.8404544591903687
4.054944038391113,-0.1173708438873291,0.03968226909637451,0.001977205276489258,-0.5346354050193048,-1.0659519813951843,2.4169891998222144,-0.7531125545501709,0.5095273852348328,-0.41617703437805176,0.41596484184265137,-0.11304213851690292,0.8140075206756592
4.07494592666626,-0.08042985200881958,-0.0008855462074279785,-0.005933165550231934,-0.5447856613543822,-1.0593573376394747,2.433590652080796,-0.7458031177520752,0.5182347893714905,-0.41858160495758057,0.32816728949546814,-0.06670677661895752,0.7631576061248779
4.098642826080322,-0.04083210229873657,-0.027012526988983154,0.018291354179382324,-0.5550276031546463,-1.0530819766645438,2.447122821300839,-0.7385106086730957,0.5269667506217957,-0.42060455679893494,0.16218911111354828,-0.004724987782537937,0.689685583114624
4.115003824234009,-0.01159137487411499,-0.051186203956604004,0.04121136665344238,-0.565642053883849,-1.0472890566507538,2.4561593734438283,-0.7311760187149048,0.5359579920768738,-0.4220554530620575,-0.03864384442567825,0.10417131334543228,0.6224783062934875
4.13836669921875,0.011359810829162598,-0.05803370475769043,0.05775797367095947,-0.5770840542767308,-1.0420438689485847,2.460767374584408,-0.7236095666885376,0.5455825328826904,-0.4227634072303772,-0.16481231153011322,0.1579483449459076,0.5835748910903931
4.156304836273193,0.03914886713027954,-0.06266927719116211,0.03694486618041992,-0.5884109058216358,-1.0364670710178794,2.464761425343658,-0.7158762216567993,0.5550398826599121,-0.4236178398132324,-0.1267216056585312,0.17805182933807373,0.564864993095398
4.174970865249634,0.04327672719955444,-0.06177562475204468,0.05340421199798584,-0.5993922057834004,-1.0304056031407731,2.469021037659338,-0.7080259323120117,0.5641407370567322,-0.42478787899017334,-0.13776031136512756,0.19590601325035095,0.5642325282096863
4.196374893188477,0.052695631980895996,-0.08756303787231445,0.0811956524848938,-0.6106347554796202,-1.0241617765992033,2.4727947757292057,-0.6998972296714783,0.573387622833252,-0.4258764386177063,-0.18868333101272583,0.21419332921504974,0.5501052141189575
4.218465805053711,0.07837355136871338,-0.08038532733917236,0.07844644784927368,-0.6220340216006146,-1.0183645685223093,2.475095785217669,-0.6918074488639832,0.5826894044876099,-0.4264689087867737,-0.25006380677223206,0.23892468214035034,0.5289173126220703
4.23832893371582,0.0991588830947876,-0.0715896487236023,0.07123538851737976,-0.6339430916323923,-1.0128143813444788,2.4763264522252584,-0.6834941506385803,0.592326283454895,-0.4265972971916199,-0.27057749032974243,0.23789794743061066,0.5489196181297302
4.2591776847839355,0.12538504600524902,-0.08209723234176636,0.0277290940284729,-0.645977699610084,-1.0068984245681722,2.478935854851696,-0.6748846173286438,0.6019794344902039,-0.4267922341823578,-0.1826333850622177,0.20386585593223572,0.5877196788787842
4.279009819030762,0.14304715394973755,-0.08752107620239258,0.01848912239074707,-0.6573479576144214,-0.998781142483352,2.4848885594509422,-0.6655996441841125,0.6110196113586426,-0.4285232722759247,-0.0216359943151474,0.2620807886123657,0.6299313306808472
4.298099994659424,0.13843655586242676,-0.10491061210632324,0.04595214128494263,-0.6682976064894447,-0.9870404919488098,2.493980728012665,-0.6549009084701538,0.6196507215499878,-0.4325945973396301,-0.007864721119403839,0.3460470736026764,0.6823432445526123
4.31795597076416,0.15952879190444946,-0.14085978269577026,0.04900309443473816,-0.6801531921567219,-0.9734711971096668,2.503640432785973,-0.6428508758544922,0.6289121508598328,-0.43727821111679077,-0.03168252855539322,0.41920462250709534,0.7207305431365967
4.337186813354492,0.160577654838562,-0.14045488834381104,0.06441324949264526,-0.693204436275948,-0.9582315612771257,2.513226771950355,-0.6293429732322693,0.6390053033828735,-0.442266583442688,-0.12288983911275864,0.48081427812576294,0.7594078779220581
4.35780668258667,0.1462116241455078,-0.15499520301818848,0.053874820470809937,-0.708998120010448,-0.9452662852586379,2.518282784752492,-0.6152973175048828,0.6510736346244812,-0.44442352652549744,-0.5203879475593567,0.49575379490852356,0.7558659315109253
4.3782408237457275,0.13077908754348755,-0.1925632357597351,0.05445057153701782,-0.7289328226043931,-0.9389043248866894,2.5120841720740263,-0.60186368227005,0.6660740375518799,-0.44057419896125793,-1.0551916360855103,0.5578691363334656,0.5942704677581787
4.397863864898682,0.10615003108978271,-0.18758851289749146,0.09404987096786499,-0.751897828702518,-0.9391923951019151,2.494706073894179,-0.5894874930381775,0.683026134967804,-0.4312538504600525,-1.2464354038238525,0.5862378478050232,0.504646897315979
4.418017864227295,0.16975617408752441,-0.19109642505645752,0.057905733585357666,-0.7729965537456193,-0.9382639800469572,2.4792537694795804,-0.5773336887359619,0.6982833743095398,-0.4231858551502228,-0.8251014947891235,0.5449260473251343,0.561608076095581
4.437975883483887,0.17358261346817017,-0.14884042739868164,0.004036307334899902,-0.7880658807993148,-0.9296131579420184,2.477588344935504,-0.5651537179946899,0.7089906334877014,-0.4218219816684723,-0.14723993837833405,0.45115989446640015,0.5682152509689331
4.457777976989746,0.156979501247406,-0.14862799644470215,0.0204085111618042,-0.7961058129735097,-0.9114334765724521,2.490787251779765,-0.5528688430786133,0.7146375775337219,-0.4285200536251068,0.315719872713089,0.4274475574493408,0.642629086971283
4.4782538414001465,0.14442181587219238,-0.16821801662445068,0.09103333950042725,-0.8015055339730586,-0.8890686507641141,2.509452025008051,-0.5401433110237122,0.7184041738510132,-0.43833860754966736,0.317754864692688,0.46282923221588135,0.5856000781059265
4.497694969177246,0.15389424562454224,-0.1793949007987976,0.09329059720039368,-0.8075453160274177,-0.8696219450928578,2.5237350372582887,-0.5281923413276672,0.7225924730300903,-0.4459517002105713,0.02851652167737484,0.45558518171310425,0.5060782432556152
4.518593788146973,0.133556067943573,-0.20281535387039185,0.10566753149032593,-0.8158342884677744,-0.8560697617976776,2.529555119460219,-0.5175588726997375,0.7282975316047668,-0.4491276144981384,-0.21797609329223633,0.4834388196468353,0.403278648853302
4.536904811859131,0.1251242756843567,-0.19589298963546753,0.10341674089431763,-0.8248812581521191,-0.8443789979254542,2.5319037693198028,-0.5073264241218567,0.7344672083854675,-0.45075252652168274,-0.2140774130821228,0.4990920126438141,0.37700608372688293
4.558356761932373,0.0964801013469696,-0.1690499186515808,0.08164680004119873,-0.8323496164423558,-0.8324938903403705,2.5353549736986145,-0.4978625774383545,0.7395150065422058,-0.45304569602012634,-0.11559952050447464,0.43871966004371643,0.3364645838737488
4.577316761016846,0.08921879529953003,-0.14074581861495972,0.08466836810112,-0.8378077267804913,-0.8213213506828564,2.5396933266231745,-0.48980775475502014,0.7431780695915222,-0.45582306385040283,-0.037939563393592834,0.3676534593105316,0.26513031125068665
4.598270893096924,0.0960337221622467,-0.12721949815750122,0.0859370231628418,-0.8417512213759374,-0.8109383626074175,2.54413545190899,-0.4829203486442566,0.745810866355896,-0.4588617980480194,-0.009826753288507462,0.34467294812202454,0.21833287179470062
4.617161750793457,0.10026755928993225,-0.11272865533828735,0.08162391185760498,-0.8449253287685277,-0.8021384676665806,2.5475554669112688,-0.47715964913368225,0.7479215264320374,-0.4614456295967102,-0.06770990788936615,0.2863844633102417,0.1698925793170929
4.637388706207275,0.10778728127479553,-0.09512430429458618,0.08491247892379761,-0.8479252759997044,-0.7968989450323017,2.5479722755648915,-0.4731285274028778,0.749909520149231,-0.46236908435821533,-0.0773225650191307,0.22958293557167053,0.09804492443799973
4.658742904663086,0.12119889259338379,-0.08212363719940186,0.11001157760620117,-0.8499108370930845,-0.7913839494703281,2.5490655901806867,-0.46951133012771606,0.7512215375900269,-0.4639239013195038,-0.022068705409765244,0.25164926052093506,0.06664089858531952
4.6774749755859375,0.08427444100379944,-0.008064985275268555,0.11291149258613586,-0.8512872198361109,-0.7865318676842294,2.5493278472841716,-0.46652236580848694,0.752129316329956,-0.4654657542705536,-0.0791141465306282,0.1863349825143814,0.04068679362535477
4.698237895965576,0.12323448061943054,-0.03630661964416504,0.07952052354812622,-0.8523493992759953,-0.7854283603519475,2.547721989569421,-0.46544337272644043,0.7528288960456848,-0.46541526913642883,-0.05405959486961365,0.06757734715938568,-0.023450052365660667
4.716880798339844,0.11923050880432129,-0.011057853698730469,0.09104692935943604,-0.8527504842256322,-0.7861040643813333,2.5456535927417883,-0.4655440151691437,0.7530928254127502,-0.46488723158836365,-0.08576444536447525,0.02471732348203659,-0.03796079009771347
4.7378458976745605,0.14262259006500244,-0.01822274923324585,0.08151474595069885,-0.8543418647589167,-0.7895839178638555,2.541257851744113,-0.46630731225013733,0.7541388869285583,-0.46241986751556396,-0.24514159560203552,-0.040990136563777924,-0.05604572966694832
4.756842851638794,0.1691865622997284,-0.03124171495437622,0.061187565326690674,-0.8577224468565214,-0.7971225469796426,2.533654877398899,-0.4679536521434784,0.7563546299934387,-0.45710739493370056,-0.3278360664844513,-0.14825907349586487,-0.05788853392004967
4.777962684631348,0.19097715616226196,-0.016048550605773926,0.030574709177017212,-0.8609544419059286,-0.8065106008088957,2.5263371746005987,-0.47045716643333435,0.7584649324417114,-0.45100006461143494,-0.22134986519813538,-0.2369282990694046,-0.0355573445558548
4.796694755554199,0.2054298222064972,0.0004181861877441406,0.025167763233184814,-0.8625911762301357,-0.8150549650742062,2.522325678527659,-0.4733894467353821,0.7595306038856506,-0.4461119771003723,-0.06346490234136581,-0.3051242232322693,-0.025126487016677856
4.817490816116333,0.18429315090179443,0.008907735347747803,-0.005612611770629883,-0.8619962098795725,-0.8212704315009103,2.522495131837328,-0.47648370265960693,0.7591434717178345,-0.44346874952316284,0.11947399377822876,-0.3228098452091217,-0.01307055912911892
4.837608814239502,0.16572219133377075,0.043566763401031494,-0.028934836387634277,-0.8599962339770887,-0.8243706286162924,2.5263232144109407,-0.47896987199783325,0.757840096950531,-0.44301947951316833,0.19145892560482025,-0.26534831523895264,0.024741919711232185
4.857458829879761,0.13611003756523132,0.07649892568588257,-0.046498775482177734,-0.8581449901016839,-0.8246075822501299,2.5315828747168463,-0.4801042377948761,0.7566309571266174,-0.4438576400279999,0.18176570534706116,-0.15506993234157562,0.07701269537210464
4.877455711364746,0.10162979364395142,0.14890432357788086,-0.09588119387626648,-0.857394665086841,-0.8213501130618963,2.5381184032759228,-0.4790711998939514,0.7561401724815369,-0.44580575823783875,0.19186079502105713,-0.016479382291436195,0.15160532295703888
4.8972108364105225,0.08229410648345947,0.18352413177490234,-0.11482495069503784,-0.8573285017857354,-0.814408131867862,2.5463057468331907,-0.47600141167640686,0.7560968995094299,-0.44915512204170227,0.19942115247249603,0.07970849424600601,0.21120263636112213
4.917243957519531,0.0699186623096466,0.1479203701019287,-0.10210925340652466,-0.8579425762668749,-0.8054449340164381,2.5552408715901205,-0.471621572971344,0.7564986348152161,-0.45308178663253784,0.19367416203022003,0.1452871561050415,0.2458612471818924
4.937767028808594,0.04996559023857117,0.10379117727279663,-0.07106846570968628,-0.8587608843984179,-0.7938052532440026,2.566072496147134,-0.4658745229244232,0.7570335268974304,-0.4581063389778137,0.26315993070602417,0.1987694501876831,0.3087930679321289
4.957159996032715,0.03589692711830139,0.06309056282043457,-0.06065794825553894,-0.8588624007321747,-0.780424021847799,2.5783324196607995,-0.4596487283706665,0.7570998668670654,-0.46424436569213867,0.28830522298812866,0.21761025488376617,0.2605249285697937
4.9791059494018555,0.02865484356880188,-0.01679915189743042,-0.016693055629730225,-0.8583873720704729,-0.7687246044310335,2.587986712060556,-0.45443612337112427,0.7567894458770752,-0.4698486626148224,0.18537718057632446,0.22387801110744476,0.1539996713399887
4.9964869022369385,0.033165961503982544,-0.05452990531921387,0.01252010464668274,-0.8581940357404668,-0.7604772554717498,2.5931864880423476,-0.45064643025398254,0.7566630244255066,-0.47368642687797546,0.07774515450000763,0.2014746069908142,0.08502943813800812
5.019925832748413,0.04620993137359619,-0.05657339096069336,0.03574639558792114,-0.8584023598320608,-0.7548846829796559,2.595973245920769,-0.4478822946548462,0.7567992210388184,-0.47608450055122375,0.055345021188259125,0.14018772542476654,0.06899887323379517
5.036985874176025,0.05691337585449219,-0.062255918979644775,0.026029229164123535,-0.8578985240507597,-0.7500378629985226,2.5997853132026147,-0.4458293914794922,0.7564697861671448,-0.47852861881256104,0.1911836564540863,0.058921899646520615,0.08022648096084595
5.054990768432617,0.0624566376209259,-0.03757596015930176,0.01996380090713501,-0.8543496738413651,-0.7430593422041573,2.6082112984078836,-0.4442926347255707,0.754144012928009,-0.4836021065711975,0.4374988079071045,0.010791032575070858,0.0867818221449852
5.076035976409912,0.06157028675079346,-0.021401286125183105,0.033914148807525635,-0.8483287540758476,-0.7342616595946987,2.619960097817154,-0.44305530190467834,0.7501763701438904,-0.49085381627082825,0.494441419839859,-0.027855873107910156,0.07159446179866791
5.095265865325928,0.06450280547142029,-0.024266958236694336,0.03922539949417114,-0.8431013983522296,-0.7280176253683323,2.6294790043373113,-0.4425851106643677,0.7467095851898193,-0.49653130769729614,0.2842101454734802,-0.03543247655034065,0.049034327268600464
5.117159843444824,0.046368956565856934,-0.027176082134246826,0.05237466096878052,-0.8415120056898546,-0.7262356491389563,2.6324314855153195,-0.4424871504306793,0.7456514835357666,-0.4982059597969055,-0.00457538478076458,-0.015170437283813953,-0.01848011463880539
5.135751724243164,0.047430336475372314,-0.0177232027053833,0.031133174896240234,-0.8429671657392578,-0.727887699288923,2.630061468727006,-0.4425871968269348,0.7466202974319458,-0.49666357040405273,-0.15359662473201752,0.02649800106883049,0.00687604583799839
5.156730890274048,0.0639352798461914,-0.01194298267364502,0.006624996662139893,-0.8450382288998188,-0.727522803511953,2.629030474665318,-0.4413766860961914,0.7479965090751648,-0.4956691861152649,-0.055082835257053375,0.09123678505420685,0.10147152841091156
5.175036907196045,0.055331021547317505,-0.008946418762207031,-0.012851476669311523,-0.8468014379163047,-0.7220959318295164,2.6327506428127063,-0.4378078877925873,0.7491655945777893,-0.4970667064189911,0.09770624339580536,0.17732426524162292,0.17720285058021545
5.196525812149048,0.014178812503814697,-0.05243176221847534,-0.028603971004486084,-0.8462223942891207,-0.7122072726857601,2.6403002039023953,-0.4331546723842621,0.7487819194793701,-0.5016999840736389,0.29858341813087463,0.24531850218772888,0.14717642962932587
5.215818881988525,-0.043370723724365234,-0.05160319805145264,-0.04091775417327881,-0.8417147712362621,-0.699392031696997,2.6499851095101765,-0.42885828018188477,0.7457865476608276,-0.5097872018814087,0.4394383430480957,0.322444349527359,0.045260053128004074
5.236663818359375,-0.11865320801734924,-0.03791642189025879,-0.07019495964050293,-0.8351201251148515,-0.6872830758353101,2.6568697895284332,-0.42576515674591064,0.7413771152496338,-0.5187332034111023,0.30002009868621826,0.38838934898376465,-0.12723426520824432
5.255265712738037,-0.15705206990242004,-0.014705955982208252,-0.07437849044799805,-0.8301063225110208,-0.6802326340268156,2.654499574848944,-0.42442989349365234,0.738003134727478,-0.5246052742004395,0.018751416355371475,0.5054648518562317,-0.30379945039749146
5.2753119468688965,-0.15631136298179626,0.005520641803741455,-0.08344650268554688,-0.8284216115022548,-0.6771975358080449,2.643293234330677,-0.4236142337322235,0.736865222454071,-0.5268592834472656,-0.3585948646068573,0.6197112202644348,-0.3929946720600128
5.29499888420105,-0.11029645800590515,0.009725749492645264,-0.08320224285125732,-0.8307360841604177,-0.6783809806002997,2.6243090589069635,-0.42316606640815735,0.7384279370307922,-0.5250282883644104,-0.5519943237304688,0.6546233296394348,-0.45683810114860535
5.316083908081055,-0.05286610126495361,0.020794332027435303,-0.12314486503601074,-0.8326754066678295,-0.6799169136126727,2.6044875606925677,-0.4230708181858063,0.7397342920303345,-0.523263156414032,-0.4023350775241852,0.6559211015701294,-0.4457736611366272
5.336205005645752,0.007796049118041992,0.04032754898071289,-0.13676655292510986,-0.8320830562629183,-0.6784752556037985,2.5892320729993856,-0.4225910007953644,0.7393355965614319,-0.5242136716842651,-0.2085404098033905,0.6066478490829468,-0.40704038739204407
5.355052947998047,0.05338543653488159,0.009009122848510742,-0.12172245979309082,-0.8290171931018148,-0.6756832888495076,2.5773377066134193,-0.4225413501262665,0.7372677326202393,-0.5271575450897217,-0.07268242537975311,0.5564131736755371,-0.406142920255661
5.375954866409302,0.08827152848243713,-0.019790351390838623,-0.08823895454406738,-0.8249248357358988,-0.6722833740653865,2.567107448982188,-0.4226221442222595,0.7344967722892761,-0.5309473276138306,-0.061193887144327164,0.5430280566215515,-0.39023327827453613
5.39582085609436,0.12503784894943237,-0.06096231937408447,-0.0538100004196167,-0.8216981651693752,-0.6693636017827211,2.556522947770235,-0.4225384593009949,0.7323033213615417,-0.5340348482131958,-0.13864406943321228,0.5345802903175354,-0.3789623975753784
5.415571689605713,0.15314659476280212,-0.10924404859542847,-0.02914714813232422,-0.8202247454868905,-0.6674905526951979,2.545067578658594,-0.422204852104187,0.7312991619110107,-0.535672128200531,-0.2599087357521057,0.4862801432609558,-0.3341737985610962
5.435651779174805,0.16602346301078796,-0.1235882043838501,-0.013799905776977539,-0.8208303168495464,-0.6687700568369175,2.531130741642386,-0.42261531949043274,0.7317120432853699,-0.5347840189933777,-0.3553958237171173,0.4126614034175873,-0.3713955283164978
5.454624891281128,0.1537579894065857,-0.12183445692062378,-0.027631759643554688,-0.8217949240779117,-0.6728857791608377,2.5157130184402434,-0.4243726432323456,0.7323691844940186,-0.5324878692626953,-0.3625694215297699,0.3093969225883484,-0.4008583426475525
5.475843906402588,0.1353747546672821,-0.09086811542510986,-0.04809916019439697,-0.8219873295318318,-0.678659793871334,2.5004088672973435,-0.4273516535758972,0.7325001955032349,-0.5299189686775208,-0.29609769582748413,0.24565733969211578,-0.3940652012825012
5.494949817657471,0.1134192943572998,-0.057086825370788574,-0.07169455289840698,-0.8212504232912939,-0.683847561215112,2.487134752162225,-0.4304358959197998,0.7319983243942261,-0.5281131267547607,-0.22965048253536224,0.20879875123500824,-0.36570438742637634
5.515640735626221,0.09033504128456116,-0.03647804260253906,-0.08021146059036255,-0.8200280741497594,-0.6885635558211366,2.4752283738930068,-0.43348994851112366,0.7311649918556213,-0.526767909526825,-0.19014589488506317,0.1866801232099533,-0.33212345838546753
5.535032749176025,0.070039302110672,-0.04001420736312866,-0.10682094097137451,-0.8191057576934677,-0.6932267219247812,2.464350850079626,-0.4363723397254944,0.7305354475975037,-0.5252591371536255,-0.220668226480484,0.13775306940078735,-0.31410282850265503
5.5550148487091064,0.054751306772232056,-0.04284477233886719,-0.12304717302322388,-0.8184022974906512,-0.6991214169917448,2.4528979642991335,-0.43979158997535706,0.7300549149513245,-0.5230709910392761,-0.22044295072555542,0.10530591011047363,-0.3350040316581726
5.575000762939453,0.05102121829986572,-0.03484547138214111,-0.14184433221817017,-0.8173925985994843,-0.7057100580421051,2.441383746246104,-0.4437061846256256,0.7293645143508911,-0.5207228064537048,-0.22798389196395874,0.07449713349342346,-0.33997130393981934
5.595009803771973,0.07500985264778137,-0.040904223918914795,-0.1417224407196045,-0.8167029878476316,-0.7135469323857037,2.429020115175637,-0.44810253381729126,0.7288925647735596,-0.5176098346710205,-0.26480981707572937,0.04566992074251175,-0.33795586228370667
5.6150007247924805,0.10830649733543396,-0.053153812885284424,-0.1434308886528015,-0.8167427248300068,-0.7219017833679849,2.4164717678905814,-0.45239219069480896,0.7289197444915771,-0.5138261318206787,-0.2984090745449066,0.027458425611257553,-0.3124905824661255
5.6354289054870605,0.14859235286712646,-0.035417795181274414,-0.15349584817886353,-0.8172477862457428,-0.7303155298874056,2.4044759321196834,-0.45645368099212646,0.7292654514312744,-0.5097273588180542,-0.29337790608406067,0.012085861526429653,-0.26395267248153687
5.655159950256348,0.18558797240257263,-0.02792370319366455,-0.16241061687469482,-0.8184052681484415,-0.7385121244705394,2.3932606363400963,-0.4600478410720825,0.7300569415092468,-0.5053444504737854,-0.304907888174057,-0.018763219937682152,-0.22826075553894043
5.674999713897705,0.22432896494865417,-0.03093862533569336,-0.16537785530090332,-0.8200273332160389,-0.7467161022893165,2.3832210782162218,-0.46337318420410156,0.7311644554138184,-0.5006834864616394,-0.2641373872756958,-0.07592024654150009,-0.15910395979881287
5.695221900939941,0.25766777992248535,-0.00022840499877929688,-0.1845216155052185,-0.821580393492598,-0.753713593043206,2.3766228200168897,-0.46608760952949524,0.7322230935096741,-0.4966001510620117,-0.15138107538223267,-0.1349901407957077,-0.07233210653066635
5.7149999141693115,0.25544825196266174,0.02809298038482666,-0.22226083278656006,-0.8229689289536605,-0.7614089064278211,2.369814182789779,-0.4691934287548065,0.7331680655479431,-0.49226245284080505,-0.3172593116760254,-0.16219636797904968,-0.21668145060539246
5.735054969787598,0.2670965790748596,0.021513700485229492,-0.2858397364616394,-0.8249945622658811,-0.7761635180363009,2.355319642467456,-0.4753638505935669,0.7345440983772278,-0.4842255711555481,-0.4920875132083893,-0.29219281673431396,-0.295115202665329
5.754989862442017,0.24254444241523743,0.11506509780883789,-0.36493510007858276,-0.8297293966471897,-0.793929641221604,2.34242180599677,-0.4814056158065796,0.7377487421035767,-0.47326070070266724,-0.38123080134391785,-0.48399102687835693,0.07081599533557892
5.775014877319336,0.13486137986183167,0.2806740403175354,-0.4325840473175049,-0.8368237455001526,-0.8052141004725939,2.3406368416286076,-0.48292964696884155,0.7425193190574646,-0.4641597270965576,0.010676166042685509,-0.4561654031276703,0.3119918704032898
5.795310020446777,0.018170863389968872,0.4067727327346802,-0.39355605840682983,-0.8372793954450304,-0.8029002433440681,2.3529862861183894,-0.48161080479621887,0.7428244352340698,-0.46504074335098267,0.5682329535484314,-0.22175946831703186,0.3659401834011078
5.81499981880188,0.04881942272186279,0.37744903564453125,-0.26258689165115356,-0.830869296520354,-0.7804424950705369,2.3839448664428455,-0.4743870794773102,0.7385177612304688,-0.47911232709884644,1.0713938474655151,0.10457327961921692,0.6070082783699036
5.835000038146973,0.11438366770744324,0.2423442006111145,-0.0847812294960022,-0.8245820634419292,-0.7553623197189152,2.4158666996605116,-0.465396910905838,0.7342641353607178,-0.4942287504673004,0.7981032133102417,0.09487758576869965,0.4460805058479309
5.855000019073486,0.12525802850723267,0.07932132482528687,0.003971129655838013,-0.8247588088604235,-0.7446542588019268,2.433926231718373,-0.4599900543689728,0.7343841195106506,-0.4990882873535156,0.12311533838510513,-0.2867344915866852,0.5535451769828796
5.875,0.15008333325386047,0.045065999031066895,-7.87973403930664e-05,-0.8328642986009451,-0.7422916291813789,2.447195448107023,-0.4547708332538605,0.7398613691329956,-0.49577081203460693,-0.06154625862836838,-0.48657071590423584,0.632686197757721
5.894999980926514,0.12459191679954529,0.09806126356124878,0.01763656735420227,-0.8419343896218653,-0.7424130740868453,2.462468318700318,-0.4502755403518677,0.7459328770637512,-0.4907505512237549,0.13491511344909668,-0.6578787565231323,0.7585972547531128
5.914999008178711,0.12638607621192932,0.09593647718429565,0.03227663040161133,-0.848262958680907,-0.7378607803858226,2.4880278635487763,-0.4448523223400116,0.7501328587532043,-0.48929262161254883,0.5497695803642273,-0.8183156251907349,0.908372163772583
5.935000896453857,0.10742822289466858,0.08258038759231567,0.051944583654403687,-0.8498173471599101,-0.7283428035218563,2.5248960513511527,-0.4393984079360962,0.7511598467826843,-0.4926336109638214,0.9464988708496094,-0.99802166223526,1.0001739263534546
5.954998970031738,0.06849062442779541,0.05925393104553223,0.053372323513031006,-0.8466959990658647,-0.7157600066447766,2.5696923039213364,-0.4347015917301178,0.7490957379341125,-0.4998902380466461,1.2502752542495728,-1.1244754791259766,1.014062523841858
5.975035905838013,0.024519294500350952,0.04014319181442261,0.06519860029220581,-0.8396627993087088,-0.701775543572128,2.618344079845041,-0.43105921149253845,0.7444180250167847,-0.5099312663078308,1.3419926166534424,-1.105620265007019,0.9785059690475464
5.995186805725098,-0.02216389775276184,0.021179139614105225,0.11290979385375977,-0.8320810200748561,-0.6884261372930902,2.664444394143591,-0.42778730392456055,0.739334225654602,-0.5199837684631348,1.1806244850158691,-0.9730269312858582,0.9108174443244934
6.015000820159912,-0.03605392575263977,-0.025637328624725342,0.160231351852417,-0.827270560045885,-0.6765722826571373,2.7040566491834874,-0.42381551861763,0.7360866069793701,-0.527785062789917,0.8855389952659607,-0.7743512392044067,0.8669284582138062
6.035058975219727,-0.017582863569259644,-0.08968210220336914,0.18816816806793213,-0.8256767732473784,-0.6648064736414336,2.738289685058109,-0.41829973459243774,0.7350068688392639,-0.5336576104164124,0.68387770652771,-0.5908706188201904,0.8429911732673645
6.055056810379028,0.002360135316848755,-0.12050503492355347,0.1716342568397522,-0.8257670098330812,-0.6547139482615925,2.7674109804826683,-0.41285213828086853,0.7350680232048035,-0.5377994179725647,0.5336119532585144,-0.5589860081672668,0.7172948122024536
6.074240684509277,0.0060277581214904785,-0.1506848931312561,0.16791391372680664,-0.8256065202788464,-0.6475466768483722,2.7920531962208375,-0.40905818343162537,0.7349591851234436,-0.5408386588096619,0.527046263217926,-0.5441953539848328,0.6064943075180054
6.095045804977417,0.014754176139831543,-0.16296011209487915,0.18300622701644897,-0.8231226314933362,-0.641953756758494,2.8144777761839435,-0.40711867809295654,0.7332726120948792,-0.5445783734321594,0.5916008353233337,-0.5214626789093018,0.46881523728370667
6.1150078773498535,0.005517780780792236,-0.15192854404449463,0.21168845891952515,-0.8181993412306281,-0.6347360647269956,2.83594504056255,-0.40531328320503235,0.7299162149429321,-0.5504029989242554,0.6570923328399658,-0.3431280851364136,0.4137554466724396
6.135005950927734,-0.029173582792282104,-0.14048779010772705,0.21238577365875244,-0.8119079237972926,-0.6272533857531771,2.8547461145303923,-0.4038708806037903,0.7256013751029968,-0.5571275353431702,0.6101353168487549,-0.27860206365585327,0.2535930275917053
6.155077934265137,-0.06790542602539062,-0.11454850435256958,0.17605340480804443,-0.8046851814486029,-0.6210095801555925,2.869518220406805,-0.40342333912849426,0.7206124067306519,-0.5638859868049622,0.5566520690917969,-0.16314755380153656,0.15798033773899078
6.175000905990601,-0.09147122502326965,-0.09781742095947266,0.1561405062675476,-0.7976575420406211,-0.6159984674534484,2.8802436934459985,-0.40350863337516785,0.7157221436500549,-0.5700199007987976,0.4493405222892761,-0.08755666017532349,0.028666120022535324
6.194993019104004,-0.09807583689689636,-0.09311604499816895,0.1354440450668335,-0.7908185690051218,-0.613301273400734,2.8857820521484756,-0.4047776162624359,0.7109291553497314,-0.575095534324646,0.3384954333305359,-0.043093591928482056,-0.09171871095895767
6.215054988861084,-0.10476821660995483,-0.056806743144989014,0.09845447540283203,-0.7842106631998953,-0.6117676569040391,2.887948751396401,-0.40658435225486755,0.7062665820121765,-0.5795488357543945,0.31366825103759766,0.04891986399888992,-0.17859672009944916
6.234997749328613,-0.16483557224273682,-0.011217772960662842,0.059815168380737305,-0.7759525348073144,-0.609675204703005,2.8875095953881713,-0.40869656205177307,0.7003962397575378,-0.5851600170135498,0.3433613181114197,0.20604316890239716,-0.3216608762741089
6.254999876022339,-0.21498233079910278,0.038701772689819336,0.04727286100387573,-0.7669379934090449,-0.6072150440944392,2.8825824375742037,-0.4108416438102722,0.6939337253570557,-0.5913249254226685,0.14163102209568024,0.3801673948764801,-0.4955388605594635
6.275012969970703,-0.2336023449897766,0.0476229190826416,0.06513833999633789,-0.7617240508477219,-0.6082626723013803,2.8676622098214994,-0.4135228991508484,0.6901700496673584,-0.5938553810119629,-0.37543556094169617,0.5423284769058228,-0.6924803853034973
6.294999837875366,-0.22576889395713806,0.026212871074676514,0.08680188655853271,-0.7642812468709632,-0.6171653075103337,2.8382546703133755,-0.41777050495147705,0.6920183300971985,-0.5887091755867004,-1.031846523284912,0.5886825323104858,-0.9073976278305054
6.315011024475098,-0.1782878041267395,0.060265302658081055,0.05018681287765503,-0.7721816484782323,-0.6340857071627578,2.79682998475593,-0.4244191348552704,0.697699785232544,-0.57713383436203,-1.2998826503753662,0.582398533821106,-1.0258768796920776
6.334998846054077,-0.1098756492137909,0.13559383153915405,-0.03978836536407471,-0.7799700285143548,-0.6554969719051505,2.7513993473080975,-0.433352530002594,0.7032580971717834,-0.5635899305343628,-1.220216989517212,0.4420047402381897,-1.111775279045105
6.355000019073486,-0.10337954759597778,0.2296265959739685,-0.1526505947113037,-0.7825589965215543,-0.6792375198666204,2.7073342566501277,-0.4454638361930847,0.7050963640213013,-0.5517256259918213,-0.9031118154525757,0.33377423882484436,-1.1684823036193848
6.375004768371582,-0.13372761011123657,0.3706815838813782,-0.227819561958313,-0.7801049534727318,-0.6959588122083301,2.6713772648778975,-0.45573464035987854,0.703354001045227,-0.5455263257026672,-0.5763611197471619,0.5723013281822205,-0.9137967824935913
6.395040035247803,-0.06654432415962219,0.3433823585510254,-0.17639905214309692,-0.7794629344995295,-0.7001579508750877,2.6457659508826854,-0.4583122432231903,0.7028974890708923,-0.5439530611038208,-0.5901184678077698,0.7804372310638428,-0.5292608737945557
6.415000915527344,0.026294440031051636,0.21748846769332886,-0.13506704568862915,-0.7844431643479354,-0.697355566721139,2.626265843106897,-0.45453235507011414,0.7064311504364014,-0.5425451993942261,-0.6550737619400024,0.8654152154922485,-0.24049586057662964
6.435035705566406,-0.0028996169567108154,0.12223726511001587,-0.13567394018173218,-0.7906364354949627,-0.6895261481160396,2.6119200710612462,-0.4474788308143616,0.7108010649681091,-0.5427013039588928,-0.44501954317092896,0.9350841045379639,-0.16076132655143738
6.4550347328186035,-0.058179646730422974,0.05628228187561035,-0.12304794788360596,-0.7939267979586804,-0.6776744676338434,2.602199525049714,-0.4395468533039093,0.7131116390228271,-0.5461414456367493,-0.26155924797058105,0.9559462666511536,-0.18002858757972717
6.475001811981201,-0.1361827850341797,-0.0043228864669799805,-0.09116697311401367,-0.7946413556954152,-0.6641020019013805,2.5923375688718227,-0.4317798316478729,0.7136123776435852,-0.5516552329063416,-0.26099705696105957,1.1376594305038452,-0.33362656831741333
6.4950079917907715,-0.18121016025543213,-0.0626477599143982,-0.004996120929718018,-0.7954995762823637,-0.6504386716014627,2.5761759566448967,-0.42383137345314026,0.7142133712768555,-0.557015597820282,-0.5404093265533447,1.3927072286605835,-0.5016704201698303
6.514999866485596,-0.1096932590007782,-0.14274442195892334,0.08908247947692871,-0.8006408802048407,-0.6390050677172591,2.550716896498169,-0.4152396321296692,0.7178024649620056,-0.5588700771331787,-0.9390657544136047,1.5585734844207764,-0.5959054231643677
6.535001754760742,0.0008716881275177002,-0.21987837553024292,0.12806713581085205,-0.8111750729954632,-0.6314359504372551,2.517467932657238,-0.4065113663673401,0.7250968813896179,-0.555862545967102,-1.2820810079574585,1.585702896118164,-0.6392897367477417
6.554538726806641,0.0734345018863678,-0.2657724618911743,0.16217631101608276,-0.8254575224487612,-0.6300658523905601,2.4775614740278207,-0.399606317281723,0.7348581552505493,-0.5479947328567505,-1.4341882467269897,1.4587342739105225,-0.7345534563064575
6.5741188526153564,0.12784063816070557,-0.27421504259109497,0.16043072938919067,-0.8380139127651816,-0.6339648516612347,2.4355424272041684,-0.39624276757240295,0.7433159947395325,-0.5389555096626282,-1.2012993097305298,1.2609277963638306,-0.7962181568145752
6.59499979019165,0.16621607542037964,-0.22679805755615234,0.1346086859703064,-0.8439523701129146,-0.6383548449823453,2.398972158280964,-0.3959676921367645,0.7472753524780273,-0.5336565375328064,-0.7342215180397034,1.039379596710205,-0.8182521462440491
6.615009784698486,0.1762077808380127,-0.19488543272018433,0.1401187777519226,-0.8430245761691237,-0.6425531321497892,2.3684746069116835,-0.3986198902130127,0.7466585040092468,-0.5325441956520081,-0.458893746137619,0.8054631352424622,-0.8748500347137451
6.635000705718994,0.20404744148254395,-0.19061988592147827,0.15436428785324097,-0.8397378344834431,-0.6510091905281528,2.339355394685323,-0.40459373593330383,0.744468092918396,-0.5311036705970764,-0.478037565946579,0.5366900563240051,-0.8498858213424683
6.655083894729614,0.21725311875343323,-0.15995991230010986,0.12777698040008545,-0.8382232058000576,-0.6637109462973554,2.310823673244582,-0.4120010733604431,0.7434560060501099,-0.526809573173523,-0.562891960144043,0.31646788120269775,-0.7667557001113892
6.674077033996582,0.20956331491470337,-0.07830268144607544,0.08206486701965332,-0.8375963111497099,-0.6796793821246567,2.2835170210927536,-0.42065343260765076,0.7430365681648254,-0.520526111125946,-0.4936501979827881,0.11162994056940079,-0.7025788426399231
6.694999694824219,0.21148821711540222,-0.0028821229934692383,0.009375214576721191,-0.8354155922848,-0.6962395306919098,2.2613220271077417,-0.4302535057067871,0.7415753602981567,-0.5147309899330139,-0.2650271952152252,-0.1176391988992691,-0.5766376256942749
6.715000867843628,0.21497491002082825,0.05246037244796753,-0.05373489856719971,-0.8314682743861928,-0.7100351987921247,2.2480021090650535,-0.43921807408332825,0.7389214634895325,-0.5109623670578003,-0.034612659364938736,-0.27478161454200745,-0.3681965172290802
6.73499870300293,0.19429096579551697,0.11360496282577515,-0.10483419895172119,-0.826721117219149,-0.7197886789506454,2.2432034380685306,-0.44648823142051697,0.7357145547866821,-0.5092862248420715,0.1826172173023224,-0.32944536209106445,-0.1838969886302948
6.754997730255127,0.18271037936210632,0.14700067043304443,-0.13489162921905518,-0.8218760722428007,-0.7243699529460935,2.2461254270747646,-0.4511735439300537,0.7324244379997253,-0.5098990201950073,0.3036797344684601,-0.3418094515800476,0.006749370135366917
6.775033950805664,0.19905847311019897,0.11322653293609619,-0.14069616794586182,-0.8180608860825317,-0.725928322767723,2.2540582960839752,-0.4538191854953766,0.7298215627670288,-0.5112813115119934,0.33415812253952026,-0.4008081555366516,0.134000763297081
6.795008897781372,0.19629520177841187,0.10467547178268433,-0.15958231687545776,-0.8152172216391652,-0.7263074282227769,2.2650048920278363,-0.45538944005966187,0.7278745770454407,-0.5126588344573975,0.3696190416812897,-0.4532688856124878,0.2233123928308487
6.815005779266357,0.14652547240257263,0.13268530368804932,-0.1923617124557495,-0.8123366072279439,-0.7274698895995508,2.276014965488187,-0.45737752318382263,0.7258962988853455,-0.5136929750442505,0.3719301223754883,-0.43244481086730957,0.16401951014995575
6.835038900375366,0.10068941116333008,0.1631695032119751,-0.2236918807029724,-0.8094168578246154,-0.7285617265240829,2.285710520371164,-0.45934727787971497,0.7238849997520447,-0.5147724747657776,0.2714987099170685,-0.38526451587677,0.13752655684947968
6.854997873306274,0.0916597843170166,0.20759350061416626,-0.221014142036438,-0.8089221635575861,-0.7301215068371094,2.292568789650872,-0.4603884518146515,0.7235435843467712,-0.5143221020698547,0.07273450493812561,-0.2663123905658722,0.20714367926120758
6.875,0.11202740669250488,0.22292357683181763,-0.2124602198600769,-0.813249757084311,-0.7314921262036851,2.297319983278129,-0.45899698138237,0.7265240550041199,-0.5113555788993835,-0.1690216064453125,-0.2812999486923218,0.3173331022262573
6.895026683807373,0.1255829632282257,0.2339632511138916,-0.2268032431602478,-0.8207521454755327,-0.7369447987314073,2.3004871304972014,-0.4581025242805481,0.7316587567329407,-0.5047946572303772,-0.1703805774450302,-0.4606153964996338,0.3431971073150635
6.914999008178711,0.06385120749473572,0.2641145586967468,-0.2876806855201721,-0.8262301097645037,-0.7409451918859419,2.308746728861334,-0.4574059247970581,0.7353819012641907,-0.499993234872818,0.1486271619796753,-0.5496821403503418,0.4460544288158417
6.934751033782959,0.02431461215019226,0.25680768489837646,-0.2874595522880554,-0.8280527248796459,-0.7400973612481129,2.3249012192568714,-0.45607730746269226,0.736615777015686,-0.4993903934955597,0.43996965885162354,-0.5449764728546143,0.4659487307071686
6.955000877380371,-0.0164756178855896,0.15250563621520996,-0.19936656951904297,-0.8274559338374695,-0.7368151096401527,2.344183509444429,-0.4547310769557953,0.7362120747566223,-0.5012102127075195,0.42473411560058594,-0.5349857211112976,0.4625852108001709
6.975047826766968,-0.0502660870552063,0.07414001226425171,-0.040493011474609375,-0.8289174901520584,-0.7339806599246287,2.361140522843115,-0.4525873363018036,0.7372003793716431,-0.5016975402832031,0.19506677985191345,-0.4497722089290619,0.47300073504447937
6.994997978210449,-0.08669257164001465,0.03136545419692993,0.06309741735458374,-0.8347687642278874,-0.7355617400569018,2.3710634964256485,-0.45047786831855774,0.7411413192749023,-0.49777454137802124,-0.19252276420593262,-0.45876917243003845,0.4182666838169098
7.014997959136963,-0.07620391249656677,-0.0013148784637451172,0.11170193552970886,-0.8455089975124989,-0.7441930732057449,2.37267766353522,-0.44933927059173584,0.7483088374137878,-0.4879836440086365,-0.46840915083885193,-0.5460786819458008,0.40041661262512207
7.034997940063477,-0.036618828773498535,-0.03365278244018555,0.10405826568603516,-0.8570698577390558,-0.756693421805261,2.3732698233473695,-0.44943463802337646,0.755927562713623,-0.47600647807121277,-0.2804722785949707,-0.7739965319633484,0.4194526970386505
7.054998874664307,-0.018990546464920044,0.016366124153137207,0.04308462142944336,-0.8628688275171584,-0.7668438430282518,2.384181530629334,-0.45119380950927734,0.7597111463546753,-0.46825551986694336,0.4695286154747009,-1.0397199392318726,0.5187649726867676
7.074596881866455,-0.054729312658309937,0.13794630765914917,-0.0012760758399963379,-0.856093448925165,-0.7594480899331809,2.420771548165546,-0.45125216245651245,0.7552880048751831,-0.47530168294906616,1.6657297611236572,-0.9921863675117493,0.727726399898529
7.095061779022217,-0.06394129991531372,0.12398386001586914,0.09146732091903687,-0.8368886740934258,-0.7345538874128789,2.479745380823494,-0.4489218592643738,0.7425628304481506,-0.497061163187027,2.245612621307373,-0.9552915096282959,0.8285036683082581
7.114997863769531,-0.0017619431018829346,-0.02421867847442627,0.2475927472114563,-0.8158005669066786,-0.7086825744891713,2.540279014355175,-0.44600722193717957,0.7282744646072388,-0.5202824473381042,1.9700254201889038,-0.907390296459198,0.8399381041526794
7.135010719299316,0.029844433069229126,-0.1627984642982483,0.34368860721588135,-0.8002739987738434,-0.6912276716956205,2.5887098360552168,-0.44401371479034424,0.7175469398498535,-0.5366359353065491,1.3706034421920776,-0.8520795702934265,0.7184801697731018
7.154997825622559,0.03653085231781006,-0.19530653953552246,0.3563850522041321,-0.7914512868577758,-0.6824352766645014,2.6237418955598883,-0.44325384497642517,0.7113739848136902,-0.5454108715057373,0.9298617243766785,-0.7838853001594543,0.6141580939292908
7.17502498626709,0.026506245136260986,-0.1623132824897766,0.322116494178772,-0.7847600093932382,-0.6780505602808503,2.6509287166429685,-0.4438341557979584,0.7066553831100464,-0.5510440468788147,0.837597668170929,-0.7077297568321228,0.4590039849281311
7.195019721984863,0.023180216550827026,-0.108828604221344,0.309506893157959,-0.7763593446397622,-0.6741576061174415,2.6751297651362616,-0.4453757107257843,0.7006865739822388,-0.5573858618736267,0.8926193714141846,-0.6017892956733704,0.36281755566596985
7.215005874633789,0.028803259134292603,-0.07220542430877686,0.31168603897094727,-0.7671375557531299,-0.6705655156226051,2.6964854467393105,-0.4473671317100525,0.6940774321556091,-0.5640206336975098,0.7529884576797485,-0.5371583104133606,0.2530594766139984
7.234997749328613,0.011811286211013794,-0.05589914321899414,0.30429762601852417,-0.7596474108362989,-0.6702302177040569,2.711582170121325,-0.4503946304321289,0.6886658072471619,-0.5682288408279419,0.5071306228637695,-0.47683313488960266,0.1456741988658905
7.254998683929443,-0.02179303765296936,-0.0278283953666687,0.2733895182609558,-0.7545954638716202,-0.6733195936168908,2.7204426371487926,-0.4543117880821228,0.6849939823150635,-0.5695473551750183,0.30309227108955383,-0.4372086524963379,0.03945795074105263
7.275004863739014,-0.05976688861846924,0.042559146881103516,0.24436992406845093,-0.7506459191806301,-0.678294733516888,2.724665309605737,-0.45883363485336304,0.6821112036705017,-0.5693820714950562,0.20649829506874084,-0.35334351658821106,-0.03125835955142975
7.295045852661133,-0.05577942728996277,0.07593470811843872,0.209303617477417,-0.7479096736310461,-0.6832949168053237,2.7269904874318307,-0.46285155415534973,0.680107831954956,-0.568526029586792,0.12066821753978729,-0.31720495223999023,0.006981795188039541
7.3149988651275635,-0.05319127440452576,0.09250766038894653,0.17501479387283325,-0.7469084118037325,-0.6875243117408469,2.7294465663082073,-0.46568381786346436,0.6793734431266785,-0.567089319229126,0.07645659148693085,-0.2769838273525238,0.052084971219301224
7.334998846054077,-0.09362620115280151,0.10761898756027222,0.14825284481048584,-0.7460284794711336,-0.6918391571544714,2.7312652680468084,-0.46850764751434326,0.6787274479866028,-0.5655348896980286,0.08195052295923233,-0.28361237049102783,-0.0121380016207695
7.354997873306274,-0.12621283531188965,0.11120665073394775,0.0998733639717102,-0.7438257688539114,-0.6975062666706597,2.731472588698639,-0.47266414761543274,0.6771081686019897,-0.5640152096748352,0.10666225105524063,-0.28829413652420044,-0.12010599672794342
7.3749988079071045,-0.15160533785820007,0.1386178731918335,0.055525898933410645,-0.739801811851254,-0.7032732219322143,2.730396208921905,-0.4776671826839447,0.674141526222229,-0.5633536577224731,0.14465424418449402,-0.2161986231803894,-0.193336620926857
7.394997835159302,-0.16154763102531433,0.16006207466125488,0.026406466960906982,-0.7352791247819379,-0.7080444798140031,2.728035091982502,-0.48232752084732056,0.6707941889762878,-0.5633784532546997,0.07836988568305969,-0.10115290433168411,-0.22762736678123474
7.414995908737183,-0.1587485671043396,0.1584579348564148,0.009003281593322754,-0.7317897714650449,-0.712097932404717,2.723534795462709,-0.4861336946487427,0.66820228099823,-0.5631871819496155,-0.04523380100727081,-0.01657552272081375,-0.2642064392566681
7.435022830963135,-0.18261638283729553,0.17273783683776855,-0.015971064567565918,-0.7297232901116169,-0.7171317990320527,2.7148866198013364,-0.48986899852752686,0.666663408279419,-0.5617724657058716,-0.22618955373764038,0.09987679123878479,-0.36512452363967896
7.454996824264526,-0.21212664246559143,0.1791173815727234,-0.03479123115539551,-0.7295781369358924,-0.7237462187786307,2.699953937075961,-0.49363812804222107,0.6665552258491516,-0.5585924983024597,-0.5426748991012573,0.23264983296394348,-0.4730265438556671
7.474999904632568,-0.15645518898963928,0.15691924095153809,-0.03488945960998535,-0.7350522525464861,-0.7333764983980826,2.676929892729149,-0.4965447187423706,0.6706259250640869,-0.5510938167572021,-1.0092458724975586,0.33914902806282043,-0.3980894684791565
7.4949517250061035,-0.038724690675735474,0.08983814716339111,-0.06112372875213623,-0.7481349904237229,-0.7438291229577365,2.6504752781083027,-0.4962942600250244,0.6802729964256287,-0.5393706560134888,-1.1942024230957031,0.380285382270813,-0.16603955626487732
7.514995813369751,0.0607968270778656,0.022362589836120605,-0.09097892045974731,-0.7636120913946792,-0.7512124636889821,2.6295971257181567,-0.493017315864563,0.6915351152420044,-0.5279328227043152,-0.9226288199424744,0.29716259241104126,0.09389956295490265
7.534962892532349,0.05675715208053589,-0.011809349060058594,-0.1191939115524292,-0.7751782422939982,-0.7523288639595237,2.6205664044609938,-0.48810791969299316,0.6998434066772461,-0.5215073823928833,-0.34667304158210754,0.22734668850898743,0.189119353890419
7.5550079345703125,-0.03801128268241882,-0.0548972487449646,-0.15634101629257202,-0.7782334810952724,-0.7468888448165381,2.6226306717046883,-0.4838087856769562,0.7020224928855896,-0.5225834250450134,0.22281615436077118,0.19787880778312683,0.09592016786336899
7.5750038623809814,-0.18120142817497253,-0.07952088117599487,-0.16997188329696655,-0.7713306535235144,-0.7345431392676198,2.6312261234106993,-0.4805571138858795,0.6970899105072021,-0.532100260257721,0.6455458998680115,0.5470067858695984,-0.1188247799873352
7.595038890838623,-0.2888331115245819,-0.0809088945388794,-0.06503069400787354,-0.7592696179145061,-0.715828428936503,2.637685396931753,-0.47599849104881287,0.6883918642997742,-0.5473045110702515,0.4642904996871948,0.9018339514732361,-0.3442007899284363
7.614418029785156,-0.24825096130371094,-0.16956889629364014,0.08605372905731201,-0.7526306686986957,-0.6992878148663288,2.6296942940808052,-0.46981245279312134,0.6835612058639526,-0.558587908744812,-0.4284855127334595,1.2768772840499878,-0.5066421627998352
7.6349968910217285,-0.1371510922908783,-0.27384549379348755,0.1842554807662964,-0.7610022014598977,-0.6914257388903758,2.6011476915405267,-0.461741179227829,0.6896475553512573,-0.5578363537788391,-1.5366960763931274,1.4495842456817627,-0.5450394153594971
7.655017852783203,-0.036339789628982544,-0.32230621576309204,0.17497283220291138,-0.7841625947849628,-0.695076409332907,2.5543857668866314,-0.45342156291007996,0.7062325477600098,-0.5437319278717041,-2.3034937381744385,1.4355031251907349,-0.560983419418335
7.675000905990601,0.029852569103240967,-0.2624271512031555,0.11889243125915527,-0.8123830106761275,-0.7068106985487564,2.49953080917982,-0.44664639234542847,0.7259281873703003,-0.5230062007904053,-2.181344985961914,1.3262876272201538,-0.538365364074707
7.6950297355651855,0.08645451068878174,-0.1817588210105896,0.05850815773010254,-0.8335266777181181,-0.7153247768379032,2.4536274583896,-0.4409162104129791,0.7403068542480469,-0.5074827075004578,-1.40850031375885,1.174703598022461,-0.4459094703197479
7.714970827102661,0.13821673393249512,-0.13042986392974854,0.03987640142440796,-0.842447716987551,-0.7160934249579093,2.424372370865729,-0.4369533658027649,0.7462746500968933,-0.5021414756774902,-0.5834943056106567,0.9256104230880737,-0.46451881527900696
7.734996795654297,0.15600836277008057,-0.14212828874588013,0.061747848987579346,-0.8408597154581413,-0.7119768200515126,2.4080601229384597,-0.4356561601161957,0.7452166676521301,-0.5048324465751648,-0.11659593880176544,0.7046354413032532,-0.4543737769126892
7.755006790161133,0.15285256505012512,-0.15592551231384277,0.09478592872619629,-0.8361403432593351,-0.7100215260675523,2.3950260155562315,-0.436955988407135,0.7420613765716553,-0.508344829082489,-0.11408635228872299,0.46408119797706604,-0.5304704308509827
7.775040864944458,0.13519349694252014,-0.1504828929901123,0.08683913946151733,-0.8305197357036282,-0.7138154211059246,2.3802207143740106,-0.44160524010658264,0.7382820248603821,-0.5098280310630798,-0.10629662871360779,0.2838941216468811,-0.5769166946411133
7.795022010803223,0.11796456575393677,-0.06307631731033325,0.03811323642730713,-0.8246503580848312,-0.7205997484437607,2.364980942485569,-0.44790542125701904,0.734310507774353,-0.5100675821304321,-0.1308012455701828,0.16731131076812744,-0.5939351320266724
7.815001964569092,0.11802572011947632,-0.010678887367248535,-0.006171584129333496,-0.8191835201340916,-0.7299124854396105,2.349379126423453,-0.4553060233592987,0.7305885553359985,-0.508858323097229,-0.17863105237483978,0.04403562471270561,-0.5498177409172058
7.834995746612549,0.1332131326198578,0.02859199047088623,-0.052095770835876465,-0.8154667040430763,-0.7408639196607051,2.334759636652708,-0.4626809358596802,0.728045642375946,-0.5058419108390808,-0.1973164826631546,-0.05476454272866249,-0.4344244599342346
7.855000972747803,0.13053542375564575,0.08145284652709961,-0.1120072603225708,-0.813081592708652,-0.7501345217926731,2.3240192142490073,-0.46853286027908325,0.7264084815979004,-0.5027998089790344,-0.12763220071792603,-0.08205404877662659,-0.2788181006908417
7.8750200271606445,0.13468226790428162,0.10827720165252686,-0.12487155199050903,-0.8115960994746282,-0.7563820007316056,2.3174280036953756,-0.4724050760269165,0.7253867387771606,-0.500647246837616,-0.06784403324127197,-0.07400667667388916,-0.1466774344444275
7.894994735717773,0.16994065046310425,0.0845603346824646,-0.13096889853477478,-0.8114699240458534,-0.7602159904307908,2.314731567985541,-0.47438403964042664,0.7252998948097229,-0.49889859557151794,-0.06039867550134659,-0.12305349111557007,0.006718361750245094
7.914995908737183,0.20350632071495056,0.06955057382583618,-0.12576264142990112,-0.8133264606091953,-0.7634268955978947,2.314828251800181,-0.47505176067352295,0.7265767455101013,-0.4963991940021515,-0.06731530278921127,-0.22021625936031342,0.11704503744840622
7.935054779052734,0.19931307435035706,0.08737355470657349,-0.14599981904029846,-0.8161722474733009,-0.7680623033548898,2.316701979588684,-0.47590911388397217,0.7285290956497192,-0.49270251393318176,-0.026859063655138016,-0.37817519903182983,0.17707379162311554
7.954998970031738,0.15469667315483093,0.14733898639678955,-0.19429326057434082,-0.8183155194853712,-0.7720799919290258,2.322279212938889,-0.47679439187049866,0.729995608329773,-0.4896666705608368,0.14951984584331512,-0.44740620255470276,0.24424758553504944
7.974993705749512,0.0932760238647461,0.20621562004089355,-0.2335795760154724,-0.8185492644032162,-0.7745308801782828,2.3321543908354396,-0.47787389159202576,0.730155348777771,-0.488374799489975,0.29523175954818726,-0.5016303658485413,0.2585991322994232
7.995029926300049,0.05441850423812866,0.2831134796142578,-0.270325243473053,-0.8181120142462823,-0.7740876275742156,2.346160928321452,-0.47788044810295105,0.7298564910888672,-0.48881474137306213,0.42057985067367554,-0.4411201477050781,0.43950387835502625
8.014994859695435,0.028638780117034912,0.3244304060935974,-0.265857070684433,-0.8192343637333791,-0.7653132802830841,2.367948755378229,-0.4730052351951599,0.7306233048439026,-0.49239784479141235,0.4426831305027008,-0.39109542965888977,0.6965507864952087
8.035017967224121,0.04841718077659607,0.2768762707710266,-0.21462732553482056,-0.8243776464631164,-0.7577440554761047,2.390586690902917,-0.46667584776878357,0.7341253161430359,-0.49322789907455444,0.309825599193573,-0.4830528795719147,0.7804110050201416
8.054994821548462,0.0480465292930603,0.2363145351409912,-0.2085385024547577,-0.8313534702029252,-0.7504474910503683,2.41531072718657,-0.4595608115196228,0.738844096660614,-0.49286219477653503,0.29864415526390076,-0.6519557237625122,0.8692009449005127
8.075048923492432,0.05305841565132141,0.16479265689849854,-0.1364651620388031,-0.8386799759861827,-0.7448500472227361,2.440693307657971,-0.4531133472919464,0.743761420249939,-0.4914339482784271,0.3014897108078003,-0.6349918842315674,0.9288275837898254
8.094995021820068,0.11269307136535645,0.06036984920501709,-0.049121737480163574,-0.8477761424098647,-0.7404358475103756,2.4671782613518105,-0.44635701179504395,0.7498108148574829,-0.4884148836135864,0.23814892768859863,-0.9332258105278015,0.9225741624832153
8.114998817443848,0.08079388737678528,0.013759613037109375,0.00872620940208435,-0.8556208014634389,-0.7430997502240275,2.4911627628812156,-0.44366317987442017,0.7549781799316406,-0.4828777611255646,0.2720798850059509,-1.1344594955444336,0.7927161455154419
8.13499402999878,0.03234666585922241,0.04003971815109253,0.021398305892944336,-0.8605610499643138,-0.7492410961935592,2.5155863058007575,-0.4440745711326599,0.7582085132598877,-0.47740718722343445,0.4768407940864563,-1.3562129735946655,0.7150697708129883
8.154994010925293,0.012243002653121948,0.11579185724258423,0.0017178356647491455,-0.8608070822163364,-0.7557770949200416,2.545154688934227,-0.44705745577812195,0.7583689093589783,-0.47435876727104187,0.85458904504776,-1.521596074104309,0.7277796268463135
8.174991846084595,-0.03719410300254822,0.16480529308319092,-0.005513399839401245,-0.8554596218068552,-0.7559762879222972,2.5851892799817784,-0.4499274790287018,0.7548724412918091,-0.477213591337204,1.3327827453613281,-1.502206802368164,0.823065996170044
8.19504189491272,-0.06987321376800537,0.14769035577774048,0.040510743856430054,-0.8457343322287673,-0.745769736815569,2.636250202047866,-0.44999372959136963,0.7484583258628845,-0.48715072870254517,1.6247045993804932,-1.3274790048599243,0.9677481055259705
8.214999914169312,-0.051948219537734985,0.0884619951248169,0.10264033079147339,-0.8354763502568125,-0.7297810806994715,2.690895830946465,-0.4472430646419525,0.7416161298751831,-0.4999791979789734,1.5624091625213623,-1.1438069343566895,1.0382795333862305
8.23499584197998,-0.03530210256576538,-0.02597808837890625,0.16238480806350708,-0.8273906431167021,-0.7118611106999326,2.742904878728089,-0.442114919424057,0.736167848110199,-0.5124366283416748,1.346861720085144,-0.9034786820411682,1.0464707612991333
8.254993915557861,-0.024650096893310547,-0.1281554102897644,0.211156964302063,-0.8218677364753492,-0.6938983408216207,2.7885943134227933,-0.43543294072151184,0.7324187755584717,-0.523412823677063,1.0916807651519775,-0.6734426021575928,0.9737560749053955
8.274994850158691,-0.017616868019104004,-0.18905311822891235,0.23367124795913696,-0.8185565328745474,-0.6763759716324206,2.827738993168104,-0.4277108907699585,0.7301602959632874,-0.5328502655029297,0.8601207137107849,-0.41889119148254395,0.8746164441108704
8.295002937316895,-0.04490494728088379,-0.22500985860824585,0.26151007413864136,-0.8167150474311041,-0.6588513106187948,2.8590629002787,-0.4191300570964813,0.7289008498191833,-0.5413256883621216,0.6122989654541016,-0.11521945148706436,0.6890045404434204
8.314994812011719,-0.044795989990234375,-0.254360556602478,0.30271053314208984,-0.8167046348287248,-0.6427107402745835,2.8811429600348455,-0.4103431701660156,0.7288936972618103,-0.5480260848999023,0.29799821972846985,0.08434247970581055,0.5142946243286133
8.335032939910889,-0.04099646210670471,-0.25459808111190796,0.30490821599960327,-0.8193062079902406,-0.630884975828305,2.893910489341415,-0.4027138948440552,0.7306723594665527,-0.5513071417808533,0.0375467911362648,0.18479301035404205,0.3422548174858093
8.354994773864746,-0.08608081936836243,-0.21647024154663086,0.2870907187461853,-0.8228497579847179,-0.6221778438692076,2.8988546507054727,-0.39638686180114746,0.7330870032310486,-0.5526851415634155,-0.10561037063598633,0.3232070803642273,0.12407010048627853
8.375008821487427,-0.10238680243492126,-0.17200201749801636,0.27008527517318726,-0.8254048178029918,-0.6163484261579321,2.8969571000970054,-0.39207425713539124,0.7348223924636841,-0.55345618724823,-0.18541252613067627,0.3741457164287567,-0.06488070636987686
