timestamp,acceleration_x,acceleration_y,acceleration_z,attitude_pitch,attitude_roll,attitude_yaw,gravity_x,gravity_y,gravity_z,rotation_x,rotation_y,rotation_z
0.0,0.07720023393630981,0.5929613709449768,-0.5130966901779175,-0.12832254492598577,-1.5390406064584459,-1.0901986324272461,-0.9912782311439514,0.12797066569328308,-0.03148933872580528,-0.15465469658374786,0.082645483314991,0.472347229719162
0.019729137420654297,0.008350372314453125,0.6715846657752991,-0.49501389265060425,-0.13807302222236514,-1.5356684922509314,-1.084323276620769,-0.9898722171783447,0.137634739279747,-0.03478637710213661,0.6203325986862183,0.17928147315979004,0.5384464263916016
0.03966093063354492,-0.020648479461669922,0.5823306441307068,-0.38705354928970337,-0.15025930517151853,-1.528929956475967,-1.0685879239109781,-0.987866222858429,0.1496945172548294,-0.0413825549185276,0.8217852711677551,0.26236793398857117,0.7556058764457703
0.05988502502441406,-0.12093555927276611,0.42751023173332214,-0.27071815729141235,-0.16673665390363254,-1.5198791885939726,-1.051501503538257,-0.9848538041114807,0.16596515476703644,-0.050189319998025894,0.7160661220550537,0.3999790549278259,0.9543725848197937
0.07976293563842773,-0.227922260761261,0.4319125711917877,-0.18121016025543213,-0.18655351609780013,-1.5072399648432655,-1.0377962074976943,-0.9806655049324036,0.18547332286834717,-0.0624115876853466,0.6125303506851196,0.6081982851028442,1.115533471107483
0.09968996047973633,-0.2320825457572937,0.41648995876312256,-0.14134317636489868,-0.20972368584633266,-1.4914318484008695,-1.021418334976964,-0.9750098586082458,0.20818965137004852,-0.07754402607679367,0.8680090308189392,0.6097484230995178,1.2898751497268677
0.11976003646850586,-0.15731483697891235,0.3901870846748352,-0.043740928173065186,-0.2341230732154588,-1.4739300779922642,-0.9959233979833261,-0.9681583046913147,0.23199006915092468,-0.09407629072666168,1.43487548828125,0.5823878645896912,1.3683974742889404
0.13970112800598145,-0.07993417978286743,0.3359033763408661,-0.0014945417642593384,-0.25897712203561185,-1.4537974114554117,-0.9567705452012173,-0.9600440263748169,0.2560919225215912,-0.1128394603729248,2.046879291534424,0.44685089588165283,1.4786309003829956
0.1592879295349121,-0.049591243267059326,0.26980137825012207,0.04546225070953369,-0.2817795803014006,-1.4321121750895154,-0.9063110739467867,-0.9513396620750427,0.2780654728412628,-0.13278815150260925,2.5092713832855225,0.37474384903907776,1.397574543952942
0.17969322204589844,-0.03284430503845215,0.17953011393547058,0.09075674414634705,-0.3013914706472364,-1.408005475920481,-0.847652202839507,-0.9422990679740906,0.29684925079345703,-0.154767245054245,2.7098641395568848,0.33761510252952576,1.401297926902771
0.19968700408935547,-0.018661916255950928,0.07717674970626831,0.13946162164211273,-0.32001150417725494,-1.3826449005175845,-0.7862865201869463,-0.9324796795845032,0.31457749009132385,-0.17754746973514557,2.679691791534424,0.3390001356601715,1.4493764638900757
0.2196941375732422,-0.023220598697662354,-0.009778469800949097,0.2542540729045868,-0.3380654927074176,-1.3547490267660651,-0.728481351092422,-0.9214665293693542,0.33166271448135376,-0.20223675668239594,2.3052444458007812,0.6324166655540466,1.4274539947509766
0.2387409210205078,-0.007831990718841553,-0.09407925605773926,0.31123870611190796,-0.3569844679145392,-1.322868731770113,-0.6787781405097676,-0.908305823802948,0.34945040941238403,-0.2299244999885559,1.7953885793685913,0.8281882405281067,1.4769253730773926
0.2597341537475586,-0.0027372241020202637,-0.13743436336517334,0.3010565936565399,-0.37670373366863297,-1.2918767282759807,-0.6394094963042811,-0.8939456343650818,0.36785733699798584,-0.25601255893707275,1.2637691497802734,0.802392840385437,1.366761326789856
0.2815709114074707,-0.035504817962646484,-0.1484656035900116,0.27833396196365356,-0.39467030148828924,-1.2643957305077742,-0.607939472351291,-0.8801294565200806,0.38450387120246887,-0.2784406840801239,1.0718457698822021,0.7558521628379822,1.1880496740341187
0.3015899658203125,-0.029354631900787354,-0.15211206674575806,0.3408169746398926,-0.40919419447341626,-1.2382894101622697,-0.5801747664979879,-0.8671908974647522,0.39787018299102783,-0.2994655668735504,0.9186110496520996,0.7554581761360168,0.9801612496376038
0.3196558952331543,-0.025821983814239502,-0.15109756588935852,0.38672634959220886,-0.4194208893673416,-1.2136530967666215,-0.5545757499115636,-0.8556935787200928,0.4072315990924835,-0.3192976117134094,0.9645385146141052,0.6982601284980774,0.7889866828918457
0.33969712257385254,-0.032298743724823,-0.1503610908985138,0.39166855812072754,-0.42530508135424633,-1.1890943014253053,-0.5268692579976327,-0.8453564047813416,0.41259869933128357,-0.33931559324264526,1.1645605564117432,0.6029007434844971,0.6682367920875549
0.35965394973754883,-0.0533522367477417,-0.1557241678237915,0.4155472218990326,-0.4272569820363278,-1.166176323764525,-0.4982342091488124,-0.8366166949272156,0.4143759310245514,-0.35828089714050293,1.1439253091812134,0.49310392141342163,0.4998137056827545
0.37967395782470703,-0.09820204973220825,-0.18297380208969116,0.4302109181880951,-0.4269356234596524,-1.1465147778234037,-0.47373557915279263,-0.8295323848724365,0.41408345103263855,-0.37471458315849304,0.8946908116340637,0.5042350888252258,0.3938341438770294
0.39968204498291016,-0.10225868225097656,-0.2351437211036682,0.4594201445579529,-0.4273213774652137,-1.1288447535052095,-0.456944884818108,-0.822637677192688,0.4144345223903656,-0.38924485445022583,0.44274526834487915,0.5478351712226868,0.25643834471702576
0.41971397399902344,-0.09317374229431152,-0.243287593126297,0.4136883616447449,-0.4282725509267332,-1.1172894894543814,-0.4499613525079469,-0.8177302479743958,0.4152999818325043,-0.3985515534877777,0.11256980150938034,0.31529513001441956,0.138527512550354
0.43967723846435547,-0.0714372992515564,-0.236149400472641,0.45024651288986206,-0.4300880676271429,-1.111425023039094,-0.4486442852054082,-0.8147017359733582,0.41695085167884827,-0.4030052423477173,-0.0637175589799881,0.2389512062072754,0.04983983933925629
0.45978713035583496,-0.13318747282028198,-0.20702534914016724,0.4293330907821655,-0.429489267024283,-1.1083113080267657,-0.45042044599157294,-0.8136662840843201,0.416406512260437,-0.40565136075019836,-0.06011661887168884,0.13895411789417267,-0.1784319281578064
0.47968506813049316,-0.16254138946533203,-0.21249890327453613,0.4085502624511719,-0.42557750424182633,-1.10914324631853,-0.45508715327294086,-0.8154556155204773,0.4128468334674835,-0.4056967496871948,-0.1548953354358673,-0.14231741428375244,-0.40306684374809265
0.4996790885925293,-0.1952606439590454,-0.25781670212745667,0.4192309081554413,-0.41876851352734346,-1.1163957923667094,-0.46425142282924453,-0.8208831548690796,0.40663570165634155,-0.40099653601646423,-0.30582600831985474,-0.18798530101776123,-0.5236731767654419
0.5196781158447266,-0.22747951745986938,-0.26633420586586,0.42374086380004883,-0.41306706419744105,-1.125547935729185,-0.47919910860449383,-0.8265977501869202,0.40142032504081726,-0.3944591283798218,-0.672515332698822,-0.09432502835988998,-0.613683819770813
0.5396790504455566,-0.1712847352027893,-0.27104946970939636,0.3911594748497009,-0.4077922381513464,-1.1377173545480432,-0.5016587331992401,-0.833247184753418,0.39658358693122864,-0.38525423407554626,-0.9425766468048096,-0.3281020224094391,-0.7338146567344666
0.5597050189971924,-0.10867816209793091,-0.21101969480514526,0.3334333300590515,-0.4011842828885927,-1.1598233990589402,-0.5269114868004825,-0.8439434170722961,0.39050886034965515,-0.36778077483177185,-0.8772223591804504,-0.8528462052345276,-0.8322423100471497
0.5796890258789062,-0.30087536573410034,-0.1005823016166687,0.2821028232574463,-0.3908536908584708,-1.1874620867614876,-0.552960729431071,-0.8574804663658142,0.3809778690338135,-0.3458081781864166,-0.9850844740867615,-0.7747938632965088,-1.082757830619812
0.5997090339660645,-0.44114595651626587,-0.10337996482849121,0.32641497254371643,-0.3779711159578331,-1.2108166333682369,-0.5862327299385384,-0.8698436617851257,0.369035542011261,-0.32739147543907166,-1.5175431966781616,-0.3414478302001953,-1.1831601858139038
0.6190190315246582,-0.26990771293640137,-0.19696804881095886,0.3432823419570923,-0.3690782859099891,-1.2332825973412829,-0.6302343298407752,-0.8800405263900757,0.36075595021247864,-0.30884313583374023,-1.9899011850357056,-0.42673590779304504,-1.0615342855453491
0.6396660804748535,-0.0990106463432312,-0.08409279584884644,0.24964305758476257,-0.3614589939616708,-1.2634307330465864,-0.6776635970186375,-0.8915442228317261,0.3536393344402313,-0.28299862146377563,-1.832115650177002,-0.8626535534858704,-1.108481764793396
0.6596770286560059,-0.14161044359207153,0.07442596554756165,0.08695697784423828,-0.348185751427586,-1.2954827836590792,-0.7155567407945842,-0.904593288898468,0.34119299054145813,-0.25553596019744873,-1.1653941869735718,-1.0124802589416504,-1.2029725313186646
0.6796889305114746,-0.16661882400512695,0.10445943474769592,-0.011590585112571716,-0.3286077932383813,-1.3244370951569522,-0.7394598877201093,-0.9179149270057678,0.3227256238460541,-0.23082564771175385,-0.589443027973175,-1.0824835300445557,-1.2588094472885132
0.6996769905090332,-0.10753142833709717,0.07107767462730408,-0.016680598258972168,-0.3069977470935564,-1.3512129921789646,-0.7546854217550885,-0.9303562641143799,0.3021981120109558,-0.2076387256383896,-0.3554702401161194,-1.1199880838394165,-1.1733691692352295
0.7192931175231934,-0.08590412139892578,0.017537981271743774,-0.028980836272239685,-0.2874287661383163,-1.376688768586716,-0.768201694171375,-0.9409666657447815,0.2834874093532562,-0.18497778475284576,-0.6059664487838745,-1.0058256387710571,-1.0178499221801758
0.7397332191467285,-0.08304393291473389,-0.015585780143737793,-0.022395849227905273,-0.27113886971858814,-1.400992572150277,-0.7899952052911562,-0.9496099948883057,0.26782888174057007,-0.1628151834011078,-1.1692928075790405,-0.830515444278717,-0.9807889461517334
0.7596781253814697,-0.040858447551727295,0.022941529750823975,-0.05828714370727539,-0.2566931628877597,-1.4243629417927146,-0.8218254404861952,-0.9568833708763123,0.2538834512233734,-0.14112985134124756,-1.609647274017334,-0.6967130899429321,-0.9378525614738464
0.7796759605407715,0.018018066883087158,0.08473902940750122,-0.10467375814914703,-0.24283595179983844,-1.446681332386362,-0.858588136494835,-0.9631934762001038,0.24045632779598236,-0.1201644167304039,-1.6217988729476929,-0.6705152988433838,-0.9219112396240234
0.7998762130737305,0.07695114612579346,0.16144664585590363,-0.16253697872161865,-0.22852243405792474,-1.4667589055787642,-0.8902053704389095,-0.968735933303833,0.22653861343860626,-0.10114999115467072,-1.4333099126815796,-0.653317391872406,-0.8992165327072144
0.8216910362243652,0.11996287107467651,0.25179994106292725,-0.19483184814453125,-0.2118945928090368,-1.4863433477040415,-0.9157033909990933,-0.9741500020027161,0.21031250059604645,-0.0824660211801529,-0.9534462094306946,-0.7470673322677612,-0.958544135093689
0.8396940231323242,0.14533579349517822,0.23203520476818085,-0.21286225318908691,-0.1950568973117599,-1.505862845132242,-0.9362427520709259,-0.9789693355560303,0.19382235407829285,-0.06365738064050674,-0.8836814761161804,-0.8083658814430237,-0.9222663044929504
0.859684944152832,0.10173094272613525,0.2782118320465088,-0.29035884141921997,-0.17660804527428126,-1.5253655179611683,-0.951701221575429,-0.9834296703338623,0.1756913959980011,-0.044708769768476486,-0.5340517163276672,-0.818939208984375,-0.9660754203796387
0.8796811103820801,0.10168331861495972,0.3371858298778534,-0.3354422450065613,-0.1590589830753637,-1.5425513966971927,-0.9613825400330015,-0.9869831204414368,0.1583891361951828,-0.02788468450307846,-0.39113736152648926,-0.7518674731254578,-0.8375027179718018
0.8997430801391602,0.1248999834060669,0.34391269087791443,-0.3596222996711731,-0.14367214949119386,-1.5579718394389162,-0.9688352042399634,-0.9896156191825867,0.14317838847637177,-0.012692009098827839,-0.29528185725212097,-0.6758836507797241,-0.7005631923675537
0.9196760654449463,0.13271069526672363,0.35639673471450806,-0.41020095348358154,-0.13171574102250672,-1.5709954090673983,-0.9731485997747128,-0.9913380146026611,0.13133521378040314,0.00019735783280339092,-0.1084662452340126,-0.5681395530700684,-0.5121720433235168
0.9396960735321045,0.1225210428237915,0.4052329659461975,-0.4348325729370117,-0.12318503045177934,-1.5801630140638347,-0.9736988578741264,-0.9923789501190186,0.12287372350692749,0.009295575320720673,0.036364659667015076,-0.32412025332450867,-0.33002230525016785
0.9596860408782959,0.1274356245994568,0.3759192228317261,-0.4464637041091919,-0.11859070985951702,-1.5844647286544449,-0.9723268254230613,-0.9928836822509766,0.11831293255090714,0.01357197854667902,0.06405451893806458,-0.11107205599546432,-0.11776246875524521
0.979733943939209,0.17145347595214844,0.3054773211479187,-0.4080207347869873,-0.1184905487062931,-1.5844892234814993,-0.9739445024773864,-0.9928951859474182,0.1182134747505188,0.013596461154520512,-0.2449243813753128,0.0942593589425087,0.07817510515451431
0.9997291564941406,0.17819595336914062,0.27927181124687195,-0.38680291175842285,-0.12157064102642423,-1.581964838857794,-0.9791307050666912,-0.9925576448440552,0.12127140164375305,0.011085852980613708,-0.25141581892967224,0.22879168391227722,0.25124430656433105
1.0197019577026367,0.169528067111969,0.31903284788131714,-0.3688490390777588,-0.1279406839904877,-1.5767947566529033,-0.9826832837271585,-0.991809070110321,0.12759192287921906,0.005949368234723806,0.016188938170671463,0.2875617742538452,0.36119017004966736
1.039680004119873,0.1343173384666443,0.3413531482219696,-0.37532472610473633,-0.13636401274162138,-1.570846941607727,-0.9781401482544074,-0.9907169938087463,0.1359417885541916,5.0144957640441135e-05,0.42016711831092834,0.21152250468730927,0.46794459223747253
1.0597870349884033,0.04654461145401001,0.350964218378067,-0.3622260093688965,-0.1457518814660265,-1.5659051365418624,-0.9659830259686851,-0.9893854260444641,0.14523637294769287,-0.004839310888200998,0.7614350914955139,0.13494278490543365,0.4770399332046509
1.0796809196472168,-0.07258963584899902,0.33965450525283813,-0.3294859528541565,-0.15567879465265136,-1.5601417425477577,-0.9495132750171544,-0.987850546836853,0.15505072474479675,-0.010525534860789776,0.8181817531585693,0.252164751291275,0.5432049036026001
1.0996851921081543,-0.1300153136253357,0.25871896743774414,-0.20310825109481812,-0.16862320763626643,-1.5491235650491133,-0.9360953578574257,-0.9855853319168091,0.16782523691654205,-0.021363701671361923,0.3610198497772217,0.6110677719116211,0.7989117503166199
1.119685173034668,-0.13045084476470947,0.19596582651138306,-0.07760953903198242,-0.18655360389819237,-1.5363825715476034,-0.9349827676417394,-0.9820675849914551,0.18547339737415314,-0.03380998224020004,-0.19705523550510406,0.5832502841949463,0.9692888259887695
1.1397650241851807,-0.26758408546447754,0.22058935463428497,-0.1331891417503357,-0.20645710832205433,-1.5262521440122352,-0.9390940632060814,-0.9777925610542297,0.20499354600906372,-0.04358380287885666,-0.22792890667915344,0.5786651968955994,0.9620405435562134
1.1596851348876953,-0.4136433005332947,0.3638923168182373,-0.18330234289169312,-0.22386457745560082,-1.51395742925073,-0.9389242449419449,-0.9734722971916199,0.2219994217157364,-0.05539075285196304,0.24282899498939514,0.6145569086074829,0.7792231440544128
1.1797211170196533,-0.36490100622177124,0.3476830720901489,-0.12433391809463501,-0.23835346682258807,-1.498506426553567,-0.9279791741704547,-0.969190239906311,0.23610296845436096,-0.07018496841192245,0.6524867415428162,0.6889774799346924,0.7807407379150391
1.1996750831604004,-0.21070241928100586,0.23282942175865173,0.0361749529838562,-0.25432416714514555,-1.4810030316203897,-0.9125236615096809,-0.9639345407485962,0.25159138441085815,-0.08678823709487915,0.6816510558128357,0.6907843351364136,0.9326936602592468
1.21968412399292,-0.1710912585258484,0.14033186435699463,0.10731346905231476,-0.27294125343850734,-1.4622185269419554,-0.8962011975139969,-0.9573114514350891,0.26956498622894287,-0.104353167116642,0.7318248748779297,0.7248501181602478,1.0464211702346802
1.2396790981292725,-0.18226659297943115,0.11044353246688843,0.07590450346469879,-0.29130291954723936,-1.4424880601538588,-0.875323514441576,-0.9499965906143188,0.2872005105018616,-0.12256576120853424,1.0730321407318115,0.6614018082618713,1.0075266361236572
1.259714126586914,-0.11964142322540283,0.10838770866394043,0.09898044168949127,-0.30723544339104436,-1.4226774253503987,-0.8474110813501471,-0.9427365660667419,0.30242469906806946,-0.14066731929779053,1.3828262090682983,0.4780162274837494,0.9363731145858765
1.2796850204467773,-0.06379443407058716,0.08689811825752258,0.11240136623382568,-0.31975267028865556,-1.4035553741682572,-0.810548713766104,-0.9360683560371399,0.3143317699432373,-0.15802501142024994,1.8649431467056274,0.3166625201702118,0.8812978863716125
1.2996768951416016,-0.015564024448394775,0.04753684997558594,0.1767183542251587,-0.3307120808613511,-1.3837026565626667,-0.7668646814460507,-0.9293060898780823,0.32471659779548645,-0.17592477798461914,1.9864552021026611,0.2706354260444641,0.9477541446685791
1.3197340965270996,-0.008331716060638428,-0.03284186124801636,0.2387937307357788,-0.34297831307991816,-1.3624254889700884,-0.7220499372971194,-0.9213863611221313,0.33629342913627625,-0.19481781125068665,1.8645037412643433,0.46154841780662537,1.0876410007476807
1.3398752212524414,-0.011619627475738525,-0.1242494285106659,0.29922938346862793,-0.3576397055239477,-1.3370987086185904,-0.6825095020379933,-0.9112625122070312,0.3500642478466034,-0.21692340075969696,1.4209563732147217,0.6566184163093567,1.1516751050949097
1.3597021102905273,0.037354230880737305,-0.19361507892608643,0.3319263756275177,-0.37455278077012993,-1.3125579737540864,-0.6521205478256766,-0.8998117446899414,0.3658563494682312,-0.23767277598381042,0.9296630024909973,0.706533670425415,1.178540825843811
1.3796770572662354,0.0788164734840393,-0.21227920055389404,0.3287282884120941,-0.39245776500943413,-1.2913419168580695,-0.6296252338816639,-0.8881273865699768,0.38246047496795654,-0.2548603415489197,0.6971956491470337,0.5386420488357544,1.0876446962356567
1.399677038192749,0.07807797193527222,-0.18784213066101074,0.30315467715263367,-0.4083062655980251,-1.2740070526836882,-0.6081012942522948,-0.877669095993042,0.39705538749694824,-0.268410325050354,0.736754834651947,0.39451920986175537,1.0040063858032227
1.4196770191192627,0.03517884016036987,-0.17096692323684692,0.3759639859199524,-0.4221986339984351,-1.2566418483427044,-0.5874472700061235,-0.8675459027290344,0.4097670018672943,-0.28187817335128784,0.6517851948738098,0.5319063663482666,0.8740763068199158
1.4397759437561035,0.021284818649291992,-0.24552074074745178,0.40717053413391113,-0.43410671794880773,-1.2375837877759412,-0.5690556645196629,-0.8573445081710815,0.42060014605522156,-0.29674258828163147,0.545264720916748,0.5987129211425781,0.802113950252533
1.4596781730651855,0.06930398941040039,-0.2755953371524811,0.41949009895324707,-0.445370793654922,-1.2206761084047753,-0.5551636541616417,-0.8477007150650024,0.43079254031181335,-0.309550404548645,0.27666398882865906,0.46733465790748596,0.6533781886100769
1.4797251224517822,0.09468615055084229,-0.23655948042869568,0.3890548646450043,-0.45371894239817606,-1.2101745161549937,-0.5457843439789863,-0.8410088419914246,0.43831121921539307,-0.31715530157089233,0.2841699421405792,0.15952713787555695,0.44475701451301575
1.499711036682129,0.10305052995681763,-0.2247474193572998,0.39012399315834045,-0.4582717314000348,-1.2038674323841978,-0.535049703080489,-0.8371204137802124,0.4423988163471222,-0.3217340409755707,0.4324515163898468,0.03569333627820015,0.3164614737033844
1.5196762084960938,0.08704710006713867,-0.22529640793800354,0.40953171253204346,-0.4591733581192149,-1.1988058749198796,-0.5234485305563151,-0.8351093530654907,0.4432072341442108,-0.3258219361305237,0.5161015391349792,-0.05023728311061859,0.14047038555145264
1.5396819114685059,0.10904937982559204,-0.2275143563747406,0.38542044162750244,-0.45662772406551444,-1.1954635363179775,-0.511390226751921,-0.8350626826286316,0.4409238398075104,-0.3290238678455353,0.5921853184700012,-0.17893090844154358,0.016832295805215836
1.5596952438354492,0.13553792238235474,-0.20075944066047668,0.3449360430240631,-0.45118775736865807,-1.1962742208312485,-0.4987474952397024,-0.837549090385437,0.4360347390174866,-0.32921940088272095,0.6771267056465149,-0.47908735275268555,-0.10746181011199951
1.5796771049499512,0.09706723690032959,-0.1592235267162323,0.28086426854133606,-0.4426580323508039,-1.2032573044618216,-0.48498135253677266,-0.8432678580284119,0.4283428192138672,-0.3246873617172241,0.776054859161377,-0.7906713485717773,-0.2433186173439026
1.599675178527832,-0.016747653484344482,-0.11540895700454712,0.2756161093711853,-0.431165329173729,-1.214866493460953,-0.4721311599200603,-0.8515386581420898,0.4179297685623169,-0.3165706396102905,0.679486095905304,-0.8963883519172668,-0.4188661575317383
1.6196742057800293,-0.145779550075531,-0.07627949118614197,0.24688991904258728,-0.4181803019648589,-1.2295376156881026,-0.46463985077563397,-0.8611327409744263,0.40609824657440186,-0.30583450198173523,0.37794041633605957,-0.8560580611228943,-0.5636103749275208
1.6397020816802979,-0.19179171323776245,-0.060377269983291626,0.2322477400302887,-0.40543955178064855,-1.2446244862236686,-0.4641670954351707,-0.8704794645309448,0.394422709941864,-0.29444241523742676,0.08905753493309021,-0.6712368130683899,-0.6210163831710815
1.6597270965576172,-0.1460598111152649,-0.056711941957473755,0.16127300262451172,-0.39306471390157455,-1.259729755393519,-0.46843108686053453,-0.8794072270393372,0.38302120566368103,-0.28273287415504456,-0.025458520278334618,-0.7885442972183228,-0.6826063394546509
1.679685115814209,-0.11541450023651123,0.008327305316925049,0.09245344996452332,-0.37918882240509466,-1.2836052661500272,-0.4731220780778741,-0.8909180760383606,0.3701670467853546,-0.2631382346153259,0.024907778948545456,-1.4078435897827148,-0.809470534324646
1.699674129486084,-0.3931131362915039,0.12805894017219543,0.051335155963897705,-0.3611396999613542,-1.312702352145732,-0.47725903423850913,-0.9045096635818481,0.35334065556526184,-0.23877397179603577,0.042353056371212006,-1.203856110572815,-1.0269569158554077
1.719710111618042,-0.5614527463912964,0.10464909672737122,0.0680035948753357,-0.3411867673789699,-1.3288531222995865,-0.4845884229273015,-0.9149115085601807,0.33460569381713867,-0.22577935457229614,-0.2638721168041229,-0.17456252872943878,-1.0295058488845825
1.7397589683532715,-0.14484500885009766,0.013978928327560425,0.013239145278930664,-0.32430221882342597,-1.335176140197566,-0.4957463769733816,-0.9216834306716919,0.31864744424819946,-0.22127732634544373,-0.22312261164188385,-0.3549560010433197,-0.8615918159484863
1.759674072265625,0.23396849632263184,0.1027357280254364,-0.12483155727386475,-0.30999663588985954,-1.3546063806588295,-0.49768759267125456,-0.9301661252975464,0.3050554394721985,-0.2042851597070694,0.40633758902549744,-1.4931327104568481,-0.5554778575897217
1.7796730995178223,0.10605347156524658,0.192522794008255,-0.17502927780151367,-0.2986205564990818,-1.3821458408236438,-0.48630023763115987,-0.9387867450714111,0.2942020893096924,-0.1792338788509369,0.7532435655593872,-1.3860505819320679,-0.434640496969223
1.799720048904419,-0.1653130054473877,0.07229071855545044,-0.06457465887069702,-0.28694712319247057,-1.3987163196657892,-0.47614420267753116,-0.9449471235275269,0.28302550315856934,-0.16423076391220093,0.38190758228302,-0.6080859303474426,-0.4751564860343933
1.8196759223937988,-0.001760721206665039,-0.07380014657974243,0.03544922173023224,-0.28046561238835743,-1.407802530434833,-0.47365487773014364,-0.948190450668335,0.2768031060695648,-0.1559325009584427,-0.05863334238529205,-0.48645296692848206,-0.09371326118707657
1.8397002220153809,0.1756610870361328,-0.08605968952178955,0.030824974179267883,-0.2817749475068706,-1.4201089184885387,-0.47614118999798033,-0.9496784210205078,0.27806103229522705,-0.14419765770435333,-0.1213994100689888,-0.666987955570221,0.1359230875968933
1.859673023223877,0.2091694474220276,-0.060614705085754395,0.008121490478515625,-0.28500817014954255,-1.4337010852749754,-0.4773061370477515,-0.9506551623344421,0.28116530179977417,-0.13115300238132477,-0.0600980743765831,-0.6283760666847229,0.13553187251091003
1.8796730041503906,0.24884110689163208,-0.10146206617355347,0.006603240966796875,-0.28594593188942796,-1.4447410628470374,-0.47639930576614425,-0.9517831206321716,0.28206509351730347,-0.12061681598424911,0.16502049565315247,-0.5213760733604431,-0.03961958363652229
1.8996751308441162,0.362186074256897,-0.21529358625411987,0.010698020458221436,-0.2830535510077299,-1.4541116281546511,-0.4715876229751385,-0.9536778926849365,0.27928897738456726,-0.11178741604089737,0.31618165969848633,-0.6090030670166016,-0.18333564698696136
1.9197001457214355,0.44353020191192627,-0.2437676191329956,0.012674808502197266,-0.2774179536916756,-1.4671742560857348,-0.4639926170410756,-0.9566071033477783,0.2738732397556305,-0.09948192536830902,0.49239981174468994,-0.9099633693695068,-0.2881615459918976
1.939709186553955,0.41690564155578613,-0.22012081742286682,0.02835278958082199,-0.2707969285463227,-1.484238373625316,-0.45426135957669667,-0.9599509239196777,0.2674994170665741,-0.08329952508211136,0.4087314009666443,-1.0016502141952515,-0.273392915725708
1.9597010612487793,0.3080429434776306,-0.21630039811134338,0.08669286966323853,-0.26474672681224226,-1.5010590470985963,-0.45231164344004515,-0.9628129601478577,0.26166483759880066,-0.06725301593542099,-0.20012657344341278,-0.6905015110969543,-0.3342198133468628
1.9796741008758545,0.2776365876197815,-0.2599065899848938,0.11491525173187256,-0.25855096510743425,-1.5144658999208693,-0.461659444234356,-0.965228259563446,0.2556799352169037,-0.054429300129413605,-0.6526449918746948,-0.47945842146873474,-0.3228115141391754
1.9996750354766846,0.32090938091278076,-0.21564939618110657,0.05967849865555763,-0.2536069886280992,-1.5296735487882127,-0.4746887976476413,-0.9671953916549683,0.25089719891548157,-0.039796195924282074,-0.4606800973415375,-0.6613295078277588,-0.2228795439004898
2.0196850299835205,0.26628559827804565,-0.09742680191993713,-0.0317077673971653,-0.2500173335165307,-1.5444304834160651,-0.4841449917281482,-0.9685716032981873,0.2474207580089569,-0.025543127208948135,-0.4957009255886078,-0.5509569048881531,-0.21639926731586456
2.039742946624756,0.1710873246192932,-0.10476590692996979,-0.009317755699157715,-0.244571736956043,-1.5555982982021124,-0.49589553401660547,-0.9701292514801025,0.24214082956314087,-0.014745187014341354,-0.6649627089500427,-0.28037577867507935,-0.32240477204322815
2.0597009658813477,0.21130460500717163,-0.13850361108779907,0.023977160453796387,-0.23833352309756128,-1.5641170075424435,-0.511977454376795,-0.9717111587524414,0.23608358204364777,-0.0064904652535915375,-0.8793016076087952,-0.26262661814689636,-0.30500128865242004
2.0797340869903564,0.2716009020805359,-0.11588948965072632,0.01291203498840332,-0.23310720038114136,-1.575905900980549,-0.5302478168006611,-0.9729406237602234,0.23100179433822632,0.00497135566547513,-0.83067387342453,-0.48384854197502136,-0.24315288662910461
2.09967303276062,0.20083200931549072,-0.06892281770706177,-0.04834592342376709,-0.2280288490375512,-1.5891935719127877,-0.5428720476556441,-0.9739490747451782,0.22605784237384796,0.017920002341270447,-0.39074617624282837,-0.45054396986961365,-0.19949358701705933
2.1196930408477783,0.12353867292404175,-0.11627265810966492,-0.017848610877990723,-0.22511814269643293,-1.5965298360993194,-0.5512825025319941,-0.9744451642036438,0.2232215255498886,0.02508142963051796,-0.5003058910369873,-0.14787356555461884,-0.14720667898654938
2.1396870613098145,0.1450331211090088,-0.1480453908443451,0.04405367374420166,-0.22028782467221844,-1.600602738315714,-0.5597814894529554,-0.9754013419151306,0.21851050853729248,0.02908182516694069,-0.26987871527671814,-0.09564746916294098,-0.2627040147781372
2.15971302986145,0.2373024821281433,-0.08516012132167816,-0.003517989069223404,-0.21554852338918304,-1.6055203786503207,-0.5593542336642962,-0.9762704968452454,0.21388329565525055,0.03391369804739952,0.3289785385131836,-0.4590495526790619,-0.22091640532016754
2.179683208465576,0.2065906524658203,0.0056444257497787476,-0.039968255907297134,-0.21130226450221026,-1.6145280765279872,-0.5457475665374691,-0.9768238663673401,0.20973338186740875,0.04274547100067139,0.9714661836624146,-0.6690877676010132,-0.28354260325431824
2.1996841430664062,0.04490453004837036,-0.04687723517417908,0.014405481517314911,-0.20620283302355988,-1.6216062156592528,-0.5234059691636097,-0.9775522351264954,0.20474465191364288,0.049712106585502625,1.0867679119110107,-0.4523390233516693,-0.30490410327911377
2.2196760177612305,-0.08120608329772949,-0.07841351628303528,0.0563051663339138,-0.2012910837308002,-1.6233644880878448,-0.5047982083309572,-0.9784558415412903,0.19993451237678528,0.05148305743932724,0.702599823474884,-0.1366209089756012,-0.2694656550884247
2.2396721839904785,-0.09700411558151245,-0.12142777442932129,0.04880499839782715,-0.19781923966263298,-1.6237721397557299,-0.4944422068199551,-0.9791220426559448,0.19653156399726868,0.05191836506128311,0.30614471435546875,-0.14109182357788086,-0.11950857192277908
2.2596781253814697,-0.1170915961265564,-0.05193448066711426,0.07649124413728714,-0.19621174663385668,-1.6249478489026148,-0.49012035237107926,-0.9793747067451477,0.19495517015457153,0.0530865304172039,0.1773342490196228,-0.04055279120802879,-0.09816548973321915
2.27972412109375,-0.18883883953094482,0.005452930927276611,0.07194149494171143,-0.19411279950304572,-1.621891434051489,-0.48536112692597005,-0.9799386858940125,0.1928960680961609,0.05011369287967682,0.27622419595718384,0.2504073977470398,-0.1260073333978653
2.2996740341186523,-0.14973700046539307,-0.04948635399341583,0.10431468486785889,-0.19247246191826867,-1.6154066348694562,-0.4798682749711393,-0.9805578589439392,0.19128628075122833,0.043772026896476746,0.2884649932384491,0.29919368028640747,-0.05651796981692314
2.319674015045166,-0.12860506772994995,-0.04714253544807434,0.09467065334320068,-0.19196562090770597,-1.6100040459814642,-0.47326998499460243,-0.9808767437934875,0.19078877568244934,0.03847765922546387,0.3395882844924927,0.038311395794153214,-0.024208882823586464
2.3397700786590576,-0.21042996644973755,-0.034262463450431824,0.1060861349105835,-0.19148211154473,-1.6090029547174916,-0.46567516060097025,-0.981006920337677,0.1903141289949417,0.037499215453863144,0.418529212474823,-0.002870392519980669,-0.07464631646871567
2.3597002029418945,-0.33195358514785767,-0.008540615439414978,0.1420830488204956,-0.18976167403246672,-1.6053817377404758,-0.4538666227945395,-0.9814621210098267,0.18862485885620117,0.03395780920982361,0.7787256836891174,0.1935543417930603,-0.12035758048295975
2.3796749114990234,-0.3311065435409546,-0.003830134868621826,0.15644478797912598,-0.18802632496962882,-1.5965404329187662,-0.4354671283918814,-0.9820497035980225,0.1869203746318817,0.025287577882409096,0.9327073097229004,0.2561212182044983,-0.12351352721452713
2.3996739387512207,-0.2697611451148987,-0.03141413629055023,0.17892098426818848,-0.1851341117650291,-1.5885606095241562,-0.418825798413429,-0.9827566146850586,0.18407835066318512,0.017459804192185402,0.622057318687439,0.23008616268634796,-0.22213171422481537
2.419672966003418,-0.22191518545150757,-0.1370072364807129,0.19877123832702637,-0.18055876974356833,-1.5844981734748615,-0.41045585460561057,-0.983651340007782,0.17957928776741028,0.013478683307766914,0.2361873984336853,0.08350168913602829,-0.16215310990810394
2.439732074737549,-0.22337758541107178,-0.10233153402805328,0.18961071968078613,-0.17796117391067012,-1.5822642938545084,-0.4073035736740654,-0.9841420650482178,0.17702332139015198,0.011286603286862373,0.14603391289710999,0.10330895334482193,-0.1606152057647705
2.4596750736236572,-0.2767942547798157,0.0035073161125183105,0.15956735610961914,-0.17367988215684288,-1.5787376043780634,-0.4036590083829265,-0.9849247336387634,0.17280803620815277,0.007821725681424141,0.1981957107782364,0.14187462627887726,-0.27373450994491577
2.4796829223632812,-0.21678006649017334,-0.027207985520362854,0.2189728021621704,-0.16829055154255454,-1.5764828273118674,-0.39941064576942853,-0.9858566522598267,0.16749729216098785,0.0056061348877847195,0.2035401463508606,-0.030187856405973434,-0.2453899383544922
2.4996750354766846,-0.20026296377182007,-0.08123058080673218,0.21234214305877686,-0.1639495822001342,-1.5778792197584883,-0.39443206997779356,-0.9865657687187195,0.16321608424186707,0.006987856701016426,0.29874637722969055,-0.1272166669368744,-0.1961464285850525
2.5197010040283203,-0.21306604146957397,-0.015608415007591248,0.22809934616088867,-0.15936381960046464,-1.5787599519027478,-0.388594067520783,-0.9872973561286926,0.15869012475013733,0.007862632162868977,0.28702059388160706,-0.0926884263753891,-0.29903724789619446
2.5397071838378906,-0.21046143770217896,-0.019342780113220215,0.16772353649139404,-0.15315000172894808,-1.579984182977508,-0.38289333430986283,-0.9882538914680481,0.1525520235300064,0.0090801902115345,0.23998841643333435,-0.11490202695131302,-0.30424731969833374
2.5597140789031982,-0.18749767541885376,-0.026625007390975952,0.16053307056427002,-0.14765968531930376,-1.5814765850331154,-0.37980194904724784,-0.9890618920326233,0.14712369441986084,0.010563838295638561,0.05128536745905876,-0.05069650709629059,-0.2491164654493332
2.580078125,-0.19875484704971313,-0.02291083335876465,0.11438512802124023,-0.14322731398625174,-1.5826314624672089,-0.3793546290360093,-0.9896912574768066,0.14273811876773834,0.01171367708593607,0.008784630335867405,-0.10788699984550476,-0.17416885495185852
2.5997071266174316,-0.2210932970046997,-0.0221775621175766,0.09092903137207031,-0.14160789205925883,-1.5860849232030938,-0.3806037369294745,-0.9898749589920044,0.1411350965499878,0.015134977176785469,-0.19836406409740448,-0.196122407913208,-0.005165057256817818
2.6196789741516113,-0.295246422290802,-0.006998524069786072,0.13102936744689941,-0.14198128604920854,-1.5890608184024293,-0.3886303875209152,-0.9897725582122803,0.14150473475456238,0.01807970367372036,-0.4725430905818939,0.028211627155542374,0.028326140716671944
2.6397390365600586,-0.32766133546829224,-0.0013361871242523193,0.08019912242889404,-0.143089851543028,-1.5882188438688671,-0.39613556843184417,-0.9896300435066223,0.1426020711660385,0.01724359206855297,-0.30091261863708496,0.18214499950408936,0.11865399777889252
2.659759998321533,-0.2329648733139038,0.04352143406867981,0.07676577568054199,-0.14562181384356937,-1.586451605113294,-0.40219133531406026,-0.9892945885658264,0.1451076865196228,0.015488947741687298,-0.2953169047832489,0.041389305144548416,0.15905773639678955
2.679842948913574,-0.19824016094207764,0.008197501301765442,0.04291856288909912,-0.15001837293620895,-1.5881783309562734,-0.405639383641409,-0.9886190295219421,0.14945629239082336,0.017185911536216736,-0.04795452207326889,-0.10452404618263245,0.28534063696861267
2.699681043624878,-0.26752936840057373,0.029920965433120728,0.03315722942352295,-0.15599845083802302,-1.5892251456547373,-0.4062084425147724,-0.987689197063446,0.15536651015281677,0.01820400543510914,0.01377938874065876,0.03647284209728241,0.2831454277038574
2.726166248321533,-0.24335777759552002,0.004187434911727905,-0.0033864974975585938,-0.1664253550229627,-1.583483379451065,-0.4042262138217221,-0.9861040115356445,0.1656581610441208,0.012511424720287323,0.06648154556751251,-0.017577078193426132,0.29300665855407715
2.7457621097564697,-0.21374928951263428,0.05167384445667267,-0.011175990104675293,-0.17332910928663076,-1.5868213965200761,-0.40475976942936454,-0.984889805316925,0.17246252298355103,0.015784278512001038,-0.11636541783809662,-0.2557023763656616,0.43999961018562317
2.7639870643615723,-0.2713059186935425,0.02396896481513977,-0.003830432891845703,-0.18453511026840078,-1.5935080742258958,-0.41085299897394145,-0.9827683568000793,0.18348956108093262,0.022324224933981895,-0.47580552101135254,-0.27778878808021545,0.6930586695671082
2.7831549644470215,-0.37710243463516235,0.04953819513320923,0.05840134620666504,-0.19913558305674262,-1.599062752896969,-0.4261220550541407,-0.9798464775085449,0.19782206416130066,0.027704138308763504,-0.9153308272361755,0.05706813186407089,0.794282078742981
2.8022620677948,-0.40500593185424805,0.06996455788612366,0.0532994270324707,-0.21652878288957608,-1.6004539848537158,-0.4463920794252701,-0.976219654083252,0.21484076976776123,0.028960881754755974,-1.067610502243042,0.1483009308576584,1.0020782947540283
2.8224239349365234,-0.3215634226799011,0.11516135931015015,0.06539750099182129,-0.23756123430411358,-1.6055172759863199,-0.4699069013855201,-0.9713291525840759,0.23533305525779724,0.03373903036117554,-1.1301876306533813,-0.13941821455955505,1.1934391260147095
2.8422131538391113,-0.30327892303466797,0.07394689321517944,0.057784438133239746,-0.2626344167574503,-1.6172991558428917,-0.49313176805593884,-0.9646655917167664,0.25962552428245544,0.04489204287528992,-1.013193964958191,-0.409839391708374,1.4337342977523804
2.8661341667175293,-0.3840332627296448,0.08812597393989563,0.0753946304321289,-0.2912488257926044,-1.6316045055811477,-0.5147197868768348,-0.9561157822608948,0.28714868426322937,0.058211423456668854,-0.8352342247962952,-0.42180266976356506,1.483809232711792
2.883087158203125,-0.4643672704696655,0.10393014550209045,0.04709779471158981,-0.32047267145994957,-1.6434560460466774,-0.5314858778490614,-0.9465824961662292,0.31501519680023193,0.0688997134566307,-0.5973241329193115,-0.28720107674598694,1.5380557775497437
2.9065351486206055,-0.4052528142929077,0.04575234651565552,0.06655193120241165,-0.35140424602715464,-1.653588284892159,-0.5454423803563007,-0.9356745481491089,0.34421658515930176,0.07764381170272827,-0.5344699621200562,-0.27770721912384033,1.689807653427124
2.925248146057129,-0.3855496048927307,-0.018001943826675415,0.07138825207948685,-0.38434377963794325,-1.665837285306031,-0.5618858175321187,-0.9228612184524536,0.3749508857727051,0.0879746600985527,-0.6468029022216797,-0.34710150957107544,1.6857657432556152
2.9440200328826904,-0.4101880192756653,-0.010176002979278564,0.06994330137968063,-0.4160914191920833,-1.680488122142383,-0.5787317953249783,-0.9091784954071045,0.40418845415115356,0.10013134777545929,-0.5882083773612976,-0.46069103479385376,1.652644395828247
2.963892936706543,-0.38662391901016235,-0.006383836269378662,0.08908069133758545,-0.44701078469374667,-1.697862865880442,-0.5957255160686075,-0.8944736123085022,0.43227195739746094,0.11427333950996399,-0.5662239193916321,-0.567190408706665,1.6115221977233887
2.987308979034424,-0.33779406547546387,-0.027496933937072754,0.0646456629037857,-0.4777973548799693,-1.7174013719628114,-0.6119749712503942,-0.8784842491149902,0.4598243236541748,0.12972092628479004,-0.4714435636997223,-0.6830558180809021,1.6385973691940308
3.0072412490844727,-0.2858058214187622,-0.005216479301452637,0.06881298124790192,-0.5078628739857436,-1.7393993978015267,-0.6280038899291819,-0.8613959550857544,0.4863109588623047,0.14662602543830872,-0.4057871997356415,-0.7188604474067688,1.5496176481246948
3.0263030529022217,-0.2813286781311035,-0.007107377052307129,0.04034233093261719,-0.5365057048302725,-1.7593511752725093,-0.6415558959139138,-0.8442665338516235,0.5111357569694519,0.16110433638095856,-0.2762761116027832,-0.6313871741294861,1.466933250427246
3.047132968902588,-0.2459588646888733,0.019416749477386475,0.01805698871612549,-0.5627161998930149,-1.7783896027134214,-0.6532509830230464,-0.8276496529579163,0.5334855318069458,0.17432591319084167,-0.2334897369146347,-0.6669517159461975,1.3458019495010376
3.0666370391845703,-0.17086279392242432,-0.046713948249816895,0.026852592825889587,-0.5876104315143166,-1.800542199513292,-0.6690234730650303,-0.8103994727134705,0.5543738603591919,0.18953242897987366,-0.517638623714447,-0.6662101149559021,1.3785185813903809
3.0870771408081055,-0.13424581289291382,-0.09613054990768433,0.0033904314041137695,-0.610979080345311,-1.8247446698029257,-0.6902016606439075,-0.7928172945976257,0.5736696720123291,0.20577727258205414,-0.5898230671882629,-0.5682487487792969,1.304115891456604
3.1071629524230957,-0.1014440655708313,-0.0356370210647583,-0.061850666999816895,-0.6325956262975874,-1.8477227907375513,-0.7098709869334967,-0.7757685780525208,0.5912401080131531,0.22049638628959656,-0.4286470413208008,-0.6278827786445618,1.2139980792999268
3.126905918121338,-0.06537461280822754,0.0948062539100647,-0.020130515098571777,-0.6516165647653213,-1.871706842932638,-0.7300447345153057,-0.7593782544136047,0.6064725518226624,0.23566102981567383,-0.5222878456115723,-0.5736356973648071,1.0265398025512695
3.1477210521698,-0.08505469560623169,0.11463165283203125,-0.06412601470947266,-0.6671914407345516,-1.890691024279227,-0.7446632940524512,-0.7457101345062256,0.618782103061676,0.24703329801559448,-0.10952208191156387,-0.3824808597564697,0.8797469139099121
3.1622180938720703,-0.006079316139221191,0.010864853858947754,-0.07393443584442139,-0.6839779357634505,-1.90172706598139,-0.753206435402485,-0.7330107688903809,0.6318811774253845,0.2518369257450104,-0.033031072467565536,-0.2702406644821167,0.9019255638122559
3.181446075439453,0.061778903007507324,-0.04579800367355347,-0.08458974957466125,-0.7005781142812331,-1.9126788428184132,-0.7628793859657996,-0.7202262282371521,0.6446597576141357,0.2562970817089081,-0.16438208520412445,-0.21986928582191467,0.9316636919975281
3.205848217010498,0.10696643590927124,-0.016075432300567627,-0.0824228823184967,-0.7158890216640478,-1.9296851263875,-0.7812577074540963,-0.7064385414123535,0.6562884449958801,0.26500964164733887,-0.6196472644805908,-0.26831358671188354,1.0146404504776
3.2269392013549805,0.07694828510284424,-0.00889807939529419,-0.11127954721450806,-0.7305155873400966,-1.9522969842197324,-0.8113554414888051,-0.6912823915481567,0.6672537326812744,0.2773105800151825,-0.9540802836418152,0.04137039557099342,1.0922476053237915
3.246547222137451,0.07413965463638306,0.0005188584327697754,-0.12472376227378845,-0.7424175746010163,-1.9679461873661062,-0.8407589874339857,-0.6794864535331726,0.6760712265968323,0.285002201795578,-0.5299262404441833,0.3385026454925537,0.8411203622817993
3.266648054122925,0.18183928728103638,0.022760629653930664,-0.1640753448009491,-0.7564317951968214,-1.9682633788091501,-0.8521776391404987,-0.6705937385559082,0.6863306760787964,0.28152239322662354,0.33882635831832886,0.3230719566345215,0.788652241230011
3.284698009490967,0.2838672995567322,0.01868075132369995,-0.15620753169059753,-0.7764995244824693,-1.9565181414490225,-0.8403779006709824,-0.6609578728675842,0.7007865905761719,0.2683902680873871,1.1107434034347534,0.05742570385336876,0.7563954591751099
3.3053689002990723,0.27887606620788574,-0.056870996952056885,-0.08810541033744812,-0.7987405629003518,-1.9380188042748134,-0.815884693090442,-0.6510990858078003,0.7164780497550964,0.25045907497406006,1.2576110363006592,0.1235882118344307,0.65916907787323
3.326329231262207,0.22624921798706055,-0.15630847215652466,-0.03076300024986267,-0.8177765071695664,-1.9156137414056782,-0.7925262754391755,-0.6435924768447876,0.7296271324157715,0.23115679621696472,0.9489980936050415,0.40836963057518005,0.5939990282058716
3.345412015914917,0.23597240447998047,-0.2149907946586609,-0.07545530796051025,-0.8352963983462091,-1.8946070625835683,-0.7756880288399728,-0.6360884308815002,0.7414954304695129,0.21348653733730316,0.647158145904541,0.4058883488178253,0.6583411693572998
3.366267204284668,0.2647462487220764,-0.13395118713378906,-0.04222401976585388,-0.8503867792925713,-1.8780873752129028,-0.7619736148439432,-0.6287906169891357,0.7515355944633484,0.19954240322113037,0.8568831086158752,0.2376258373260498,0.4682449400424957
3.38618803024292,0.2077113389968872,-0.04576516151428223,-0.04683302342891693,-0.8649562845803822,-1.8435825604851197,-0.724593725050466,-0.6246883869171143,0.7610669136047363,0.17476288974285126,1.9659191370010376,0.4389171302318573,0.2496872991323471
3.4060471057891846,0.20227211713790894,0.008878707885742188,-0.03812125325202942,-0.8797122124480007,-1.780692753715739,-0.6553356570721881,-0.6233841776847839,0.7705554962158203,0.13280212879180908,2.5287420749664307,0.479308158159256,0.12481378763914108
3.426003932952881,0.27084898948669434,-0.16878968477249146,0.0702362060546875,-0.8907430219865722,-1.717544709608592,-0.5850169729230276,-0.6220758557319641,0.7775391936302185,0.09194962680339813,1.989927887916565,0.37396425008773804,0.2015818953514099
3.4459381103515625,0.24627208709716797,-0.39668482542037964,0.09794365614652634,-0.9009831154465279,-1.6747546368196728,-0.5382761790781909,-0.617487907409668,0.7839376330375671,0.06442525237798691,0.9495366215705872,0.26888370513916016,0.43273279070854187
3.4658031463623047,0.1088138222694397,-0.2545473575592041,0.08747327327728271,-0.9092073820015281,-1.6545773211832338,-0.5200752881746825,-0.6122165322303772,0.7890170216560364,0.05141245946288109,0.5054936408996582,0.37346047163009644,0.24841095507144928
3.485714912414551,-0.01758486032485962,-0.09000784158706665,0.005386237055063248,-0.9135097867680355,-1.6237176677720908,-0.4937609814867165,-0.6101160645484924,0.7916529774665833,0.03231833875179291,1.1980868577957153,0.5672025084495544,0.036838971078395844
3.5058040618896484,0.04816257953643799,0.05281257629394531,0.0389782190322876,-0.912414454183595,-1.5696374351549354,-0.43851753993323317,-0.6118375658988953,0.7909833192825317,-0.0007090537692420185,2.077967643737793,0.39773499965667725,-0.19368642568588257
3.5257081985473633,0.15679311752319336,-0.06250649690628052,0.13854503631591797,-0.9071091911816067,-1.511793262463831,-0.37115073481637695,-0.6149535179138184,0.7877262234687805,-0.03632630780339241,1.9534722566604614,0.1662549078464508,-0.14234212040901184
3.5455291271209717,0.09741348028182983,-0.3102502226829529,0.16170763969421387,-0.9047136836062019,-1.4685905595486495,-0.321483364539837,-0.6146864891052246,0.7862482666969299,-0.06304418295621872,1.066057562828064,0.21540673077106476,0.08893096446990967
3.565408229827881,-0.04695194959640503,-0.22536534070968628,0.10739637166261673,-0.902666167616806,-1.4477714462580198,-0.3021519198211054,-0.6148369908332825,0.7849814295768738,-0.07602418214082718,0.28704825043678284,0.39293372631073,-0.17930087447166443
3.5863499641418457,-0.042486369609832764,-0.06254017353057861,0.03607124090194702,-0.8977088066624354,-1.4332709473235248,-0.294042123601807,-0.617517352104187,0.7819006443023682,-0.08546378463506699,0.3686491549015045,0.42969924211502075,-0.17781314253807068
3.6035001277923584,0.052706360816955566,-0.030456244945526123,0.018712952733039856,-0.8903347524741584,-1.4139808992002196,-0.27630816524552293,-0.6214319467544556,0.7772824168205261,-0.09825685620307922,0.9922326803207397,0.1495523452758789,-0.3917568325996399
3.6235852241516113,0.042088210582733154,-0.033532023429870605,0.029837071895599365,-0.8792440022924689,-1.3841058645222815,-0.24053246311076595,-0.6266524791717529,0.7702569961547852,-0.11836842447519302,1.136210322380066,0.15013717114925385,-0.24714674055576324
3.6456031799316406,0.018810272216796875,-0.20615023374557495,0.18304412066936493,-0.8742515386177498,-1.3654615206152536,-0.22538562250341398,-0.6280938386917114,0.7670634984970093,-0.13081318140029907,-0.2588003873825073,0.6160881519317627,0.12767066061496735
3.6653709411621094,-0.08861136436462402,-0.2949983477592468,-0.0037826448678970337,-0.8800929682406597,-1.3676105483811196,-0.24622016520948392,-0.6239742040634155,0.7707980871200562,-0.12855669856071472,-0.7824400067329407,0.823066234588623,0.04355236142873764
3.685310125350952,-0.02789551019668579,0.037310123443603516,-0.08217871189117432,-0.878557379472627,-1.3651545834831065,-0.2632520098107955,-0.6248145699501038,0.769818902015686,-0.13033030927181244,0.1857585608959198,0.5558924078941345,-0.4355219602584839
3.7052090167999268,0.16319292783737183,0.08691376447677612,0.006762444972991943,-0.8731048339821531,-1.3489726908389703,-0.25042894928030635,-0.6267092227935791,0.7663273215293884,-0.14134488999843597,0.42817357182502747,0.0563751757144928,0.035348132252693176
3.7253000736236572,0.2029869556427002,-0.12665098905563354,0.16164179146289825,-0.8719221436494551,-1.3407200802399835,-0.23639167713998596,-0.6264031529426575,0.7655669450759888,-0.14671851694583893,0.4708826243877411,-0.20711594820022583,0.06555066257715225
3.745814085006714,-0.027526497840881348,-0.10268610715866089,0.09749852120876312,-0.8730958399250622,-1.3332797532363736,-0.22767139824944368,-0.6244206428527832,0.7663215398788452,-0.15116359293460846,-0.013826806098222733,0.25520840287208557,0.10679825395345688
3.7643260955810547,-0.05848228931427002,-0.060922205448150635,0.054230451583862305,-0.874211840272667,-1.329446604248978,-0.2296789229448449,-0.6230058073997498,0.7670380473136902,-0.15335147082805634,-0.08366987109184265,0.2595142722129822,0.0505644828081131
3.7854011058807373,0.03074467182159424,-0.03471583127975464,0.0006355792284011841,-0.875962402759183,-1.3268772089177503,-0.2316871504127478,-0.6213055849075317,0.7681600451469421,-0.15462712943553925,-0.0450020469725132,0.1403043419122696,0.039642442017793655
3.8033230304718018,0.026562094688415527,-0.06124722957611084,-0.003673836588859558,-0.8769582950973852,-1.3244743879399261,-0.2330493295201834,-0.6201900243759155,0.7687972784042358,-0.1559329628944397,-0.12224454432725906,0.23611032962799072,0.041634172201156616
3.823942184448242,0.0036520957946777344,-0.14824211597442627,-0.002579435706138611,-0.8781832009555557,-1.3232475935529056,-0.2391243577505612,-0.6190848350524902,0.7695800065994263,-0.15646283328533173,-0.3236042857170105,0.3520495295524597,-0.019365331158041954
3.842945098876953,0.01017916202545166,-0.12808537483215332,-0.004349127411842346,-0.8779686222733506,-1.3244458085761803,-0.24993190060194723,-0.6194322109222412,0.7694429755210876,-0.1557612419128418,-0.21333298087120056,0.347769558429718,-0.16064868867397308
3.864824056625366,0.02423691749572754,-0.03694033622741699,-0.03305433690547943,-0.8745285622920603,-1.3186879901897934,-0.24981271563510596,-0.6210845112800598,0.7672412395477295,-0.1599844992160797,0.2743208110332489,0.21553340554237366,-0.14252838492393494
3.8847432136535645,0.010981738567352295,0.029100477695465088,-0.021003365516662598,-0.8702559985731693,-1.3097000256293274,-0.24122081173522922,-0.6227829456329346,0.764494001865387,-0.16640496253967285,0.3322717547416687,0.05291377753019333,-0.12573708593845367
3.904911994934082,-0.04011642932891846,-0.005368351936340332,-0.0048058778047561646,-0.8669003786336402,-1.303027415329692,-0.23377907268030396,-0.6241292953491211,0.7623265385627747,-0.1712346374988556,0.2163597047328949,0.07397983223199844,-0.07819847017526627
3.9244651794433594,-0.05546152591705322,0.004068195819854736,0.002588331699371338,-0.8651235607345316,-1.2977263757706106,-0.22940303689531555,-0.624515950679779,0.7611753940582275,-0.1749057173728943,0.11509833484888077,0.12853707373142242,0.0027769971638917923
3.9450669288635254,-0.04170149564743042,-0.012282848358154297,-0.029979825019836426,-0.8651137542166968,-1.2935096770408852,-0.22711424398818877,-0.6237801313400269,0.7611690163612366,-0.1775396168231964,0.05626784637570381,0.1137903556227684,0.02245544269680977
3.9634861946105957,-0.0318528413772583,0.0050394535064697266,-0.048013731837272644,-0.8653434875847862,-1.2895370345605586,-0.2253229205978005,-0.6229017972946167,0.761318027973175,-0.17996768653392792,0.07255075126886368,0.13812144100666046,0.024979647248983383
3.9833641052246094,-0.026635825634002686,-0.0044689178466796875,-0.06087268888950348,-0.8653941235372035,-1.2840211365063228,-0.22209736207955788,-0.6218628287315369,0.7613508701324463,-0.18338994681835175,0.09085920453071594,0.17320087552070618,0.04912617430090904
4.004322052001953,0.0026244521141052246,-0.029056549072265625,-0.04193675518035889,-0.8652380513473732,-1.2784284180240086,-0.21941666860284706,-0.620941162109375,0.7612496614456177,-0.18689918518066406,0.11985652148723602,0.1781303733587265,-0.05541888251900673
4.023309230804443,0.028929054737091064,-0.03498244285583496,-0.010453939437866211,-0.8605532041365875,-1.270695727324007,-0.2120498045588441,-0.6228774785995483,0.758203387260437,-0.19274725019931793,0.46399015188217163,0.08622042834758759,-0.12163988500833511
4.044169902801514,0.0681113600730896,-0.099825918674469,0.013685852289199829,-0.8556197640534073,-1.260333891684601,-0.19989186575291779,-0.6244012117385864,0.7549774646759033,-0.20033130049705505,0.4021446406841278,-0.0027801995165646076,-0.15127170085906982
4.064105033874512,0.060341835021972656,-0.1361774206161499,0.04631413519382477,-0.8502916677554958,-1.253842518859871,-0.19029445869394146,-0.6269007325172424,0.7514728903770447,-0.20563100278377533,0.3743630647659302,-0.07788754999637604,-0.1430056244134903
4.0848870277404785,0.03838396072387695,-0.11834263801574707,0.0057508498430252075,-0.8461426421597441,-1.249161475501998,-0.18080379215515974,-0.6288838982582092,0.7487290501594543,-0.20954711735248566,0.2702018916606903,-0.11846951395273209,-0.03754744678735733
4.103043079376221,0.011010706424713135,-0.11913186311721802,-0.020278364419937134,-0.8451469718622041,-1.2500165199894882,-0.17953097380417446,-0.6297698616981506,0.748068630695343,-0.2092442363500595,-0.1242377758026123,-0.062090132385492325,-0.05541716516017914
4.123164176940918,-0.007914543151855469,-0.09448212385177612,-0.0228121280670166,-0.8450908357445691,-1.2553158891038627,-0.1876172329153169,-0.6309099793434143,0.7480313777923584,-0.20591701567173004,-0.31278538703918457,0.13031597435474396,-0.13598962128162384
4.144718170166016,0.001172482967376709,-0.05601775646209717,-0.06037174165248871,-0.843074357707748,-1.2575146212479245,-0.19546588759318229,-0.6327948570251465,0.7466916441917419,-0.20499373972415924,-0.12438222765922546,0.23700958490371704,-0.19234567880630493
4.163147926330566,0.03876817226409912,-0.048884451389312744,-0.04707436263561249,-0.8395146276982451,-1.255475926827311,-0.2007255432224798,-0.6348986029624939,0.7443190813064575,-0.20710639655590057,-0.1333693116903305,0.3356141746044159,-0.31640133261680603
4.1839210987091064,0.048359811305999756,-0.0768578052520752,-0.01500198245048523,-0.8324425179821221,-1.251962470450176,-0.20684751545137223,-0.6391496658325195,0.73957759141922,-0.21098054945468903,-0.0697251707315445,0.49408140778541565,-0.4546085000038147
4.202844142913818,0.06661278009414673,-0.06754010915756226,0.016123592853546143,-0.8231352414274812,-1.2461895610513638,-0.2145809553290518,-0.644417405128479,0.733281135559082,-0.21685287356376648,-0.07277848571538925,0.6389012336730957,-0.6182858943939209
4.223685026168823,0.09041726589202881,-0.09851574897766113,0.037974655628204346,-0.8107184040903037,-1.2363865239502116,-0.22068497265687054,-0.6508116722106934,0.7247823476791382,-0.22613070905208588,0.09893050044775009,0.7650153040885925,-0.6650669574737549
4.242946147918701,0.12274205684661865,-0.14223980903625488,0.05605316162109375,-0.7972483872941233,-1.2228718930380569,-0.22308233097425345,-0.6568149924278259,0.7154363393783569,-0.238212451338768,0.16528673470020294,0.7676693797111511,-0.6648632884025574
4.2639501094818115,0.12882518768310547,-0.12555861473083496,0.0548708438873291,-0.7833861309946853,-1.2102562520612383,-0.22772543498295272,-0.6629744172096252,0.705682635307312,-0.24995434284210205,-0.049755845218896866,0.8045157194137573,-0.8404520153999329
4.282625198364258,0.13173264265060425,0.023524880409240723,0.0657205581665039,-0.7598552194611745,-1.2033028001105686,-0.24018980735536516,-0.6765325665473938,0.688816487789154,-0.26045313477516174,0.6563979387283325,0.8727510571479797,-1.5907942056655884
4.303329944610596,0.21020996570587158,-0.14557737112045288,-0.11786353588104248,-0.7242728668597296,-1.1735156518162715,-0.22012364487108124,-0.6906483173370361,0.6625909805297852,-0.2897901237010956,1.9710854291915894,0.5924532413482666,-1.341080665588379
4.322307109832764,0.2067221999168396,-0.16198033094406128,0.06803309917449951,-0.6804704258678662,-1.1469779290917437,-0.19155640583805225,-0.7085075378417969,0.6291587352752686,-0.31965047121047974,1.6408154964447021,0.30148205161094666,-1.7968343496322632
4.343624114990234,0.1611919403076172,-0.26967567205429077,0.17504245042800903,-0.6348102382046245,-1.1356008505202082,-0.1800092180707194,-0.730131208896637,0.593024730682373,-0.339455783367157,1.1162207126617432,0.12673234939575195,-1.94187593460083
4.363714218139648,0.10533100366592407,-0.27566415071487427,0.14393576979637146,-0.5915848466017611,-1.1367326845712191,-0.18294836889882668,-0.7530820369720459,0.5576772093772888,-0.3490901291370392,0.5173404216766357,-0.08981151133775711,-2.1287119388580322
4.383172035217285,0.03784215450286865,-0.19254910945892334,0.10082706809043884,-0.5476941388358301,-1.1498243930922492,-0.20070019228897384,-0.7791906595230103,0.5207200646400452,-0.34887388348579407,-0.07840527594089508,-0.24629352986812592,-2.465498208999634
4.403270244598389,-0.009809494018554688,-0.17252707481384277,0.09442892670631409,-0.5048244717852383,-1.172327831107159,-0.23307516052404764,-0.8066883683204651,0.48365381360054016,-0.33960703015327454,-0.8030575513839722,-0.3825989067554474,-2.574807643890381
4.422194004058838,-0.039349138736724854,-0.17478173971176147,0.11427521705627441,-0.46509669823253763,-1.2035665239217477,-0.2799227216361654,-0.8341861367225647,0.44850921630859375,-0.32089442014694214,-1.521660566329956,-0.5679723024368286,-2.663292169570923
4.442935943603516,-0.09712213277816772,-0.0963849127292633,0.08404949307441711,-0.42665587056116877,-1.2401845647734207,-0.3354781168709834,-0.8610535264015198,0.4138287901878357,-0.29552093148231506,-1.8151161670684814,-0.6963361501693726,-2.6784074306488037
4.462820053100586,-0.19250237941741943,0.034115761518478394,0.07236689329147339,-0.3873480419021973,-1.2764623162485884,-0.39262570707077193,-0.8860957622528076,0.3777342736721039,-0.2686100900173187,-2.003612756729126,-0.6461414694786072,-2.694265365600586
4.482873916625977,-0.27243733406066895,0.11349627375602722,0.07509264349937439,-0.3477229893447451,-1.309577388967633,-0.4522352613159924,-0.9082574844360352,0.34075796604156494,-0.24280190467834473,-2.301386594772339,-0.5445848703384399,-2.631415367126465
4.5019450187683105,-0.25668269395828247,0.1414811611175537,0.08003312349319458,-0.3109225520022394,-1.340686222563035,-0.5159255448123569,-0.9269569516181946,0.3059370815753937,-0.21714848279953003,-2.5802180767059326,-0.5059022903442383,-2.402529239654541
4.522714138031006,-0.20866137742996216,0.2372141182422638,0.07097458839416504,-0.2788362928250341,-1.3676492666968552,-0.5788952458310239,-0.9416072964668274,0.2752370834350586,-0.1939602941274643,-2.6899654865264893,-0.39376890659332275,-2.0670883655548096
4.54294490814209,-0.20298844575881958,0.2927802801132202,0.01564890146255493,-0.250023439644605,-1.3922608875826545,-0.6392165795449182,-0.95350581407547,0.24742667376995087,-0.17206668853759766,-2.411104440689087,-0.4565981924533844,-1.8768640756607056
4.562562942504883,-0.19221985340118408,0.3600703477859497,-0.007969185709953308,-0.2226515506007495,-1.4134521649423453,-0.6894748981877398,-0.9632672667503357,0.2208164930343628,-0.15282775461673737,-1.8850818872451782,-0.4712362587451935,-1.6836880445480347
4.582634925842285,-0.16971039772033691,0.5020496249198914,-0.037735626101493835,-0.1949532253470967,-1.4293969066951706,-0.7240067195000628,-0.9712656736373901,0.19372065365314484,-0.13825906813144684,-0.9992397427558899,-0.4069816470146179,-1.5259729623794556
4.601700067520142,-0.09461885690689087,0.49443864822387695,-0.04319743812084198,-0.16950360007238455,-1.4401241105919875,-0.740089365374104,-0.9772654175758362,0.16869308054447174,-0.12843327224254608,-0.278840035200119,-0.400174617767334,-1.231046199798584
4.623057126998901,-0.057060956954956055,0.4561227560043335,-0.09432061016559601,-0.14836384851522344,-1.4494547572322087,-0.744434696112492,-0.9817423820495605,0.14782015979290009,-0.11971428990364075,-0.010211510583758354,-0.4387640655040741,-0.9030063152313232
4.644143104553223,-0.021256625652313232,0.39311811327934265,-0.055980078876018524,-0.13376972870821519,-1.4591213492964978,-0.7501336371988957,-0.9848927855491638,0.13337112963199615,-0.11044739931821823,-0.3870185613632202,-0.4428367614746094,-0.6592745184898376
4.661941051483154,-0.0008906722068786621,0.39142221212387085,-0.07677650451660156,-0.12327886271058322,-1.4689520549207908,-0.7609332347465282,-0.9872686266899109,0.12296684086322784,-0.10089673846960068,-0.487628310918808,-0.43362677097320557,-0.49061453342437744
4.6822309494018555,0.044068753719329834,0.41361814737319946,-0.17624282836914062,-0.11580005386608058,-1.4798567830414133,-0.7698217131940852,-0.9891983866691589,0.11554142087697983,-0.09020605683326721,-0.30586013197898865,-0.5299143195152283,-0.3501092493534088
4.701341152191162,0.08744925260543823,0.4094632863998413,-0.20195049047470093,-0.11029144413713336,-1.4912968647456128,-0.7742789263513111,-0.9907849431037903,0.11006797850131989,-0.0789332315325737,-0.1132381483912468,-0.5658072829246521,-0.23969322443008423
4.722154140472412,0.10924172401428223,0.3738980293273926,-0.19048672914505005,-0.10662004323916559,-1.5025729482685721,-0.7763639514269995,-0.9920085668563843,0.10641815513372421,-0.06778337061405182,-0.06866665929555893,-0.5477178692817688,-0.16549602150917053
4.742088079452515,0.11666220426559448,0.3837398290634155,-0.20633643865585327,-0.10373560596511963,-1.5134572954411423,-0.7767814404488822,-0.9929899573326111,0.10354965180158615,-0.0569995641708374,0.05876894295215607,-0.5449073910713196,-0.115900918841362
4.760297060012817,0.13373202085494995,0.37839189171791077,-0.25626087188720703,-0.10154940039776054,-1.5237581919247982,-0.7747320343714466,-0.9937480092048645,0.10137495398521423,-0.04677855968475342,0.14595848321914673,-0.5279895663261414,-0.11924254149198532
4.782002925872803,0.14220386743545532,0.3683241605758667,-0.3092679977416992,-0.09875519992524089,-1.5343895594540469,-0.7704175218674474,-0.9944683313369751,0.09859475493431091,-0.03622138127684593,0.29376962780952454,-0.565304696559906,-0.1321326643228531
4.802135944366455,0.1535787582397461,0.3799482583999634,-0.3151102066040039,-0.09613664496122615,-1.5439827668459936,-0.7631637901049614,-0.9950248003005981,0.09598862379789352,-0.02668655291199684,0.41691774129867554,-0.45647621154785156,-0.09884219616651535
4.82085108757019,0.1446792483329773,0.36737847328186035,-0.3221091032028198,-0.09438576615555631,-1.5503755342031342,-0.7546819427179137,-0.9953415393829346,0.09424568712711334,-0.020328490063548088,0.4082973003387451,-0.293095201253891,-0.0638665184378624
4.83988618850708,0.1447066068649292,0.37242019176483154,-0.35441726446151733,-0.09362841850471408,-1.5546895898145285,-0.7457992818587044,-0.9954909682273865,0.09349168092012405,-0.016035499051213264,0.48611772060394287,-0.24699783325195312,0.0017478977097198367
4.86078405380249,0.14590561389923096,0.3844814896583557,-0.3533244729042053,-0.09437250775617037,-1.5580359805939403,-0.735193774411279,-0.9954692125320435,0.0942324846982956,-0.012703221291303635,0.5522643327713013,-0.18408314883708954,0.09909820556640625
4.881625175476074,0.13354337215423584,0.3914215564727783,-0.3409404754638672,-0.09748709291479661,-1.5598169012347032,-0.7233116282342297,-0.9951919913291931,0.09733275324106216,-0.010927075520157814,0.6663820743560791,-0.09275545179843903,0.24218520522117615
4.901586055755615,0.12126219272613525,0.36413735151290894,-0.3190775513648987,-0.10392990823705886,-1.55926037241269,-0.7090666207882058,-0.9945381879806519,0.10374291241168976,-0.011473456397652626,0.7158282995223999,-0.006918840575963259,0.4022102952003479
4.921545028686523,0.09486556053161621,0.4073790907859802,-0.2970690131187439,-0.1125882496162467,-1.5572630297889245,-0.694402055742589,-0.9935778379440308,0.11235053837299347,-0.013447204604744911,0.7790107727050781,0.03890058025717735,0.48507168889045715
4.9415271282196045,0.061434924602508545,0.3904302716255188,-0.26271629333496094,-0.12344812420577173,-1.5550414006964055,-0.6773710229608105,-0.9922668933868408,0.12313481420278549,-0.015634385868906975,0.901720404624939,-0.0042108497582376,0.6228320598602295
4.961425065994263,-0.05897259712219238,0.4069760739803314,-0.2522646188735962,-0.13590712993374884,-1.551966562749869,-0.6562537049965153,-0.9906031489372253,0.13548913598060608,-0.01865502819418907,1.1773757934570312,0.058945927768945694,0.6436815857887268
4.981626033782959,-0.23190081119537354,0.41547703742980957,-0.27471208572387695,-0.14840637509521729,-1.543878917482271,-0.6307439254010468,-0.9886497259140015,0.14786221086978912,-0.026618318632245064,1.2666032314300537,0.3923102021217346,0.6974260807037354
5.001665115356445,-0.21377551555633545,0.3465235233306885,-0.15012627840042114,-0.16369756331068835,-1.5303535021185988,-0.6077217492076885,-0.985824704170227,0.16296744346618652,-0.03989128768444061,0.887622594833374,0.6143510341644287,0.9263851642608643
5.021585941314697,-0.1491885781288147,0.31661003828048706,0.006934225559234619,-0.1848529413252854,-1.5137728376494575,-0.5938966991579876,-0.9813657402992249,0.18380197882652283,-0.05602163448929787,0.420377641916275,0.8031508326530457,1.2577509880065918
5.040226936340332,-0.17454558610916138,0.26769086718559265,0.029312364757061005,-0.21269963769435926,-1.4939321245043264,-0.5841885697588648,-0.9745787382125854,0.21109946072101593,-0.07505809515714645,0.42364540696144104,0.9371477365493774,1.5597937107086182
5.061381101608276,-0.21779495477676392,0.2886447310447693,-0.006296113133430481,-0.24379241782249392,-1.4732271615728567,-0.5699672297580846,-0.9658142924308777,0.2413846254348755,-0.09453386068344116,0.7305975556373596,0.7961722016334534,1.6357078552246094
5.080048084259033,-0.24178606271743774,0.2877637445926666,-0.000368654727935791,-0.2741759193707407,-1.45318430435611,-0.5462797085560314,-0.9559984803199768,0.27075374126434326,-0.11295823007822037,1.2403620481491089,0.6000967621803284,1.618721604347229
5.101112127304077,-0.24944496154785156,0.22683554887771606,0.06809498369693756,-0.30218723028515776,-1.432653107434607,-0.5127722919579868,-0.9455929398536682,0.29760903120040894,-0.13146458566188812,1.65857994556427,0.5185239315032959,1.5785748958587646
5.1209869384765625,-0.2387092113494873,0.12859368324279785,0.14837898313999176,-0.3280490584366528,-1.4075158409576813,-0.4688830415027054,-0.9340813755989075,0.32219675183296204,-0.15388727188110352,2.0258138179779053,0.660885751247406,1.597631573677063
5.141118049621582,-0.2091706395149231,0.15083816647529602,0.1964588761329651,-0.3508858030504219,-1.3768365941934595,-0.41853241806825353,-0.921459972858429,0.34372976422309875,-0.18100163340568542,2.2993507385253906,0.6508453488349915,1.468494176864624
5.161746978759766,-0.16843831539154053,0.08986547589302063,0.15504220128059387,-0.36937403635491,-1.3449820070878826,-0.36024905175449046,-0.908877968788147,0.36103177070617676,-0.2087988257408142,2.575186014175415,0.5257055163383484,1.5596712827682495
5.179996967315674,-0.08834928274154663,0.0069776177406311035,0.24787145853042603,-0.38806543791605114,-1.3130432225749262,-0.3012799437011275,-0.8950645327568054,0.37839841842651367,-0.23595428466796875,2.288844108581543,0.5262649059295654,1.4863308668136597
5.200894117355347,-0.06807154417037964,-0.058664560317993164,0.27183178067207336,-0.4031617128465351,-1.2799465087313462,-0.2453173201164156,-0.8811930418014526,0.39232853055000305,-0.2637750208377838,2.282165288925171,0.5843403935432434,1.429776906967163
5.220595121383667,-0.014721512794494629,-0.07571759819984436,0.2870842218399048,-0.4181498958809101,-1.2470983349694558,-0.19116372283958036,-0.8663820624351501,0.40607044100761414,-0.2906699478626251,2.012960433959961,0.5440061688423157,1.4697905778884888
5.240791082382202,-0.03890633583068848,-0.12937143445014954,0.30951470136642456,-0.43209006371718417,-1.2169736891636598,-0.14182928638351522,-0.8518408536911011,0.4187696874141693,-0.314641535282135,1.7515164613723755,0.4312908351421356,1.3473572731018066
5.260684967041016,-0.10442519187927246,-0.1484995186328888,0.3942047357559204,-0.4448069391736552,-1.1885504014215766,-0.09996943662629554,-0.8375457525253296,0.4302836060523987,-0.33670952916145325,1.3147152662277222,0.7025750279426575,1.2027544975280762
5.280318021774292,-0.14153742790222168,-0.2113710343837738,0.4306272566318512,-0.45761459472390525,-1.158752237019081,-0.06857491163111099,-0.8220248222351074,0.44180938601493835,-0.3592771291732788,0.7984132170677185,0.8743971586227417,1.0684820413589478
5.300271034240723,-0.08952617645263672,-0.23197442293167114,0.4414733648300171,-0.47029649970539855,-1.131693390286924,-0.04708804507939645,-0.8068667054176331,0.4531506299972534,-0.3789732754230499,0.4766283333301544,0.8339319229125977,0.8710668087005615
5.3203630447387695,-0.05692493915557861,-0.21661335229873657,0.3886711001396179,-0.48066787166962693,-1.1109850517853512,-0.031974962650366756,-0.7945919036865234,0.46237146854400635,-0.39349281787872314,0.3091382384300232,0.5629007816314697,0.6660614013671875
5.340518951416016,-0.03159672021865845,-0.24894332885742188,0.42419278621673584,-0.48933977178440263,-1.096220393794555,-0.02212998883205031,-0.7850995659828186,0.47004324197769165,-0.4033339023590088,0.06064457818865776,0.477228581905365,0.5010355710983276
5.360453128814697,-0.0021148324012756348,-0.2747957408428192,0.4549126625061035,-0.4971400405197356,-1.086302423961545,-0.018887356516851507,-0.7777925133705139,0.476913720369339,-0.40938034653663635,-0.14184418320655823,0.3384546935558319,0.3258630037307739
5.380181074142456,0.04833775758743286,-0.2578042447566986,0.4599512219429016,-0.5033210750805069,-1.0823673563883012,-0.019647928626226604,-0.7735576033592224,0.48233741521835327,-0.41104671359062195,-0.15812407433986664,0.07213442772626877,0.18714503943920135
5.3997581005096436,0.04790365695953369,-0.2362293303012848,0.4256877899169922,-0.5060938790698999,-1.083340257289454,-0.019780534051675146,-0.7727724313735962,0.4847644865512848,-0.40966591238975525,0.037773847579956055,-0.13580003380775452,0.0513998344540596
5.420251131057739,0.026116013526916504,-0.22716501355171204,0.40958893299102783,-0.5043147534784027,-1.0857745126940885,-0.016737760672719176,-0.7745292782783508,0.4832076132297516,-0.40818509459495544,0.2918429374694824,-0.24016548693180084,-0.09528358280658722
5.439873218536377,0.014368772506713867,-0.2408418357372284,0.39329999685287476,-0.4972406738380485,-1.0894072031795443,-0.01061935542603087,-0.7790172696113586,0.47700217366218567,-0.406941294670105,0.47614753246307373,-0.4697475731372833,-0.2826469838619232
5.459824085235596,-0.04954046010971069,-0.21698182821273804,0.3135107755661011,-0.485615750284233,-1.0993774622556651,-0.004579611267515306,-0.7879230380058289,0.4667530059814453,-0.4016454815864563,0.5187678337097168,-0.7683142423629761,-0.5102443099021912
5.479666233062744,-0.14514678716659546,-0.20265623927116394,0.30622410774230957,-0.4719679021618094,-1.1129199594749695,-0.002761065299242301,-0.7989298105239868,0.45463991165161133,-0.3937179148197174,0.1808992326259613,-0.6183882355690002,-0.622168242931366
5.49971604347229,-0.15699046850204468,-0.24981093406677246,0.3423386514186859,-0.4614995680144134,-1.1258864373690018,-0.010418346169425427,-0.8082196116447449,0.44529131054878235,-0.38535308837890625,-0.3382650315761566,-0.3829188346862793,-0.6069067120552063
5.519718170166016,-0.07677203416824341,-0.28102925419807434,0.30828043818473816,-0.4553725890061518,-1.142022127731325,-0.027021730363585458,-0.8167979121208191,0.43979695439338684,-0.3733895719051361,-0.7194631695747375,-0.5441383719444275,-0.6020514965057373
5.539668083190918,-0.07986682653427124,-0.19290024042129517,0.23671245574951172,-0.44884820173499534,-1.1660074599038635,-0.048610356873802094,-0.828137993812561,0.43392810225486755,-0.35481542348861694,-0.7258171439170837,-0.9520416855812073,-0.8140193223953247
5.559656143188477,-0.2542359232902527,-0.09689691662788391,0.21064230799674988,-0.43603826378436833,-1.196743764810744,-0.07051302643427414,-0.8437562584877014,0.42235174775123596,-0.3312019407749176,-0.6797698140144348,-1.0645147562026978,-1.1344910860061646
5.579939126968384,-0.5102405548095703,-0.06104812026023865,0.2229723036289215,-0.41826039873968673,-1.2250108869240448,-0.09775565384110084,-0.859708845615387,0.40617144107818604,-0.30971843004226685,-1.1031019687652588,-0.6003018617630005,-1.3720847368240356
5.60114312171936,-0.521984875202179,-0.10857972502708435,0.26071202754974365,-0.4024691041288394,-1.249051866531514,-0.13901402031880636,-0.8728821873664856,0.3916913568973541,-0.2909548282623291,-1.9970781803131104,-0.24476300179958344,-1.3293955326080322
5.6197309494018555,-0.3177487254142761,-0.11232346296310425,0.2132444977760315,-0.3926279086883178,-1.2762773572253374,-0.1956275098075756,-0.8841251730918884,0.38261768221855164,-0.26819127798080444,-2.5616536140441895,-0.3104584813117981,-1.2010352611541748
5.639665126800537,-0.18083757162094116,-0.014792650938034058,0.07910293340682983,-0.3844042767448637,-1.305297886615012,-0.2549424924338504,-0.8945409655570984,0.37500694394111633,-0.2432415932416916,-2.415121555328369,-0.3464529812335968,-1.112937092781067
5.659708023071289,-0.08913153409957886,0.06676530838012695,-0.04665069282054901,-0.37438402557261535,-1.3319327868522384,-0.30571161197709634,-0.9043073058128357,0.36569929122924805,-0.22021014988422394,-1.8638941049575806,-0.46508756279945374,-1.0409215688705444
5.6796650886535645,-0.016326487064361572,0.07755818963050842,-0.12174610793590546,-0.3621448797607325,-1.35616073704097,-0.34186121238576567,-0.9136815071105957,0.3542807996273041,-0.1991765946149826,-1.1750112771987915,-0.6460909843444824,-0.9127868413925171
5.699676990509033,-0.023438870906829834,0.07559865713119507,-0.13551771640777588,-0.34908105545122375,-1.3773700419919117,-0.365813679886622,-0.9221636652946472,0.3420344293117523,-0.18062900006771088,-0.8912688493728638,-0.5948020815849304,-0.8441582322120667
5.719666004180908,-0.07657957077026367,0.008582651615142822,-0.08434313535690308,-0.33603930526731124,-1.3953149038252728,-0.3904492039837115,-0.9295698404312134,0.32975050806999207,-0.16481749713420868,-1.2713499069213867,-0.3569936752319336,-0.8595705628395081
5.739725112915039,-0.06138002872467041,-0.04025900363922119,-0.03819794952869415,-0.32350611631492515,-1.4125862346803884,-0.42508420311805956,-0.9362856149673462,0.31789276003837585,-0.14937825500965118,-1.707405686378479,-0.24947334825992584,-0.919501781463623
5.759666919708252,-0.01518017053604126,0.03108268976211548,-0.048120081424713135,-0.31073141764456536,-1.430355205575485,-0.4673270393530304,-0.9427362084388733,0.3057551085948944,-0.1332763284444809,-2.066084146499634,-0.19992265105247498,-0.9475598931312561
5.779668092727661,0.03228181600570679,0.08893078565597534,-0.09038883447647095,-0.29660964828402664,-1.4489576299875029,-0.5135402670986375,-0.9492436051368713,0.29227960109710693,-0.116230309009552,-2.056886672973633,-0.28937414288520813,-1.0413535833358765
5.7996649742126465,0.08713418245315552,0.1657266914844513,-0.10703742504119873,-0.2794553574137236,-1.4679030883025572,-0.5558357941438598,-0.9561223387718201,0.2758321762084961,-0.09872718155384064,-1.7113982439041138,-0.4248077869415283,-1.1198749542236328
5.8196680545806885,0.10896140336990356,0.24257665872573853,-0.14931148290634155,-0.2597073586474918,-1.4858526872280227,-0.5871700149742589,-0.9629806876182556,0.256797730922699,-0.081996388733387,-1.1231399774551392,-0.5327345132827759,-1.143844485282898
5.839661121368408,0.11637717485427856,0.3048052191734314,-0.2066587209701538,-0.2374905782866103,-1.5024756261814085,-0.6047961272814899,-0.9696640372276306,0.235264390707016,-0.06635139882564545,-0.3886890113353729,-0.6816786527633667,-1.1992614269256592
5.859607219696045,0.1339625120162964,0.3494473099708557,-0.25580263137817383,-0.21385510409759084,-1.517561543985421,-0.6066982801174194,-0.9758358001708984,0.21222874522209167,-0.051997534930706024,0.3228829801082611,-0.792384684085846,-1.1662676334381104
5.8797080516815186,0.14216262102127075,0.3725799024105072,-0.29956984519958496,-0.19114292849205664,-1.5322992356741956,-0.5964425423268938,-0.9810603260993958,0.1899811327457428,-0.037786636501550674,0.7388824820518494,-0.8736065030097961,-1.0561646223068237
5.8998260498046875,0.1299973726272583,0.3589227795600891,-0.3245422840118408,-0.17116286050059182,-1.546640569176876,-0.5805768836844207,-0.9850999116897583,0.17032833397388458,-0.02380046434700489,0.8541266918182373,-0.8278796076774597,-0.895842969417572
5.920923233032227,0.10002827644348145,0.3419712483882904,-0.35682135820388794,-0.155079074995895,-1.5582809040780508,-0.5636559118110008,-0.987922191619873,0.15445822477340698,-0.01236490998417139,0.810605525970459,-0.5923011898994446,-0.6722428202629089
5.939866065979004,0.10431057214736938,0.32197898626327515,-0.3515776991844177,-0.1445887316625941,-1.565091102677504,-0.5513656036428785,-0.9895493984222412,0.14408546686172485,-0.00564566208049655,0.38392964005470276,-0.2634707987308502,-0.3591887354850769
5.959764003753662,0.14159876108169556,0.295990526676178,-0.3355216383934021,-0.1400750026310135,-1.5677876512786681,-0.549553824173861,-0.9902011752128601,0.13961738348007202,-0.0029792028944939375,-0.2111486792564392,-0.05131382495164871,-0.10789959877729416
5.979867935180664,0.1742485761642456,0.2730594277381897,-0.3301769495010376,-0.14065770772002695,-1.568230187411482,-0.5572116704891042,-0.9901207685470581,0.1401943564414978,-0.002540793502703309,-0.45433396100997925,0.09627669304609299,0.16948610544204712
5.999721050262451,0.1862558126449585,0.3267545700073242,-0.35551512241363525,-0.1461930124713266,-1.567049192956137,-0.5645947596601006,-0.9893261194229126,0.14567281305789948,-0.0037071548867970705,-0.20405961573123932,0.09922020137310028,0.3532176613807678
6.01966404914856,0.15505141019821167,0.38164228200912476,-0.3812902569770813,-0.1542006632570136,-1.5653954187732861,-0.5628903379640021,-0.9881203770637512,0.15359029173851013,-0.005336799193173647,0.3822064697742462,0.05265696346759796,0.4355134963989258
6.039732933044434,0.07283157110214233,0.4014382064342499,-0.3733851909637451,-0.163080682175916,-1.5622474822095136,-0.5502605378712561,-0.9866958260536194,0.16235877573490143,-0.008435314521193504,0.8051905632019043,0.09185824543237686,0.45653286576271057
6.059665203094482,-0.02061009407043457,0.3437756299972534,-0.3165063261985779,-0.1724433749917613,-1.5553469863247156,-0.5332210240428334,-0.985051155090332,0.17159000039100647,-0.015219601802527905,0.7880699634552002,0.3189963400363922,0.5176977515220642
6.07967209815979,-0.03984469175338745,0.26015713810920715,-0.220797598361969,-0.1841186977514701,-1.5461493646743203,-0.5213463651979307,-0.9827995896339417,0.18308019638061523,-0.0242279302328825,0.32167232036590576,0.3439616858959198,0.6766717433929443
6.099648952484131,-0.12257224321365356,0.25073516368865967,-0.19377738237380981,-0.1982072119958034,-1.5393436048049427,-0.517615781881485,-0.9799365401268005,0.19691196084022522,-0.03083183988928795,0.10378432273864746,0.2917175590991974,0.7209338545799255
6.119668960571289,-0.2899346947669983,0.33973366022109985,-0.23369568586349487,-0.2120378227123844,-1.530726603980557,-0.5121658795116817,-0.9768195748329163,0.21045251190662384,-0.03916185349225998,0.44008511304855347,0.49439841508865356,0.6832503080368042
6.139745235443115,-0.3620184659957886,0.4087536036968231,-0.23879700899124146,-0.22492842868821603,-1.5147259026367073,-0.4984387578008297,-0.973278284072876,0.22303658723831177,-0.054629385471343994,0.803546130657196,0.7958196997642517,0.6850754618644714
6.159657955169678,-0.23208403587341309,0.33000481128692627,-0.1449751853942871,-0.23921034648179848,-1.493778017627671,-0.47959295267754604,-0.9686455726623535,0.23693552613258362,-0.07475131005048752,0.8698861598968506,0.8316972851753235,0.8961646556854248
6.179666996002197,-0.1328260898590088,0.25811100006103516,-0.029472410678863525,-0.2580806282114009,-1.473215024729255,-0.46079733514535487,-0.9622820615768433,0.25522521138191223,-0.09419992566108704,0.8451313972473145,0.7678990960121155,1.1119931936264038
6.199665069580078,-0.19362962245941162,0.2510891556739807,-0.016193822026252747,-0.2791329263009081,-1.4518528088603133,-0.4386589978984272,-0.9545029401779175,0.27552223205566406,-0.11407037824392319,1.0757418870925903,0.7809686660766602,1.1934144496917725
6.219665050506592,-0.2231237292289734,0.2657213807106018,-0.004090145230293274,-0.29952846610856987,-1.4285216212676382,-0.40922257281868696,-0.9458218216896057,0.29506969451904297,-0.13548190891742706,1.4821255207061768,0.6996987462043762,1.1916487216949463
6.239682197570801,-0.2011229395866394,0.25794467329978943,0.017666399478912354,-0.31747580226979893,-1.4041308816627245,-0.37007325447174966,-0.9368624687194824,0.31216949224472046,-0.15760459005832672,1.9616438150405884,0.5675355792045593,1.1691844463348389
6.259752035140991,-0.17457497119903564,0.19699132442474365,0.08827660977840424,-0.33378469865762217,-1.376677737817595,-0.32146443152555276,-0.9270640015602112,0.327621191740036,-0.18225538730621338,2.1911282539367676,0.6408877372741699,1.2744399309158325
6.279666900634766,-0.1625080108642578,0.12086877226829529,0.15826940536499023,-0.35069201177328324,-1.3447833006677845,-0.27173529210318437,-0.9152508974075317,0.3435477912425995,-0.21045435965061188,1.922831416130066,0.8692185878753662,1.3844780921936035
6.29966402053833,-0.12002617120742798,0.06583887338638306,0.1649651676416397,-0.3692203432955376,-1.3117355079370028,-0.22701109973429948,-0.9014887809753418,0.36088842153549194,-0.23890909552574158,1.7958580255508423,0.918257474899292,1.4485920667648315
6.319675922393799,-0.04142796993255615,0.019738048315048218,0.20617690682411194,-0.3897430071018447,-1.2755378616018955,-0.18189560135311736,-0.8849789500236511,0.37995070219039917,-0.2691650688648224,1.6478798389434814,1.0035377740859985,1.674088716506958
6.339702129364014,-0.017422616481781006,-0.002557039260864258,0.24106237292289734,-0.4126855428112761,-1.2385128822450557,-0.13868678423821043,-0.8659392595291138,0.40107086300849915,-0.2988167703151703,1.4372965097427368,1.0187007188796997,1.734840989112854
6.359667062759399,-0.029854118824005127,-0.04252442717552185,0.26786357164382935,-0.43630157055682894,-1.202259374964264,-0.09812880161793466,-0.8454663753509521,0.4225904047489166,-0.32650303840637207,1.265878438949585,0.9065386056900024,1.771069884300232
6.379666090011597,-0.10023212432861328,-0.05457600951194763,0.26809555292129517,-0.4601211570241169,-1.168499026742118,-0.059442680171927664,-0.8244658708572388,0.4440566599369049,-0.3508133590221405,1.0957860946655273,0.8303660154342651,1.7166926860809326
6.399725914001465,-0.19232410192489624,-0.10740834474563599,0.3481493592262268,-0.4825813977167023,-1.13369288539055,-0.02376667111579697,-0.8025185465812683,0.4640673100948334,-0.37497422099113464,0.8306897878646851,1.060159683227539,1.6599388122558594
6.419663906097412,-0.19773155450820923,-0.177190363407135,0.43910282850265503,-0.5065096063347094,-1.0970691809504491,0.005059321874573123,-0.7781444191932678,0.4851280450820923,-0.39892637729644775,0.40163126587867737,1.204068899154663,1.5995922088623047
6.439667224884033,-0.14713090658187866,-0.2383219599723816,0.4845684766769409,-0.5323012916066118,-1.0630873971253605,0.025490775863199523,-0.7529546618461609,0.5075175762176514,-0.41890981793403625,-0.052727799862623215,1.1690012216567993,1.514017939567566
6.4596641063690186,-0.1081586480140686,-0.26969200372695923,0.5065374374389648,-0.559688788161951,-1.0347155368933132,0.037411834542350975,-0.7285418510437012,0.5309224724769592,-0.4328373670578003,-0.39631256461143494,1.0416812896728516,1.3528329133987427
6.479664087295532,-0.09548574686050415,-0.29618602991104126,0.5139709711074829,-0.5857855790406983,-1.0125532600824796,0.04262290042300232,-0.7067756652832031,0.5528541803359985,-0.4413847327232361,-0.5603974461555481,0.8956840634346008,1.1031107902526855
6.499665021896362,-0.07444572448730469,-0.3052827715873718,0.5038408637046814,-0.6078527836785227,-0.9959722098128849,0.04404320555188325,-0.6889516115188599,0.5711061954498291,-0.4462999403476715,-0.49365347623825073,0.6763558387756348,0.828296959400177
6.519665241241455,-0.04467010498046875,-0.3093171715736389,0.48684173822402954,-0.6238806217992577,-0.98369601685163,0.04538703286511291,-0.6757127046585083,0.5841891169548035,-0.44959500432014465,-0.2700119614601135,0.47807374596595764,0.5720393657684326
6.539725065231323,-0.011765122413635254,-0.32080286741256714,0.46913352608680725,-0.632664227233729,-0.9743057098195133,0.04916899511160304,-0.6671900153160095,0.5912954211235046,-0.4530201256275177,0.039359625428915024,0.22424887120723724,0.3358469009399414
6.559667110443115,0.0040686726570129395,-0.3217155337333679,0.445947527885437,-0.6338532599041088,-0.9695967741600977,0.056048459506818284,-0.6644691228866577,0.5922539234161377,-0.4557588994503021,0.337204247713089,-0.14954665303230286,0.07519299536943436
6.579665184020996,-0.029437899589538574,-0.32335275411605835,0.42052215337753296,-0.6289251444409416,-0.9710629618509092,0.06326902902368411,-0.6675379276275635,0.5882759094238281,-0.4564259946346283,0.3827661871910095,-0.42304930090904236,-0.15378950536251068
6.599687099456787,-0.10806000232696533,-0.3377063274383545,0.4396921694278717,-0.6210728633378698,-0.9798242984108172,0.06509362789786229,-0.6753262877464294,0.5819079875946045,-0.45311984419822693,0.1407795548439026,-0.5299974083900452,-0.422856867313385
6.619710922241211,-0.17747336626052856,-0.3348609209060669,0.4444654583930969,-0.6126834135366486,-0.9949181880463183,0.05660779771427489,-0.6861588954925537,0.5750648379325867,-0.44551825523376465,-0.27477145195007324,-0.4796389937400818,-0.6507388949394226
6.639667987823486,-0.1727944016456604,-0.34100764989852905,0.4242510199546814,-0.6053504890237019,-1.0155232787044586,0.036855399699749734,-0.6987572312355042,0.5690503120422363,-0.433497816324234,-0.6645553112030029,-0.48802369832992554,-0.8475074172019958
6.659667015075684,-0.11380821466445923,-0.31057530641555786,0.3440420627593994,-0.5960389644293431,-1.0426895817926545,0.01043674351813921,-0.7148204445838928,0.5613688826560974,-0.41700953245162964,-0.645149827003479,-0.7713483572006226,-1.083327054977417
6.679673194885254,-0.08681923151016235,-0.2077510952949524,0.23855850100517273,-0.5793594495787514,-1.074205138658949,-0.01250156851535776,-0.7357363700866699,0.5474880337715149,-0.39868414402008057,-0.16968192160129547,-1.1193811893463135,-1.318206787109375
6.699674129486084,-0.14983421564102173,-0.1255800724029541,0.18538343906402588,-0.5531386042089367,-1.1090486351404234,-0.0276895871160036,-0.7617717385292053,0.5253604054450989,-0.3790784478187561,0.20246416330337524,-1.554755687713623,-1.6273211240768433
6.719663143157959,-0.34683436155319214,-0.083880215883255,0.19278168678283691,-0.518447070748056,-1.1483165744131787,-0.040699420770541186,-0.7922191023826599,0.4955318868160248,-0.35614219307899475,0.20526441931724548,-1.5946807861328125,-1.9832465648651123
6.739704132080078,-0.536903440952301,-0.05068182945251465,0.21384817361831665,-0.48067668267777086,-1.1836758413341268,-0.05939825197873827,-0.8210678696632385,0.4623792767524719,-0.334743469953537,-0.3227446973323822,-1.0255229473114014,-2.0883705615997314
6.7596869468688965,-0.4491739869117737,-0.07545515894889832,0.20627999305725098,-0.44883330918768105,-1.2150500880892263,-0.09215104217664956,-0.8445425629615784,0.4339146912097931,-0.3137933015823364,-1.2748055458068848,-0.7464991211891174,-1.925086498260498
6.779664993286133,-0.21417951583862305,-0.08152890205383301,0.16192185878753662,-0.4262937793990595,-1.2511624997739998,-0.1399946147932898,-0.8643879294395447,0.413499116897583,-0.28609776496887207,-1.99936842918396,-0.8631177544593811,-1.6217212677001953
6.799714088439941,-0.11919975280761719,-0.045742928981781006,0.07362550497055054,-0.4107746542057212,-1.2912724007634555,-0.19433378649675606,-0.8812276124954224,0.3993196487426758,-0.2529466450214386,-2.200817346572876,-0.9173105955123901,-1.3609241247177124
6.819675922393799,-0.14593374729156494,0.05262354016304016,-0.038121432065963745,-0.3961158389816046,-1.329180981443176,-0.245009462314648,-0.8957687616348267,0.3858378529548645,-0.2207438200712204,-1.869081735610962,-0.8919859528541565,-1.2884284257888794
6.839664936065674,-0.15531837940216064,0.1728290319442749,-0.08877688646316528,-0.3785353741106037,-1.3616957026090921,-0.28374935973664084,-0.9089670181274414,0.3695599138736725,-0.19288496673107147,-1.211898922920227,-0.9034855365753174,-1.2318902015686035
6.859703063964844,-0.13952571153640747,0.1942698061466217,-0.0788222998380661,-0.3586746615689277,-1.3886251787667068,-0.30822631573208037,-0.9208686351776123,0.3510335385799408,-0.16963639855384827,-0.7173100113868713,-0.8944161534309387,-1.1729426383972168
6.879669189453125,-0.1468297243118286,0.1596110463142395,-0.04552990198135376,-0.3382092231426473,-1.412081567290944,-0.3271807566003457,-0.9314936995506287,0.3317982852458954,-0.1490958333015442,-0.7671939730644226,-0.7926655411720276,-1.1608397960662842
6.899691104888916,-0.13658863306045532,0.12607279419898987,-0.04038487374782562,-0.31807581967553294,-1.4342841351844269,-0.3502411876318727,-0.9410023093223572,0.3127394914627075,-0.12926223874092102,-1.1149897575378418,-0.700936496257782,-1.1520915031433105
6.919666051864624,-0.07819551229476929,0.13267624378204346,-0.08249622583389282,-0.2990213599784721,-1.4566613319048212,-0.3797659569706751,-0.9494077563285828,0.29458513855934143,-0.10883364826440811,-1.4238203763961792,-0.6397596001625061,-1.0981663465499878
6.9396750926971436,-0.011222779750823975,0.17852240800857544,-0.12491666525602341,-0.28030345343569635,-1.4782122627744974,-0.4125185629512706,-0.9568559527397156,0.27664726972579956,-0.08884360641241074,-1.4651024341583252,-0.5968913435935974,-1.102422833442688
6.959665060043335,0.05603742599487305,0.23469439148902893,-0.15748882293701172,-0.261042821804591,-1.4987486826397187,-0.44259637054455647,-0.9636150002479553,0.2580881714820862,-0.06954657286405563,-1.2259728908538818,-0.669497549533844,-1.0643527507781982
6.979664087295532,0.09403061866760254,0.2998225688934326,-0.22147363424301147,-0.24104873105228194,-1.5188491819987817,-0.4638602139479305,-0.9697784781455994,0.23872116208076477,-0.050422586500644684,-0.6734179854393005,-0.8038152456283569,-1.0641549825668335
6.998718023300171,0.09941232204437256,0.35479894280433655,-0.29108989238739014,-0.22042220035681812,-1.5375750298137054,-0.4724783448486517,-0.9752669334411621,0.21864162385463715,-0.03241155669093132,-0.09548825025558472,-0.8667459487915039,-1.0360058546066284
7.019687175750732,0.09712815284729004,0.3653686046600342,-0.32411080598831177,-0.20037695528208832,-1.55467929708581,-0.4712449290840627,-0.9798643589019775,0.19903875887393951,-0.015793871134519577,0.21724216639995575,-0.8752886652946472,-0.9651629328727722
7.039761066436768,0.10419881343841553,0.344618558883667,-0.33641910552978516,-0.18223688926047696,-1.5710069431698481,-0.4653255293543281,-0.9834408164024353,0.1812298744916916,0.0002071287453873083,0.378775030374527,-0.8587068319320679,-0.8469842672348022
7.059736013412476,0.08831363916397095,0.3520220220088959,-0.3886071443557739,-0.16667777223177707,-1.5855547039303355,-0.4560568362824451,-0.9860342144966125,0.165907084941864,0.014553321525454521,0.5276791453361511,-0.7492946982383728,-0.7187316417694092
7.07966423034668,0.09551680088043213,0.3715694844722748,-0.4280266761779785,-0.15420264285016855,-1.5972077773138382,-0.44381483173172676,-0.9877898097038269,0.15359225869178772,0.026095028966665268,0.6444308757781982,-0.6102837920188904,-0.5508937239646912
7.099733114242554,0.11789113283157349,0.3565078377723694,-0.43052542209625244,-0.14563920409194367,-1.6055171537197888,-0.4305466890537563,-0.9888171553611755,0.1451248973608017,0.03434635326266289,0.6149642467498779,-0.4076608419418335,-0.3458218276500702
7.11966609954834,0.13950300216674805,0.3255612254142761,-0.4114265441894531,-0.1412624892094568,-1.6095565447349778,-0.4198312267614198,-0.9892955422401428,0.14079314470291138,0.03836452588438988,0.4187789857387543,-0.1545225977897644,-0.13618150353431702
7.139669895172119,0.16993629932403564,0.2866273522377014,-0.38290727138519287,-0.14083975202936758,-1.6093222952765047,-0.4133725774821987,-0.9893637895584106,0.14037460088729858,0.038135066628456116,0.2341098040342331,0.07650210708379745,0.06674710661172867
7.159623146057129,0.19710099697113037,0.28127288818359375,-0.37226080894470215,-0.14402929392164968,-1.606011539054431,-0.4087724873652908,-0.9890323877334595,0.14353184401988983,0.03484338894486427,0.27889591455459595,0.1684195101261139,0.22733011841773987
7.179172992706299,0.171214759349823,0.3339110314846039,-0.383297324180603,-0.149957272388634,-1.6011214222535424,-0.4004492223742246,-0.9883230328559875,0.1493958830833435,0.029980182647705078,0.5899584889411926,0.20119449496269226,0.33306771516799927
7.199676990509033,0.08468061685562134,0.35823994874954224,-0.37852954864501953,-0.15748594960091752,-1.5939473989998834,-0.3862733097278436,-0.9873602390289307,0.15683576464653015,0.02286253310739994,0.7927179336547852,0.31363645195961,0.3828645348548889
7.2196760177612305,0.0017302632331848145,0.32952895760536194,-0.311287522315979,-0.16604501881684605,-1.5835228006225304,-0.3711790064305926,-0.9861664175987244,0.16528306901454926,0.012551098130643368,0.6739080548286438,0.49728935956954956,0.46366411447525024
7.2397332191467285,-0.04397404193878174,0.2844361662864685,-0.21305358409881592,-0.1769968482961811,-1.570264466597951,-0.36135074652333093,-0.9843769669532776,0.17607413232326508,-0.0005235510179772973,0.279700368642807,0.6577511429786682,0.6361719369888306
7.2596659660339355,-0.10323673486709595,0.27294203639030457,-0.1467767357826233,-0.19157607246519287,-1.5552552272059272,-0.3591565983584393,-0.9815870523452759,0.19040636718273163,-0.015256170183420181,-0.04378683492541313,0.8084853291511536,0.8120821118354797
7.2796630859375,-0.17877906560897827,0.3139677941799164,-0.11271661520004272,-0.20908242508059804,-1.5390949746598888,-0.3613974362488312,-0.9777304530143738,0.2075624018907547,-0.03100576438009739,-0.17461809515953064,0.809394896030426,0.9281014204025269
7.299696922302246,-0.2691071629524231,0.3544086217880249,-0.10372787714004517,-0.22794350876826064,-1.5236290684341947,-0.3625569000972304,-0.9730499386787415,0.22597470879554749,-0.045930165797472,0.0380355529487133,0.8136186599731445,0.9372920989990234
7.31966495513916,-0.363627552986145,0.3902322053909302,-0.0936516597867012,-0.24571687921934632,-1.5036607580504282,-0.35651145274266566,-0.9677783250808716,0.2432517409324646,-0.06507013738155365,0.43214181065559387,1.0599591732025146,0.8755779266357422
7.339663982391357,-0.2712762951850891,0.3558027148246765,0.020983509719371796,-0.26322383416256623,-1.4778641311360958,-0.34505101329144205,-0.9613900184631348,0.26019468903541565,-0.08960217982530594,0.47006556391716003,1.1639950275421143,0.9857211709022522
7.359705924987793,-0.09408169984817505,0.24930429458618164,0.1313694715499878,-0.2843586751685809,-1.453677766504677,-0.33461301399714666,-0.9532665014266968,0.28054192662239075,-0.11215848475694656,0.338582307100296,0.9675784111022949,1.2317041158676147
7.379674911499023,-0.06323140859603882,0.18744641542434692,0.13725875318050385,-0.3097146952538991,-1.432520852425395,-0.32332898568037177,-0.9433301091194153,0.30478692054748535,-0.1312771588563919,0.43977299332618713,0.8380310535430908,1.4069281816482544
7.399662971496582,-0.1021842360496521,0.19246536493301392,0.10848528146743774,-0.33636360360330464,-1.4119143577897906,-0.3069148021526924,-0.9320718050003052,0.33005666732788086,-0.1493482142686844,0.7452579140663147,0.6929396986961365,1.4467034339904785
7.419785022735596,-0.10917830467224121,0.19552713632583618,0.07641756534576416,-0.361081055602331,-1.3911146558892071,-0.280607121925981,-0.9204543828964233,0.3532857894897461,-0.16719196736812592,1.3222957849502563,0.46270057559013367,1.4166247844696045
7.439664125442505,-0.09895753860473633,0.18515348434448242,0.08176469802856445,-0.3821227992809236,-1.3695277447008112,-0.23965918617363544,-0.9091449975967407,0.37289100885391235,-0.1854938417673111,2.0387637615203857,0.22064127027988434,1.3728879690170288
7.459662914276123,-0.13873618841171265,0.1783895194530487,0.12601394951343536,-0.3983628828736527,-1.3443891436609055,-0.18420994905681845,-0.8981748819351196,0.3879099488258362,-0.20690064132213593,2.579953908920288,0.2295524626970291,1.305476188659668
7.479678153991699,-0.17616188526153564,0.11578071117401123,0.19257235527038574,-0.4104315839660472,-1.3131782110765962,-0.12074904519160876,-0.8866891264915466,0.39900511503219604,-0.2336183786392212,2.76000714302063,0.40870118141174316,1.2820733785629272
7.4996631145477295,-0.158669114112854,0.02566799521446228,0.2634463906288147,-0.4211506252404405,-1.2772772251092985,-0.056770954431252366,-0.8735880851745605,0.4088107943534851,-0.26404139399528503,2.5412468910217285,0.5945771932601929,1.359388828277588
7.519665241241455,-0.14454752206802368,-0.042256325483322144,0.3163525462150574,-0.4339193932581113,-1.2401193144182652,0.0005554663018357136,-0.8581686615943909,0.42043018341064453,-0.2945934236049652,2.010577440261841,0.7510980367660522,1.458662748336792
7.539667129516602,-0.16164106130599976,-0.10818639397621155,0.3514397442340851,-0.4507831091548989,-1.2035861851753344,0.046380630268629756,-0.84009850025177,0.43567055463790894,-0.32314980030059814,1.2898555994033813,0.9447316527366638,1.543677568435669
7.559674024581909,-0.16886931657791138,-0.15711435675621033,0.3966450095176697,-0.4730023806483359,-1.1690336632529137,0.07829436425921821,-0.8193204998970032,0.4555610716342926,-0.3481067419052124,0.5683409571647644,1.0841282606124878,1.5820773839950562
7.5796709060668945,-0.1539650559425354,-0.19054481387138367,0.4257814884185791,-0.4992510477927442,-1.136554841797007,0.09963465866612842,-0.7964592576026917,0.47876814007759094,-0.36936965584754944,0.14259850978851318,1.1589597463607788,1.591626524925232
7.599751949310303,-0.12527930736541748,-0.1835230588912964,0.44194692373275757,-0.5272034493129636,-1.1055603715515159,0.11593832262981799,-0.7723647952079773,0.5031184554100037,-0.3877170979976654,-0.04060876742005348,1.1395201683044434,1.537156581878662
7.619663238525391,-0.09836232662200928,-0.20315968990325928,0.44709503650665283,-0.553842773035931,-1.0758774870730397,0.13115156921813187,-0.748454749584198,0.5259594321250916,-0.4039583206176758,-0.02222033031284809,1.0336908102035522,1.429514765739441
7.639663219451904,-0.07780855894088745,-0.22476834058761597,0.4549970328807831,-0.5774868783493905,-1.0489332205303703,0.14661460448021418,-0.7263144254684448,0.5459200739860535,-0.41765865683555603,0.020668253302574158,0.8214530348777771,1.2640225887298584
7.659794092178345,-0.08795404434204102,-0.25019240379333496,0.4582459628582001,-0.5966796608611507,-1.025899033866693,0.1620697979752821,-0.7074103951454163,0.561898946762085,-0.4287658631801605,0.08449863642454147,0.6517437696456909,1.048487663269043
7.679682016372681,-0.09239822626113892,-0.2739735245704651,0.4710036516189575,-0.611763929431279,-1.0064681849651362,0.17524912104616372,-0.6917052865028381,0.5743123888969421,-0.43784621357917786,0.043687816709280014,0.5467494130134583,0.8038725852966309
7.6996400356292725,-0.06960856914520264,-0.2965899109840393,0.4731685519218445,-0.6230706064531991,-0.9914006559993974,0.1850591373994923,-0.6795523166656494,0.5835314989089966,-0.44463449716567993,0.03462854400277138,0.3804183006286621,0.5840043425559998
7.719625949859619,-0.030206143856048584,-0.30750149488449097,0.45556753873825073,-0.6304954432575839,-0.9812356686523508,0.19341395247091528,-0.6713777780532837,0.5895450115203857,-0.44909772276878357,0.1315949261188507,0.137723907828331,0.41158029437065125
7.7396559715271,-0.008110642433166504,-0.3271406888961792,0.44647216796875,-0.6339582529253276,-0.9765689884708665,0.2013112972252271,-0.6675791144371033,0.592338502407074,-0.45108023285865784,0.1929747760295868,-0.15520071983337402,0.22080810368061066
7.759700059890747,-0.03716391324996948,-0.3285856246948242,0.43661296367645264,-0.6332519739537896,-0.9797974344961005,0.20674548952523494,-0.6693791151046753,0.5917693376541138,-0.44915562868118286,0.1978137344121933,-0.4720226228237152,-0.04828329011797905
7.779678106307983,-0.13134050369262695,-0.2960653305053711,0.4354945719242096,-0.6279572968663031,-0.9900329568855741,0.2079269237878185,-0.676551342010498,0.5874929428100586,-0.44399362802505493,0.1586318463087082,-0.5968557596206665,-0.33614611625671387
7.799685001373291,-0.22343814373016357,-0.28102225065231323,0.41562920808792114,-0.6191633072113956,-1.0040110179329305,0.2037533770336479,-0.687023401260376,0.5803539752960205,-0.43725085258483887,0.03066248632967472,-0.5168997645378113,-0.5752251744270325
7.819663047790527,-0.22551089525222778,-0.2925400137901306,0.38065531849861145,-0.6087060318062707,-1.018911375344765,0.19345775133981777,-0.6985918879508972,0.5718063712120056,-0.4301242530345917,-0.20627184212207794,-0.4533080458641052,-0.758668839931488
7.839663028717041,-0.13083738088607788,-0.2782576084136963,0.3371623754501343,-0.5970723456114397,-1.0412940016477945,0.17741718106830462,-0.7137366533279419,0.5622237324714661,-0.417713463306427,-0.27820900082588196,-0.9149196147918701,-0.9249615669250488
7.859684944152832,-0.15826565027236938,-0.21558284759521484,0.28177595138549805,-0.5819923222958886,-1.07328254511481,0.16045730799210095,-0.7340989708900452,0.5496893525123596,-0.3986734449863434,-0.21969063580036163,-1.327915906906128,-1.1154199838638306
7.879666090011597,-0.35114800930023193,-0.17010897397994995,0.31589457392692566,-0.5617739294633544,-1.1131013585597784,0.13991079005204396,-0.7592036128044128,0.532688319683075,-0.3739694058895111,-0.4340524971485138,-1.4397703409194946,-1.4968137741088867
7.899682998657227,-0.5610145926475525,-0.15855634212493896,0.3215498924255371,-0.5375065746338902,-1.1513340099558107,0.10969430728881979,-0.7845208048820496,0.511995792388916,-0.34983962774276733,-0.90888512134552,-0.7481707334518433,-1.7724945545196533
7.9196672439575195,-0.4416848421096802,-0.1501157581806183,0.22741758823394775,-0.5123059546249437,-1.182635239199229,0.06845594883870731,-0.8067741394042969,0.49018844962120056,-0.3298954963684082,-1.304039716720581,-0.49409931898117065,-1.9520941972732544
7.939672946929932,-0.0961945652961731,-0.08087748289108276,0.06073206663131714,-0.48441295470144263,-1.2184379051302276,0.026338741974562818,-0.830578625202179,0.46568894386291504,-0.3054066598415375,-1.0543460845947266,-1.138056755065918,-1.9538244009017944
7.959662914276123,0.056753695011138916,0.03566828370094299,-0.052254050970077515,-0.4549123827375621,-1.2602188506823566,-0.0039134926753048695,-0.8553224802017212,0.4393835961818695,-0.27452802658081055,-0.5721089839935303,-1.5861295461654663,-1.7254621982574463
7.97966194152832,-0.06843054294586182,0.03489828109741211,-0.08027094602584839,-0.42528566184577105,-1.300170770678188,-0.024594269072343015,-0.8777670860290527,0.41258102655410767,-0.24352043867111206,-0.4280610978603363,-1.463005781173706,-1.6900931596755981
7.999698162078857,-0.20169353485107422,0.017764240503311157,-0.08874991536140442,-0.39604208040756256,-1.3328660124597218,-0.04305334080818763,-0.8966038227081299,0.3857698142528534,-0.21744811534881592,-0.47506117820739746,-1.0940536260604858,-1.5282397270202637
8.019663095474243,-0.180728018283844,0.06684607267379761,-0.11325299739837646,-0.3712662315398402,-1.3592725912378003,-0.06028037294145572,-0.9110994935035706,0.3627956807613373,-0.1956457942724228,-0.5586079955101013,-0.9248121976852417,-1.2601299285888672
8.039683103561401,-0.15139681100845337,0.07726156711578369,-0.09723369777202606,-0.3517457059652588,-1.383205008719996,-0.080590856185041,-0.9223031401634216,0.3445371389389038,-0.17507454752922058,-0.9933454990386963,-0.7218838930130005,-1.0379880666732788
8.059664249420166,-0.16155630350112915,0.029493480920791626,-0.07023943960666656,-0.3377464482783582,-1.4052636826486018,-0.11184960933842826,-0.93060702085495,0.33136171102523804,-0.1554684340953827,-1.6472110748291016,-0.4474971890449524,-0.8784475922584534
8.079172134399414,-0.13538378477096558,0.03622162342071533,-0.11228549480438232,-0.32699666672880395,-1.4264058594962372,-0.15335665567304738,-0.9371565580368042,0.32120028138160706,-0.13626477122306824,-2.0120413303375244,-0.34203994274139404,-0.7957543730735779
8.099666118621826,-0.06077378988265991,0.1442059576511383,-0.16435971856117249,-0.3172023927328707,-1.4474075058235025,-0.19702139627410342,-0.9428883194923401,0.3119097352027893,-0.11693592369556427,-1.9088103771209717,-0.37102559208869934,-0.7445310950279236
8.119664192199707,0.006668150424957275,0.18887916207313538,-0.18566463887691498,-0.3063536849509393,-1.4666421647781755,-0.23393848957834903,-0.9482727646827698,0.3015840947628021,-0.09912525862455368,-1.4382658004760742,-0.4150705635547638,-0.7486510276794434
8.139676094055176,0.05657553672790527,0.23347881436347961,-0.19789552688598633,-0.29284471109175614,-1.4832732001821634,-0.2593104488884911,-0.9537619352340698,0.2886769771575928,-0.08369003236293793,-0.8410441279411316,-0.512805163860321,-0.828409731388092
8.159611225128174,0.107197105884552,0.2743314206600189,-0.23776662349700928,-0.27701916546261746,-1.4990517325948225,-0.2714812355694095,-0.9594007134437561,0.27348968386650085,-0.06895016133785248,-0.17958596348762512,-0.733785092830658,-0.8411874175071716
8.179665088653564,0.12965840101242065,0.2848222255706787,-0.269692063331604,-0.260250427416667,-1.5149248701813336,-0.26989191451169486,-0.9648178219795227,0.2573225498199463,-0.05396193638443947,0.41488298773765564,-0.8740820288658142,-0.8310432434082031
8.199664115905762,0.12901407480239868,0.29263100028038025,-0.28230923414230347,-0.24344265656863456,-1.5301495127822327,-0.25869890112033334,-0.9697124361991882,0.24104519188404083,-0.039437443017959595,0.6857884526252747,-0.9213156700134277,-0.7898051142692566
8.219663143157959,0.13719314336776733,0.2624332904815674,-0.28966039419174194,-0.22815804898336506,-1.5454354289782188,-0.24447905211580215,-0.9737716317176819,0.2261836975812912,-0.024701019749045372,0.7529451847076416,-0.928284764289856,-0.6887694001197815
8.23966121673584,0.12872314453125,0.24477088451385498,-0.3163427710533142,-0.21543358580177535,-1.5595317793170556,-0.22990863213057416,-0.976822018623352,0.2137710154056549,-0.01100392360240221,0.6397562623023987,-0.7763967514038086,-0.5629443526268005
8.259676933288574,0.10530740022659302,0.25527817010879517,-0.3034624457359314,-0.20517322049862244,-1.5704646788131413,-0.2208050442645475,-0.9790257811546326,0.20373675227165222,-0.0003246919368393719,0.231408029794693,-0.5010161995887756,-0.45388734340667725
