timestamp,acceleration_x,acceleration_y,acceleration_z,attitude_pitch,attitude_roll,attitude_yaw,gravity_x,gravity_y,gravity_z,rotation_x,rotation_y,rotation_z
0.0,0.08889734745025635,0.29973888397216797,-0.15721158683300018,-0.1888231930826052,-1.4099231590363068,-1.3629651119832702,-0.9695430397987366,0.18770313262939453,-0.15733307600021362,-0.7886431217193604,-0.3326188921928406,-0.7572624683380127
0.020051956176757812,0.08892780542373657,0.31591102480888367,-0.15726834535598755,-0.1768613665477643,-1.4196289421221855,-1.3806771364954824,-0.9731746315956116,0.17594076693058014,-0.14824318885803223,-0.7505489587783813,-0.32242342829704285,-0.7035810947418213
0.03965306282043457,0.09016507863998413,0.35227450728416443,-0.16603916883468628,-0.16584927690194243,-1.4287829957827884,-1.3972238914494761,-0.9763497710227966,0.16509000957012177,-0.13959439098834991,-0.6856141090393066,-0.31933486461639404,-0.610115110874176
0.059983015060424805,0.09565532207489014,0.38561564683914185,-0.19000089168548584,-0.15703646019609904,-1.437555920031967,-1.4107364243835157,-0.9789408445358276,0.15639182925224304,-0.13121186196804047,-0.5188108682632446,-0.33235931396484375,-0.4384794533252716
0.0801081657409668,0.09516042470932007,0.3950067162513733,-0.19829970598220825,-0.15111523468911248,-1.4460193158177155,-1.4201573162420515,-0.9809178709983826,0.15054075419902802,-0.12303519248962402,-0.33644935488700867,-0.3813018202781677,-0.27394866943359375
0.10000896453857422,0.09535688161849976,0.399539589881897,-0.21319633722305298,-0.14792003056499656,-1.4531551094059678,-1.4242939745519492,-0.9822434782981873,0.14738120138645172,-0.11608834564685822,-0.01562940701842308,-0.3339357376098633,-0.07023531198501587
0.12003183364868164,0.11437493562698364,0.40828925371170044,-0.2208520770072937,-0.147882687607697,-1.4599219676268949,-1.4224485142027756,-0.9830119609832764,0.14734426140785217,-0.10943964123725891,0.19679903984069824,-0.36398470401763916,0.09009557217359543
0.14000988006591797,0.11597543954849243,0.35767391324043274,-0.22358667850494385,-0.15110971577257215,-1.4659724248057995,-1.4170625939008799,-0.9831781387329102,0.15053530037403107,-0.10343971848487854,0.26798659563064575,-0.3079186677932739,0.2815227210521698
0.1601560115814209,0.11016631126403809,0.3153565526008606,-0.21141700446605682,-0.157414919257198,-1.4705666611615176,-1.411343252078496,-0.982679009437561,0.15676560997962952,-0.09882473945617676,0.22898969054222107,-0.2409326434135437,0.3943387269973755
0.18007802963256836,0.11301261186599731,0.29032865166664124,-0.21557043492794037,-0.16601454524744652,-1.474159863254614,-1.4057228726031092,-0.9816495776176453,0.16525301337242126,-0.09515955299139023,0.25810134410858154,-0.2175322324037552,0.5169204473495483
0.20002198219299316,0.10679739713668823,0.27578333020210266,-0.2145693302154541,-0.1767964260969908,-1.477036745917228,-1.3987467846657833,-0.980088472366333,0.17587684094905853,-0.09216290712356567,0.3136105239391327,-0.18199439346790314,0.6158661246299744
0.22001314163208008,0.07684093713760376,0.25338616967201233,-0.20509159564971924,-0.18903714723088114,-1.4777109240505046,-1.391374854586138,-0.9779334664344788,0.18791328370571136,-0.09129517525434494,0.28508272767066956,-0.011430295184254646,0.6670089960098267
0.2400059700012207,0.09680181741714478,0.20600976049900055,-0.1938909888267517,-0.20281810951915671,-1.4759211744353387,-1.38523557484902,-0.9750978350639343,0.20143046975135803,-0.09279114007949829,0.1911471039056778,0.05767349526286125,0.7675437927246094
0.2593240737915039,0.13641506433486938,0.16957855224609375,-0.1885068416595459,-0.21864932416027952,-1.4744699676442063,-1.3797071575039224,-0.9716659188270569,0.21691130101680756,-0.09388761222362518,0.2385849952697754,-0.05857677012681961,0.8601582646369934
0.27999401092529297,0.08585184812545776,0.1754625141620636,-0.19207441806793213,-0.23555370927426958,-1.475712473468759,-1.3701306696062898,-0.967992901802063,0.23338143527507782,-0.09231887757778168,0.5645229816436768,-0.29169097542762756,0.890459418296814
0.30009984970092773,-0.11711645126342773,0.19811242818832397,-0.2281600832939148,-0.2500573060058719,-1.4787053905786427,-1.3523454541773001,-0.9647927284240723,0.24745948612689972,-0.08910068869590759,1.0090235471725464,-0.3820732533931732,0.678809404373169
0.32001805305480957,-0.31869614124298096,0.2145395278930664,-0.2278473973274231,-0.25799374826553384,-1.4780950406487692,-1.327938292712071,-0.9627521634101868,0.2551412284374237,-0.0895048975944519,1.2326635122299194,-0.12034807354211807,0.3399428725242615
0.34000301361083984,-0.2703359127044678,0.1616280972957611,-0.1862865686416626,-0.26128723047062496,-1.4698452802041495,-1.3030277283118907,-0.9611399173736572,0.2583242952823639,-0.09735903888940811,1.0526597499847412,0.2824074327945709,0.28821632266044617
0.35996007919311523,-0.017433762550354004,0.07785692811012268,-0.0944097563624382,-0.2681647821921218,-1.4581934591301342,-1.2869256391949992,-0.958152174949646,0.26496225595474243,-0.10834900289773941,0.38653379678726196,0.4305691421031952,0.5884498357772827
0.38002586364746094,0.08877682685852051,0.005780994892120361,-0.0558253675699234,-0.2830162862542953,-1.4486659032179372,-1.2818001150847629,-0.9530652761459351,0.279253214597702,-0.11698047071695328,0.057815566658973694,0.3851509690284729,0.9491363167762756
0.4003159999847412,0.017940282821655273,0.02829533815383911,-0.09632916748523712,-0.303442669588776,-1.4392737558401743,-1.2757916721121705,-0.9460715651512146,0.2988073527812958,-0.12515223026275635,0.34391433000564575,0.36337703466415405,1.0824624300003052
0.4199681282043457,-0.08338034152984619,0.09123283624649048,-0.12126360833644867,-0.3216324884343437,-1.428006475890965,-1.2581481516643997,-0.9390652775764465,0.31611576676368713,-0.1350077986717224,1.0849119424819946,0.22458215057849884,0.9441782832145691
0.4400629997253418,-0.14134299755096436,0.07113918662071228,-0.05068248510360718,-0.3353167724295853,-1.4132853704586414,-1.227606878838067,-0.9326163530349731,0.32906830310821533,-0.1481243073940277,1.4748430252075195,0.2973538339138031,0.8547741770744324
0.4592418670654297,-0.16581422090530396,-0.04565891623497009,0.06340612471103668,-0.34717750752630383,-1.3950083820404426,-1.1960629827036071,-0.9258452653884888,0.3402450680732727,-0.16444984078407288,1.1904793977737427,0.4730433523654938,0.818213701248169
0.47998905181884766,-0.18073487281799316,-0.14617067575454712,0.12198895215988159,-0.36032280054064086,-1.3765699029806033,-1.1736777075081473,-0.9181878566741943,0.3525763154029846,-0.1806132197380066,0.630544900894165,0.6101483106613159,0.864008903503418
0.4999980926513672,-0.19212687015533447,-0.15529698133468628,0.16005946695804596,-0.37651738868198686,-1.3578591600800534,-1.1625029856727573,-0.9089472889900208,0.3676840364933014,-0.19652801752090454,0.10003881901502609,0.8365325331687927,0.898725152015686
0.5200159549713135,-0.14791953563690186,-0.15510821342468262,0.1778797060251236,-0.39467565785148473,-1.3388026126511452,-1.159266390252807,-0.8983908295631409,0.38450878858566284,-0.2122424691915512,-0.17099300026893616,0.9275546073913574,0.9407880306243896
0.5394620895385742,-0.08211499452590942,-0.1465868055820465,0.1803705245256424,-0.4148208432942105,-1.320142026381175,-1.1587410676086645,-0.8865891695022583,0.4030259847640991,-0.22700141370296478,-0.22441624104976654,0.8934377431869507,1.0093318223953247
0.5600161552429199,-0.06052088737487793,-0.16023123264312744,0.19103020429611206,-0.435679225476803,-1.3018298222963616,-1.1572403689343427,-0.8739883899688721,0.42202627658843994,-0.24091123044490814,-0.1765020191669464,0.8939188718795776,1.0249359607696533
0.5800261497497559,-0.052195191383361816,-0.19441336393356323,0.218919575214386,-0.4562144650523532,-1.2825595717399567,-1.1545428121020722,-0.8606923818588257,0.44055289030075073,-0.2551897168159485,-0.16198617219924927,0.9244363903999329,1.0027129650115967
0.6000080108642578,-0.02546924352645874,-0.2277420163154602,0.2359854280948639,-0.4759468278079233,-1.2629554941340808,-1.151530068468021,-0.847074031829834,0.4581802487373352,-0.269325852394104,-0.15492838621139526,0.8845812082290649,0.9636641144752502
0.6200540065765381,0.006933987140655518,-0.24789586663246155,0.2495238482952118,-0.4945566263909045,-1.2444245519919077,-1.1476823737484168,-0.8337161540985107,0.47464144229888916,-0.2821928858757019,-0.0918630063533783,0.7772768139839172,0.9047807455062866
0.6399950981140137,0.019622862339019775,-0.2632277309894562,0.23775717616081238,-0.5112367363848929,-1.2284630665331433,-1.1429620986091298,-0.8215333819389343,0.48925623297691345,-0.29276514053344727,-0.06681829690933228,0.5756639242172241,0.7965991497039795
0.6599950790405273,0.027573764324188232,-0.2574458122253418,0.24193322658538818,-0.5247791131008148,-1.2168864921594023,-1.1383042156140886,-0.8117992281913757,0.5010218620300293,-0.29993194341659546,0.0011479342356324196,0.3889843821525574,0.6133719086647034
0.679995059967041,0.01952308416366577,-0.2524966597557068,0.25438129901885986,-0.5345864323081929,-1.2076387692255357,-1.133136344174387,-0.8043588995933533,0.5094852447509766,-0.30566608905792236,0.060339659452438354,0.2618657052516937,0.4493274390697479
0.6999950408935547,0.00926506519317627,-0.26329779624938965,0.2666222155094147,-0.5398054914427564,-1.2014965664256863,-1.128591024325383,-0.7999754548072815,0.5139691233634949,-0.3096367418766022,0.12543268501758575,0.1184365376830101,0.1829582303762436
0.7200241088867188,0.004679203033447266,-0.2542818784713745,0.2546162009239197,-0.5402348627545456,-1.1989884630414926,-1.1246795861254966,-0.798990786075592,0.514337420463562,-0.31156203150749207,0.1653006672859192,-0.059357959777116776,-0.022285012528300285
0.7399959564208984,-0.013354659080505371,-0.24388378858566284,0.24854278564453125,-0.5365123130409939,-1.2003881569756902,-1.1227080335800161,-0.8012053370475769,0.5111414790153503,-0.31113430857658386,0.11768168210983276,-0.16641660034656525,-0.26517999172210693
0.7599959373474121,-0.026949703693389893,-0.2292916178703308,0.24005219340324402,-0.5292967417567144,-1.2052081309324376,-1.1245396679509225,-0.8061192631721497,0.5049264430999756,-0.3085794448852539,-0.020515695214271545,-0.22256428003311157,-0.4607934355735779
0.7800540924072266,-0.015305280685424805,-0.20649564266204834,0.2268964648246765,-0.5197426574379822,-1.2138770042104357,-1.1315221411892444,-0.8132469654083252,0.4966568052768707,-0.3032514750957489,-0.2136499136686325,-0.29042819142341614,-0.6457797288894653
0.7999958992004395,-0.008321225643157959,-0.1719340682029724,0.20440760254859924,-0.5082120407351425,-1.2263125514979507,-1.1431599419657241,-0.8222909569740295,0.4866160452365875,-0.29502955079078674,-0.3351603150367737,-0.38314685225486755,-0.7796285152435303
0.8201351165771484,-0.03860914707183838,-0.12913653254508972,0.17829182744026184,-0.4946084334671526,-1.2414533300283417,-1.157160649727423,-0.8328507542610168,0.47468703985214233,-0.28466084599494934,-0.3769450783729553,-0.446221262216568,-0.9101491570472717
0.8399538993835449,-0.08939611911773682,-0.1207457184791565,0.15421411395072937,-0.47922664542127985,-1.2577007254017043,-1.1734866420419485,-0.8442130088806152,0.46109306812286377,-0.27330902218818665,-0.5509336590766907,-0.4046880304813385,-1.0122084617614746
0.8600039482116699,-0.1106690764427185,-0.11524879932403564,0.15965980291366577,-0.4634489476579834,-1.2753608936046013,-1.1955720892420347,-0.8557615876197815,0.44703590869903564,-0.26044413447380066,-0.8577867746353149,-0.3675033748149872,-1.0876924991607666
0.8800179958343506,-0.12674087285995483,-0.0851222574710846,0.14378498494625092,-0.44755555563626076,-1.2947800958286162,-1.223661229719858,-0.8673843145370483,0.43276312947273254,-0.2456831932067871,-1.1052803993225098,-0.34176328778266907,-1.1602071523666382
0.9000978469848633,-0.13212460279464722,-0.030953913927078247,0.1052059680223465,-0.4301602833406911,-1.3147095393447887,-1.2547860086534224,-0.879258394241333,0.41701647639274597,-0.23022127151489258,-1.1021435260772705,-0.3562123775482178,-1.2598176002502441
0.9200000762939453,-0.14279377460479736,0.02780437469482422,0.050077974796295166,-0.4100258114752908,-1.3337398692157452,-1.2822894146363266,-0.8914622068405151,0.3986330032348633,-0.21537648141384125,-0.8110796213150024,-0.41300168633461,-1.3057860136032104
0.9400458335876465,-0.23899567127227783,0.086628258228302,-0.04570108652114868,-0.3871756374606428,-1.3499574775465384,-1.3015552429306092,-0.9034909009933472,0.377574622631073,-0.20283405482769012,-0.4007203280925751,-0.46756115555763245,-1.3578801155090332
0.9600038528442383,-0.3724532723426819,0.15797090530395508,-0.10477277636528015,-0.3603680365179253,-1.3640878118316604,-1.3126162118280988,-0.9158462285995483,0.35261866450309753,-0.19205646216869354,-0.10830926895141602,-0.5321587920188904,-1.4929039478302002
0.9800338745117188,-0.429049551486969,0.24837368726730347,-0.14565974473953247,-0.3305500280207578,-1.377509240265599,-1.3224200840750802,-0.928250253200531,0.32456332445144653,-0.18168705701828003,-0.27133476734161377,-0.43631306290626526,-1.6004012823104858
1.0000839233398438,-0.2750033736228943,0.2405727505683899,-0.16393637657165527,-0.30189503856201055,-1.3880666103363055,-1.3391337590964016,-0.938879132270813,0.2973300814628601,-0.17349645495414734,-0.7948567867279053,-0.06933122873306274,-1.462456226348877
1.0200879573822021,0.025900840759277344,0.14265111088752747,-0.20727990567684174,-0.28173055679315884,-1.393227654988827,-1.3662437693021692,-0.9454717040061951,0.27801838517189026,-0.16967321932315826,-1.4165574312210083,0.29791611433029175,-0.9588391184806824
1.039219856262207,0.2588435411453247,0.10148847103118896,-0.24803346395492554,-0.2743778030325287,-1.396209264831232,-1.4026871369049376,-0.9479609727859497,0.27094805240631104,-0.16720400750637054,-1.851140022277832,0.3878006935119629,-0.3858432173728943
1.0601630210876465,0.3307145833969116,0.14407005906105042,-0.2759373188018799,-0.27674641804724837,-1.4005303348269995,-1.4404974541062465,-0.9480395317077637,0.2732273042201996,-0.1629970669746399,-1.6949760913848877,0.228032186627388,-0.04846872389316559
1.0802321434020996,0.21688097715377808,0.21537289023399353,-0.26172780990600586,-0.28274911654927826,-1.4044043748472865,-1.4698083780319593,-0.9470294117927551,0.27899664640426636,-0.15904860198497772,-1.1625498533248901,0.23249617218971252,0.1524135023355484
1.1001310348510742,0.0040585994720458984,0.20902681350708008,-0.2276674062013626,-0.2893321766495633,-1.4035915665094807,-1.488560010350287,-0.9450682401657104,0.2853122353553772,-0.15950916707515717,-0.8176816701889038,0.39461416006088257,0.17390821874141693
1.1200180053710938,-0.15367013216018677,0.15636655688285828,-0.1495669037103653,-0.2952621401460832,-1.3992871230543138,-1.50727964495107,-0.9426892399787903,0.2909906506538391,-0.1632840484380722,-1.1481913328170776,0.6114028096199036,0.12222519516944885
1.1399588584899902,-0.19338881969451904,0.08038979768753052,-0.05650888383388519,-0.3031218644781787,-1.3931738450564857,-1.537459514663307,-0.939393162727356,0.298501193523407,-0.1686345487833023,-1.841624140739441,0.8980714678764343,0.16573169827461243
1.1683440208435059,0.017808914184570312,0.060041606426239014,-0.031215891242027283,-0.3303004905969764,-1.3758459380108268,-1.6244736816946448,-0.9280261397361755,0.324327290058136,-0.1832464188337326,-2.1846299171447754,1.1429061889648438,0.38125306367874146
1.1881649494171143,0.161443829536438,0.08267268538475037,-0.06771177053451538,-0.34529035928856905,-1.3687454769914247,-1.6620640890526825,-0.9218350648880005,0.338469922542572,-0.1888342648744583,-1.520872712135315,0.809814453125,0.3921578824520111
1.2077078819274902,0.23145943880081177,0.09314817190170288,-0.09154878556728363,-0.35735675957976115,-1.3629157127223854,-1.6816137035912966,-0.9166553616523743,0.3497992157936096,-0.19334806501865387,-0.4840843081474304,0.46515241265296936,0.3941691815853119
1.2297790050506592,0.21206998825073242,0.07834464311599731,-0.12471476197242737,-0.3643071098906949,-1.3558067187276626,-1.6795036095640936,-0.9128602147102356,0.3563019633293152,-0.19933611154556274,0.4880766272544861,0.1747334599494934,0.3211362063884735
1.248276948928833,0.18135440349578857,0.033108025789260864,-0.13629642128944397,-0.365934551704179,-1.348590303963504,-1.662250985350107,-0.9108312129974365,0.35782212018966675,-0.20579038560390472,0.9528394341468811,-0.05979640781879425,0.18370911478996277
1.2600109577178955,0.18135440349578857,0.033108025789260864,-0.13629642128944397,-0.365934551704179,-1.348590303963504,-1.662250985350107,-0.9108312129974365,0.35782212018966675,-0.20579038560390472,0.9528394341468811,-0.05979640781879425,0.18370911478996277
1.2882318496704102,0.14293736219406128,-0.07701486349105835,-0.06262752413749695,-0.3611024563745737,-1.3441543208818378,-1.6275721160867962,-0.9115837216377258,0.3533058166503906,-0.21021489799022675,0.37457141280174255,-0.25668907165527344,-0.12492987513542175
1.3072571754455566,0.14357084035873413,-0.09841081500053406,-0.05028349161148071,-0.35869289923930187,-1.3487929249039894,-1.625351967318908,-0.9133767485618591,0.35105061531066895,-0.20617100596427917,-0.027959363535046577,-0.29672664403915405,-0.025507044047117233
1.3269848823547363,0.12716162204742432,-0.06503251194953918,-0.07577800750732422,-0.3592717548063533,-1.3556031698822217,-1.6264809788541355,-0.9145609736442566,0.3515925705432892,-0.19990253448486328,-0.029424220323562622,-0.36684608459472656,0.004106332082301378
1.3478789329528809,0.10090005397796631,0.00925213098526001,-0.07341328263282776,-0.35793035070314944,-1.3631946891046955,-1.624619609169855,-0.9165127873420715,0.350336492061615,-0.19305095076560974,0.2413928061723709,-0.4538106620311737,-0.07065049558877945
1.3671998977661133,0.09707093238830566,0.015525221824645996,-0.06139557063579559,-0.3555998446193969,-1.3704152230313769,-1.617383686842167,-0.9186804294586182,0.348152756690979,-0.1865902692079544,0.44942471385002136,-0.5359407663345337,-0.019635101780295372
1.3877601623535156,0.09702450037002563,-0.01765003800392151,-0.03145432472229004,-0.3535037500692009,-1.3781807091155518,-1.6065187419602451,-0.9208160042762756,0.346187025308609,-0.17959003150463104,0.6197172999382019,-0.5880111455917358,0.02154209278523922
1.4076390266418457,0.10069841146469116,-0.008858591318130493,-0.005793288350105286,-0.3522166683785274,-1.3845843702486438,-1.5905817308511108,-0.9223843216896057,0.3449792265892029,-0.1737721562385559,0.873333752155304,-0.6077135801315308,0.13120560348033905
1.4277770519256592,0.09102308750152588,0.015555500984191895,0.020838379859924316,-0.3514201674781762,-1.3890476491647465,-1.5699232572093609,-0.9234205484390259,0.344231516122818,-0.1697031706571579,1.0581116676330566,-0.5499042272567749,0.10923198610544205
1.4479198455810547,0.05683833360671997,0.012136459350585938,0.010318160057067871,-0.3490008010173394,-1.3906865877030046,-1.5449952147344959,-0.9245141744613647,0.34195902943611145,-0.16833822429180145,1.2556514739990234,-0.5024386644363403,0.08427748829126358
1.4667680263519287,0.058980464935302734,-0.002520918846130371,0.02249830961227417,-0.3460241865479924,-1.3913239871472558,-1.5179905958850903,-0.9256186485290527,0.33916032314300537,-0.16792985796928406,1.3049416542053223,-0.45680734515190125,0.07349955290555954
1.4869229793548584,0.05683565139770508,-0.05524274706840515,-0.021499648690223694,-0.342622944621699,-1.3919970504363874,-1.4906230111339613,-0.9268614053726196,0.3359587490558624,-0.16751103103160858,1.231397032737732,-0.5517302751541138,0.06442876905202866
1.5073740482330322,0.07179421186447144,-0.08846378326416016,0.01716679334640503,-0.3412004773205805,-1.3963807646421929,-1.4665676135364534,-0.9280564188957214,0.33461859822273254,-0.16352908313274384,1.0248111486434937,-0.7017117738723755,0.22330516576766968
1.5264039039611816,0.04222971200942993,-0.09178987145423889,0.0360148549079895,-0.3434355034050272,-1.4050827327664246,-1.4454326841060217,-0.9287043213844299,0.3367239534854889,-0.155323326587677,0.9486243724822998,-0.8502253890037537,0.2878183424472809
1.5477428436279297,-0.04258447885513306,-0.04646587371826172,0.032223597168922424,-0.3447751038767074,-1.414782937282649,-1.4244932016992615,-0.9297207593917847,0.3379850387573242,-0.1462372988462448,1.0282286405563354,-0.8154482245445251,0.13043324649333954
1.567227840423584,-0.04653286933898926,-0.04196706414222717,0.018256008625030518,-0.3425737100800446,-1.422501329141088,-1.4010505055740223,-0.9315555095672607,0.3359123766422272,-0.1391666680574417,1.1553298234939575,-0.7533591389656067,0.02007056400179863
1.5863971710205078,0.05858969688415527,-0.07807415723800659,0.023705720901489258,-0.3391950475063785,-1.428891658020888,-1.3765340336833203,-0.9335439801216125,0.3327281177043915,-0.13337066769599915,1.2162562608718872,-0.7185398936271667,-0.0014553809305652976
1.6051499843597412,0.14396697282791138,-0.07720991969108582,0.020290687680244446,-0.33611200049261525,-1.4346084048167924,-1.350207248292741,-0.9353029727935791,0.3298191428184509,-0.12817035615444183,1.3152821063995361,-0.7087587118148804,0.015288323163986206
1.627096176147461,0.1936061978340149,-0.07281184196472168,0.03502422571182251,-0.33250611538011055,-1.4378982621798644,-1.321468566676484,-0.9368923306465149,0.3264128863811493,-0.12524943053722382,1.3953537940979004,-0.5807647705078125,0.0092168552801013
1.6470050811767578,0.25484371185302734,-0.0903577208518982,0.048217400908470154,-0.32953556321053445,-1.4390655832493309,-1.2924468664055155,-0.9379950761795044,0.32360363006591797,-0.12428250908851624,1.3367798328399658,-0.49423450231552124,0.0761885717511177
1.665830135345459,0.312264084815979,-0.12304192781448364,0.05376417189836502,-0.32887423263861576,-1.4414450456056624,-1.2668243715265717,-0.9385000467300415,0.32297781109809875,-0.12207780033349991,1.072465181350708,-0.6008312106132507,0.16842103004455566
1.6868259906768799,0.31921541690826416,-0.13104850053787231,0.0697934627532959,-0.3300630978595134,-1.4484563523550564,-1.2459030336637096,-0.9389511346817017,0.3241027295589447,-0.11544781178236008,0.8951905369758606,-0.7779662609100342,0.1946830302476883
1.7068219184875488,0.2362266182899475,-0.08126232028007507,0.08806031942367554,-0.3312764770449327,-1.459369769944489,-1.2283669242488715,-0.939763605594635,0.3252503573894501,-0.10515016317367554,0.7447473406791687,-0.8221717476844788,0.07960706204175949
1.7266900539398193,0.09301656484603882,-0.02876812219619751,0.11996179819107056,-0.3288528788844565,-1.4686614849338107,-1.2137028633520965,-0.9414815306663513,0.3229576051235199,-0.09649382531642914,0.6698617339134216,-0.5928714275360107,-0.16891103982925415
1.7466130256652832,-0.005572676658630371,-0.008388429880142212,0.12697625160217285,-0.3223206643073995,-1.4746150926781725,-1.201302886985271,-0.9441190958023071,0.3167685568332672,-0.09108759462833405,0.5077447891235352,-0.4103759229183197,-0.35406145453453064
1.7656309604644775,-0.011593520641326904,-0.02806854248046875,0.1817684769630432,-0.3139950198211225,-1.4793288698335396,-1.1963800290598376,-0.9471314549446106,0.30886077880859375,-0.0868741124868393,0.02440665289759636,-0.2432623654603958,-0.4137541949748993
1.7866201400756836,0.03229176998138428,-0.05333071947097778,0.2011846899986267,-0.3068092327375277,-1.4862171054887066,-1.202929688069545,-0.9498942494392395,0.302018404006958,-0.08053344488143921,-0.5370720028877258,-0.2628866732120514,-0.355745404958725
1.805427074432373,0.05868864059448242,-0.04270860552787781,0.2004346251487732,-0.30127385218334873,-1.49535938339909,-1.2168053204613758,-0.9522433280944824,0.2967369258403778,-0.07197090238332748,-0.7021456360816956,-0.2086218297481537,-0.30473247170448303
1.8272709846496582,0.07096564769744873,-0.02997225522994995,0.21259969472885132,-0.29676002293956305,-1.501699649196003,-1.231701863212948,-0.9540069103240967,0.29242339730262756,-0.0660238191485405,-0.6767795085906982,0.03195961192250252,-0.24808427691459656
1.844675064086914,0.13105225563049316,-0.06173017621040344,0.20277994871139526,-0.2934793088991511,-1.5036787437798482,-1.2449495853294084,-0.9550879597663879,0.28928452730178833,-0.06419962644577026,-0.5407930612564087,0.12934617698192596,-0.16309337317943573
1.8664040565490723,0.20060306787490845,-0.007580876350402832,0.16757196187973022,-0.2903766918720546,-1.50384336980806,-1.2529931926022142,-0.955989420413971,0.28631317615509033,-0.06410213559865952,-0.16309233009815216,0.043809615075588226,-0.22411440312862396
1.8866310119628906,0.2193557620048523,-0.0036866068840026855,0.13882791996002197,-0.2856308164389815,-1.505001741070938,-1.2516012461952446,-0.9574081301689148,0.2817627787590027,-0.06308332830667496,0.28920963406562805,-0.2119428962469101,-0.22542904317378998
1.906351089477539,0.1700344681739807,-0.07117804884910583,0.1606355905532837,-0.2809921978643589,-1.508445659157892,-1.2445451001878565,-0.9589139819145203,0.2773090600967407,-0.0598665252327919,0.3450878858566284,-0.27824094891548157,-0.20662972331047058
1.9259939193725586,0.09691989421844482,-0.10296192765235901,0.20227360725402832,-0.27623076219123927,-1.5112351847751182,-1.2405314447026345,-0.9603844285011292,0.2727312445640564,-0.05726933106780052,0.01997176930308342,-0.07727163285017014,-0.24978837370872498
1.945241928100586,0.11245256662368774,-0.12062111496925354,0.2459782361984253,-0.2713224420608397,-1.5120752558996693,-1.245465637752918,-0.961756706237793,0.26800572872161865,-0.05654038488864899,-0.47861093282699585,0.07327944040298462,-0.24623149633407593
1.9659919738769531,0.1506962776184082,-0.13868173956871033,0.22681576013565063,-0.268355920815099,-1.515290990096415,-1.2589447168277277,-0.9627231955528259,0.26514655351638794,-0.053491219878196716,-0.7662698030471802,-0.061966974288225174,-0.10058707743883133
1.9860610961914062,0.08777987957000732,-0.08728349208831787,0.17419326305389404,-0.26825409649031196,-1.521625869537511,-1.2751514072561356,-0.9630697965621948,0.26504838466644287,-0.04739278554916382,-0.7604947090148926,-0.08449961990118027,-0.03539731726050377
2.005117893218994,-0.002339482307434082,-0.03579631447792053,0.1704404354095459,-0.26739550232456477,-1.52532709874777,-1.289674400327939,-0.9634655714035034,0.26422038674354553,-0.0438382513821125,-0.648865818977356,0.10465015470981598,-0.11583379656076431
2.025787830352783,0.011365115642547607,-0.06307795643806458,0.18220818042755127,-0.2654014917314024,-1.5259499774721483,-1.3026910571052772,-0.9640170931816101,0.26229673624038696,-0.043261654675006866,-0.6071338653564453,0.15725645422935486,-0.1282012164592743
2.0463881492614746,0.06273281574249268,-0.09816709160804749,0.16555476188659668,-0.2640829720345142,-1.5266051704887218,-1.3145367426332475,-0.964389979839325,0.26102414727211,-0.04264527186751366,-0.5265522003173828,0.07830137014389038,-0.05372808873653412
2.0656471252441406,0.03879815340042114,-0.046588629484176636,0.12643659114837646,-0.26292539458314346,-1.5279420089188018,-1.3231408124426998,-0.9647473096847534,0.259906530380249,-0.041368912905454636,-0.23725056648254395,0.05019303411245346,-0.1124037355184555
2.085890054702759,-0.018643736839294434,0.003438711166381836,0.08685195446014404,-0.2605780789298197,-1.5263917467751047,-1.324397580941965,-0.9652886986732483,0.25763916969299316,-0.04289143532514572,0.119933120906353,0.10674463957548141,-0.09904055297374725
2.105602979660034,-0.03249448537826538,0.026783734560012817,0.021869178861379623,-0.2585109105540885,-1.5241522602588446,-1.3172565672632572,-0.9657204151153564,0.25564122200012207,-0.04507782310247421,0.573677122592926,-0.09031356871128082,-0.08048222213983536
2.1256051063537598,-0.07849812507629395,0.041675418615341187,-0.0029754601418972015,-0.2570284488072076,-1.5246162198729472,-1.3032620955959482,-0.9661185145378113,0.2542077302932739,-0.04464719817042351,0.7288687229156494,-0.30752044916152954,-0.00490588741376996
2.1455678939819336,-0.1969185471534729,0.024075061082839966,0.04284030571579933,-0.25679899391444405,-1.5268522487213414,-1.2903895474842915,-0.9662741422653198,0.25398582220077515,-0.04248937964439392,0.4649307429790497,-0.1804269552230835,0.047295358031988144
2.165117025375366,-0.2912123203277588,0.002337425947189331,0.09848695993423462,-0.2578656051925876,-1.525483690505749,-1.2852992019674248,-0.9659440517425537,0.25501731038093567,-0.04379945248365402,0.026537660509347916,0.20461899042129517,0.07072637975215912
2.1850171089172363,-0.2603874206542969,-0.015557080507278442,0.10842174291610718,-0.25986603978601863,-1.5197993028825998,-1.2878702406529468,-0.9651679992675781,0.25695109367370605,-0.04926341027021408,-0.2552735209465027,0.3656883239746094,0.13850143551826477
2.204988956451416,-0.18713080883026123,0.005931109189987183,0.058970578014850616,-0.2637323913759692,-1.5157551703863332,-1.2939250407163785,-0.9639616012573242,0.2606857120990753,-0.053111206740140915,-0.32717886567115784,0.1918794959783554,0.1793482005596161
2.225836992263794,-0.19695639610290527,0.026472479104995728,0.07029014825820923,-0.26700236219405815,-1.514108436655589,-1.3001647001892398,-0.9630166888237,0.2638412117958069,-0.05464993789792061,-0.29242247343063354,0.17522302269935608,0.13943806290626526
2.247006893157959,-0.19235676527023315,-0.02501341700553894,0.0663648247718811,-0.2706929925550293,-1.5120719528080144,-1.3046841823380564,-0.9619248509407043,0.26739925146102905,-0.05655345693230629,-0.15375517308712006,0.1614057570695877,0.19234983623027802
2.265458106994629,-0.17623716592788696,0.010148584842681885,0.06321550160646439,-0.2741090887267949,-1.5085444079855568,-1.3062446859694634,-0.960801899433136,0.2706893980503082,-0.05988914519548416,0.0068391901440918446,0.24333728849887848,0.1272372007369995
2.2843220233917236,-0.15525352954864502,0.011913925409317017,0.007402651011943817,-0.2761117375874012,-1.5028790348481997,-1.3034956358438792,-0.959904670715332,0.27261674404144287,-0.065294548869133,0.24372324347496033,0.21408049762248993,0.09112115949392319
2.3050918579101562,-0.11808687448501587,0.019455283880233765,-0.0340995192527771,-0.27691700713133194,-1.498822596697246,-1.2957123425205634,-0.9594125151634216,0.2733914256095886,-0.0691719800233841,0.484702467918396,-0.06042402610182762,0.05490216612815857
2.324984073638916,-0.13493198156356812,0.03727060556411743,-0.061613135039806366,-0.27689245072882346,-1.4996204139364944,-1.2838444690150257,-0.9594740867614746,0.2733677923679352,-0.06840699911117554,0.637975811958313,-0.2821212708950043,0.02874584123492241
2.344794988632202,-0.21696138381958008,0.06487369537353516,-0.03559517860412598,-0.27644843502540706,-1.500788296848535,-1.2708457312682193,-0.9596743583679199,0.27294066548347473,-0.0672948881983757,0.608053982257843,-0.18644249439239502,0.0005033530760556459
2.3652870655059814,-0.26572877168655396,0.07844984531402588,-0.0029914826154708862,-0.27448647562188444,-1.5001325017775904,-1.2595095813174466,-0.9601621627807617,0.27105265855789185,-0.06796188652515411,0.5133644938468933,-0.019832657650113106,-0.08777455985546112
2.3838329315185547,-0.2646837830543518,0.07788050174713135,-0.018543243408203125,-0.2729541540844836,-1.4975765948387638,-1.2511126602579699,-0.9603986144065857,0.26957738399505615,-0.07044606655836105,0.2612961232662201,0.004222967196255922,-0.0325811430811882
2.4048280715942383,-0.21585947275161743,0.054469525814056396,-0.04281741380691528,-0.2718176043674717,-1.4988360505328433,-1.2476910925397997,-0.9607915878295898,0.2684827446937561,-0.06925841420888901,0.11672364920377731,-0.25288358330726624,-0.06268354505300522
2.42362904548645,-0.21729731559753418,0.12409225106239319,-0.06344182044267654,-0.27020552411868853,-1.5039890976852333,-1.2417058202129232,-0.9615663290023804,0.2669295072555542,-0.06433532387018204,0.5482217669487,-0.35702988505363464,-0.04487316310405731
2.444460868835449,-0.29969537258148193,0.20056605339050293,-0.06784253567457199,-0.2676605626204178,-1.5058500954446559,-1.224025858667554,-0.9623590707778931,0.2644760310649872,-0.0625896230340004,1.1366873979568481,-0.2879825234413147,-0.09380320459604263
2.4644110202789307,-0.3403315544128418,0.11451280117034912,-0.033997178077697754,-0.26570845977875784,-1.503981634959764,-1.1993535471649415,-0.9627537727355957,0.26259294152259827,-0.06442198902368546,1.1464488506317139,-0.19807687401771545,0.07844390720129013
2.484734058380127,-0.3115497827529907,0.010423094034194946,-0.012550882995128632,-0.26685702754300644,-1.5037465669305738,-1.1775706743591277,-0.9624369740486145,0.26370102167129517,-0.06462804228067398,0.9406352043151855,-0.34175804257392883,0.13411083817481995
2.5036189556121826,-0.3076268434524536,0.08088013529777527,0.006330370903015137,-0.26765639914101347,-1.505881951446861,-1.158802304380766,-0.9623621702194214,0.26447200775146484,-0.06255903840065002,0.889275074005127,-0.41789576411247253,0.05587007477879524
2.5234060287475586,-0.30962300300598145,0.027731746435165405,-0.004340417683124542,-0.2675003177213867,-1.5108199515530398,-1.1404275276046503,-0.9627007246017456,0.2643214762210846,-0.057808633893728256,0.872868537902832,-0.5715550184249878,0.0749773159623146
2.544219970703125,-0.31870412826538086,-0.012372642755508423,0.0032293833792209625,-0.26850163482913436,-1.5203436377756063,-1.1239969427524727,-0.9629425406455994,0.2652870714664459,-0.04862430319190025,0.699110209941864,-0.7829210758209229,0.05793795362114906
2.565826892852783,-0.37066811323165894,0.013534605503082275,0.024586621671915054,-0.26709565454837697,-1.5337806458841006,-1.1113865648392691,-0.9638808369636536,0.26393118500709534,-0.03569500893354416,0.5325071215629578,-0.8953603506088257,-0.1224069818854332
2.5839109420776367,-0.3739326000213623,-0.05674424767494202,0.0732988715171814,-0.2650996485131111,-1.5492801825833462,-1.1030609219955294,-0.9648429751396179,0.26200544834136963,-0.020762905478477478,0.2894461452960968,-0.7835411429405212,0.006244105286896229
2.6040549278259277,-0.40345120429992676,-0.09346309304237366,0.10083276033401489,-0.26817475871056684,-1.5609347291433637,-1.0998760333645872,-0.9642093181610107,0.26497188210487366,-0.009508952498435974,-0.0007103527896106243,-0.5291316509246826,0.23937761783599854
2.6232540607452393,-0.39894402027130127,0.0021764039993286133,0.041608572006225586,-0.2713595295311268,-1.5721923500450765,-1.101912675862168,-0.9634064435958862,0.2680414617061615,0.0013449386460706592,-0.12890969216823578,-0.5682368278503418,0.10244165360927582
2.6441500186920166,-0.30073338747024536,-0.013420581817626953,0.027952315285801888,-0.27524467143593034,-1.584593022362139,-1.1038676931734583,-0.962267279624939,0.27178239822387695,0.01327695045620203,-0.06266102939844131,-0.6181997656822205,0.30986687541007996
2.6630210876464844,-0.3227810263633728,-0.04817700386047363,0.02717769145965576,-0.2824313957771104,-1.5968065603269692,-1.1044789306520162,-0.960055947303772,0.27869153022766113,0.024976911023259163,0.007993164472281933,-0.5626816153526306,0.3583984673023224
2.6837990283966064,-0.3732835054397583,-0.009678483009338379,0.024575352668762207,-0.28823492015590807,-1.6064611525966837,-1.1034735113279626,-0.9581373929977417,0.2842603921890259,0.03418629989027977,0.0875784158706665,-0.457619845867157,0.24418431520462036
2.7037501335144043,-0.3539997935295105,-0.08614492416381836,0.03138840198516846,-0.29351188033618364,-1.6149008499303743,-1.1036274760431863,-0.9563030004501343,0.28931570053100586,0.04220465570688248,-0.14172238111495972,-0.3629665970802307,0.3015497922897339
2.723668098449707,-0.3382583260536194,-0.14040154218673706,0.04573023319244385,-0.29907603628633334,-1.623178366274803,-1.110954178209541,-0.9542984962463379,0.29463738203048706,0.050033871084451675,-0.49736547470092773,-0.2921440005302429,0.2588199973106384
2.744184970855713,-0.35239601135253906,-0.10858199000358582,-0.007448427379131317,-0.3026975053263018,-1.6325099954487137,-1.1232077516090766,-0.9527188539505005,0.2980961501598358,0.05887053161859512,-0.6218142509460449,-0.27324193716049194,0.18066145479679108
2.7648420333862305,-0.32022780179977417,-0.0721646249294281,-0.0070645809173583984,-0.3053578229360435,-1.6409447682646578,-1.1355550650256854,-0.9513939619064331,0.3006344735622406,0.06684848666191101,-0.5263956189155579,-0.15472647547721863,0.1402517855167389
2.7815029621124268,-0.3224183917045593,0.005072593688964844,-0.04140257090330124,-0.30555276228316186,-1.6455270231306967,-1.144265742161842,-0.9510192275047302,0.30082038044929504,0.07120292633771896,-0.29578930139541626,-0.07613959908485413,-0.03130292892456055
2.8023359775543213,-0.26765990257263184,-0.01821151375770569,-0.032381534576416016,-0.30574390533735035,-1.6483848232981897,-1.1502546893941439,-0.9507544040679932,0.3010026514530182,0.0739159882068634,-0.288935124874115,-0.04706312343478203,0.12021719664335251
2.823319911956787,-0.21571844816207886,-0.037195831537246704,-0.02546357363462448,-0.3088681269211413,-1.6512676126740125,-1.1573204459467374,-0.9495953917503357,0.3039805293083191,0.07658053934574127,-0.3527079224586487,-0.019094161689281464,0.23236003518104553
2.83994197845459,-0.19698894023895264,0.003974229097366333,-0.04102921485900879,-0.3130172589437035,-1.652969987680523,-1.164061974533722,-0.9481984972953796,0.30793067812919617,0.0780927911400795,-0.2044728696346283,0.07607940584421158,0.23092439770698547
2.860347032546997,-0.1713200807571411,0.025858312845230103,-0.051238901913166046,-0.31824696455424945,-1.6505334283958328,-1.1658168033707568,-0.9467676281929016,0.31290203332901,0.07565291225910187,0.05955246835947037,0.2086702138185501,0.29751601815223694
2.882510185241699,-0.1554049253463745,0.019994288682937622,-0.05421864986419678,-0.32439517242001475,-1.64490517381105,-1.1632921545190547,-0.9452421069145203,0.3187355697154999,0.07017932832241058,0.1812439113855362,0.2860318422317505,0.3159778416156769
2.9032678604125977,-0.11333072185516357,-0.016540318727493286,-0.028450846672058105,-0.3315407641856194,-1.6373736501692187,-1.1605422588523724,-0.9434472918510437,0.3255002796649933,0.06290516257286072,0.13627204298973083,0.36526548862457275,0.37337175011634827
2.922229051589966,-0.0734516978263855,-0.026507049798965454,-0.032015442848205566,-0.3393810529883359,-1.6287134992140473,-1.1583975264711073,-0.9413798451423645,0.33290350437164307,0.0545831061899662,0.1235429123044014,0.4266308546066284,0.4028210937976837
2.9421610832214355,-0.05517631769180298,-0.03732261061668396,-0.02540004253387451,-0.34762660185484456,-1.6187832217138958,-1.1582548515587583,-0.9391016960144043,0.34066733717918396,0.04509919509291649,-0.11162823438644409,0.5736455321311951,0.4066022038459778
2.963031053543091,-0.04510986804962158,-0.09581944346427917,-0.0036066770553588867,-0.3554872710937898,-1.607693067343174,-1.1647400337835152,-0.9368390440940857,0.3480472266674042,0.034582000225782394,-0.4564451575279236,0.7595547437667847,0.4207092523574829
2.983060836791992,0.02847844362258911,-0.09379765391349792,0.014991283416748047,-0.3638909952267824,-1.595887326286326,-1.176870043627618,-0.9342249035835266,0.3559131324291229,0.023445557802915573,-0.6061539053916931,0.8101173639297485,0.46386274695396423
3.0028271675109863,0.08190023899078369,-0.06592586636543274,0.028772473335266113,-0.37290973165575686,-1.5852542526950304,-1.190809787813168,-0.9311739206314087,0.36432671546936035,0.013463781215250492,-0.6215257048606873,0.7764091491699219,0.4357117712497711
3.0229129791259766,0.08451837301254272,-0.04500529170036316,0.019069314002990723,-0.380933827957682,-1.5736116073006141,-1.2008022942643377,-0.928314208984375,0.37178751826286316,0.002613471820950508,-0.36186885833740234,0.7883684635162354,0.3946283757686615
3.0432260036468506,0.13324451446533203,-0.030850768089294434,0.05559927225112915,-0.38803449111815774,-1.5602337504737709,-1.2065585444063933,-0.9256030321121216,0.3783697783946991,-0.009777115657925606,-0.1335136443376541,0.7388662099838257,0.2958190143108368
3.063662052154541,0.17354822158813477,-0.02232539653778076,0.025247039273381233,-0.3927415848106727,-1.545976553954772,-1.2054818369785925,-0.923578679561615,0.3827227056026459,-0.022927720099687576,0.22389881312847137,0.6343421936035156,0.1853177845478058
3.082076072692871,0.19523221254348755,-0.013447403907775879,0.031132344156503677,-0.3956199763305015,-1.5317399052924912,-1.1984461987649597,-0.92205411195755,0.385380357503891,-0.03603045642375946,0.36100929975509644,0.5600791573524475,0.14880329370498657
3.1027159690856934,0.18886232376098633,-0.08651471138000488,0.06849473714828491,-0.39908750149054,-1.5175323545833934,-1.1914757857356142,-0.9201092720031738,0.3885776996612549,-0.0490550734102726,0.24022847414016724,0.579778254032135,0.24019981920719147
3.122398853302002,0.17647671699523926,-0.04143178462982178,0.060804128646850586,-0.4032717284102253,-1.5045412026192164,-1.1868081307682925,-0.9177640080451965,0.3924297094345093,-0.06089570000767708,0.22756436467170715,0.5609716176986694,0.18413490056991577
3.1409690380096436,0.18455767631530762,0.0022166669368743896,0.03799325227737427,-0.406400218193116,-1.4909260773980457,-1.1798789009195305,-0.9156215190887451,0.3953053057193756,-0.07328682392835617,0.3811933100223541,0.5161473155021667,0.17987655103206635
3.1623740196228027,0.21455413103103638,-0.013658672571182251,0.034682631492614746,-0.40848438022952716,-1.4779694523090035,-1.1695954406462719,-0.9137728810310364,0.39721885323524475,-0.08506716042757034,0.5284633040428162,0.37596502900123596,0.09989502280950546
3.180371046066284,0.2127668261528015,-0.009138286113739014,0.05859917402267456,-0.40818099732444907,-1.4658462837198702,-1.1576834388140436,-0.912794291973114,0.3969404101371765,-0.09615108370780945,0.5768121480941772,0.3626839220523834,-0.024343887344002724
3.201266050338745,0.21185314655303955,-0.03587546944618225,0.037366874516010284,-0.4053938365118295,-1.453884594840293,-1.1443505442685211,-0.9126740097999573,0.39438071846961975,-0.10719112306833267,0.6280882358551025,0.340155690908432,-0.0989738255739212
3.2224509716033936,0.24062752723693848,-0.03001338243484497,0.05685758590698242,-0.40134285791113317,-1.4422738458111009,-1.132138310692653,-0.9129450917243958,0.3906548321247101,-0.11798430234193802,0.5449391603469849,0.3145259916782379,-0.16918151080608368
3.2418699264526367,0.2627871632575989,-0.03522777557373047,0.04206085205078125,-0.39608965119143474,-1.4327762595628524,-1.1222403562659569,-0.9138033986091614,0.38581371307373047,-0.12693022191524506,0.44460728764533997,0.2747751772403717,-0.22650328278541565
3.261138916015625,0.26191723346710205,-0.021038949489593506,0.033796027302742004,-0.3900623138869132,-1.4241839315688185,-1.1145647520101631,-0.9149627685546875,0.38024604320526123,-0.135114386677742,0.3403260111808777,0.29383355379104614,-0.27608421444892883
3.282386064529419,0.2640610933303833,-0.01363462209701538,0.014166608452796936,-0.3831059333559856,-1.4168718201142891,-1.1090918208564506,-0.9165421724319458,0.373803049325943,-0.14220313727855682,0.27251362800598145,0.23999731242656708,-0.3252371847629547
3.301938056945801,0.2546893358230591,0.002410411834716797,0.021228313446044922,-0.3761480659372957,-1.4105617672142312,-1.1056764370923655,-0.9181720614433289,0.3673405647277832,-0.1483950912952423,0.14386458694934845,0.2826918661594391,-0.32853803038597107
3.320920944213867,0.21153032779693604,0.004884064197540283,0.01225346326828003,-0.3687906217348708,-1.4035677059472635,-1.105616323078167,-0.919751763343811,0.3604876399040222,-0.15525881946086884,-0.019476983696222305,0.40021076798439026,-0.37771472334861755
3.3409459590911865,0.25430089235305786,0.005179464817047119,0.010938242077827454,-0.3628369944615409,-1.396403173503844,-1.1091488604047035,-0.9207131862640381,0.3549279570579529,-0.16221389174461365,-0.19193290174007416,0.4133390784263611,-0.2878042757511139
3.3619508743286133,0.2803204655647278,0.021482259035110474,-0.019743844866752625,-0.3581174309224397,-1.3913835331916073,-1.1140017345311024,-0.9215252995491028,0.35051172971725464,-0.16713052988052368,-0.1602197140455246,0.28197893500328064,-0.23820769786834717
3.381922960281372,0.26123082637786865,0.0733274519443512,-0.01235896348953247,-0.35434475268431426,-1.3876025203073157,-1.1183776048303162,-0.9221805930137634,0.3469758927822113,-0.17085333168506622,-0.20119619369506836,0.25784724950790405,-0.23159313201904297
3.401766061782837,0.23899787664413452,0.04452720284461975,0.0017945319414138794,-0.3512138810652779,-1.3843514468497722,-1.1244381659035643,-0.9226831793785095,0.34403783082962036,-0.17405101656913757,-0.28698137402534485,0.2804461121559143,-0.1448913961648941
3.420720100402832,0.25810980796813965,0.043177247047424316,-0.006327509880065918,-0.3509452837691562,-1.3815298285151854,-1.1310034251073087,-0.9222791790962219,0.3437856137752533,-0.17667116224765778,-0.30465736985206604,0.20904748141765594,-0.013587476685643196
3.441570997238159,0.2501911520957947,0.07158058881759644,-0.030518457293510437,-0.3519132290343267,-1.3810542832109645,-1.1365787339894324,-0.9218677282333374,0.3446944057941437,-0.17704686522483826,-0.19583310186862946,0.04287794977426529,0.0033841445110738277
3.4634199142456055,0.2170320749282837,0.09544330835342407,-0.044644638895988464,-0.35238681842043895,-1.3821261977971273,-1.1380237087769063,-0.9218965172767639,0.34513893723487854,-0.17602796852588654,0.059666957706213,-0.07670126855373383,0.036740925163030624
3.4799530506134033,0.19055503606796265,0.09291750192642212,-0.05146437883377075,-0.3529970797426285,-1.3836382587109395,-1.1342496272993043,-0.9219545722007751,0.3457116484642029,-0.17459459602832794,0.2791122496128082,-0.20545941591262817,0.08442209661006927
3.4999709129333496,0.1658332347869873,0.0906568169593811,-0.06570206582546234,-0.35340615344224174,-1.3865400861185064,-1.1260833413656928,-0.922318160533905,0.346095472574234,-0.17189256846904755,0.4707877039909363,-0.35823655128479004,0.09847068041563034
3.519996166229248,0.14237505197525024,0.11210477352142334,-0.06856726109981537,-0.3533473958591767,-1.3907904556656459,-1.1141990735435392,-0.923060417175293,0.3460403382778168,-0.16797447204589844,0.6161048412322998,-0.44951868057250977,0.08718423545360565
3.541275978088379,0.09943121671676636,0.09562760591506958,-0.08161009848117828,-0.3529059084212158,-1.395277057524602,-1.099471651582436,-0.9239552617073059,0.3456260859966278,-0.1638580858707428,0.7710845470428467,-0.4692067503929138,0.1326831579208374
3.5602478981018066,0.08633309602737427,0.0987582802772522,-0.10924200713634491,-0.35326080509462904,-1.3985214025757766,-1.08042053830581,-0.924360990524292,0.3459590971469879,-0.1608385294675827,0.9850306510925293,-0.5345971584320068,0.19606541097164154
3.5810739994049072,0.05420166254043579,0.08083561062812805,-0.1405056267976761,-0.353286568424705,-1.4007955165409016,-1.05673121719436,-0.9247157573699951,0.34598326683044434,-0.1587345451116562,1.2570124864578247,-0.48610180616378784,0.17483346164226532
3.601256847381592,0.006870448589324951,0.07468822598457336,-0.1688370555639267,-0.35173991233546986,-1.3989423472131148,-1.0257442263023178,-0.9249459505081177,0.34453171491622925,-0.16053920984268188,1.6074467897415161,-0.4417794346809387,0.16327965259552002
3.62111496925354,0.023428738117218018,0.08044865727424622,-0.09985087811946869,-0.34950565786329835,-1.3952409818524327,-0.9876436484269703,-0.9251010417938232,0.3424333930015564,-0.1640956997871399,2.008526086807251,-0.49065378308296204,0.2715030908584595
3.640774965286255,0.03164780139923096,0.10524198412895203,-0.016332313418388367,-0.3492156744931812,-1.3875281598341356,-0.9380968597828013,-0.9239054322242737,0.3421609401702881,-0.17124396562576294,2.5645718574523926,-0.3544108271598816,0.5451070666313171
3.660128116607666,-0.004505634307861328,0.10903748869895935,0.01084434986114502,-0.3529574259924156,-1.3729805503590384,-0.8804935885973701,-0.9200549721717834,0.34567442536354065,-0.1844131201505661,2.5767388343811035,-0.22250506281852722,0.8139077425003052
3.6802079677581787,-0.03342980146408081,0.0889960527420044,0.005897492170333862,-0.35975396274394245,-1.3587049836440546,-0.8269477076603816,-0.9150106310844421,0.3520439565181732,-0.19702903926372528,2.1586496829986572,-0.1940714716911316,0.8901042938232422
3.7009410858154297,-0.05819439888000488,0.06159567832946777,0.05159205198287964,-0.36969618733444204,-1.3464760007965375,-0.7843661437907461,-0.9090754985809326,0.36133214831352234,-0.20741485059261322,1.5272575616836548,-0.07597706466913223,0.9072615504264832
3.720539093017578,-0.09214156866073608,0.04222285747528076,0.08307397365570068,-0.38130227809052264,-1.3349565971458042,-0.7538970785673316,-0.9024873375892639,0.37212952971458435,-0.21687830984592438,0.9980758428573608,0.09491904824972153,0.8694328665733337
3.7406458854675293,-0.07129567861557007,0.030111879110336304,0.09019224345684052,-0.39403793785346486,-1.323958800418151,-0.732893879094224,-0.8953790068626404,0.3839200437068939,-0.22561398148536682,0.6078158020973206,0.20759348571300507,0.8380072116851807
3.760572910308838,-0.043720245361328125,0.019776374101638794,0.10384239256381989,-0.4075500831477386,-1.3129226406895818,-0.7186586040179439,-0.8877372741699219,0.39636126160621643,-0.23413719236850739,0.34372851252555847,0.361339271068573,0.8019595146179199
3.7800331115722656,-0.04077237844467163,-0.0031570792198181152,0.0794944167137146,-0.4216535579631265,-1.3007565131609609,-0.7096641219056449,-0.8793478608131409,0.4092697501182556,-0.24340437352657318,0.11341480910778046,0.48457157611846924,0.7644712328910828
3.800328016281128,-0.014096438884735107,-0.054202377796173096,0.13184377551078796,-0.43664366244276,-1.2864915785024782,-0.7042039162434285,-0.8697993755340576,0.42290040850639343,-0.25417348742485046,-0.07539550960063934,0.6576752066612244,0.8297075033187866
3.8200130462646484,0.03266620635986328,-0.08110231161117554,0.11739525198936462,-0.4531749343030714,-1.2744663991245055,-0.7036947691489976,-0.8598756194114685,0.4378221929073334,-0.26253682374954224,-0.28213998675346375,0.5223333239555359,0.7518290281295776
3.840467929840088,0.04236555099487305,-0.08121305704116821,0.09318384528160095,-0.46837510007157096,-1.2662200772555545,-0.7045502271474762,-0.8512338995933533,0.45143696665763855,-0.26759177446365356,-0.21793575584888458,0.3788754940032959,0.6880506873130798
3.859994888305664,0.017664194107055664,-0.07700490951538086,0.10392794013023376,-0.48152184317184976,-1.2587889422644987,-0.7036609971352562,-0.8435003161430359,0.4631285071372986,-0.27206453680992126,-0.12039399147033691,0.32034817337989807,0.5813544392585754
3.8804931640625,-0.0047743916511535645,-0.11351808905601501,0.08240294456481934,-0.49156715939007967,-1.2532220717278695,-0.7021966499837748,-0.8375108242034912,0.47200807929039,-0.2752893269062042,-0.052529193460941315,0.15743976831436157,0.4112655818462372
3.8999979496002197,0.010936319828033447,-0.11333200335502625,0.09156060218811035,-0.4979441015958035,-1.2499639250494257,-0.6996694297099548,-0.833736002445221,0.47762030363082886,-0.27706170082092285,0.06812417507171631,0.06758329272270203,0.2777053713798523
3.9201531410217285,0.0036513209342956543,-0.13621395826339722,0.10619807243347168,-0.50186633941344,-1.246860129738784,-0.6956296064390544,-0.8310896754264832,0.48106256127357483,-0.27904966473579407,0.09093029797077179,0.04571262001991272,0.20501872897148132
3.9401350021362305,-0.014911055564880371,-0.17111390829086304,0.08973836898803711,-0.5045173823956177,-1.246253986263457,-0.6945770469368534,-0.8297086954116821,0.48338499665260315,-0.2791457176208496,-0.07433485984802246,-0.032771091908216476,0.07194231450557709
3.9599950313568115,-0.027895569801330566,-0.1694621443748474,0.07218050956726074,-0.5057859016968406,-1.2485690302314496,-0.6970483348591091,-0.8297704458236694,0.4844951033592224,-0.27702975273132324,-0.1735454648733139,-0.07118576765060425,-0.01849132403731346
3.979978084564209,-0.043675780296325684,-0.15385717153549194,0.060980767011642456,-0.5056168964176573,-1.2531015211409418,-0.7025460608020505,-0.8310953378677368,0.48434725403785706,-0.27329155802726746,-0.26654207706451416,-0.11045851558446884,-0.1508338898420334
3.9999961853027344,-0.05163925886154175,-0.1575516164302826,0.03710973262786865,-0.5035621182331124,-1.2592526508963964,-0.7099368614914768,-0.8337062001228333,0.4825485348701477,-0.26847875118255615,-0.28152239322662354,-0.15098677575588226,-0.24028131365776062
4.020020008087158,-0.05023568868637085,-0.14101487398147583,0.020865291357040405,-0.49978990694752323,-1.2662955653674182,-0.7182294879645998,-0.8373069763183594,0.47924116253852844,-0.263144314289093,-0.3099050521850586,-0.16017033159732819,-0.3480030298233032
4.0400309562683105,-0.0507657527923584,-0.1323738992214203,-0.0007987320423126221,-0.49412588010960307,-1.2744032226696593,-0.7282167551544951,-0.8419954776763916,0.4742622673511505,-0.257135808467865,-0.3535398840904236,-0.1672808825969696,-0.44733378291130066
4.060028076171875,-0.050791263580322266,-0.12803220748901367,-0.019075065851211548,-0.487317635549837,-1.282809881658171,-0.7393226752953238,-0.8472038507461548,0.46825745701789856,-0.2509597837924957,-0.39318040013313293,-0.13806875050067902,-0.48864564299583435
4.080054044723511,-0.0633704662322998,-0.10819485783576965,-0.03071880340576172,-0.47963014376096047,-1.290668534465219,-0.751761138720796,-0.8525841236114502,0.46145108342170715,-0.24528221786022186,-0.4480583369731903,-0.072170689702034,-0.5590093731880188
4.100031852722168,-0.06770163774490356,-0.09964296221733093,-0.049630820751190186,-0.4710073510988047,-1.2978581210566993,-0.7657170321571813,-0.8581253886222839,0.45378416776657104,-0.24020987749099731,-0.5272125601768494,-0.013713954947888851,-0.6122264266014099
4.119724988937378,-0.06308591365814209,-0.09181126952171326,-0.050082623958587646,-0.46191427416165765,-1.3045399959669086,-0.781823943092255,-0.8636566400527954,0.44566258788108826,-0.23554669320583344,-0.6353077292442322,0.07960134744644165,-0.6469992995262146
4.140938997268677,-0.06020087003707886,-0.08090713620185852,-0.038173362612724304,-0.4530427449898244,-1.3104296525216732,-0.8014704523592519,-0.8688151836395264,0.43770334124565125,-0.2314647138118744,-0.8392377495765686,0.19967298209667206,-0.6706628799438477
4.160008907318115,-0.04508179426193237,-0.07413342595100403,-0.040689289569854736,-0.444998642663663,-1.3159853175467993,-0.8254899886217567,-0.8734667897224426,0.43045666813850403,-0.22751447558403015,-1.0552928447723389,0.28357693552970886,-0.6652237176895142
4.180294036865234,-0.02619880437850952,-0.05650302767753601,-0.04544264078140259,-0.43761682410667485,-1.321562408369947,-0.852935908424548,-0.877777636051178,0.423782080411911,-0.223417267203331,-1.1412583589553833,0.34275609254837036,-0.6710457801818848
4.1999640464782715,-0.005677700042724609,-0.024521976709365845,-0.04755912721157074,-0.43023545011020903,-1.3256639529279703,-0.8806406699452303,-0.8816971778869629,0.41708481311798096,-0.22056829929351807,-1.1135088205337524,0.41797423362731934,-0.6586008667945862
4.219964981079102,0.03171408176422119,-0.008502155542373657,-0.030996769666671753,-0.4230470389112333,-1.3274209447689174,-0.9070364919981935,-0.8849704265594482,0.41054075956344604,-0.21973566710948944,-1.060745358467102,0.5039968490600586,-0.6192024350166321
4.239935874938965,0.07251518964767456,-0.00040924549102783203,-0.016469761729240417,-0.416457176991242,-1.3270834826876088,-0.9323871475190868,-0.8875023126602173,0.40452298521995544,-0.2206823229789734,-1.023636817932129,0.5738542079925537,-0.5750629305839539
4.259948968887329,0.10350322723388672,-0.00352594256401062,-0.0004669874906539917,-0.41112851965237573,-1.3250610903490558,-0.9567907713742745,-0.8891324996948242,0.39964407682418823,-0.2229979932308197,-1.0463939905166626,0.6022263765335083,-0.49458086490631104
4.279937028884888,0.07916635274887085,-0.003908514976501465,0.017788469791412354,-0.4071548095095204,-1.323601430743643,-0.9822225957873572,-0.8903388381004333,0.3959983289241791,-0.22468239068984985,-1.1308692693710327,0.5626965165138245,-0.4693988859653473
4.299981117248535,-0.019126713275909424,0.012423872947692871,0.027066782116889954,-0.40371159322827127,-1.323938734281199,-1.010625979673084,-0.8917313814163208,0.39283424615859985,-0.22471390664577484,-1.313033938407898,0.5076985359191895,-0.5306398868560791
4.3200249671936035,-0.1344444751739502,0.049877434968948364,0.023680999875068665,-0.39886232446795666,-1.325991197638108,-1.041599143734965,-0.89402836561203,0.38837021589279175,-0.22334226965904236,-1.324567198753357,0.5411843657493591,-0.6303250789642334
4.340008974075317,-0.18273663520812988,0.10540738701820374,0.045257583260536194,-0.39244273700516974,-1.3255019088379507,-1.0725731956776419,-0.8963190913200378,0.3824465870857239,-0.2243805080652237,-1.2982593774795532,0.7175184488296509,-0.6793541312217712
4.3601250648498535,-0.11893033981323242,0.10499674081802368,0.048189714550971985,-0.3867175701291254,-1.3209551999088909,-1.1033731185944664,-0.8973965048789978,0.37715041637420654,-0.2289910763502121,-1.3717702627182007,0.8821999430656433,-0.5499290227890015
4.380043029785156,-0.01893305778503418,0.1105828583240509,0.016404330730438232,-0.3850361806683976,-1.3162854332074956,-1.1365255060747135,-0.8969299793243408,0.3755926787853241,-0.23333857953548431,-1.5776126384735107,0.8300759196281433,-0.390859454870224
4.399971008300781,0.02248990535736084,0.12084275484085083,0.005158156156539917,-0.39000687304457754,-1.3131481874910997,-1.1767630763989678,-0.8943769931793213,0.3801947832107544,-0.23567265272140503,-2.3041024208068848,1.0436744689941406,-0.01781458966434002
4.419980049133301,0.0135728120803833,0.1023261547088623,-0.028667673468589783,-0.4050587465107465,-1.3125557627938773,-1.2326255722902586,-0.8886033296585083,0.3940727412700653,-0.2347143143415451,-2.8816781044006348,1.1106202602386475,0.07694786787033081
4.440009117126465,0.024126708507537842,0.23713359236717224,-0.15669523179531097,-0.42050511062278595,-1.3123778940607602,-1.2859393828371664,-0.8825709223747253,0.40822160243988037,-0.23328886926174164,-2.039348602294922,1.0572853088378906,0.209732785820961
4.459995985031128,0.0764397382736206,0.3195360600948334,-0.28084880113601685,-0.4328025246262892,-1.3031222616404654,-1.313409191860004,-0.8754661679267883,0.41941654682159424,-0.24010154604911804,-0.755506694316864,0.9782853126525879,0.3120191991329193
4.4799981117248535,0.08804094791412354,0.2029537558555603,-0.29534226655960083,-0.44175225838121873,-1.2888671487333285,-1.322255164567621,-0.8683144450187683,0.4275241792201996,-0.25150221586227417,-0.39609643816947937,0.8176560401916504,0.313032865524292
4.499998092651367,0.10684758424758911,0.007251650094985962,-0.20783689618110657,-0.4489472177675926,-1.2775583582106478,-1.3284517535762477,-0.8624476790428162,0.4340173304080963,-0.2604096233844757,-0.3182557225227356,0.5579873323440552,0.23869049549102783
4.519998073577881,0.1466248631477356,-0.011379748582839966,-0.1752130389213562,-0.4541708727996594,-1.2715005839362286,-1.3321428290298876,-0.8586762547492981,0.43871739506721497,-0.2649572491645813,-0.15442588925361633,0.2117101103067398,0.15028586983680725
4.5400049686431885,0.14051908254623413,-0.03509289026260376,-0.14933213591575623,-0.45617669942398015,-1.2711594662542958,-1.3338101174245893,-0.8577433228492737,0.4405190050601959,-0.26498985290527344,-0.0834554061293602,-0.07565455883741379,0.006966009736061096
4.559288024902344,0.13958996534347534,-0.07699328660964966,-0.0906512439250946,-0.4561763420704337,-1.2759820939631088,-1.3374151639264285,-0.8590112924575806,0.44051867723464966,-0.2608502209186554,-0.232127383351326,-0.23486746847629547,-0.09350427240133286
4.580034017562866,0.15076196193695068,-0.06074470281600952,-0.08098068833351135,-0.4558386799870756,-1.2845149327961725,-1.3440199010878906,-0.8613485097885132,0.44021549820899963,-0.25355300307273865,-0.2992216944694519,-0.3214721083641052,-0.1059081107378006
4.6000800132751465,0.13376832008361816,0.027854472398757935,-0.1009259819984436,-0.45516862255781637,-1.293916106635711,-1.350344525174977,-0.8639776706695557,0.43961378931999207,-0.2455248236656189,-0.20142972469329834,-0.33537596464157104,-0.11449165642261505
4.619997978210449,0.10782212018966675,0.05771380662918091,-0.11727941036224365,-0.4538632937457869,-1.302201902033824,-1.3543960973107738,-0.8665348887443542,0.4384409785270691,-0.23850981891155243,-0.1310865730047226,-0.3354310095310211,-0.11109564453363419
4.640033960342407,0.10406911373138428,0.048560887575149536,-0.10479050874710083,-0.45267260594431274,-1.3106501020724026,-1.3581640523048013,-0.8690227270126343,0.43737050890922546,-0.23131483793258667,-0.168682262301445,-0.33296918869018555,-0.08690180629491806
4.660007953643799,0.10615420341491699,0.05463394522666931,-0.08367407321929932,-0.45257072729827474,-1.3190835975519106,-1.3629094503057884,-0.870985746383667,0.4372788965702057,-0.22398890554904938,-0.21462132036685944,-0.29459571838378906,-0.03609278053045273
4.680005073547363,0.10447728633880615,0.064063161611557,-0.09542720019817352,-0.45287692124852896,-1.3270139880918332,-1.3666073536935541,-0.8726046681404114,0.4375542402267456,-0.21704234182834625,-0.09883765876293182,-0.34036141633987427,-0.02771468088030815
4.700041055679321,0.10412192344665527,0.07401368021965027,-0.11607752740383148,-0.45207755011509027,-1.3344687196103593,-1.3667904617368918,-0.8745381236076355,0.43683531880378723,-0.21061314642429352,0.11921893805265427,-0.40475866198539734,-0.05402322858572006
4.719997882843018,0.11607134342193604,0.06013515591621399,-0.13720408082008362,-0.4498997709463238,-1.3408972083831285,-1.3620834016761039,-0.8767983913421631,0.4348752796649933,-0.20520322024822235,0.3395891487598419,-0.44685685634613037,-0.06722504645586014
4.739995956420898,0.12395721673965454,0.039701253175735474,-0.16768285632133484,-0.4465838608206966,-1.3463134054545964,-1.3527942214422743,-0.8792979121208191,0.4318869411945343,-0.20077121257781982,0.5328943729400635,-0.4847528338432312,-0.07025758922100067
4.7600321769714355,0.11153507232666016,0.021074742078781128,-0.211183100938797,-0.44280957772518564,-1.3504604834065412,-1.3413002627979527,-0.8817073106765747,0.42847976088523865,-0.1974778175354004,0.5368212461471558,-0.41346827149391174,-0.06699734181165695
4.7799999713897705,0.09047377109527588,-0.01711219549179077,-0.26974624395370483,-0.44037270336587037,-1.3535002590588356,-1.3314251605184013,-0.8833204507827759,0.42627665400505066,-0.19502124190330505,0.3598603308200836,-0.31307747960090637,0.022075003013014793
4.800002098083496,0.07986336946487427,-0.009945392608642578,-0.3210395872592926,-0.4405466579270036,-1.3564450330752953,-1.3262049865017433,-0.8838183879852295,0.4264339804649353,-0.1924034208059311,0.09417835623025894,-0.20346248149871826,0.08682535588741302
4.820080995559692,0.0749557614326477,0.017809271812438965,-0.3511772155761719,-0.4433162694282637,-1.3593412669666491,-1.3258048417773758,-0.8832137584686279,0.42893752455711365,-0.18959426879882812,-0.11396624892950058,-0.11635555326938629,0.19245938956737518
4.840005874633789,0.07116734981536865,0.03831997513771057,-0.344606876373291,-0.4490810284391904,-1.3640023924648472,-1.3303905547831256,-0.8816530704498291,0.43413785099983215,-0.18496465682983398,-0.45449259877204895,-0.20587976276874542,0.28111958503723145
4.860007047653198,-0.010785996913909912,0.0714229941368103,-0.3210565447807312,-0.45767925878344146,-1.3758223245441135,-1.3422002003423052,-0.8800831437110901,0.4418674111366272,-0.17380128800868988,-0.6724474430084229,-0.4208950400352478,0.33576032519340515
4.880005836486816,-0.1570373773574829,0.15025895833969116,-0.3175917863845825,-0.4654745231426195,-1.390037810062074,-1.3562154956020238,-0.8790497183799744,0.44884687662124634,-0.16064921021461487,-0.7059505581855774,-0.41887858510017395,0.1940612941980362
4.900000095367432,-0.14393001794815063,0.17972427606582642,-0.1803499311208725,-0.46949059366151924,-1.4037514161661753,-1.3662348200725778,-0.8793853521347046,0.4524320662021637,-0.14827860891819,-0.06662184745073318,-0.502158522605896,0.007557285018265247
4.920011043548584,-0.03797709941864014,0.1773800551891327,-0.09055382013320923,-0.46574077343223985,-1.4067042268072119,-1.3491798428108763,-0.8814870119094849,0.4490847885608673,-0.14595744013786316,1.6462630033493042,-0.6018431782722473,-0.05530373752117157
4.940001010894775,0.00859677791595459,0.18848153948783875,-0.02955402433872223,-0.45892908029423685,-1.3993478402278774,-1.302029998401204,-0.8833832740783691,0.44298824667930603,-0.15295636653900146,2.423130512237549,-0.7202534079551697,0.05544310808181763
4.959995985031128,-0.05481874942779541,0.052391231060028076,0.06989234685897827,-0.45156958559718935,-1.389681836881731,-1.2506625376480387,-0.8850464224815369,0.4363783299922943,-0.16207072138786316,2.159360647201538,-0.5412724018096924,0.02536611631512642
4.980000019073486,-0.0882115364074707,-0.03218880295753479,0.08604808151721954,-0.44510201257589216,-1.3802431995395348,-1.209837408200015,-0.886229932308197,0.4305499494075775,-0.17094798386096954,1.5881012678146362,-0.3167615234851837,0.03254581615328789
4.999999046325684,0.0011478662490844727,-0.03465592861175537,0.08190643787384033,-0.4411951144556629,-1.373454115292949,-1.1806825827095218,-0.886691689491272,0.42702043056488037,-0.17728914320468903,1.1196658611297607,-0.29450950026512146,0.08401557803153992
5.020007133483887,0.07144933938980103,-0.003288775682449341,0.07958489656448364,-0.43897426725563526,-1.3698307136901278,-1.157134652469964,-0.886970579624176,0.42501121759414673,-0.18068967759609222,1.0767618417739868,-0.35299304127693176,0.12018485367298126
5.040004014968872,0.05197542905807495,0.035072267055511475,0.06498827040195465,-0.4365308469720465,-1.3666705850397904,-1.1319600953524227,-0.8874093294143677,0.42279818654060364,-0.18370166420936584,1.226135492324829,-0.3920269012451172,0.0836474597454071
5.059043884277344,0.0003209114074707031,0.05135291814804077,0.07801741361618042,-0.4316875566444353,-1.3622454652497997,-1.1030618061855906,-0.8885807991027832,0.41840413212776184,-0.18804852664470673,1.4452295303344727,-0.37593716382980347,-0.01919415034353733
5.08004903793335,-0.03729301691055298,0.06633508205413818,0.10677072405815125,-0.42427665384639296,-1.3560863556827611,-1.0716986237763542,-0.8904107809066772,0.41166168451309204,-0.19417309761047363,1.4519298076629639,-0.3081507086753845,-0.09889263659715652
5.099997043609619,-0.07041269540786743,0.06151309609413147,0.1484818458557129,-0.41598770386704137,-1.349604578543192,-1.0437792040859577,-0.8924321532249451,0.40409359335899353,-0.20068220794200897,1.1849653720855713,-0.1588955670595169,-0.1526545286178589
5.119997024536133,-0.07701140642166138,0.03845912218093872,0.19603772461414337,-0.40900662821776135,-1.342706189282409,-1.024382141749865,-0.8937527537345886,0.3976981043815613,-0.20746654272079468,0.6814869046211243,0.06366357207298279,-0.11945977807044983
5.140007019042969,-0.049783527851104736,0.034771353006362915,0.2229018211364746,-0.4057938751375976,-1.3364838432902346,-1.016286393800024,-0.8936827182769775,0.3947483003139496,-0.21331928670406342,0.12231758236885071,0.23191028833389282,-0.018787892535328865
5.160006999969482,-0.01824575662612915,0.051660388708114624,0.229417085647583,-0.4069593784293507,-1.330911228958213,-1.0177995194809755,-0.8920326232910156,0.3958188593387604,-0.2181866466999054,-0.25270235538482666,0.3670804500579834,0.1006939634680748
5.179996013641357,0.014028608798980713,0.05197906494140625,0.22557872533798218,-0.41185151832739686,-1.3254431722102042,-1.0242909659586794,-0.8889371156692505,0.40030670166015625,-0.22258801758289337,-0.43402886390686035,0.41924554109573364,0.23203563690185547
5.1999969482421875,0.04516679048538208,0.04822149872779846,0.2317534238100052,-0.4195950116314113,-1.3211788793921853,-1.033841438762134,-0.8849495053291321,0.40739062428474426,-0.2256041318178177,-0.5898788571357727,0.3799791932106018,0.2975175380706787
5.219996929168701,0.06551176309585571,0.030908674001693726,0.23445673286914825,-0.42846156111647243,-1.3191490339212728,-1.0448429695960997,-0.8809567093849182,0.4154719114303589,-0.22649163007736206,-0.5825957655906677,0.27463653683662415,0.3109031319618225
5.239995956420898,0.08596158027648926,0.031085580587387085,0.2377641350030899,-0.4368890395634072,-1.318776603488778,-1.054386924750565,-0.877450168132782,0.423122763633728,-0.22593854367733002,-0.45220762491226196,0.15429332852363586,0.27874910831451416
5.259995937347412,0.10214042663574219,0.03056284785270691,0.22693276405334473,-0.44340385351647715,-1.3196222036257066,-1.0601935721274804,-0.8749523162841797,0.4290166199207306,-0.22450661659240723,-0.20689287781715393,0.0021167618688195944,0.2193356603384018
5.280009031295776,0.1233600378036499,0.018609553575515747,0.21014535427093506,-0.4475359018222348,-1.3215819455253475,-1.060840529292259,-0.8736652135848999,0.43274542689323425,-0.22235238552093506,0.04764564707875252,-0.1798640489578247,0.16773562133312225
5.300039052963257,0.1338825821876526,0.014475464820861816,0.184167742729187,-0.44932964277698484,-1.3250397395213507,-1.055926890247352,-0.8736744523048401,0.4343618154525757,-0.219140887260437,0.33122214674949646,-0.37944087386131287,0.1258363425731659
5.3199989795684814,0.12257182598114014,0.013531118631362915,0.1719380021095276,-0.44959881130664686,-1.329903605954669,-1.046658107806251,-0.8746165037155151,0.4346042573451996,-0.21486099064350128,0.43886545300483704,-0.49613261222839355,0.0984012559056282
5.33999490737915,0.09396874904632568,-0.021639466285705566,0.17327547073364258,-0.4492081462027104,-1.335481564326183,-1.0371324522066645,-0.8759664297103882,0.43425238132476807,-0.21001867949962616,0.40037980675697327,-0.47145089507102966,0.06658060103654861
5.36000394821167,0.07968610525131226,-0.03581085801124573,0.15475255250930786,-0.4485431514589477,-1.3408125310672971,-1.0286434375960762,-0.8773545622825623,0.4336532652378082,-0.20541176199913025,0.3613899052143097,-0.44638893008232117,0.05279785394668579
5.380007028579712,0.0816909670829773,-0.028361082077026367,0.12250453233718872,-0.4479974679471685,-1.3467017178318017,-1.0210408833391238,-0.8787795901298523,0.43316149711608887,-0.20029385387897491,0.3174233138561249,-0.47803786396980286,0.044031109660863876
5.400006055831909,0.05263024568557739,-0.02731245756149292,0.09577985107898712,-0.44751124656354296,-1.35382203054961,-1.015075520744132,-0.8803889751434326,0.43272319436073303,-0.19407695531845093,0.2108844667673111,-0.49243801832199097,0.024055998772382736
5.419999122619629,-0.0013564229011535645,-0.03207483887672424,0.08799614012241364,-0.44725915070105304,-1.3619883196000337,-1.0122882176659038,-0.8820511102676392,0.43249592185020447,-0.18690364062786102,0.024980749934911728,-0.43590736389160156,0.0017229178920388222
5.440049171447754,-0.04856526851654053,-0.044500768184661865,0.08729445934295654,-0.4476882150857417,-1.3708299515037472,-1.014520264394565,-0.883487343788147,0.43288272619247437,-0.17906083166599274,-0.24580836296081543,-0.3565736413002014,0.001633616047911346
5.460021018981934,-0.08991146087646484,-0.04869040846824646,0.05382657051086426,-0.4487476110760395,-1.3803313679352687,-1.0216555724200096,-0.8846979737281799,0.4338374733924866,-0.17057156562805176,-0.3754500150680542,-0.2835701107978821,-0.02353425696492195
5.479997158050537,-0.10474413633346558,-0.01764550805091858,-0.010203227400779724,-0.4490938083028316,-1.3898345479609573,-1.0296712278679483,-0.8861311078071594,0.4341493844985962,-0.1621294915676117,-0.2952542006969452,-0.38054159283638,-0.07767727226018906
5.500025987625122,-0.18015795946121216,0.024053841829299927,-0.057141050696372986,-0.4476577640004169,-1.4031624968317167,-1.0339287102702301,-0.8888269066810608,0.4328552782535553,-0.15040899813175201,-0.07703753560781479,-0.7301629781723022,-0.16488780081272125
5.519999980926514,-0.5464040040969849,0.10241365432739258,-0.09108585119247437,-0.44057096798943174,-1.4165257669061109,-1.0359043473681813,-0.8937662839889526,0.4264559745788574,-0.13898617029190063,-0.017541278153657913,-0.4344373047351837,-0.6195746064186096
5.539994955062866,-0.7072688937187195,0.09606972336769104,-0.07821236550807953,-0.4249349675524269,-1.4219534023989773,-1.0417526399204202,-0.900992214679718,0.4122615456581116,-0.13510550558567047,-0.3478821814060211,0.1395881474018097,-0.9159398674964905
5.559959888458252,-0.21185392141342163,0.014000535011291504,-0.10560797154903412,-0.4114345968674463,-1.4211904258549124,-1.058014850551392,-0.9063101410865784,0.3999246060848236,-0.13661006093025208,-0.9574236273765564,0.5464025139808655,-0.5604249238967896
5.579998016357422,0.23689323663711548,-0.029169052839279175,-0.1542263627052307,-0.4097564566817468,-1.4218263087785636,-1.0846880617461991,-0.9070592522621155,0.3983859717845917,-0.13613314926624298,-1.3300813436508179,0.3628675937652588,0.031309738755226135
5.599997043609619,0.39431536197662354,-0.01915687322616577,-0.26340311765670776,-0.41842093582664674,-1.4302490583879761,-1.1083040152707937,-0.9047218561172485,0.40631812810897827,-0.12800011038780212,-0.823546826839447,-0.19421200454235077,0.4983232617378235
5.619998931884766,0.1832306981086731,0.09616181254386902,-0.3448616862297058,-0.43162717107866977,-1.4367185933296314,-1.1135716606736028,-0.9001343846321106,0.4183492958545685,-0.12141641229391098,0.16164104640483856,-0.1546558141708374,0.6582661271095276
5.6399970054626465,-0.16105401515960693,0.08928617835044861,-0.3032172918319702,-0.4403401990951212,-1.4309047378879425,-1.1004736816650447,-0.8957697153091431,0.426247239112854,-0.12613452970981598,0.8257922530174255,0.2271885871887207,0.3378778398036957
5.660006046295166,-0.2941510081291199,-0.010263234376907349,-0.20891179144382477,-0.4424172605572763,-1.4130201630532828,-1.0807928224363994,-0.8924946188926697,0.4281252324581146,-0.14199458062648773,0.7860193252563477,0.6835361123085022,0.16541357338428497
5.679998874664307,-0.21509891748428345,-0.10808864235877991,-0.10157577693462372,-0.4437359972049436,-1.3908387472651045,-1.0707213337022452,-0.8885692358016968,0.4293166399002075,-0.1616535782814026,-0.0728265568614006,1.1073291301727295,0.14646828174591064
5.6999969482421875,-0.11816293001174927,-0.19853079319000244,-0.007139667868614197,-0.4505933712523839,-1.3727910849017408,-1.0886288817898464,-0.882599949836731,0.43549975752830505,-0.1770796924829483,-1.6683452129364014,1.4727113246917725,0.21244104206562042
5.720002174377441,-0.023951292037963867,-0.2143992781639099,0.02946847677230835,-0.46390833191617836,-1.3626363055618715,-1.1358920210034356,-0.8750050067901611,0.4474467635154724,-0.18481822311878204,-2.5727274417877197,1.6027357578277588,0.25531652569770813
5.739996910095215,0.07455140352249146,-0.10755172371864319,-0.00963418185710907,-0.4810384154400614,-1.3562645766924837,-1.1911687207377688,-0.8661925792694092,0.4627000093460083,-0.18873010575771332,-2.52170729637146,1.5093770027160645,0.38338398933410645
5.760006904602051,0.1297597885131836,-0.05645844340324402,-0.012636929750442505,-0.49865169631723866,-1.3519623694541543,-1.2408581689701859,-0.8572834730148315,0.47824186086654663,-0.1906559020280838,-2.115619659423828,1.2772247791290283,0.3803601562976837
5.78004002571106,0.1322910189628601,-0.07325738668441772,0.0037694573402404785,-0.5135319346015949,-1.3472788435073166,-1.27938023016312,-0.8493472933769226,0.4912566840648651,-0.19306999444961548,-1.5053600072860718,1.0550628900527954,0.34014034271240234
5.79960298538208,0.11120045185089111,-0.08507847785949707,0.02791859209537506,-0.5245804834887831,-1.3419376585759284,-1.3053932552400023,-0.8429661393165588,0.5008499622344971,-0.19636034965515137,-0.9636591672897339,0.7969518303871155,0.2223413735628128
5.820021152496338,0.08913707733154297,-0.1029168963432312,0.056140363216400146,-0.5309575310856346,-1.3363144782394878,-1.321415158111642,-0.8387251496315002,0.5063592791557312,-0.20035123825073242,-0.5803095698356628,0.581074059009552,0.09201325476169586
5.8400139808654785,0.0761292576789856,-0.12532460689544678,0.08544088900089264,-0.5339064864150439,-1.332375515220716,-1.3326729424122026,-0.8364747166633606,0.5089000463485718,-0.20329980552196503,-0.4631369411945343,0.3764517605304718,-0.03419818356633186
5.860008955001831,0.05760061740875244,-0.15129917860031128,0.1027757078409195,-0.5342658170294667,-1.3321769119984572,-1.3432661598685585,-0.8362565636634827,0.5092093348503113,-0.2034226953983307,-0.43408307433128357,0.1983211487531662,-0.1455661654472351
5.880000114440918,0.0291212797164917,-0.14410418272018433,0.09851695597171783,-0.5323781016906098,-1.3350003836786775,-1.3538375335538535,-0.8377608060836792,0.507583737373352,-0.2012849599123001,-0.38964900374412537,0.055639997124671936,-0.25883570313453674
5.900043964385986,0.015262842178344727,-0.11418116092681885,0.07026654481887817,-0.5277438822528058,-1.3402338040396236,-1.3632393871397122,-0.8410837650299072,0.5035854578018188,-0.19743330776691437,-0.2969413101673126,-0.10897549241781235,-0.3728266656398773
5.92002010345459,0.0271795392036438,-0.1021885871887207,0.05668862164020538,-0.5210991721884618,-1.3477212643079834,-1.3711471277250442,-0.845782995223999,0.4978337287902832,-0.19186629354953766,-0.22752074897289276,-0.2432393878698349,-0.41526100039482117
5.940006971359253,0.044830501079559326,-0.10318213701248169,0.05352824926376343,-0.5139024481781845,-1.3571215181986944,-1.3781729904777222,-0.8510286211967468,0.4915793538093567,-0.1846623420715332,-0.21724332869052887,-0.35011008381843567,-0.42174744606018066
5.960039138793945,0.048233211040496826,-0.08385279774665833,0.030863165855407715,-0.5061610857950235,-1.3682642168104997,-1.3840823531044055,-0.8567354083061218,0.4848232567310333,-0.1759285181760788,-0.1008860394358635,-0.47206902503967285,-0.44470804929733276
5.979997158050537,0.05835580825805664,-0.049299389123916626,-0.010076045989990234,-0.49717244330692295,-1.3794342946151634,-1.385668100734733,-0.8628907203674316,0.4769422113895416,-0.16717007756233215,0.15281276404857635,-0.5803748369216919,-0.4525671899318695
5.999997138977051,0.06959575414657593,-0.03760761022567749,-0.08433783054351807,-0.4877137115053795,-1.3915173004724413,-1.3817892688201217,-0.8692478537559509,0.4686073958873749,-0.15752924978733063,0.22512677311897278,-0.8285525441169739,-0.39511194825172424
6.02004599571228,0.030649304389953613,-0.009281069040298462,-0.19795812666416168,-0.4856351201971814,-1.4020734988963934,-1.3843876744387742,-0.8718206882476807,0.46677014231681824,-0.1485079526901245,-0.7230762839317322,-0.0065608820877969265,0.1893806755542755
6.04000186920166,-0.1654253602027893,0.18703684210777283,-0.7043129205703735,-0.4944396580917713,-1.407291374905155,-1.4108661468631378,-0.8684949278831482,0.47453850507736206,-0.14328233897686005,-0.8314253091812134,1.0078046321868896,0.41805458068847656
6.059998989105225,-0.07770746946334839,0.8186753988265991,-1.238811731338501,-0.5105613214354945,-1.3872107356052317,-1.4162728775883076,-0.8578088283538818,0.4886670708656311,-0.15927475690841675,-0.047101568430662155,0.991279661655426,0.8273871541023254
6.080007076263428,-0.00805574655532837,0.46809422969818115,-0.7196932435035706,-0.5233340687383676,-1.3670234627719522,-1.4083095498113583,-0.8482369184494019,0.49977073073387146,-0.17528049647808075,0.41829827427864075,0.7483347654342651,0.5892059206962585
6.1000261306762695,-0.17870503664016724,-0.008722245693206787,-0.29208460450172424,-0.5314150884403385,-1.3464701712389027,-1.3962188228098722,-0.8404904007911682,0.5067538022994995,-0.19177161157131195,0.25193461775779724,0.5338564515113831,0.40938234329223633
6.120008945465088,-0.21799492835998535,-0.17183536291122437,-0.07023286819458008,-0.5381150615815977,-1.3408882493970822,-1.3997855121292675,-0.8360822200775146,0.5125183463096619,-0.19568203389644623,-0.5714513063430786,0.34076833724975586,0.18808628618717194
6.1390700340271,-0.20467489957809448,-0.18506276607513428,0.016910389065742493,-0.5394460172138437,-1.339916092050887,-1.403870549828278,-0.8352267742156982,0.513660728931427,-0.1963384747505188,0.32144787907600403,-0.021633664146065712,-0.1573542356491089
6.159997940063477,-0.24511504173278809,0.06788039207458496,-0.0536637008190155,-0.5280162154142659,-1.332076000632502,-1.3860752744927143,-0.839311957359314,0.5038207173347473,-0.20425565540790558,1.4215636253356934,-0.06457465142011642,-0.6069235801696777
6.1800079345703125,-0.06836318969726562,0.09267088770866394,0.030971959233283997,-0.5060972655364965,-1.3148782277418356,-1.3519457729658815,-0.8461570143699646,0.48476743698120117,-0.2214016318321228,1.8074458837509155,0.07469455897808075,-0.7006559371948242
6.199997901916504,0.16583937406539917,-0.08285203576087952,0.1929503232240677,-0.4867144954456369,-1.2990832164756327,-1.3216180454624578,-0.8514472246170044,0.46772444248199463,-0.2372160404920578,1.1949799060821533,0.03741811588406563,-0.47512635588645935
6.220067977905273,0.21894896030426025,-0.19352108240127563,0.23945170640945435,-0.47552278512722546,-1.2922989320153666,-1.3058564650197604,-0.8547979593276978,0.45780327916145325,-0.24441082775592804,0.5264773964881897,-0.08891469985246658,-0.23752780258655548
6.240000009536743,0.14582353830337524,-0.1420344114303589,0.1891520619392395,-0.4694184245610063,-1.2905988675815527,-1.2971869142912429,-0.8570510149002075,0.4523676931858063,-0.2466319501399994,0.4597056210041046,-0.15084438025951385,-0.19328773021697998
6.2599968910217285,0.059779226779937744,0.005863487720489502,0.14261358976364136,-0.45984926406321985,-1.2899193723432059,-1.285594656901059,-0.8610029816627502,0.4438130259513855,-0.24840283393859863,0.869746208190918,-0.3326032757759094,-0.4548335671424866
6.279998064041138,0.025270283222198486,0.07208666205406189,0.1346951723098755,-0.44223343303437096,-1.2894877396436903,-1.2641207676005994,-0.868272602558136,0.4279591143131256,-0.25090616941452026,1.4501627683639526,-0.5582006573677063,-0.6890023946762085
6.299996852874756,-0.010928928852081299,0.088868647813797,0.17319512367248535,-0.4178104978345721,-1.289645991124755,-1.234765486842288,-0.878093957901001,0.405760258436203,-0.25359371304512024,1.7461320161819458,-0.6648809909820557,-0.9314579963684082
6.3199989795684814,-0.04849278926849365,0.09406879544258118,0.20003530383110046,-0.3881048835906492,-1.2905863695751278,-1.203767055310038,-0.8895261287689209,0.3784349262714386,-0.25598931312561035,1.7852951288223267,-0.6408378481864929,-1.1138701438903809
6.340000152587891,-0.030679643154144287,0.11125528812408447,0.20390182733535767,-0.3569387419526738,-1.2921821002349954,-1.1755225279456243,-0.9008389115333557,0.3494075536727905,-0.25768908858299255,1.5833547115325928,-0.5523115396499634,-1.1510651111602783
6.360001087188721,0.012617766857147217,0.135358989238739,0.19613605737686157,-0.3272372616623815,-1.294167848656458,-1.1523225200994347,-0.9109331965446472,0.321428120136261,-0.25862082839012146,1.3296133279800415,-0.4225215017795563,-1.0930297374725342
6.379997968673706,0.066275954246521,0.17875593900680542,0.20390304923057556,-0.30143520551467196,-1.295376400434839,-1.1345802820701056,-0.9189218282699585,0.2968910038471222,-0.2596891522407532,0.9884229898452759,-0.25501301884651184,-0.9197837710380554
6.399999141693115,0.11061996221542358,0.17718371748924255,0.22991925477981567,-0.28226870050569064,-1.2955131893859981,-1.1234418256649639,-0.9242643713951111,0.27853527665138245,-0.26106247305870056,0.5468616485595703,-0.08197219669818878,-0.6228658556938171
6.4199981689453125,0.1141466498374939,0.16764646768569946,0.2503805458545685,-0.2715457296090685,-1.2944805812170002,-1.1194135177733358,-0.926814615726471,0.26822084188461304,-0.26281648874282837,0.13957622647285461,0.07374594360589981,-0.31327927112579346
6.439999103546143,0.09391194581985474,0.1995241641998291,0.2577492594718933,-0.2681080937362696,-1.2923493619894972,-1.1211765811522743,-0.9271333813667297,0.2649075984954834,-0.2650429904460907,-0.19986923038959503,0.16421911120414734,-0.07780521363019943
6.46005916595459,0.08928036689758301,0.2121574878692627,0.2690373659133911,-0.2701351170628226,-1.2903647497049235,-1.1271465081865248,-0.9260876774787903,0.2668616473674774,-0.2667332887649536,-0.3879358470439911,0.18737831711769104,0.11977189034223557
6.47999906539917,0.09625571966171265,0.2091476321220398,0.2677493989467621,-0.2763193718107507,-1.2890628737535934,-1.1342405798524726,-0.9241366982460022,0.2728165090084076,-0.2674747705459595,-0.4148326814174652,0.1260850429534912,0.2700537145137787
6.500030994415283,0.09666138887405396,0.22110164165496826,0.26423409581184387,-0.28437913819989674,-1.2886614303889343,-1.1394305425164084,-0.9218873381614685,0.28056156635284424,-0.26722487807273865,-0.26431506872177124,0.05435129255056381,0.36664682626724243
6.519999027252197,0.09299570322036743,0.21373116970062256,0.2612847685813904,-0.2932300760859223,-1.288915233375797,-1.1402648150327306,-0.9195337891578674,0.28904592990875244,-0.26628968119621277,-0.0726199746131897,-0.056061677634716034,0.45578110218048096
6.540000915527344,0.07979321479797363,0.18622493743896484,0.25994396209716797,-0.30253019060477204,-1.2903313881594733,-1.137449808571877,-0.9172871112823486,0.29793643951416016,-0.26423168182373047,0.06146220862865448,-0.16228541731834412,0.5172222852706909
6.560065031051636,0.05978572368621826,0.1567808985710144,0.25163742899894714,-0.3124344724402512,-1.2931002840834096,-1.1330304885591687,-0.9151324033737183,0.3073761463165283,-0.26086902618408203,0.05052516609430313,-0.2473713606595993,0.5516414642333984
6.580007076263428,0.041882455348968506,0.11825990676879883,0.2444951832294464,-0.3231891038653659,-1.2976269050691471,-1.1295622543883974,-0.9130679368972778,0.31759217381477356,-0.2558172643184662,-0.02549905702471733,-0.30743300914764404,0.579230010509491
6.599999904632568,0.02111870050430298,0.09552043676376343,0.22867336869239807,-0.33491530527077573,-1.3030909835497764,-1.126943856949562,-0.9107977747917175,0.32868918776512146,-0.24982206523418427,-0.042426999658346176,-0.3242141306400299,0.6124827861785889
6.620046138763428,-0.0026823878288269043,0.0918264389038086,0.20113933086395264,-0.3469302495877868,-1.3091736772983469,-1.1246712023777292,-0.9084199666976929,0.3400125503540039,-0.24323832988739014,-0.06985600292682648,-0.36882898211479187,0.6025282740592957
6.639995098114014,-0.031109273433685303,0.06513339281082153,0.18358618021011353,-0.3590019634495593,-1.3165332021937528,-1.1234689992803928,-0.9061465859413147,0.35133999586105347,-0.2354966104030609,-0.13487869501113892,-0.39583468437194824,0.5974856615066528
6.659998893737793,-0.0675894021987915,0.03964671492576599,0.1700146347284317,-0.3713568316339938,-1.324674429218788,-1.1243713085229294,-0.9037545323371887,0.3628801107406616,-0.2270367294549942,-0.2566685378551483,-0.3794989585876465,0.5750303864479065
6.679998874664307,-0.0934516191482544,0.01830032467842102,0.1507023721933365,-0.3837000646784001,-1.3332842188761465,-1.1281306747350106,-0.9012535214424133,0.3743540346622467,-0.2181767225265503,-0.3818853199481964,-0.34032773971557617,0.5459747910499573
6.7000298500061035,-0.07389354705810547,0.001307845115661621,0.12363757193088531,-0.39623189516954543,-1.3421795835217838,-1.13436736574162,-0.8985185027122498,0.3859449326992035,-0.209071546792984,-0.45331069827079773,-0.3276325464248657,0.54019695520401
6.720008850097656,-0.029667198657989502,-0.011995375156402588,0.08155353367328644,-0.40863389807856204,-1.3518806791498197,-1.1409860034525847,-0.8957630395889282,0.3973560631275177,-0.19929036498069763,-0.38582542538642883,-0.4111495614051819,0.5339595675468445
6.739996910095215,-0.019663870334625244,-0.0042202770709991455,0.030626505613327026,-0.41975915393407204,-1.363332408213517,-1.1442911987892221,-0.8936050534248352,0.40754052996635437,-0.18809723854064941,-0.11494270712137222,-0.604275107383728,0.48361843824386597
6.760004997253418,-0.10605299472808838,0.011679589748382568,-0.02018032968044281,-0.42779395219268684,-1.3760332054055322,-1.1407755072745636,-0.8926804661750793,0.41486456990242004,-0.1760934442281723,0.2746202051639557,-0.8000649213790894,0.3492751717567444
6.780043125152588,-0.27454304695129395,0.023427695035934448,-0.050876930356025696,-0.430715296125138,-1.3882108573307077,-1.1302353026585694,-0.8935631513595581,0.4175208806991577,-0.164989173412323,0.5973753333091736,-0.8180365562438965,0.10378434509038925
6.80004096031189,-0.41884589195251465,0.030321240425109863,-0.08963625133037567,-0.42751392378353065,-1.3958612499446692,-1.1154740404537902,-0.8961107134819031,0.41460976004600525,-0.15838010609149933,0.740318775177002,-0.5277895331382751,-0.17103365063667297
6.820090055465698,-0.30151432752609253,-0.013209134340286255,-0.1459970474243164,-0.42076356998649583,-1.3969365190143348,-1.1015137127763237,-0.8990167379379272,0.40845754742622375,-0.1578970104455948,0.5802783370018005,-0.16823074221611023,-0.21574081480503082
6.839982986450195,0.032685816287994385,-0.10800740122795105,-0.19678205251693726,-0.4158825388693744,-1.3947467127516329,-1.0986201038848669,-0.9006209969520569,0.40399739146232605,-0.16021259129047394,-0.11975737661123276,0.14208664000034332,-0.23760145902633667
6.859997987747192,0.25306469202041626,-0.2180372178554535,-0.5054864883422852,-0.4210580970839555,-1.3906376254213937,-1.0937006401644251,-0.8978859782218933,0.40872636437416077,-0.16353510320186615,0.6740717887878418,0.32467126846313477,0.9474022388458252
6.879997968673706,-0.022382140159606934,-0.01892992854118347,-1.2318180799484253,-0.4351520791111797,-1.3609834042536633,-1.0563734306614412,-0.8869195580482483,0.4215483069419861,-0.1888667494058609,1.6013015508651733,1.0020219087600708,0.8476812839508057
6.900076866149902,-0.1668858528137207,0.006736338138580322,-0.39165616035461426,-0.44626893948699986,-1.3261962688529256,-1.034614653936269,-0.8752131462097168,0.4316028952598572,-0.21845124661922455,0.14532719552516937,1.556175708770752,0.6842818856239319
6.920026063919067,-0.06363451480865479,-0.606863796710968,0.042444199323654175,-0.4579039025321146,-1.3047666934723592,-1.061876492510639,-0.8654274940490723,0.4420689344406128,-0.23581889271736145,-2.7619829177856445,1.266152262687683,-0.16679948568344116
6.940006971359253,-0.037314534187316895,-0.5419468879699707,0.08989530801773071,-0.47664617843668217,-1.3193119667985351,-1.1307624160733387,-0.8605889678001404,0.4588017761707306,-0.2211056649684906,-3.277501344680786,0.6792805790901184,0.6153213381767273
6.9600019454956055,-0.15953201055526733,0.0389975905418396,-0.02124685049057007,-0.5025163409729395,-1.3318295480446891,-1.1905532405046038,-0.8514695763587952,0.4816323220729828,-0.20743662118911743,-2.3610453605651855,0.7835131883621216,0.16386987268924713
6.980008125305176,-0.265231192111969,0.15766477584838867,-0.018272757530212402,-0.5025167875872443,-1.333891367116152,-1.227402741019927,-0.851895272731781,0.48163270950317383,-0.20568056404590607,-0.8887903094291687,0.8869804739952087,-0.605557382106781
7.000036001205444,-0.019466102123260498,-0.022154927253723145,0.14334899187088013,-0.4971214145400267,-1.321186921343685,-1.244314948329867,-0.8517192006111145,0.47689735889434814,-0.2171252816915512,-0.5915021896362305,1.1571890115737915,-0.3014601767063141
7.019999980926514,0.08839243650436401,-0.16198626160621643,0.1974751353263855,-0.49486576125437254,-1.3068126194793401,-1.2619506278355048,-0.8495466709136963,0.47491350769996643,-0.2296254187822342,-0.8936282992362976,1.079699158668518,-0.33233436942100525
7.0399980545043945,0.1526821255683899,-0.14292684197425842,0.17325693368911743,-0.4947430179846704,-1.29944450508861,-1.287456118991727,-0.8478878736495972,0.4748055040836334,-0.2358943074941635,-1.2084417343139648,0.841443657875061,-0.2564646899700165
7.059998035430908,0.19208163022994995,-0.10982173681259155,0.14796334505081177,-0.49707510674728206,-1.2995192557095032,-1.3152679422838303,-0.846836268901825,0.47685664892196655,-0.23553353548049927,-1.1710164546966553,0.4633239507675171,-0.1890091896057129
7.080028057098389,0.17123234272003174,-0.06939706206321716,0.1337013989686966,-0.4987376284115265,-1.3053349025589607,-1.33869107269184,-0.8474255204200745,0.4783173203468323,-0.23039637506008148,-0.8037939071655273,0.10861453413963318,-0.22318395972251892
7.1000120639801025,0.09128803014755249,-2.0563602447509766e-06,0.12623471021652222,-0.49549360222308214,-1.3110093608753368,-1.3504902733469164,-0.850214421749115,0.47546595335006714,-0.2259814292192459,-0.08022069185972214,-0.09264321625232697,-0.37610185146331787
7.119997024536133,0.022741079330444336,0.04395955801010132,0.1221659928560257,-0.4852178917637988,-1.313045560602646,-1.3472008984158597,-0.8553521037101746,0.4664011001586914,-0.22548328340053558,0.5832645893096924,-0.26211169362068176,-0.5409750938415527
7.139997959136963,0.0014362931251525879,0.026540517807006836,0.13768446445465088,-0.47012469377382893,-1.3141940352839792,-1.3343844742277504,-0.8623219132423401,0.45299744606018066,-0.22626176476478577,0.8170528411865234,-0.4438484013080597,-0.615204930305481
7.159997940063477,-0.009834527969360352,-0.013189584016799927,0.16836321353912354,-0.45409634097531254,-1.3186728976087492,-1.3216365018785372,-0.8702466487884521,0.4386503994464874,-0.22417990863323212,0.6635119915008545,-0.5478847026824951,-0.6449122428894043
7.18002986907959,-0.038666605949401855,-0.013488441705703735,0.16671720147132874,-0.4389985632693673,-1.325776919412341,-1.3131045068946487,-0.8781423568725586,0.42503321170806885,-0.21957361698150635,0.47023865580558777,-0.5228126645088196,-0.6316853761672974
7.200013160705566,-0.022653818130493164,0.023860633373260498,0.13420309126377106,-0.4252749370356552,-1.3334914243013232,-1.3074014610759932,-0.8853967189788818,0.4125712513923645,-0.21414388716220856,0.37862515449523926,-0.5179224610328674,-0.5608119964599609
7.219998836517334,0.03861349821090698,0.05166471004486084,0.09957048296928406,-0.4139772639018487,-1.3425969055121432,-1.302257998677687,-0.8917935490608215,0.40225380659103394,-0.20711447298526764,0.35295674204826355,-0.6037452816963196,-0.42488402128219604
7.240000009536743,0.06589353084564209,0.0629810094833374,0.07224148511886597,-0.40574825106068835,-1.352689434289724,-1.2964119636635918,-0.8970397710800171,0.3947063684463501,-0.19881315529346466,0.36265257000923157,-0.6193339228630066,-0.2698924243450165
7.26001501083374,0.05332404375076294,0.05955740809440613,0.037022367119789124,-0.39975023262316134,-1.3598346281563012,-1.2890748769118727,-0.9007360935211182,0.389188289642334,-0.19289086759090424,0.42387065291404724,-0.46886125206947327,-0.16771365702152252
7.279998064041138,0.044197916984558105,0.06869670748710632,-0.02086549997329712,-0.39510087698116264,-1.3642695370787798,-1.2794526012628382,-0.9033440351486206,0.3849012851715088,-0.18926332890987396,0.5432055592536926,-0.33545738458633423,-0.10954169183969498
7.299994945526123,0.04396939277648926,0.04343205690383911,-0.07439969480037689,-0.3911320750489187,-1.3665767772831197,-1.268146665589922,-0.9052668809890747,0.3812352418899536,-0.1874869018793106,0.4933442771434784,-0.30947691202163696,-0.05536580830812454
7.3199989795684814,0.012937307357788086,0.0014758706092834473,-0.1145995557308197,-0.3905815319902653,-1.3686882690596296,-1.2628630398999787,-0.905866265296936,0.3807262182235718,-0.1856171190738678,-0.07819273322820663,-0.09433156996965408,0.1220177635550499
7.340029001235962,-0.05149638652801514,-0.03937506675720215,-0.1746184229850769,-0.3964336573804747,-1.3713702724466623,-1.2740807493150546,-0.9041615724563599,0.38613104820251465,-0.1827424317598343,-1.0872026681900024,0.2501240670681,0.22864912450313568
7.360044002532959,-0.07931894063949585,0.010981559753417969,-0.2538667321205139,-0.4080217981897072,-1.3762135905941675,-1.3064132708003238,-0.9005851745605469,0.39679428935050964,-0.17748399078845978,-1.9799590110778809,0.5357280373573303,0.2855253517627716
7.380007028579712,-0.06412965059280396,0.13279280066490173,-0.3538737893104553,-0.42109153892475903,-1.3814656030901056,-1.3468850749290846,-0.8963348269462585,0.40875688195228577,-0.17176096141338348,-1.741123080253601,0.5017684102058411,0.3225678503513336
7.399996042251587,-0.012682080268859863,0.24541634321212769,-0.38852185010910034,-0.4337358229238185,-1.3871820632805836,-1.3755331066238519,-0.8921488523483276,0.4202636182308197,-0.16567735373973846,-1.0502554178237915,0.1047210767865181,0.4106157422065735
7.420053005218506,-0.034801363945007324,0.19914233684539795,-0.34254729747772217,-0.44392716887337824,-1.3938149802135946,-1.3900601585899672,-0.8889657258987427,0.42948928475379944,-0.15899385511875153,-0.46314728260040283,-0.09862023591995239,0.3546009659767151
7.439999103546143,-0.11159825325012207,0.1627911627292633,-0.31223607063293457,-0.45117665726961065,-1.3986413200515175,-1.3916673658175607,-0.8866317272186279,0.4360247552394867,-0.154164120554924,0.3253591060638428,-0.3727891147136688,0.31892892718315125
7.459999084472656,-0.17070871591567993,0.1977423131465912,-0.30521243810653687,-0.45359320544535503,-1.3995689551201245,-1.36866394936815,-0.8857335448265076,0.4381982088088989,-0.15316160023212433,1.6136993169784546,-0.6409904360771179,0.2350417673587799
7.480040073394775,-0.21804076433181763,0.1778724193572998,-0.13624601066112518,-0.44773132880291094,-1.3909581942895943,-1.324437382834183,-0.8868938684463501,0.4329215884208679,-0.16123934090137482,2.333292007446289,-0.3563680052757263,-0.1173732578754425
7.500021934509277,-0.1726399064064026,0.050110042095184326,0.02504195272922516,-0.4345194302787271,-1.3719792478979604,-1.2735024760593578,-0.8892039656639099,0.4209745526313782,-0.17915575206279755,2.390974283218384,0.09396252781152725,-0.2616862952709198
7.519996166229248,-0.023382604122161865,-0.013486683368682861,0.0800035297870636,-0.42270680520810816,-1.3483946747839561,-1.2275640074998106,-0.8895203471183777,0.41023051738739014,-0.20115838944911957,1.6534944772720337,0.20329061150550842,0.003323539160192013
7.540035963058472,0.1250973343849182,-0.14757418632507324,0.15949124097824097,-0.4209432485293179,-1.3354709878272994,-1.20738482888611,-0.8875485062599182,0.40862154960632324,-0.21280547976493835,0.2425069808959961,0.30604586005210876,0.25430119037628174
7.560051918029785,0.21034252643585205,-0.18820473551750183,0.16486741602420807,-0.4301534338184847,-1.329001761359133,-1.2101347614085347,-0.8824616074562073,0.41701027750968933,-0.21763230860233307,-0.5716172456741333,0.45366209745407104,0.5758518576622009
7.58003306388855,0.2474682331085205,-0.09015476703643799,0.11709757149219513,-0.4465371358254698,-1.3235881840238517,-1.2197163167584313,-0.8745281100273132,0.4318448007106781,-0.2207047939300537,-0.5690303444862366,0.4542858898639679,0.7905059456825256
7.600286960601807,0.2531546354293823,-0.02706766128540039,0.09477207064628601,-0.4649159153269403,-1.3179751627325487,-1.223832227460529,-0.8654441833496094,0.44834765791893005,-0.2235868126153946,-0.2288537472486496,0.26177993416786194,0.8900986313819885
7.6200971603393555,0.18259966373443604,-0.03906881809234619,0.11321760714054108,-0.48248317254643397,-1.3136457584092256,-1.2199124443827212,-0.8567177057266235,0.4639803171157837,-0.22529341280460358,0.11502263695001602,-0.005792648531496525,0.8771415948867798
7.640053033828735,0.01970505714416504,-0.06108427047729492,0.13473865389823914,-0.4961543201190763,-1.310782954331626,-1.2091294419752874,-0.8498595952987671,0.4760470986366272,-0.226093128323555,0.46033886075019836,-0.20029067993164062,0.6508473753929138
7.660153865814209,-0.18736451864242554,-0.038054972887039185,0.13328364491462708,-0.5011886712428387,-1.3077533857273025,-1.1919836071541388,-0.846845805644989,0.48046836256980896,-0.22804073989391327,0.8679559826850891,-0.28821688890457153,0.20557169616222382
7.680132865905762,-0.3316463828086853,-0.00028055906295776367,0.13359516859054565,-0.4950123700256974,-1.3025754472625601,-1.1697728371007003,-0.8484988808631897,0.47504252195358276,-0.23320455849170685,1.1353354454040527,-0.26171374320983887,-0.2756667733192444
7.700098037719727,-0.31599903106689453,-0.0034400522708892822,0.1734946370124817,-0.4802974197438212,-1.29728803636466,-1.1471463703260223,-0.8538923263549805,0.4620429575443268,-0.23954996466636658,1.1690162420272827,-0.2778944969177246,-0.5679558515548706
7.72006893157959,-0.25465279817581177,-0.007896244525909424,0.19223500788211823,-0.4625031354100953,-1.2936183532890435,-1.126608194624269,-0.860779881477356,0.44618964195251465,-0.24489310383796692,1.0445672273635864,-0.2679615914821625,-0.6296212077140808
7.740026950836182,-0.23690104484558105,0.00585976243019104,0.2017347812652588,-0.4456337986815874,-1.2906654988235213,-1.1116407489580977,-0.867163896560669,0.4310298562049866,-0.24947957694530487,0.6823403239250183,-0.07239333540201187,-0.6139922738075256
7.768728017807007,-0.03036254644393921,-0.0461043119430542,0.2194730043411255,-0.4290508452588009,-1.2851570503514085,-1.1104254880368996,-0.8725153207778931,0.4160078763961792,-0.2562314569950104,-0.37885960936546326,0.2545401155948639,-0.05710573494434357
7.78010892868042,-0.03036254644393921,-0.0461043119430542,0.2194730043411255,-0.4290508452588009,-1.2851570503514085,-1.1104254880368996,-0.8725153207778931,0.4160078763961792,-0.2562314569950104,-0.37885960936546326,0.2545401155948639,-0.05710573494434357
7.806763172149658,0.10739344358444214,-0.03795847296714783,0.16479361057281494,-0.44691384627444225,-1.2823091050113136,-1.1306461177725773,-0.8645192980766296,0.4321845471858978,-0.25655996799468994,-0.5407726764678955,0.22658590972423553,0.6129801273345947
7.828832149505615,0.11636054515838623,-0.02310359477996826,0.14047658443450928,-0.46236046835514255,-1.2817606741116083,-1.1351734320162845,-0.8578766584396362,0.44606196880340576,-0.25510066747665405,-0.2510739862918854,0.03473285213112831,0.7349450588226318
7.849992036819458,0.06454110145568848,-0.0438636839389801,0.13147300481796265,-0.4769659276970984,-1.280749649416615,-1.1315451499688436,-0.8512842655181885,0.4590858519077301,-0.25407737493515015,0.13674205541610718,-0.07182776927947998,0.7413281202316284
7.868362903594971,-0.001699686050415039,-0.07613667845726013,0.14939382672309875,-0.48840534302263383,-1.2777011697332812,-1.1213151862874349,-0.8454223871231079,0.46921828389167786,-0.25513723492622375,0.3739244043827057,-0.09407155215740204,0.5968825817108154
7.888372898101807,-0.03245699405670166,-0.12239658832550049,0.17236480116844177,-0.49546311968138096,-1.2742653308184269,-1.1093705605698,-0.8413527011871338,0.4754391312599182,-0.25706636905670166,0.39222878217697144,-0.12887810170650482,0.3818923830986023
7.907113075256348,-0.025441884994506836,-0.15643250942230225,0.1876823902130127,-0.49845890369093615,-1.2731533626520548,-1.100963220754356,-0.8397009372711182,0.47807252407073975,-0.2575829327106476,0.21711492538452148,-0.15609142184257507,0.12106051295995712
7.928120136260986,-0.00030040740966796875,-0.17126113176345825,0.1848379671573639,-0.4975871151983239,-1.2756846664369788,-1.0987185642087907,-0.8407487273216248,0.47730663418769836,-0.2555776834487915,0.008241383358836174,-0.20033763349056244,-0.1544034332036972
7.947206020355225,0.03475862741470337,-0.16718259453773499,0.1723671853542328,-0.49270907904601247,-1.281534623495704,-1.1019013024414401,-0.8444510102272034,0.4730144739151001,-0.2513161599636078,-0.14258481562137604,-0.2394246757030487,-0.39464467763900757
7.968394041061401,0.07188773155212402,-0.15326344966888428,0.15733712911605835,-0.4840661420496555,-1.2902795843120405,-1.1095445938636617,-0.850513219833374,0.46538200974464417,-0.24504466354846954,-0.24177563190460205,-0.2831215262413025,-0.6209349036216736
7.987735986709595,0.10230088233947754,-0.12493497133255005,0.14246606826782227,-0.47180440507363525,-1.300869244309503,-1.1196075922437432,-0.8584959506988525,0.45449429750442505,-0.23752833902835846,-0.28119760751724243,-0.31049981713294983,-0.7947946190834045
8.007703065872192,0.11673754453659058,-0.09623008966445923,0.12804588675498962,-0.45646034894236465,-1.3122118698581466,-1.1305947205708502,-0.8677752614021301,0.440773606300354,-0.22953210771083832,-0.2674688696861267,-0.32063305377960205,-0.9326351284980774
8.027263164520264,0.11665481328964233,-0.0699019730091095,0.10016633570194244,-0.4389668170779959,-1.3237206489504991,-1.1416919803371257,-0.8777021169662476,0.4250044524669647,-0.22138215601444244,-0.2699891924858093,-0.36123472452163696,-1.0169681310653687
8.047926902770996,0.09363919496536255,-0.011214196681976318,0.06361210346221924,-0.4190133346744463,-1.33692324944635,-1.1526890300303698,-0.8886221051216125,0.4068593382835388,-0.21169866621494293,-0.21850821375846863,-0.5044923424720764,-1.1727900505065918
8.066493034362793,0.037608206272125244,0.05191203951835632,0.04887032508850098,-0.39581191105249564,-1.3521749048437643,-1.163066278690979,-0.9007216095924377,0.3855574429035187,-0.20011544227600098,-0.2156539261341095,-0.5836187601089478,-1.295756459236145
