timestamp,acceleration_x,acceleration_y,acceleration_z,attitude_pitch,attitude_roll,attitude_yaw,gravity_x,gravity_y,gravity_z,rotation_x,rotation_y,rotation_z
0.0,0.10783034563064575,0.18853077292442322,-0.035805702209472656,-0.2549415409545693,-1.4163390206688717,1.8142194529834224,-0.9561579823493958,0.2521888315677643,-0.14887134730815887,-0.5356181263923645,-0.003113863989710808,-0.25889265537261963
0.020035982131958008,0.09594470262527466,0.1672118753194809,0.001642957329750061,-0.25120866619671856,-1.419497928422663,1.804556164304362,-0.9575474262237549,0.2485748678445816,-0.14599107205867767,-0.3500449061393738,-0.05750120431184769,-0.25127148628234863
0.03999590873718262,0.08419334888458252,0.15737128257751465,0.017033830285072327,-0.24738109793071514,-1.4223099320354071,1.7985968413304818,-0.9588881134986877,0.24486562609672546,-0.14343756437301636,-0.15389811992645264,-0.09385788440704346,-0.21216244995594025
0.05995488166809082,0.06659042835235596,0.16257236897945404,0.010653853416442871,-0.24403261816385374,-1.4248377467830484,1.7968202750583906,-0.960053563117981,0.24161772429943085,-0.1411316990852356,0.0016094602178782225,-0.11264292895793915,-0.13076992332935333
0.08030009269714355,0.04875063896179199,0.16529212892055511,0.013950571417808533,-0.24215800497061818,-1.4270812844288239,1.797496979885221,-0.960814356803894,0.23979821801185608,-0.13904204964637756,0.0685366839170456,-0.1074814572930336,-0.03599555790424347
0.10047793388366699,0.044164180755615234,0.1274823248386383,0.014889553189277649,-0.24250228085280184,-1.4291566038192811,1.7983452547110466,-0.961018979549408,0.2401324361562729,-0.13703608512878418,0.009174102917313576,-0.12291492521762848,0.06912902742624283
0.12001204490661621,0.027124226093292236,0.10666370391845703,-0.009605690836906433,-0.24389152021367314,-1.4313993689260844,1.800032645843089,-0.9609925746917725,0.24148079752922058,-0.1348339170217514,0.17029723525047302,-0.12280599772930145,0.08994340151548386
0.14023089408874512,0.018539607524871826,0.09263430535793304,-0.004763484001159668,-0.24548680825021713,-1.4320210458748688,1.8057023441632198,-0.9606935381889343,0.24302856624126434,-0.13418301939964294,0.3583929240703583,-0.08922770619392395,0.13577909767627716
0.16002106666564941,0.006235837936401367,0.06272941827774048,-0.034232184290885925,-0.24668006088476055,-1.431967430239373,1.8148463670704749,-0.9603983759880066,0.24418586492538452,-0.1341942846775055,0.5010257363319397,-0.1351248025894165,0.09743830561637878
0.18002104759216309,-0.0027642250061035156,0.030660048127174377,-0.028197824954986572,-0.24713163534054083,-1.4313244161225018,1.8263092330294486,-0.960202693939209,0.24462375044822693,-0.13479648530483246,0.5824103951454163,-0.0894152820110321,0.10543137043714523
0.20323896408081055,-0.014641523361206055,-0.019380778074264526,-0.01088571548461914,-0.24731226687997193,-1.4291314402918647,1.8390770903491986,-0.9598610401153564,0.24479888379573822,-0.13689562678337097,0.6272467374801636,-0.010680703446269035,0.08252964168787003
0.2226090431213379,-0.03725731372833252,-0.04500007629394531,-0.03759545087814331,-0.24665109962050796,-1.425648865398087,1.8520572349594475,-0.9595383405685425,0.2441577911376953,-0.14026093482971191,0.6160412430763245,0.04725627601146698,0.03644661232829094
0.24003195762634277,-0.03396964073181152,-0.08106206357479095,-0.0493365079164505,-0.24577570452519318,-1.4220625015832675,1.86334737164724,-0.9592403173446655,0.24330879747867584,-0.1437329202890396,0.4611670672893524,0.02954501286149025,0.0370946004986763
0.259929895401001,-0.016050338745117188,-0.10391382873058319,-0.03729473054409027,-0.24542353098991374,-1.4198299601562594,1.8712449396313777,-0.9590014815330505,0.24296718835830688,-0.14588695764541626,0.3157443106174469,0.0042527057230472565,0.04533104598522186
0.2799561023712158,-0.021306633949279785,-0.0949966311454773,-0.02405250072479248,-0.24604653128298254,-1.4177873585944305,1.8766740082363378,-0.958551824092865,0.243571475148201,-0.14782242476940155,0.18651621043682098,0.07719233632087708,0.09672471135854721
0.2999889850616455,-0.03433018922805786,-0.08867420256137848,-0.01634162664413452,-0.24778781301453487,-1.4146238699300178,1.8790923427386865,-0.9576589465141296,0.24525994062423706,-0.1507878452539444,0.001094324979931116,0.20847880840301514,0.1262623816728592
0.3199918270111084,-0.02921682596206665,-0.07840763032436371,-7.867813110351562e-06,-0.2510341227188942,-1.4102272047650588,1.8775994949410075,-0.9561958312988281,0.2484057992696762,-0.15486878156661987,-0.18908317387104034,0.2547556757926941,0.17204537987709045
0.33998990058898926,-0.012335002422332764,-0.040342122316360474,0.0017173290252685547,-0.2555157895672357,-1.4063304425448717,1.872535519518104,-0.9544771909713745,0.25274449586868286,-0.15840978920459747,-0.36562207341194153,0.24935132265090942,0.19979436695575714
0.3600449562072754,0.0012313127517700195,-0.017839819192886353,0.01286393404006958,-0.26068088997482924,-1.4039664015976374,1.8645081634978127,-0.9527999758720398,0.25773850083351135,-0.16044685244560242,-0.44477570056915283,0.20853731036186218,0.17563621699810028
0.3800060749053955,0.0008546113967895508,-0.010805904865264893,0.016480401158332825,-0.2654378315821683,-1.4020022227641444,1.856866409488946,-0.9512635469436646,0.2623317837715149,-0.16211019456386566,-0.3518372178077698,0.20468300580978394,0.17540676891803741
0.3999369144439697,-0.0015527009963989258,0.00783643126487732,0.029610157012939453,-0.26979293936035853,-1.3993493551440732,1.8509122875725985,-0.9496954679489136,0.26653188467025757,-0.16443674266338348,-0.2914944887161255,0.20370642840862274,0.14764897525310516
0.41998982429504395,-0.01022404432296753,0.021066218614578247,0.03345783054828644,-0.2730235525729598,-1.3965529660898557,1.846241735624328,-0.94837886095047,0.26964423060417175,-0.16694164276123047,-0.22035285830497742,0.21440957486629486,0.10430148243904114
0.4399900436401367,-0.013181447982788086,0.0021178126335144043,0.04509788751602173,-0.27557250599843547,-1.3936268937238208,1.8415789798122055,-0.9472067356109619,0.2720978856086731,-0.16959427297115326,-0.2785421311855316,0.1896974891424179,0.06792755424976349
0.46005892753601074,-0.022134721279144287,-0.024034976959228516,0.05131810903549194,-0.27761787832718693,-1.3919486747576597,1.8353286754611917,-0.9463711977005005,0.2740655243396759,-0.17108429968357086,-0.35099804401397705,0.16974127292633057,0.03929188847541809
0.4800839424133301,-0.031203150749206543,-0.026894062757492065,0.06548410654067993,-0.2797346538073528,-1.3899288765415587,1.8278560220969442,-0.9454509019851685,0.27610063552856445,-0.17289067804813385,-0.3942824900150299,0.23961392045021057,0.04008518531918526
0.49998998641967773,-0.03455328941345215,-0.03664505481719971,0.06786875426769257,-0.2820857739679978,-1.386730809353199,1.8192372028579118,-0.9442523717880249,0.278359591960907,-0.1757941097021103,-0.4721742868423462,0.322907030582428,0.05494246631860733
0.5199911594390869,-0.017412900924682617,-0.07284113764762878,0.060224294662475586,-0.28547356246012384,-1.3830675041209468,1.8083723285854036,-0.9426701068878174,0.2816118896007538,-0.1790749728679657,-0.6096165776252747,0.35164403915405273,0.08088995516300201
0.5400500297546387,-0.00874936580657959,-0.09459590911865234,0.055429354310035706,-0.2896062501435803,-1.3793695855033241,1.795564785874684,-0.9408508539199829,0.28557488322257996,-0.18233665823936462,-0.6750794053077698,0.3801444172859192,0.08789762854576111
0.5599920749664307,-0.017604827880859375,-0.09793850779533386,0.038447678089141846,-0.29390893116951794,-1.375657292532504,1.7815000610594662,-0.9389533996582031,0.28969573974609375,-0.18558815121650696,-0.7375314831733704,0.39224526286125183,0.07023127377033234
0.5795619487762451,-0.013657808303833008,-0.11156558990478516,0.02093847095966339,-0.2977861769933832,-1.3723390540313565,1.76591389353406,-0.9372240900993347,0.29340454936027527,-0.18847990036010742,-0.8159608840942383,0.3930542469024658,0.020957794040441513
0.6000440120697021,0.02787041664123535,-0.10456386208534241,0.015682175755500793,-0.3013337059715564,-1.3699906701061821,1.748610950794371,-0.9357530474662781,0.2967940866947174,-0.19047152996063232,-0.8543820977210999,0.3405733108520508,0.013563293032348156
0.6199910640716553,0.059001147747039795,-0.0886126458644867,-0.021933406591415405,-0.3057888857833402,-1.3690069867344972,1.73319966104533,-0.9342606663703918,0.30104556679725647,-0.1911250501871109,-0.6099527478218079,0.2654789984226227,0.1588960438966751
0.639991044998169,0.03797191381454468,-0.054635584354400635,-0.05019897222518921,-0.31133458181832036,-1.3674899299493881,1.7230185739458568,-0.9323200583457947,0.3063293397426605,-0.19220209121704102,-0.44277697801589966,0.2162531167268753,0.2289494425058365
0.6599900722503662,-0.02362370491027832,-0.038957834243774414,-0.050683796405792236,-0.316685687653921,-1.3660125685312914,1.7158238572392648,-0.9304168224334717,0.3114187717437744,-0.193243145942688,-0.21726347506046295,0.21481865644454956,0.24175779521465302
0.6799948215484619,-0.0944972038269043,-0.016092538833618164,-0.13499361276626587,-0.32244769832809306,-1.3611169114306907,1.716661109424929,-0.9276891350746155,0.31688904762268066,-0.19741903245449066,0.1611168384552002,0.21626119315624237,0.2859466075897217
0.7001011371612549,-0.0859532356262207,-0.05336853861808777,-0.17009055614471436,-0.3256496201225802,-1.3553371785796537,1.7228526244249853,-0.9255366921424866,0.31992432475090027,-0.20255953073501587,0.28086432814598083,0.1863056868314743,0.16002152860164642
0.71999192237854,-0.010694622993469238,-0.12934130430221558,-0.14249566197395325,-0.32782387779335714,-1.3517351782680336,1.7257632577826296,-0.9241199493408203,0.32198354601860046,-0.20574036240577698,-0.05132487416267395,0.06850261986255646,0.1620180904865265
0.7399899959564209,0.0828825831413269,-0.17727670073509216,-0.14646285772323608,-0.33302615778812417,-1.3513374473664053,1.7238217576696144,-0.9223906397819519,0.32690441608428955,-0.20574043691158295,-0.24166899919509888,0.013389035128057003,0.29486244916915894
0.7599899768829346,0.13244426250457764,-0.15397781133651733,-0.15748582780361176,-0.33975203299280116,-1.3538857711651213,1.7192499652924456,-0.9207438230514526,0.33325332403182983,-0.20291142165660858,-0.25810420513153076,-0.10324685275554657,0.24444378912448883
0.7800860404968262,0.12047219276428223,-0.10507696866989136,-0.18492135405540466,-0.3441775971422259,-1.357636804875044,1.7171169010335414,-0.9200481176376343,0.33742260932922363,-0.19914233684539795,-0.028773214668035507,-0.2053781896829605,0.14697328209877014
0.7999770641326904,0.08884268999099731,-0.07302290201187134,-0.1886855959892273,-0.345722763639708,-1.3622550765539303,1.7185493453302505,-0.9204467535018921,0.33887675404548645,-0.19478300213813782,0.09896333515644073,-0.3027334213256836,0.046549778431653976
0.820120096206665,0.06166356801986694,-0.06651630997657776,-0.15266740322113037,-0.3457484742003241,-1.3682424594682994,1.7209890000967007,-0.9215878844261169,0.33890095353126526,-0.18926671147346497,0.12872272729873657,-0.3692135810852051,0.019771719351410866
0.839993953704834,0.033693671226501465,-0.015398234128952026,-0.1528082638978958,-0.3454229378529414,-1.3750366711846274,1.7247887964123696,-0.9229607582092285,0.3385946750640869,-0.1830223947763443,0.24911266565322876,-0.42885681986808777,0.016030633822083473
0.8599898815155029,0.02253645658493042,0.026313334703445435,-0.17314599454402924,-0.3451373473040516,-1.3816130934364228,1.7317620813537737,-0.9242393374443054,0.3383259177207947,-0.1769668608903885,0.37294769287109375,-0.4798666536808014,0.0949675515294075
0.8799879550933838,0.017154574394226074,0.020786941051483154,-0.1747104525566101,-0.34642155736536967,-1.3885815114645135,1.7404822941291973,-0.9250220656394958,0.33953413367271423,-0.17044328153133392,0.41524994373321533,-0.49682193994522095,0.18329279124736786
0.9000098705291748,-0.02841496467590332,0.010507434606552124,-0.17828810214996338,-0.3492891820707873,-1.3945534903163626,1.750535030780824,-0.9250609874725342,0.3422299921512604,-0.16474466025829315,0.46361875534057617,-0.44362983107566833,0.27512744069099426
0.92000412940979,-0.08765554428100586,0.013592451810836792,-0.16383975744247437,-0.3537883234669698,-1.3987372048957243,1.7609874416820928,-0.9242157936096191,0.346453994512558,-0.16060778498649597,0.42071533203125,-0.3355727791786194,0.3313978612422943
0.9400498867034912,-0.10676485300064087,-0.0063491761684417725,-0.14222072064876556,-0.35888270344861706,-1.4011721297737871,1.7706798668954224,-0.9228524565696716,0.3512283265590668,-0.15805691480636597,0.3914359509944916,-0.2610457241535187,0.3397159278392792
0.9599878787994385,-0.07008993625640869,-0.001962900161743164,-0.11344532668590546,-0.364356654909982,-1.4025927085687493,1.7808528092898617,-0.9211667776107788,0.3563482463359833,-0.15642155706882477,0.5019795894622803,-0.24972133338451385,0.35589680075645447
0.9800209999084473,-0.06116926670074463,0.015338748693466187,-0.1072176843881607,-0.3685099868119331,-1.401888219979861,1.7954611447088924,-0.9195895791053772,0.3602258563041687,-0.15682034194469452,0.8059825301170349,-0.1936645358800888,0.2877120077610016
1.0000159740447998,-0.06348055601119995,0.03022444248199463,-0.08867001533508301,-0.370726492012272,-1.3964490372527505,1.8169357309958556,-0.917934238910675,0.36229267716407776,-0.16168087720870972,1.0949748754501343,-0.059080373495817184,0.2887178957462311
1.0199978351593018,-0.03422224521636963,0.0054035484790802,-0.0744553953409195,-0.37181807788910176,-1.3880600081545817,1.841073038655275,-0.9161563515663147,0.3633098900318146,-0.1693037450313568,1.0270977020263672,0.020469581708312035,0.22187460958957672
1.039992094039917,-0.018845975399017334,-0.029330909252166748,0.003579854965209961,-0.37252826384907295,-1.3798871985152485,1.8593059923407103,-0.9144883751869202,0.36397144198417664,-0.17673654854297638,0.5996643900871277,0.13291889429092407,0.16536596417427063
1.0599901676177979,-0.07050853967666626,-0.04195588827133179,0.046604156494140625,-0.3728622792202092,-1.372770734342568,1.867608044531421,-0.9130882620811462,0.3642825186252594,-0.18321602046489716,0.14812493324279785,0.26823294162750244,0.015666190534830093
1.080016851425171,-0.1128835678100586,-0.003078967332839966,0.061562180519104004,-0.37140714408006836,-1.3671813709730636,1.8660224770354195,-0.9125680923461914,0.36292698979377747,-0.18842369318008423,-0.2419923096895218,0.32221442461013794,-0.1849132478237152
1.100100040435791,-0.10265946388244629,0.04176470637321472,0.06873543560504913,-0.3672695146617296,-1.363986607838877,1.8574117278112683,-0.9134232997894287,0.3590683937072754,-0.19164486229419708,-0.4378708600997925,0.3025466203689575,-0.36907869577407837
1.1199939250946045,-0.05397474765777588,0.08356109261512756,0.08221518993377686,-0.3609310529032903,-1.3624692426344733,1.8447962577778498,-0.9153398275375366,0.35314545035362244,-0.19349749386310577,-0.5890148878097534,0.29145580530166626,-0.47294244170188904
1.1399891376495361,0.031949639320373535,0.09656798839569092,0.09692263603210449,-0.35392029800727676,-1.3624589446352031,1.8292654395036374,-0.917737603187561,0.34657779335975647,-0.19401423633098602,-0.6767768859863281,0.25238680839538574,-0.49825114011764526
1.160017967224121,0.11490839719772339,0.11965805292129517,0.0900488793849945,-0.3472390334246675,-1.3639278865812758,1.8133164805448863,-0.9202674031257629,0.3403029143810272,-0.1931372582912445,-0.6206145882606506,0.1403677612543106,-0.4553707242012024
1.1800148487091064,0.1693650484085083,0.14392775297164917,0.0634428858757019,-0.3408278932997229,-1.3667188611789216,1.8012777215379216,-0.9229203462600708,0.3342674672603607,-0.19100628793239594,-0.3317308723926544,-0.016641657799482346,-0.40399208664894104
1.2000558376312256,0.19821220636367798,0.17449873685836792,0.04093778133392334,-0.3337696640623644,-1.369981855635817,1.797422358374748,-0.9258275628089905,0.3276069760322571,-0.18845972418785095,0.1350484937429428,-0.18202529847621918,-0.35977810621261597
1.220005989074707,0.20780879259109497,0.1985076367855072,0.037199512124061584,-0.32584357361517524,-1.3730799742592437,1.8036955945442963,-0.9289239048957825,0.3201080858707428,-0.1860947161912918,0.5912111401557922,-0.3329314589500427,-0.29975029826164246
1.2400949001312256,0.17965912818908691,0.19552090764045715,0.04646061360836029,-0.3175240263746593,-1.376059162975705,1.8175066293013835,-0.932054877281189,0.31221532821655273,-0.1838354617357254,0.8081139922142029,-0.3947432339191437,-0.2628771662712097
1.259990930557251,0.1292470097541809,0.17518767714500427,0.06685943901538849,-0.3095446050337362,-1.3793949005654889,1.8321975996759023,-0.9350788593292236,0.30462491512298584,-0.1811935007572174,0.6765357851982117,-0.37958788871765137,-0.2550555169582367
1.2801358699798584,0.0963408350944519,0.14712196588516235,0.09600710868835449,-0.3027324578616785,-1.3835027612782493,1.841776933586517,-0.9378325939178467,0.29812952876091003,-0.17773310840129852,0.3384134769439697,-0.33259156346321106,-0.2389407753944397
1.2999918460845947,0.06272101402282715,0.1474660038948059,0.1018078476190567,-0.2973250310484095,-1.3889632403265986,1.8446677016349051,-0.9403607845306396,0.2929636538028717,-0.17289844155311584,0.04612094908952713,-0.28929466009140015,-0.24069491028785706
1.3200008869171143,0.02848947048187256,0.17426270246505737,0.09428103268146515,-0.2927934410743232,-1.3946623906789568,1.8431277674140303,-0.9426282048225403,0.28862789273262024,-0.16776730120182037,-0.0848766416311264,-0.22645799815654755,-0.23173128068447113
1.340000867843628,0.008363425731658936,0.18473169207572937,0.10225903987884521,-0.2890965837645555,-1.3988541196797541,1.8397739030656781,-0.9443680644035339,0.28508642315864563,-0.16399605572223663,-0.17115473747253418,-0.09153427183628082,-0.1861804723739624
1.3600199222564697,0.023158669471740723,0.17396947741508484,0.09665091335773468,-0.2866031325404362,-1.4011862704433475,1.8349922807116077,-0.9454455971717834,0.28269556164741516,-0.1619126796722412,-0.23296810686588287,-0.02597372978925705,-0.13906314969062805
1.3799960613250732,0.042465806007385254,0.1848505735397339,0.06897115707397461,-0.28531323535627795,-1.4033484858502723,1.8302370394421024,-0.9461523294448853,0.2814580500125885,-0.15992870926856995,-0.18183660507202148,-0.0677361786365509,-0.06834941357374191
1.400040864944458,0.024298012256622314,0.2078520953655243,0.03028160333633423,-0.28478174034772286,-1.4059147882277787,1.827863027778699,-0.9467070698738098,0.2809479832649231,-0.15752460062503815,-0.029789062216877937,-0.1182456910610199,-0.0250772163271904
1.4200060367584229,-0.00014454126358032227,0.20808732509613037,0.013872161507606506,-0.2846796763274555,-1.4079889784992357,1.828488789185762,-0.9470599889755249,0.28085002303123474,-0.15556524693965912,0.08130550384521484,-0.10095369815826416,0.025897571817040443
1.4400041103363037,0.003308415412902832,0.17736387252807617,0.023311913013458252,-0.2856256765773617,-1.408529380749853,1.8311744260779197,-0.9468814134597778,0.28175783157348633,-0.15501044690608978,0.1599382609128952,-0.03349422663450241,0.11297015845775604
1.4599909782409668,0.006917119026184082,0.1501758098602295,0.009840786457061768,-0.28856580884414423,-1.407287789613275,1.8361711367469418,-0.9458667039871216,0.2845776379108429,-0.156050443649292,0.28145793080329895,0.031950291246175766,0.19683122634887695
1.4800009727478027,-0.01386040449142456,0.15056967735290527,-0.04045058786869049,-0.29189707539299936,-1.4041821381912152,1.8443363079922999,-0.9444375038146973,0.2877695560455322,-0.15882912278175354,0.46837306022644043,0.03872377425432205,0.22423668205738068
1.4999921321868896,-0.03436708450317383,0.14735454320907593,-0.0791773796081543,-0.2951761373091575,-1.4001325178324484,1.8569390543960822,-0.9428516030311584,0.2909083664417267,-0.16249129176139832,0.6469709277153015,-0.009806565940380096,0.2905028164386749
1.5199940204620361,-0.12212812900543213,0.13398858904838562,-0.05442456901073456,-0.29897332229611384,-1.396622416708289,1.8717740476885587,-0.9411804676055908,0.2945392429828644,-0.16560712456703186,0.6451347470283508,-0.049692194908857346,0.31134510040283203
1.539989948272705,-0.3424721360206604,0.129623681306839,-0.007545590400695801,-0.30247296717930255,-1.391929456748979,1.883566332726235,-0.9393729567527771,0.2978818118572235,-0.1698378026485443,0.34467917680740356,0.238790363073349,0.21241067349910736
1.5599980354309082,-0.44998788833618164,0.07461345195770264,0.06016331911087036,-0.3058498516055357,-1.381786886731094,1.8836235729316526,-0.9366088509559631,0.3011036813259125,-0.17916655540466309,-0.4707765281200409,0.7591431140899658,0.1510457843542099
1.5798819065093994,-0.19817686080932617,-0.05302131175994873,0.10490530729293823,-0.3138715404338852,-1.3697131936814029,1.8656931268434565,-0.9319806694984436,0.30874332785606384,-0.18997301161289215,-1.271013617515564,0.9192810654640198,0.32182639837265015
1.5999979972839355,0.05454838275909424,-0.06344962120056152,0.01426631212234497,-0.3269330510425015,-1.360928823491631,1.8406900025552368,-0.926252543926239,0.3211400508880615,-0.1972954273223877,-1.1727988719940186,0.7134108543395996,0.4436110258102417
1.6200568675994873,0.17825007438659668,0.02455022931098938,-0.0942806601524353,-0.33905601551813724,-1.354118578323719,1.8267176053149115,-0.9210174083709717,0.3325969874858856,-0.2027468979358673,-0.32448261976242065,0.4294409453868866,0.45871493220329285
1.6399891376495361,0.2571048140525818,0.031711190938949585,-0.11094807088375092,-0.3470229186428672,-1.345846230471907,1.8318217973818904,-0.9166964292526245,0.3400996923446655,-0.2097610980272293,0.5876652002334595,0.2559049129486084,0.42904311418533325
1.659999132156372,0.28411704301834106,-0.037114888429641724,-0.07123881578445435,-0.35177457946743423,-1.335526474767913,1.8508511368367226,-0.9129012823104858,0.3445642590522766,-0.21883068978786469,0.9522411823272705,0.12267237901687622,0.4449809193611145
1.6799900531768799,0.25017207860946655,-0.10634976625442505,-0.019867628812789917,-0.3555542917982531,-1.326265629068773,1.873410910966169,-0.9095655679702759,0.34811004996299744,-0.2269585132598877,0.9955419898033142,0.02974732406437397,0.43429508805274963
1.6999900341033936,0.13815629482269287,-0.12155836820602417,0.007450282573699951,-0.3593284784811247,-1.3188288766596972,1.8942453958282728,-0.9065736532211304,0.35164567828178406,-0.23338714241981506,0.7956911325454712,-0.01811811327934265,0.3820849061012268
1.7199971675872803,-0.04407024383544922,-0.09680759906768799,0.009457066655158997,-0.36172447867079033,-1.3135974423008565,1.909851140983584,-0.9045228362083435,0.3538876473903656,-0.23791159689426422,0.5577728748321533,0.020966794341802597,0.21369336545467377
1.7399890422821045,-0.18353402614593506,-0.060443222522735596,0.03621986508369446,-0.36234168639906533,-1.3088264933709133,1.9183028626084733,-0.9031662940979004,0.3544648289680481,-0.24216768145561218,0.17618782818317413,0.1582738757133484,0.05465537682175636
1.7599880695343018,-0.17310726642608643,-0.05904656648635864,0.07223570346832275,-0.3628878830062983,-1.3048596827318082,1.918546168359129,-0.9020118117332458,0.35497552156448364,-0.24569758772850037,-0.11205410212278366,0.2034195214509964,0.024233629927039146
1.7800469398498535,-0.08781969547271729,-0.02812710404396057,0.03987300395965576,-0.36423746066158463,-1.301755258538512,1.9171880271886195,-0.9007819890975952,0.35623687505722046,-0.248369038105011,0.01612844131886959,0.127119779586792,0.06981845945119858
1.800065040588379,-0.008424520492553711,0.04668840765953064,-0.023662805557250977,-0.36472555808900814,-1.2995664565297282,1.922240529763044,-0.9000685214996338,0.356692910194397,-0.25029346346855164,0.47219476103782654,-0.08897977322340012,0.1154230460524559
1.820080041885376,0.06981277465820312,0.05048069357872009,-0.03934258222579956,-0.3643739764867753,-1.297952240910593,1.9380797967062982,-0.8997840881347656,0.3563644289970398,-0.25177982449531555,0.9324105381965637,-0.29947566986083984,0.24667750298976898
1.8399908542633057,0.10146313905715942,0.02227461338043213,-0.020420432090759277,-0.36420267791951977,-1.2971890536597952,1.9609801769144055,-0.8996504545211792,0.35620439052581787,-0.25248295068740845,1.0958857536315918,-0.43761035799980164,0.3091086745262146
1.860002040863037,0.10431826114654541,-0.03020542860031128,0.006829380989074707,-0.3648614343742444,-1.297850563771385,1.9854421134294382,-0.8995910882949829,0.35681986808776855,-0.25182443857192993,1.0525538921356201,-0.49512025713920593,0.37149107456207275
1.8799898624420166,0.09033828973770142,-0.058596134185791016,0.04067635536193848,-0.36688128451904284,-1.300006435678687,2.0069805202404036,-0.8994356393814087,0.3587060272693634,-0.2496911585330963,0.8249653577804565,-0.4864256680011749,0.3440159857273102
1.9000189304351807,0.08413082361221313,-0.08473542332649231,0.0666000247001648,-0.3692209402286855,-1.3036605524651481,2.023055369889481,-0.8995300531387329,0.3608889877796173,-0.24618063867092133,0.5750274658203125,-0.46923425793647766,0.2851885259151459
1.9199960231781006,0.09100496768951416,-0.08192521333694458,0.049973100423812866,-0.3711987104849704,-1.309347950524665,2.0354667283207766,-0.9002244472503662,0.36273276805877686,-0.24087576568126678,0.5500930547714233,-0.5670585632324219,0.2008325457572937
1.9400629997253418,0.07982999086380005,-0.03945615887641907,0.003426879644393921,-0.371063511547929,-1.3167691737410263,2.0494691996632644,-0.9020345211029053,0.3626067638397217,-0.23420070111751556,0.7251589894294739,-0.6811936497688293,0.11872053891420364
1.9600541591644287,0.05746108293533325,-0.018550992012023926,0.0016770362854003906,-0.3686244450287727,-1.3249098334338218,2.066523745927755,-0.9047664403915405,0.3603326082229614,-0.22706452012062073,0.8633806109428406,-0.7389979362487793,0.05730677396059036
1.9801700115203857,0.0542411208152771,-0.03746035695075989,0.009472429752349854,-0.3656530750375209,-1.3335278062225582,2.084535662963551,-0.9077262282371521,0.3575592637062073,-0.21950960159301758,0.8343044519424438,-0.7765871286392212,0.05999204143881798
2.000006914138794,0.06150400638580322,-0.04984477162361145,0.00495573878288269,-0.3632462660366164,-1.3434788044144184,2.101651900657818,-0.9107015132904053,0.3553105294704437,-0.210659459233284,0.7872053980827332,-0.8346789479255676,0.07237175107002258
2.0199990272521973,0.06176942586898804,-0.04920065402984619,0.002058267593383789,-0.36144772806868986,-1.3545041456116318,2.118339771793093,-0.9135913848876953,0.3536287844181061,-0.20074288547039032,0.7799422144889832,-0.8630461096763611,0.09756968915462494
2.039999008178711,0.06394702196121216,-0.05946335196495056,0.00904795527458191,-0.36051120591508046,-1.3659364336977853,2.134833740977695,-0.9161505103111267,0.3527526259422302,-0.19035285711288452,0.7489563226699829,-0.862605094909668,0.1343158781528473
2.060009002685547,0.06102710962295532,-0.07906150817871094,0.01583440601825714,-0.3606315540084807,-1.3774269334332632,2.1501313295090334,-0.9182353019714355,0.35286521911621094,-0.17980529367923737,0.655581533908844,-0.8358238935470581,0.15558546781539917
2.0800020694732666,0.06940460205078125,-0.0869322121143341,0.026719391345977783,-0.36142778485195787,-1.388802619288774,2.1640931128473295,-0.9199447631835938,0.3536101281642914,-0.16929744184017181,0.6196581721305847,-0.7927934527397156,0.18403035402297974
2.1000068187713623,0.08711397647857666,-0.09561443328857422,0.024455055594444275,-0.3632880545501008,-1.4000709737451555,2.1773651151491102,-0.9211442470550537,0.355349600315094,-0.1588086187839508,0.5807369947433472,-0.8111757040023804,0.21160560846328735
2.1199910640716553,0.08467346429824829,-0.09361159801483154,0.007705613970756531,-0.3655375780999466,-1.4120087009607851,2.190180202016475,-0.9221827387809753,0.3574514091014862,-0.14767442643642426,0.5633974075317383,-0.8521278500556946,0.2033710777759552
2.1400420665740967,0.09015905857086182,-0.09508532285690308,0.012347951531410217,-0.3679007593990003,-1.4249793999631823,2.202479493138998,-0.9231820702552795,0.3596574664115906,-0.13557785749435425,0.5368661284446716,-0.8981335759162903,0.2086254209280014
2.1600539684295654,0.10301357507705688,-0.10128486156463623,0.010240241885185242,-0.37055620321869887,-1.4395079115430531,2.214411987153608,-0.9241043925285339,0.3621339499950409,-0.12202611565589905,0.5537018179893494,-0.9907025098800659,0.20629771053791046
2.1799938678741455,0.10004377365112305,-0.08843618631362915,0.005934305489063263,-0.3731758298114571,-1.45453532909862,2.2284198796553176,-0.9248880743980408,0.36457452178001404,-0.1080155149102211,0.7295888662338257,-1.025846004486084,0.2147948443889618
2.200040102005005,0.08520805835723877,-0.06559890508651733,-0.002199232578277588,-0.3756077132680138,-1.4683017564556804,2.2473835018506936,-0.925402820110321,0.3668379485607147,-0.09518229961395264,1.018168568611145,-1.0667016506195068,0.218374103307724
2.2199909687042236,0.07398897409439087,-0.05788463354110718,-0.020327337086200714,-0.37796155374164536,-1.4806267499347834,2.272375303843289,-0.9256432056427002,0.36902666091918945,-0.0836917981505394,1.260730266571045,-1.0818257331848145,0.23500430583953857
2.240025043487549,0.05793118476867676,-0.07276281714439392,-0.002676069736480713,-0.38019619240944574,-1.4910054753826232,2.3015662577456233,-0.9256374835968018,0.3711026608943939,-0.07401454448699951,1.4098243713378906,-1.0290262699127197,0.23775626718997955
2.260066032409668,0.07033157348632812,-0.09269952774047852,0.015483252704143524,-0.3839550603127695,-1.4991023608403746,2.3327233663624494,-0.9248086214065552,0.3745904862880707,-0.06641703099012375,1.4530303478240967,-0.9553183913230896,0.36151552200317383
2.2799949645996094,0.0270082950592041,-0.08660027384757996,-0.015145774930715561,-0.3893963428678627,-1.5058420310870073,2.36464139701797,-0.9231874942779541,0.37963002920150757,-0.06004946678876877,1.4829745292663574,-0.913347601890564,0.35030508041381836
2.3000199794769287,-0.08083534240722656,-0.027704447507858276,-0.030973132699728012,-0.39347707561322415,-1.5103717863025392,2.397250177521505,-0.9218959808349609,0.3834020793437958,-0.05577303469181061,1.4781358242034912,-0.7796157002449036,0.23477722704410553
2.319990873336792,-0.16473442316055298,-0.015087723731994629,-0.0066403113305568695,-0.3944544798141224,-1.5117930745135666,2.427208815897094,-0.9215997457504272,0.38430461287498474,-0.05444057285785675,1.2520190477371216,-0.5084696412086487,0.03617822751402855
2.3399999141693115,-0.13246208429336548,-0.04902634024620056,0.026684582233428955,-0.3924092734356976,-1.5106028199010866,2.449771684817882,-0.9223169684410095,0.38241568207740784,-0.05558464303612709,0.8094472885131836,-0.25167566537857056,-0.10750454664230347
2.3599889278411865,-0.038260817527770996,-0.07582774758338928,0.04773426428437233,-0.38830823701629585,-1.50911030702906,2.4615737703398617,-0.9237905144691467,0.3786231577396393,-0.057057350873947144,0.34999895095825195,-0.05588191747665405,-0.23617321252822876
2.380078077316284,0.020814955234527588,-0.04266160726547241,0.022665441036224365,-0.3821407170480888,-1.5072693923541685,2.465987968465706,-0.9259968400001526,0.3729076385498047,-0.05890500172972679,0.14742696285247803,0.05335322767496109,-0.36020365357398987
2.3999688625335693,0.08036249876022339,0.006593883037567139,0.008309487253427505,-0.3738331401653738,-1.5044866893911788,2.4683988661470777,-0.9288884401321411,0.36518651247024536,-0.06168469041585922,0.12718157470226288,0.1378016173839569,-0.44219860434532166
2.420029878616333,0.13106977939605713,0.004914045333862305,0.03608828783035278,-0.3641822089361955,-1.5010103270150623,2.469523124554481,-0.9321409463882446,0.35618525743484497,-0.06515619158744812,0.03838832676410675,0.18347403407096863,-0.5164757370948792
2.4399900436401367,0.15952032804489136,0.011165142059326172,0.07879067212343216,-0.3533503642867588,-1.496686594642865,2.4681685506737145,-0.9356433153152466,0.34604310989379883,-0.06946749985218048,-0.09350819140672684,0.2813529372215271,-0.5772147178649902
2.459897041320801,0.21156591176986694,0.0160922110080719,0.11612201482057571,-0.34186142510886175,-1.4922431494363653,2.4633689474498492,-0.9392270445823669,0.3352413773536682,-0.07393139600753784,-0.2801153361797333,0.30789241194725037,-0.6017565727233887
2.4800541400909424,0.27827876806259155,0.016950547695159912,0.14504778385162354,-0.33041369678498295,-1.489892413708849,2.454412633751071,-0.942814290523529,0.324434369802475,-0.07644423097372055,-0.4619133770465851,0.21221992373466492,-0.6073236465454102
2.500002145767212,0.3150781989097595,0.03857529163360596,0.15906047821044922,-0.31899547302026227,-1.4904398155738208,2.443642515737712,-0.9464869499206543,0.3136128783226013,-0.07622051984071732,-0.4147374927997589,0.07149254530668259,-0.6105751395225525
2.5200090408325195,0.3126063346862793,0.06150326132774353,0.14011098444461823,-0.30718127520949273,-1.4931378778900173,2.4366280172467967,-0.9503167271614075,0.3023730516433716,-0.07394884526729584,-0.140706866979599,-0.125284343957901,-0.6322664618492126
2.5399889945983887,0.2941964864730835,0.10588240623474121,0.11200226098299026,-0.29455292355345347,-1.497793840489457,2.4363358045682055,-0.9543831944465637,0.2903120517730713,-0.06979638338088989,0.23338846862316132,-0.334396630525589,-0.6290467977523804
2.560012102127075,0.2948859930038452,0.11074769496917725,0.11091840267181396,-0.2817754479506705,-1.5034213850707003,2.4442154608620377,-0.9583839178085327,0.27806150913238525,-0.06466894596815109,0.5515022873878479,-0.4432186484336853,-0.5852250456809998
2.580018997192383,0.30092853307724,0.10282373428344727,0.1271185278892517,-0.27001322473678446,-1.5097110378937526,2.455211565722146,-0.9619699716567993,0.2667441964149475,-0.058835409581661224,0.5653797388076782,-0.48053714632987976,-0.5340628027915955
2.6000490188598633,0.2925757169723511,0.060687094926834106,0.14527839422225952,-0.25975969365321944,-1.5162681622773992,2.4651985582834812,-0.9650152921676636,0.2568483054637909,-0.05267272889614105,0.4365159571170807,-0.4351203143596649,-0.4294949471950531
2.6199958324432373,0.26277363300323486,0.043624475598335266,0.12534373998641968,-0.2516092501985047,-1.5233796715076018,2.4716391220535594,-0.9674245119094849,0.248962864279747,-0.045906443148851395,0.22346922755241394,-0.4423595666885376,-0.3809937834739685
2.6399991512298584,0.2238883376121521,0.039978355169296265,0.10167062282562256,-0.2435659693254913,-1.5311787622722095,2.473933027872757,-0.9697227478027344,0.24116486310958862,-0.038438163697719574,0.024400779977440834,-0.380984365940094,-0.39522305130958557
2.660022020339966,0.24378663301467896,0.0164242684841156,0.11861991882324219,-0.23594184719430794,-1.5383696607233126,2.4709896967104137,-0.9717833995819092,0.2337588369846344,-0.03152274712920189,-0.2382846474647522,-0.27085989713668823,-0.3970797657966614
2.6800899505615234,0.28705793619155884,0.005426734685897827,0.12682604789733887,-0.22856820277420886,-1.544009057018328,2.466031926537272,-0.9736423492431641,0.22658319771289825,-0.026087461039423943,-0.2358822524547577,-0.22285909950733185,-0.3296106457710266
2.70023512840271,0.2865417003631592,0.03104984760284424,0.09306091070175171,-0.22292829956796575,-1.5502699505506499,2.4630557328003957,-0.9750486612319946,0.22108639776706696,-0.020017027854919434,0.0564940944314003,-0.34034594893455505,-0.24222421646118164
2.7200210094451904,0.16133332252502441,0.07888714969158173,0.028711974620819092,-0.21840790118624523,-1.5571404589299227,2.4660556856422806,-0.9761525988578796,0.21667562425136566,-0.013331039808690548,0.16723637282848358,-0.3802904188632965,-0.25095823407173157
2.7400119304656982,0.02472907304763794,0.12016859650611877,0.08789575099945068,-0.21209115094307768,-1.5631273002534374,2.4662339104184565,-0.9775640964508057,0.2105046510696411,-0.007497112266719341,-0.21062029898166656,-0.20602232217788696,-0.3558262586593628
2.760260820388794,0.017116904258728027,0.06512068212032318,0.11206644773483276,-0.20550303824713634,-1.56800031272444,2.4574216618900437,-0.9789546728134155,0.2040596455335617,-0.002737178234383464,-0.6170390248298645,-0.13532543182373047,-0.2779858708381653
2.7836811542510986,0.025332987308502197,0.1796422153711319,-0.026396630331873894,-0.19937693688711047,-1.5860984708286763,2.437077075153913,-0.9800755381584167,0.19805864989757538,0.014998428523540497,-0.14555741846561432,-0.5084505677223206,-0.0674935132265091
2.8030788898468018,-0.11112302541732788,0.22497178614139557,0.010941382497549057,-0.1976536119729095,-1.5941869930081682,2.4370076943406027,-0.9802616834640503,0.19636917114257812,0.02293315716087818,0.04891614988446236,-0.22934451699256897,-0.09304722398519516
2.8230178356170654,-0.18379992246627808,0.13977624475955963,0.06716227531433105,-0.19647688556044648,-1.5955122900023029,2.434833273453535,-0.9804609417915344,0.19521522521972656,0.024237971752882004,-0.33656591176986694,0.12086356431245804,-0.0123980063945055
2.842679977416992,-0.16298502683639526,0.013769224286079407,0.10200512409210205,-0.1961345514545057,-1.593713862915121,2.421782014273799,-0.98056960105896,0.1948794573545456,0.02247617393732071,-0.9482172727584839,0.22097019851207733,0.04471978545188904
2.8621461391448975,-0.1581847071647644,-0.004763752222061157,0.10811972618103027,-0.20043918405426497,-1.5949371980264129,2.3978897641142876,-0.9796937108039856,0.19909973442554474,0.023655254393815994,-1.2628209590911865,0.14173761010169983,0.4119465947151184
2.8825671672821045,-0.26464730501174927,0.07981786131858826,0.08460628986358643,-0.2076515072649738,-1.5970318754761381,2.3752001292371,-0.9781811833381653,0.20616242289543152,0.02566901035606861,-0.8849197030067444,0.10947446525096893,0.31182166934013367
2.9025628566741943,-0.3568967580795288,0.17652249336242676,0.06654596328735352,-0.212400036292642,-1.59808286306081,2.363191236770224,-0.9771639108657837,0.21080660820007324,0.02667003870010376,-0.2826889157295227,0.00759532768279314,0.21285322308540344
2.9236338138580322,-0.3364304304122925,0.13829733431339264,0.07752275466918945,-0.21616544100975696,-1.599349578396464,2.3624076835394443,-0.97632896900177,0.21448589861392975,0.027884945273399353,0.15772724151611328,-0.11776623129844666,0.1735231578350067
2.9436118602752686,-0.2845618724822998,0.03834405541419983,0.10551965236663818,-0.21945575273803822,-1.6015475436941018,2.3669479162900933,-0.9755547642707825,0.21769845485687256,0.030008956789970398,0.2782146632671356,-0.21310889720916748,0.1421050876379013
2.966583013534546,-0.23144418001174927,-0.06945459544658661,0.08159887790679932,-0.22400269108150234,-1.6055511257830788,2.372895662823709,-0.9744274616241455,0.2221340835094452,0.03387967124581337,0.29768916964530945,-0.3129517138004303,0.3041478991508484
2.985445976257324,-0.21828973293304443,-0.09156861901283264,0.050476547330617905,-0.23023991255526693,-1.6105671964250678,2.3793527068758626,-0.9728417992591858,0.22821110486984253,0.038711175322532654,0.3943319320678711,-0.3385521471500397,0.26111650466918945
3.0050418376922607,-0.2366400957107544,-0.06394381821155548,0.016651038080453873,-0.2348749084285514,-1.6156326914842336,2.3893007071329144,-0.9715662002563477,0.23272132873535156,0.04359070956707001,0.6155579090118408,-0.4094797670841217,0.17802348732948303
3.026663064956665,-0.2786208987236023,-0.035227105021476746,-0.004447467625141144,-0.23859527063981972,-1.620652102636057,2.4046766397323642,-0.9704634547233582,0.23633792996406555,0.04842333495616913,0.8687907457351685,-0.4211927056312561,0.1205914169549942
3.047783136367798,-0.32276540994644165,-0.02069312334060669,0.018190860748291016,-0.24106939720579051,-1.6241812343419546,2.4229985668974052,-0.9696998596191406,0.23874123394489288,0.05181657150387764,0.9036029577255249,-0.3827188014984131,0.043001722544431686
3.0677168369293213,-0.3552054166793823,-0.08539699018001556,0.035036321729421616,-0.24305656395365244,-1.627277795208202,2.438735926481155,-0.9690590500831604,0.24067047238349915,0.05479215830564499,0.5798779129981995,-0.3026016652584076,0.09197989106178284
3.0876028537750244,-0.3769211173057556,-0.0967177301645279,0.07050155848264694,-0.24593313131792988,-1.6306868883681929,2.4460330504454784,-0.9681715965270996,0.2434614896774292,0.058053769171237946,0.19859562814235687,-0.2061482071876526,0.13642331957817078
3.1075429916381836,-0.4035668969154358,-0.05837072432041168,0.024519916623830795,-0.24909490427188483,-1.6336602137612861,2.4495308261301516,-0.9672216176986694,0.24652689695358276,0.0608835332095623,0.16927528381347656,-0.19036462903022766,0.16787394881248474
3.127532958984375,-0.39302754402160645,-0.028962552547454834,0.026332728564739227,-0.2526816620645214,-1.6363742307417286,2.452994601081465,-0.9661642909049988,0.25000137090682983,0.06345000863075256,0.21108780801296234,-0.22211411595344543,0.14186708629131317
3.1465108394622803,-0.35832464694976807,-0.029291599988937378,0.05732369422912598,-0.256032992526358,-1.640019663320453,2.4584516700705024,-0.9650853872299194,0.25324487686157227,0.06691334396600723,0.3076023459434509,-0.2821069657802582,0.1912916749715805
3.1664631366729736,-0.34452110528945923,-0.04286321997642517,0.01384841650724411,-0.2607588272758837,-1.645809701161644,2.4670574380980863,-0.9634774923324585,0.25781381130218506,0.07240956276655197,0.6037070751190186,-0.4803991913795471,0.18756595253944397
3.1874589920043945,-0.36969828605651855,0.017434418201446533,-0.016100764274597168,-0.2649515510753603,-1.6524403399658505,2.483691582791985,-0.961890459060669,0.26186251640319824,0.07870755344629288,1.0350271463394165,-0.5908810496330261,0.0906706154346466
3.2073960304260254,-0.3920312523841858,0.06206732988357544,-0.03150308132171631,-0.2679399332358373,-1.6584688160116263,2.5092308536262444,-0.9606146216392517,0.26474544405937195,0.08443592488765717,1.4315940141677856,-0.6925466060638428,0.0042104157619178295
3.2263500690460205,-0.39292818307876587,0.02661895751953125,0.00403856486082077,-0.2707440261810325,-1.6637481109987085,2.5404383695084602,-0.9594123959541321,0.26744842529296875,0.08943682163953781,1.5106593370437622,-0.681401789188385,0.02395499311387539
3.247791051864624,-0.4123716950416565,-0.036337703466415405,0.033139586448669434,-0.2745771918497887,-1.6698495982845398,2.5677153039124714,-0.957821786403656,0.2711399793624878,0.09518689662218094,1.142634630203247,-0.6915711164474487,0.0960552990436554
3.269183874130249,-0.4294006824493408,-0.02561122179031372,0.05139460414648056,-0.2790351096784714,-1.678251857803267,2.589094806113747,-0.955777108669281,0.2754282057285309,0.10310067236423492,1.043160080909729,-0.7481754422187805,0.14702104032039642
3.2887790203094482,-0.4756813049316406,0.07451879978179932,0.013492122292518616,-0.2844499891873479,-1.686387355012674,2.6129665898490027,-0.9534112811088562,0.28062957525253296,0.11069925874471664,1.3708505630493164,-0.6693878173828125,0.12835045158863068
3.3062708377838135,-0.5304235219955444,0.06682413816452026,-0.06683622300624847,-0.2913610006718839,-1.6882835912901126,2.64424240974195,-0.9512507915496826,0.287256121635437,0.11227692663669586,1.5292842388153076,-0.4274619519710541,0.22217053174972534
3.32732892036438,-0.5238288640975952,-0.025523871183395386,-0.08304117619991302,-0.2995771773050073,-1.6876145152483586,2.6688392058545256,-0.9489495754241943,0.29511624574661255,0.11136160045862198,0.8341804146766663,-0.26399311423301697,0.3275689482688904
3.3459279537200928,-0.5509154200553894,-0.13963377475738525,-0.08213426172733307,-0.3100114923756245,-1.6890258916988272,2.677846966276426,-0.9456817507743835,0.30506959557533264,0.11233142763376236,0.19427581131458282,-0.09522993862628937,0.6338648200035095
3.3660471439361572,-0.6834797263145447,-0.08307749032974243,-0.0841217190027237,-0.3249733642898518,-1.6878967254031159,2.676590597755509,-0.9411692023277283,0.31928354501724243,0.11071782559156418,-0.11462967842817307,0.2609858810901642,0.8369825482368469
3.3876290321350098,-0.7779110074043274,-0.04875445365905762,-0.06039486825466156,-0.34250605002823115,-1.6808694779681368,2.669177605769903,-0.9362156987190247,0.3358486294746399,0.10347043722867966,-0.35805389285087585,0.6812750101089478,1.014708161354065
3.4082510471343994,-0.6720068454742432,-0.14219114184379578,-0.03364598751068115,-0.364046432661789,-1.6679268649007213,2.6572789541777277,-0.9300591945648193,0.35605838894844055,0.09062232077121735,-0.5169045329093933,0.983900785446167,1.2269614934921265
3.426874876022339,-0.5073298215866089,-0.16549032926559448,-0.015552036464214325,-0.3880796268442858,-1.6520101520988568,2.6449869224453164,-0.9225866794586182,0.37841153144836426,0.07509195804595947,-0.38533756136894226,1.0962553024291992,1.283305048942566
3.4457130432128906,-0.42991477251052856,-0.15295904874801636,-0.00913083553314209,-0.41333105346313964,-1.6332425063640537,2.6357716672215865,-0.9140030145645142,0.40166208148002625,0.057150304317474365,-0.2709349989891052,1.0999008417129517,1.3033679723739624
3.4666788578033447,-0.3875284790992737,-0.16476839780807495,0.007504820823669434,-0.4386662862038902,-1.6146520347551072,2.6295335615751885,-0.9044484496116638,0.42473241686820984,0.03969067707657814,-0.15999998152256012,1.0478830337524414,1.2598609924316406
3.486802816390991,-0.3477325439453125,-0.14861616492271423,0.03625190258026123,-0.46300147170623074,-1.595650421209967,2.6242179612268326,-0.8944396376609802,0.44663557410240173,0.022235065698623657,-0.2728278338909149,1.084527611732483,1.2018848657608032
3.5066640377044678,-0.27230948209762573,-0.16045594215393066,0.05082833766937256,-0.4868154944854868,-1.5781496845207563,2.615902061076118,-0.883803129196167,0.4678137004375458,0.006499037612229586,-0.44321197271347046,1.0301892757415771,1.2247318029403687
3.526395082473755,-0.18983978033065796,-0.07252427935600281,0.05887758731842041,-0.5109403588225488,-1.563753623583634,2.605180780055896,-0.872263491153717,0.4889977276325226,-0.006143194157630205,-0.3840971291065216,0.9342079162597656,1.1368104219436646
3.5463860034942627,-0.17783230543136597,0.0870215892791748,-0.020625650882720947,-0.5312087387698383,-1.548331320984383,2.6023974963219243,-0.8619778752326965,0.506575882434845,-0.01936759613454342,0.12704358994960785,0.7397880554199219,0.9267542362213135
3.5665669441223145,-0.09226936101913452,0.1557195782661438,0.016115665435791016,-0.5493725132730817,-1.531798201118883,2.6095290397262065,-0.852203905582428,0.5221521854400635,-0.033251214772462845,0.37604212760925293,0.5791553258895874,0.9155178070068359
3.5861330032348633,-0.048930823802948,0.15649348497390747,0.0396001935005188,-0.5665189416613821,-1.514267634264659,2.6221171853770833,-0.8424266576766968,0.5366981029510498,-0.04767206683754921,0.5983895659446716,0.5672098398208618,0.8214712142944336
3.6080620288848877,-0.009918928146362305,0.20425200462341309,0.0319056510925293,-0.5805262867304125,-1.4907289123395815,2.642123918151947,-0.8334953188896179,0.5484640598297119,-0.0668787956237793,0.9961387515068054,0.6749299764633179,0.7276865839958191
3.6235458850860596,0.11420673131942749,0.19513237476348877,0.023671932518482208,-0.5934770425679615,-1.4644776238217594,2.666446301865611,-0.8243202567100525,0.5592468976974487,-0.08797238022089005,0.8580769896507263,0.5788634419441223,0.7566221356391907
3.6462340354919434,0.18929743766784668,0.14249813556671143,0.047147102653980255,-0.6074667160385715,-1.440720696861547,2.6864923920360626,-0.8141600489616394,0.5707892179489136,-0.10650373250246048,0.5648651719093323,0.7087900638580322,0.8210353851318359
3.664937973022461,0.24371784925460815,0.10879689455032349,0.05004318058490753,-0.6216351571310152,-1.4155517649421818,2.7022744843885533,-0.8031507730484009,0.5823652148246765,-0.12569621205329895,0.6178303360939026,0.8823095560073853,0.7558918595314026
3.684906005859375,0.3717734217643738,0.10775303840637207,0.036783814430236816,-0.6338029932910155,-1.3870316562640954,2.7223705958607383,-0.7922140955924988,0.5922133922576904,-0.14724212884902954,0.7879894971847534,0.7932836413383484,0.6986589431762695
3.7059528827667236,0.43920576572418213,0.06492900848388672,0.06387031078338623,-0.6429713194535728,-1.3556830248001077,2.7477573093157632,-0.7818723917007446,0.5995760560035706,-0.17083436250686646,1.0072513818740845,0.8424367904663086,0.6158013343811035
3.726104974746704,0.48622244596481323,-0.015599310398101807,0.08246667683124542,-0.649689873931075,-1.3213323768533352,2.7763710090304947,-0.7716227769851685,0.6049394607543945,-0.19658710062503815,1.062396764755249,0.8578271865844727,0.5584765076637268
3.7448229789733887,0.5319902300834656,-0.0755966305732727,0.0809418112039566,-0.6547006789274006,-1.2869869725852283,2.806433019013848,-0.7614976167678833,0.6089218258857727,-0.22211605310440063,1.0829020738601685,0.7084888815879822,0.602046012878418
3.7664690017700195,0.44669854640960693,-0.08639752864837646,0.05571886897087097,-0.6618155267349098,-1.2578481031799615,2.833256417411827,-0.7505621910095215,0.6145501136779785,-0.24286791682243347,0.628380537033081,0.6534069776535034,0.658318817615509
3.7858169078826904,0.17662376165390015,-0.1376083493232727,0.0145491361618042,-0.6719357105883103,-1.2329453242511246,2.8436350666113257,-0.7383760213851929,0.6225020885467529,-0.2594068646430969,-0.18115141987800598,1.2605457305908203,0.5759887099266052
3.805655002593994,0.0936785340309143,-0.10500359535217285,-0.011334717273712158,-0.6860380399244764,-1.205552838055186,2.8377805439347057,-0.7227221131324768,0.6334765553474426,-0.27636975049972534,-0.6302585005760193,1.7640877962112427,0.6161031126976013
3.8244521617889404,0.2508774399757385,-0.008807718753814697,-0.005557924509048462,-0.7028117742262155,-1.1747753025459509,2.8314950900270284,-0.7039718627929688,0.6463657021522522,-0.29433825612068176,-0.2990533709526062,1.67238187789917,0.761610746383667
3.8454501628875732,0.2965506911277771,0.07556837797164917,0.009755939245223999,-0.7161527009945382,-1.1353408352270042,2.8425820190205435,-0.6839408874511719,0.6564874053001404,-0.3181970715522766,0.5310531258583069,1.5880476236343384,0.7900792360305786
3.865332841873169,0.23970341682434082,0.024603724479675293,0.11195105314254761,-0.7222782682748451,-1.0853242210011709,2.8701990283878973,-0.6636078357696533,0.6610957980155945,-0.3501102328300476,1.0227200984954834,1.6022571325302124,0.6798372864723206
3.884258985519409,0.23678994178771973,-0.11161589622497559,0.20090818405151367,-0.7227315488871703,-1.031392946132251,2.9040721158742095,-0.6435129642486572,0.6614357829093933,-0.385219007730484,1.0844427347183228,1.5462098121643066,0.6228445172309875
3.905277967453003,0.2948497533798218,-0.2217082977294922,0.2926065921783447,-0.7219184513743049,-0.9814728803825729,2.936117776424363,-0.6239360570907593,0.660825788974762,-0.41714879870414734,1.0110275745391846,1.3182635307312012,0.5798380970954895
3.9252989292144775,0.3544708490371704,-0.23535019159317017,0.33327388763427734,-0.7182656290312324,-0.9373066735460553,2.9671908485352456,-0.6068512201309204,0.6580797433853149,-0.4457159638404846,1.1853305101394653,1.0363811254501343,0.48456916213035583
3.945103883743286,0.42120063304901123,-0.18898004293441772,0.32243701815605164,-0.7082591784244586,-0.8965575799270468,3.0028538949937524,-0.593304455280304,0.6505126357078552,-0.47415509819984436,1.5924052000045776,0.708269476890564,0.3397444784641266
3.965095043182373,0.48914265632629395,-0.2030455470085144,0.3519173860549927,-0.6891434935525832,-0.8604458486872955,3.042365786977273,-0.5851204991340637,0.6358763575553894,-0.5032845139503479,1.8890596628189087,0.37511467933654785,0.13609778881072998
3.9850640296936035,0.572877049446106,-0.28751105070114136,0.4086455702781677,-0.6658677183557856,-0.8331924201987518,3.0793220506532375,-0.5819864869117737,0.6177417039871216,-0.528854250907898,1.8159043788909912,0.01651984639465809,0.06002888083457947
4.004822015762329,0.6365638971328735,-0.4100182056427002,0.4572299122810364,-0.6451300789812883,-0.8169993703334221,3.112377676791888,-0.582563042640686,0.6013023853302002,-0.5468599796295166,1.4538891315460205,-0.43019285798072815,0.21621602773666382
4.023957014083862,0.6190217137336731,-0.40522706508636475,0.3993103504180908,-0.6311103765378717,-0.8134526299518191,3.140435690490207,-0.5866883397102356,0.5900416374206543,-0.5546600222587585,1.2104499340057373,-0.8926650881767273,0.28433045744895935
4.044893026351929,0.5259549021720886,-0.2543385624885559,0.2306816577911377,-0.6164163988352237,-0.8204209012996629,-3.115523086131825,-0.5968167185783386,0.5781148076057434,-0.5564109683036804,1.5549546480178833,-1.405006766319275,0.12256362289190292
4.064756155014038,0.377920925617218,-0.06520980596542358,0.1981469988822937,-0.5915784302041698,-0.8317111844297486,-3.08078708457394,-0.6134860515594482,0.5576719045639038,-0.5591393709182739,2.222177505493164,-1.6810295581817627,-0.041784800589084625
4.083739995956421,0.14876455068588257,-0.03380262851715088,0.20377808809280396,-0.5587302532979472,-0.84007306104645,-3.0389860846083194,-0.6314457654953003,0.5301099419593811,-0.5659148693084717,2.373614549636841,-1.4115626811981201,-0.009446155279874802
4.10470986366272,-0.027237355709075928,-0.09955012798309326,0.17537301778793335,-0.532592552401555,-0.8470407145488483,-3.0057942084989557,-0.6455378532409668,0.5077685117721558,-0.5704841017723083,1.5106433629989624,-1.06210196018219,-0.1021198108792305
4.124490976333618,-0.081928551197052,-0.11205515265464783,0.09445583820343018,-0.5142442257260831,-0.8564969998214931,-2.9866932381989986,-0.6578328609466553,0.4918769598007202,-0.5703621506690979,1.0374785661697388,-0.8486374020576477,-0.1492081582546234
4.14460301399231,-0.021193265914916992,0.03648298978805542,0.013606786727905273,-0.4966372542566175,-0.8650226413614833,-2.9691204440264465,-0.6691600680351257,0.47647175192832947,-0.570262610912323,1.4286913871765137,-0.9171100854873657,-0.17745628952980042
4.164675951004028,0.027118921279907227,0.2535996437072754,-0.02114468812942505,-0.47139940006223413,-0.8715007664202832,-2.9410645658227987,-0.68182772397995,0.4541335105895996,-0.5734750032424927,2.077491521835327,-0.9902467727661133,-0.16597597301006317
4.184795141220093,-0.03592121601104736,0.20416483283042908,0.004827022552490234,-0.44237066666995856,-0.8747421127627002,-2.9078765538968865,-0.6935098767280579,0.4280831217765808,-0.5794730186462402,1.8771154880523682,-0.7749613523483276,-0.14485807716846466
4.204493999481201,0.0175284743309021,0.027892261743545532,0.08082914352416992,-0.41965020576620765,-0.8791973633949569,-2.8822163008298194,-0.7033957839012146,0.40744102001190186,-0.5824312567710876,1.518670916557312,-0.8172483444213867,-0.11683344841003418
4.224102020263672,0.1563878059387207,0.176515132188797,0.06689298152923584,-0.39457214366799187,-0.8878223272167475,-2.8550557171315805,-0.7160953879356384,0.3844132423400879,-0.5826095342636108,2.1513235569000244,-1.1672040224075317,-0.27153730392456055
4.24432897567749,0.23122847080230713,0.255073606967926,0.05247277021408081,-0.35768351732255743,-0.9007005110220855,-2.8189888707486057,-0.7341581583023071,0.35010531544685364,-0.5817543864250183,2.623004198074341,-1.4330992698669434,-0.4905478060245514
4.264071941375732,0.28339171409606934,0.059134095907211304,0.1478031873703003,-0.3185882503079507,-0.9211039918642572,-2.784106322961841,-0.7562005519866943,0.3132261633872986,-0.5744999647140503,2.3818771839141846,-1.7662787437438965,-0.5286900401115417
4.28399395942688,0.3107338547706604,-0.07824888825416565,0.19679021835327148,-0.28382656182612187,-0.9493187748162633,-2.752848656675374,-0.7804909348487854,0.28003114461898804,-0.5589423179626465,2.0401368141174316,-2.009284496307373,-0.4908120334148407
4.305949926376343,0.2770869731903076,-0.12923568487167358,0.2832440137863159,-0.2550226564245965,-0.9842601239033246,-2.7264837839657403,-0.8059260845184326,0.25226733088493347,-0.5355786681175232,1.7380294799804688,-2.1841678619384766,-0.4737814962863922
4.3240578174591064,0.18799859285354614,-0.12129729986190796,0.25730597972869873,-0.22880298954875142,-1.0249680992596337,-2.7037615819517398,-0.8324230313301086,0.22681187093257904,-0.5055969953536987,1.5973645448684692,-2.4258127212524414,-0.5453405976295471
4.3438849449157715,0.04109799861907959,-0.0659898966550827,0.17294776439666748,-0.2032974619216178,-1.070197554917139,-2.6807778776667663,-0.8592284917831421,0.20189997553825378,-0.47006693482398987,1.6415139436721802,-2.5808544158935547,-0.5420578718185425
4.363807916641235,-0.15549510717391968,-0.07779528200626373,0.11364886164665222,-0.17864326746351533,-1.116851926649524,-2.656931673266717,-0.8844218254089355,0.17769458889961243,-0.4315352141857147,1.5318373441696167,-2.4953596591949463,-0.5558987259864807
4.38427996635437,-0.314247190952301,-0.15247635543346405,0.15886056423187256,-0.15914402586693377,-1.161168099352315,-2.6366029259495787,-0.9056777954101562,0.15847310423851013,-0.39323556423187256,1.0885977745056152,-2.310929298400879,-0.31332120299339294
4.4051220417022705,-0.442147433757782,-0.18659470975399017,0.15323585271835327,-0.15085029576669512,-1.202306180599493,-2.6229819572966226,-0.9222782254219055,0.15027882158756256,-0.3561166822910309,0.45962485671043396,-2.011068105697632,0.03386655077338219
4.42357611656189,-0.6334996819496155,-0.08816394209861755,0.08312442898750305,-0.14880159855961866,-1.2376332708232975,-2.623858059559014,-0.9345696568489075,0.14825308322906494,-0.32341986894607544,-0.3634667992591858,-1.3868484497070312,-0.3196566104888916
4.443588972091675,-0.7994138598442078,-0.0655631273984909,-0.11038175225257874,-0.14407931098130342,-1.2577859430799823,-2.6335104663503413,-0.9415528774261475,0.1435813456773758,-0.3047335743904114,-0.3956519067287445,-0.5061843991279602,-0.34603527188301086
4.463548898696899,-0.654198944568634,-0.0923360288143158,-0.09405773878097534,-0.14125196153852604,-1.2622586228342991,-2.6446049456842373,-0.9432894587516785,0.14078271389007568,-0.30064135789871216,-0.624986469745636,0.0804811641573906,-0.25714927911758423
4.483379125595093,-0.41847485303878784,-0.13938415050506592,0.05577173829078674,-0.1487980125809703,-1.2586464936588215,-2.6601065252775697,-0.9411594867706299,0.1482495367527008,-0.30371174216270447,-1.017503023147583,0.5164291858673096,0.5458022952079773
4.503483057022095,-0.2850874066352844,-0.21193605661392212,0.07788819074630737,-0.17309582953060396,-1.2483946249579199,-2.675670572230058,-0.9343034625053406,0.1722327321767807,-0.3121106028556824,-1.2032653093338013,0.7586857080459595,1.2349278926849365
4.5234620571136475,-0.25404369831085205,-0.19258233904838562,0.052302151918411255,-0.2087434610671243,-1.2341247929690133,-2.692298407970671,-0.9233702421188354,0.207230806350708,-0.32317617535591125,-1.4980474710464478,0.9761336445808411,1.560163140296936
4.54408597946167,-0.26523566246032715,-0.15495412051677704,0.014912813901901245,-0.249420692817238,-1.2169960032064664,-2.7119974655083654,-0.9090350866317749,0.246842622756958,-0.33574411273002625,-1.6372493505477905,1.1824699640274048,1.5757676362991333
4.5648510456085205,-0.25862956047058105,-0.06833904981613159,0.002162337303161621,-0.28719073352973046,-1.1967229640754857,-2.7295611382472487,-0.8927223682403564,0.2832591235637665,-0.3504441976547241,-1.2298365831375122,1.299077033996582,1.3377445936203003
4.583559036254883,-0.20689547061920166,-0.023458540439605713,-0.003110259771347046,-0.3160794130402899,-1.173713855767092,-2.736700442587921,-0.8765090107917786,0.3108426034450531,-0.3675714135169983,-0.34632277488708496,1.2068698406219482,1.0931015014648438
4.603283166885376,-0.11316472291946411,0.014150619506835938,0.02913200855255127,-0.3316318091962246,-1.147483852861316,-2.725365274845018,-0.8620550036430359,0.32558634877204895,-0.38840019702911377,0.5222299098968506,1.046561598777771,0.7645905613899231
4.623058080673218,-0.08585000038146973,-0.029170125722885132,0.13072943687438965,-0.3397942397819255,-1.122440978765453,-2.7099976867692117,-0.8496358394622803,0.3332931101322174,-0.4086988568305969,0.3385980725288391,1.0311087369918823,0.6581062078475952
4.642987966537476,-0.07081884145736694,-0.2707873582839966,0.17799565196037292,-0.3538064312964486,-1.0982560155887107,-2.702401839213764,-0.8352632522583008,0.34647098183631897,-0.42695802450180054,-0.33623525500297546,1.1199558973312378,0.9595693945884705
4.6628968715667725,-0.060564398765563965,-0.23296546936035156,0.1479969024658203,-0.37753631243318764,-1.0769921125496882,-2.7055775121311387,-0.8185248970985413,0.36863139271736145,-0.44059938192367554,-0.996138334274292,1.0793442726135254,0.9075608849525452
4.682874917984009,-0.08316123485565186,-0.09114393591880798,0.07365506887435913,-0.3976039374261313,-1.0623768483079492,-2.7157955964065867,-0.8053734302520752,0.38721030950546265,-0.448822945356369,-0.7907114624977112,0.9012213349342346,0.392930805683136
4.703644037246704,-0.03908020257949829,-0.011380910873413086,0.0912449061870575,-0.4100432622661618,-1.0486920722656352,-2.7246730623760693,-0.7949193716049194,0.3986490070819855,-0.4573642611503601,-0.5325496196746826,0.7934445142745972,0.3444041907787323
4.722005128860474,-0.002573370933532715,-0.05246073007583618,0.07971048355102539,-0.4205361582970945,-1.0346840179319845,-2.7293933335259286,-0.7847954034805298,0.40824994444847107,-0.4662919044494629,-0.4043992757797241,0.8324229121208191,0.33677801489830017
4.743010997772217,-0.03389924764633179,-0.03927391767501831,0.054463088512420654,-0.43051733540576487,-1.0197873087574254,-2.7349789669500337,-0.7742519974708557,0.4173409938812256,-0.47577348351478577,-0.5995692014694214,0.9144073128700256,0.25205621123313904
4.762966871261597,-0.05012941360473633,-0.030848711729049683,0.03555932641029358,-0.44208106272624076,-1.0054815835620976,-2.7461754942571766,-0.7632402777671814,0.42782139778137207,-0.4841829538345337,-0.8498876094818115,0.9875838756561279,0.1814797818660736
4.782811880111694,-0.03369718790054321,-0.005679666996002197,0.0139237642288208,-0.453804860144974,-0.9926146888356687,-2.759662563753362,-0.7526950240135193,0.438388466835022,-0.4911881685256958,-0.7763286828994751,0.8767823576927185,0.15046635270118713
4.801843881607056,-0.04709923267364502,0.024206340312957764,0.014500170946121216,-0.46571335634523003,-0.9822195045465821,-2.773779080887235,-0.7431533932685852,0.4490602910518646,-0.49605223536491394,-1.0334298610687256,0.8361656069755554,0.18696390092372894
4.822608947753906,-0.09319519996643066,-0.032419830560684204,0.03934931755065918,-0.4821775226109358,-0.9728740855934161,-2.7927056140377124,-0.7322747707366943,0.4637095332145691,-0.4987456798553467,-1.1973544359207153,1.0172369480133057,0.19998642802238464
4.842360019683838,-0.12788015604019165,0.06819912791252136,0.008554935455322266,-0.4968533837936227,-0.9597009420476514,-2.810440068876097,-0.7199897170066833,0.476661741733551,-0.504389226436615,-0.8570730090141296,1.0971035957336426,0.1415034979581833
4.86155104637146,-0.08574932813644409,0.08410981297492981,0.04186004400253296,-0.5086297555246682,-0.9430493353915023,-2.824093730214009,-0.7068989872932434,0.4869809150695801,-0.5129751563072205,-0.8582760095596313,1.1716564893722534,0.13320192694664001
4.882467985153198,-0.05353403091430664,-0.02236810326576233,0.06832641363143921,-0.521061990511923,-0.9278104759665395,-2.8392230752713052,-0.6941007971763611,0.4978014826774597,-0.5200169682502747,-0.9953405261039734,1.1910158395767212,0.07130183279514313
4.902379035949707,-0.07727044820785522,-0.042581796646118164,0.05767548084259033,-0.5347818662868844,-0.9127546855336254,-2.8592651664606876,-0.6807251572608948,0.5096533894538879,-0.5261813402175903,-1.210266351699829,1.388267159461975,0.018100127577781677
4.921988010406494,-0.06957465410232544,-0.07633072137832642,0.005554676055908203,-0.5505832957194247,-0.8975185774806786,-2.8830864738831607,-0.6662499308586121,0.5231844186782837,-0.5314030647277832,-1.3901686668395996,1.3844959735870361,-0.08570264279842377
4.942474126815796,-0.005320847034454346,-0.1511712670326233,0.11409270763397217,-0.5674617322895525,-0.8854954263026052,-2.9137186589490014,-0.6528822779655457,0.5374933481216431,-0.5337094068527222,-1.706392765045166,1.431100606918335,-0.20002049207687378
4.9618330001831055,0.07892149686813354,-0.2251976728439331,0.16737782955169678,-0.5863113322958696,-0.8768165041890125,-2.9500686101345917,-0.6403229236602783,0.5532921552658081,-0.5327799916267395,-1.7633050680160522,1.4152315855026245,-0.3074111044406891
4.98196816444397,0.15258252620697021,-0.1735660433769226,0.19044113159179688,-0.600322055897442,-0.8701382376046493,-2.985992232883304,-0.6307624578475952,0.5649082660675049,-0.5319938659667969,-1.4035314321517944,1.252970576286316,-0.5444883704185486
5.001859903335571,0.20681965351104736,-0.15260052680969238,0.20797526836395264,-0.6051750915492603,-0.8663856720837908,-3.0193735785820905,-0.6266652345657349,0.5689060688018799,-0.5325754284858704,-1.0637999773025513,1.0214691162109375,-0.8447563052177429
5.021198034286499,0.2131052017211914,-0.200847327709198,0.20312058925628662,-0.6047094491761619,-0.8693611520434393,-3.0544571161970717,-0.6284493803977966,0.5685230493545532,-0.5308792591094971,-1.1611089706420898,0.707291841506958,-1.0375920534133911
5.044116973876953,0.17063695192337036,-0.22711390256881714,0.19209498167037964,-0.6039939130749438,-0.8795770486300739,-3.09446811328408,-0.6341532468795776,0.5679342746734619,-0.5246908068656921,-1.2906264066696167,0.5728728175163269,-1.141727089881897
5.061962842941284,0.12056082487106323,-0.20545512437820435,0.18405139446258545,-0.6019480252959492,-0.893330005957279,-3.1370930216799557,-0.642212986946106,0.5662491917610168,-0.5166471600532532,-1.293790578842163,0.4798868000507355,-1.2210184335708618
5.081753969192505,0.08626914024353027,-0.14666873216629028,0.16724586486816406,-0.598164868406489,-0.9096260724667413,3.102653041350372,-0.6522328853607178,0.5631269216537476,-0.5074253082275391,-1.2759819030761719,0.33812397718429565,-1.3358609676361084
5.101773023605347,0.02555227279663086,-0.03738516569137573,0.14426881074905396,-0.5902460618380398,-0.9277711619631563,3.0591000043876355,-0.6648802161216736,0.5565654635429382,-0.49816590547561646,-1.0842704772949219,0.3158929646015167,-1.4702163934707642
5.121577024459839,-0.04650580883026123,0.0059111714363098145,0.13329094648361206,-0.5785470544624377,-0.942539577462694,3.019004846003268,-0.6773864030838013,0.5468080043792725,-0.49208611249923706,-1.0024858713150024,0.43431317806243896,-1.4251559972763062
5.1415979862213135,-0.07049703598022461,0.027067720890045166,0.14895927906036377,-0.5691985373026279,-0.9552137050192094,2.9780104566660643,-0.6877121925354004,0.5389571189880371,-0.4863921105861664,-1.2732008695602417,0.5208367109298706,-1.3825453519821167
5.160721063613892,-0.06955909729003906,0.037510573863983154,0.14726054668426514,-0.5620163640177682,-0.9695856563513244,2.931186267933289,-0.6978054046630859,0.5328934788703918,-0.47863560914993286,-1.54653000831604,0.5434186458587646,-1.4615559577941895
5.180466890335083,-0.008477866649627686,0.007252514362335205,0.1690329611301422,-0.5559507949981405,-0.9869618031295881,2.879927180994322,-0.70870041847229,0.5277511477470398,-0.46821197867393494,-1.7229567766189575,0.4629727900028229,-1.4645076990127563
5.2012939453125,0.06521731615066528,-0.05853426456451416,0.20399373769760132,-0.5538396651133705,-1.006214122738652,2.824522363349688,-0.7185223698616028,0.5259567499160767,-0.45507708191871643,-2.1365461349487305,0.43143120408058167,-1.313783884048462
5.2212841510772705,0.06437432765960693,-0.05251133441925049,0.1908503770828247,-0.5527686127936955,-1.0317133779499905,2.7629621391842147,-0.7303747534751892,0.5250455141067505,-0.43689829111099243,-2.219876289367676,0.3017056882381439,-1.5739449262619019
5.241397142410278,0.0404624342918396,0.033599793910980225,0.14005914330482483,-0.5435901540453986,-1.0594820657398591,2.7009575316523127,-0.7463950514793396,0.5172119736671448,-0.41879138350486755,-1.8018808364868164,0.1620241403579712,-1.8623961210250854
5.261193037033081,0.08551746606826782,0.08275967836380005,0.1117292046546936,-0.5244846165889593,-1.0834081723381457,2.6503494020228926,-0.7647930383682251,0.5007669925689697,-0.40536928176879883,-1.1537871360778809,0.03293326124548912,-1.8868741989135742
5.280066967010498,0.1147199273109436,0.0760054886341095,0.08776670694351196,-0.4991529961955126,-1.1042071755069414,2.6115102841735363,-0.7841382622718811,0.4786820411682129,-0.3949566185474396,-0.7483450770378113,-0.2036297470331192,-1.9601237773895264
5.300110101699829,0.09057849645614624,0.10494786500930786,0.09417974948883057,-0.4689184827777487,-1.125193914816806,2.5778739460753552,-0.8049492835998535,0.4519217610359192,-0.38447824120521545,-0.6362816095352173,-0.31297218799591064,-2.0628411769866943
5.320686101913452,0.07412558794021606,0.14395791292190552,0.0871991515159607,-0.4365994604188582,-1.1480387118899944,2.5439486819131836,-0.8264144062995911,0.42286035418510437,-0.3717907667160034,-0.7743451595306396,-0.5052990317344666,-2.1748170852661133
5.340754985809326,0.033791542053222656,0.17883160710334778,0.055483847856521606,-0.40363369663250454,-1.1743760832316161,2.506586571641214,-0.8483209013938904,0.3927626311779022,-0.35509011149406433,-1.0854249000549316,-0.5933126211166382,-2.2483601570129395
5.3610289096832275,-0.10027438402175903,0.25783517956733704,0.04687890410423279,-0.3699785029429245,-1.202147587330986,2.4645371135741496,-0.8696962594985962,0.36159539222717285,-0.3359718918800354,-1.3068509101867676,-0.5579522252082825,-2.3115546703338623
5.3812620639801025,-0.1806882619857788,0.32571929693222046,0.012517541646957397,-0.3370921688035699,-1.2281032903927231,2.417996103887228,-0.8888459801673889,0.33074432611465454,-0.31711339950561523,-1.5432521104812622,-0.39041560888290405,-2.286503314971924
5.3999340534210205,-0.16685903072357178,0.3333394229412079,-0.012298494577407837,-0.3070843544431631,-1.2461893344525894,2.376850168735162,-0.9034380912780762,0.3022806644439697,-0.3040161430835724,-1.199521780014038,-0.17846348881721497,-1.829572081565857
5.42074990272522,-0.1338774561882019,0.4773128032684326,-0.12196129560470581,-0.28154972571273645,-1.2592114687295373,2.3441209006740045,-0.9143708944320679,0.27784469723701477,-0.2944968044757843,-1.0020262002944946,-0.18709328770637512,-1.5811837911605835
5.4406578540802,-0.08719950914382935,0.46460264921188354,-0.16947627067565918,-0.2613387430453942,-1.2713980789174741,2.3148254472642855,-0.9230696558952332,0.25837406516075134,-0.28493040800094604,-1.1493048667907715,-0.24278832972049713,-1.1789370775222778
5.46066689491272,-0.0072754621505737305,0.3646352291107178,-0.1404952108860016,-0.25071505440183883,-1.2841274861216858,2.2824484072731948,-0.9292023777961731,0.24809671938419342,-0.2739182412624359,-1.557533621788025,-0.20233508944511414,-0.7653186917304993
5.480417013168335,0.014030873775482178,0.3468495011329651,-0.11806222796440125,-0.24837841877462707,-1.2965864231966266,2.245198696504962,-0.9330983757972717,0.24583245813846588,-0.26247668266296387,-1.8507598638534546,-0.1449863165616989,-0.48093095421791077
5.499990940093994,0.021542668342590332,0.33852338790893555,-0.14208677411079407,-0.2505459876458489,-1.3093257753043974,2.204691322575004,-0.9358492493629456,0.24793294072151184,-0.25043025612831116,-1.9529441595077515,-0.13910196721553802,-0.3571736812591553
5.520463943481445,0.054296135902404785,0.2817413806915283,-0.17905163764953613,-0.2545686544637833,-1.3225315546895369,2.1656071300879636,-0.9381004571914673,0.25182798504829407,-0.23780319094657898,-1.7714171409606934,-0.21113434433937073,-0.21181853115558624
5.540678024291992,0.07375997304916382,0.2181582748889923,-0.2215896099805832,-0.2590329743544003,-1.3359685383544124,2.1325588099872004,-0.9401081800460815,0.2561458945274353,-0.22491301596164703,-1.416022539138794,-0.2886292338371277,-0.130259171128273
5.560344934463501,0.07978183031082153,0.1749330461025238,-0.2363603115081787,-0.26215676888841405,-1.3483731893975581,2.108177770563651,-0.9420408010482788,0.2591642439365387,-0.2130567580461502,-0.9456093907356262,-0.3046942949295044,-0.12143808603286743
5.580243825912476,0.07125288248062134,0.09413206577301025,-0.1950206756591797,-0.2626524950016157,-1.3575314135522911,2.0915364380818375,-0.9438267946243286,0.25964298844337463,-0.20439331233501434,-0.6899065971374512,-0.16054370999336243,-0.21129202842712402
5.600270986557007,0.04499375820159912,-0.04097583889961243,-0.21421349048614502,-0.2600847017454944,-1.3623276374830162,2.074825171145057,-0.9454454779624939,0.2571623921394348,-0.20000150799751282,-0.9063549041748047,0.10908032208681107,-0.3916051685810089
5.6201231479644775,0.023174047470092773,-0.19338011741638184,-0.28145110607147217,-0.25533439165983574,-1.3648882802889664,2.050106952130854,-0.9471395611763,0.25256896018981934,-0.19782742857933044,-1.3321844339370728,0.22169731557369232,-0.5494663715362549
5.6400439739227295,0.036034345626831055,-0.22291110455989838,-0.27172785997390747,-0.25020216412046437,-1.3695996912141244,2.0184365097448085,-0.9493186473846436,0.24759984016418457,-0.19361937046051025,-1.5241321325302124,0.06988675147294998,-0.5891430377960205
5.660048961639404,0.046347737312316895,-0.07710757851600647,-0.19659027457237244,-0.24372852995768668,-1.3792108674142542,1.9863859994823854,-0.9526891708374023,0.2413226217031479,-0.1847878247499466,-1.358672022819519,-0.24712368845939636,-0.6377617120742798
5.6800291538238525,0.03672546148300171,0.04924076795578003,-0.16666030883789062,-0.23538223254592777,-1.394122425054327,1.9593393532644667,-0.9572882652282715,0.23321469128131866,-0.1709098070859909,-1.0400696992874146,-0.6187419891357422,-0.6817267537117004
5.700049161911011,-0.032845497131347656,0.07163847982883453,-0.14899349212646484,-0.2249312027615451,-1.413102962176809,1.941405297109752,-0.9627142548561096,0.22303929924964905,-0.15308469533920288,-0.503261923789978,-0.8384876847267151,-0.59876549243927
5.720006942749023,-0.060862720012664795,0.08300821483135223,-0.08511529862880707,-0.21631268938290274,-1.4310029583171588,1.935591975126392,-0.9671676754951477,0.21462970972061157,-0.13609129190444946,0.10983879119157791,-0.8083186745643616,-0.358384370803833
5.740001916885376,-0.06141024827957153,0.08305084705352783,-0.032308757305145264,-0.21002421595842366,-1.4447510340637228,1.9437157075573057,-0.9702670574188232,0.20848357677459717,-0.12294939905405045,0.724838376045227,-0.7013368010520935,-0.15051336586475372
5.760004997253418,-0.05849766731262207,0.07386699318885803,0.032858431339263916,-0.20649758770212054,-1.4530160874258837,1.9617238770496797,-0.9719741344451904,0.20503316819667816,-0.11501166224479675,0.9990348219871521,-0.5226106643676758,-0.017323840409517288
5.779991865158081,-0.0491790771484375,0.04214683175086975,0.06502950936555862,-0.20386068323972648,-1.4584082281896038,1.9813501076210356,-0.973114013671875,0.20245157182216644,-0.10982923954725266,0.9069482684135437,-0.433551549911499,-0.01998414285480976
5.80009388923645,-0.024087607860565186,0.02211470901966095,0.046729691326618195,-0.20194181405648068,-1.4647248739466934,1.9973082583252548,-0.974172830581665,0.20057205855846405,-0.10372121632099152,0.6646207571029663,-0.5266770720481873,-0.003973428159952164
5.819996118545532,-0.012691974639892578,0.01663997769355774,0.06444431841373444,-0.2007861060421157,-1.4731094630826287,2.0086681437306773,-0.9752382636070251,0.19943970441818237,-0.09557216614484787,0.47925132513046265,-0.5147086977958679,0.0019184993579983711
5.8399951457977295,-0.012359201908111572,-0.009128257632255554,0.10757356882095337,-0.200190564257703,-1.480072632520171,2.0180546790004676,-0.9759983420372009,0.19885608553886414,-0.0887899175286293,0.4889538884162903,-0.3605107069015503,0.013737485744059086
5.859992027282715,-0.004404902458190918,-0.042927369475364685,0.13313615322113037,-0.20003577319933252,-1.482916146023365,2.0296210230632314,-0.9762774705886841,0.19870439171791077,-0.08601699024438858,0.6428074240684509,-0.1863509863615036,0.08438392728567123
5.880016088485718,0.022842586040496826,-0.05979606509208679,0.14205551147460938,-0.2009622894421658,-1.4830475081527217,2.043621271601512,-0.9761049151420593,0.1996123492717743,-0.08587256819009781,0.6904382109642029,-0.09616933017969131,0.11964989453554153
5.900022983551025,0.047342538833618164,-0.05493101477622986,0.1518568992614746,-0.20191487009554898,-1.4823526576712216,2.0567964560771137,-0.9758552312850952,0.20054566860198975,-0.08653396368026733,0.551823616027832,-0.0913010686635971,0.07475920766592026
5.9199910163879395,0.04830026626586914,-0.06927001476287842,0.18813014030456543,-0.20200394517401787,-1.4809404541442384,2.0643158851669425,-0.9757141470909119,0.20063292980194092,-0.08791036903858185,0.11421364545822144,0.11173345148563385,0.0259404294192791
5.939990997314453,0.050815582275390625,-0.13147899508476257,0.2294524908065796,-0.20558651520079305,-1.4772250268657778,2.0560013084145545,-0.9746589660644531,0.20414136350154877,-0.09146720916032791,-1.016005277633667,0.3746756911277771,0.27010881900787354
5.959990978240967,0.04423081874847412,-0.19681084156036377,0.24694418907165527,-0.2155819256578779,-1.4750420219958345,2.0266410864230955,-0.9723771214485168,0.21391591429710388,-0.09339491277933121,-1.8587723970413208,0.4811065196990967,0.4501405656337738
5.980004072189331,-0.007308542728424072,-0.06974184513092041,0.19760538637638092,-0.2288540002369723,-1.473438655751654,1.988186970280477,-0.9693148732185364,0.22686155140399933,-0.09466953575611115,-1.8768773078918457,0.5132502317428589,0.4725748300552368
5.9999940395355225,-0.07030755281448364,0.05668294429779053,0.12601470947265625,-0.23965675074783374,-1.4708625393535102,1.956076432470406,-0.9665729999542236,0.23736919462680817,-0.09691613912582397,-1.3007794618606567,0.4882105886936188,0.2811281085014343
6.020051002502441,-0.11091560125350952,0.09213912487030029,0.06157475709915161,-0.24530513934228598,-1.4668664645940157,1.93653111990331,-0.9648290872573853,0.2428523451089859,-0.10063715279102325,-0.7124191522598267,0.39274293184280396,0.11143486946821213
6.040030002593994,-0.11792516708374023,0.015406608581542969,0.05427461862564087,-0.24899925478824844,-1.4614713194430438,1.9230781950009548,-0.9633736610412598,0.24643419682979584,-0.105742447078228,-0.7510620355606079,0.5075357556343079,0.1511746197938919
6.060056924819946,-0.09694868326187134,-0.09347036480903625,0.047790467739105225,-0.2555443629740485,-1.4538090930156466,1.9048864469914264,-0.9609126448631287,0.25277212262153625,-0.11293017119169235,-1.0563671588897705,0.739901602268219,0.29528942704200745
6.0800089836120605,-0.09144425392150879,-0.07155656814575195,-0.051232948899269104,-0.2649375422083878,-1.443313376985142,1.8828103255152266,-0.9572771787643433,0.26184898614883423,-0.12270195782184601,-1.1449037790298462,0.8501775860786438,0.3785201907157898
6.10006308555603,-0.08444631099700928,-0.005095839500427246,-0.14384949207305908,-0.27558446260133357,-1.4329313607892542,1.8604957726211195,-0.9531360864639282,0.27210938930511475,-0.13224297761917114,-1.1236597299575806,0.775587797164917,0.37275418639183044
6.120004892349243,-0.04366391897201538,0.036116212606430054,-0.17982137203216553,-0.2847162737449841,-1.4252340320875814,1.839343376587873,-0.9495916962623596,0.28088515996932983,-0.1392093449831009,-0.9887831211090088,0.5723022818565369,0.23365966975688934
6.13997483253479,0.03426861763000488,0.08216485381126404,-0.1815805286169052,-0.28987382053498906,-1.421457419725991,1.823590136676381,-0.9476138949394226,0.2858313024044037,-0.1425771266222,-0.5401023626327515,0.24544109404087067,0.06658945977687836
6.160001993179321,0.08399832248687744,0.09955686330795288,-0.16595453023910522,-0.2904343981808666,-1.420867514689894,1.8185393702992734,-0.9473711848258972,0.2863684594631195,-0.1431121677160263,0.05441151559352875,-0.015796812251210213,-0.07670428603887558
6.180022954940796,0.09523314237594604,0.04891335964202881,-0.12261928617954254,-0.2872980870997975,-1.4217641257749116,1.8232481960312028,-0.9483826756477356,0.28336209058761597,-0.14239534735679626,0.38081586360931396,-0.19805236160755157,-0.16159585118293762
6.199991941452026,0.08215433359146118,0.026555240154266357,-0.07866626977920532,-0.282087366084305,-1.4246830513982858,1.8315777765808288,-0.9502421021461487,0.27836111187934875,-0.1398395597934723,0.4754578173160553,-0.2994592487812042,-0.2450660765171051
6.219990968704224,0.05506634712219238,0.04606741666793823,-0.05100607872009277,-0.27517165823821366,-1.4277018974969093,1.8408459479798667,-0.9525426030158997,0.27171215415000916,-0.13724154233932495,0.5019818544387817,-0.258148193359375,-0.3047338128089905
6.240015983581543,0.05902135372161865,0.05270087718963623,-0.02499920129776001,-0.2678266199342876,-1.4302116254396584,1.8501886385957456,-0.9548344016075134,0.26463615894317627,-0.1351265013217926,0.4872591197490692,-0.2595503628253937,-0.28149133920669556
6.259984970092773,0.05994194746017456,0.05338168144226074,-0.008697926998138428,-0.26150896896729336,-1.433415250437529,1.859314235183512,-0.9568994045257568,0.25853851437568665,-0.1322931945323944,0.4840182960033417,-0.30924636125564575,-0.2253742218017578
6.279942989349365,0.015270888805389404,0.06397950649261475,0.0011704713106155396,-0.2561336685178859,-1.4371660041847076,1.869095197218417,-0.9587523341178894,0.25334224104881287,-0.12888647615909576,0.5225672721862793,-0.30841323733329773,-0.17853505909442902
6.299969911575317,-0.03154498338699341,0.04896928369998932,0.03109109401702881,-0.25207747562534905,-1.4402341995339454,1.8783311307216108,-0.9601542353630066,0.249416321516037,-0.12607698142528534,0.38816022872924805,-0.21118459105491638,-0.11255741864442825
6.31999397277832,-0.051431894302368164,0.010120943188667297,0.059415802359580994,-0.24963547205034484,-1.4414869229703333,1.8836282292499924,-0.9609125852584839,0.24705074727535248,-0.12495224922895432,0.1557084172964096,-0.05965445935726166,-0.0704435333609581
6.339993000030518,-0.03893393278121948,-0.009877786040306091,0.05538523197174072,-0.2486535117922965,-1.4416487608076396,1.8841858135371972,-0.961172878742218,0.2460990995168686,-0.12482792139053345,-0.08084505051374435,0.00548326363787055,-0.014724155887961388
6.359998941421509,-0.02162778377532959,-0.026670828461647034,0.04745633155107498,-0.24922894608554064,-1.441941399363517,1.8811329049147039,-0.9610687494277954,0.24665680527687073,-0.12452840805053711,-0.20053784549236298,0.038803406059741974,0.033007774502038956
6.37999701499939,-0.03142768144607544,-0.032688453793525696,0.034083545207977295,-0.25104594421221055,-1.4420623155813965,1.8768304949416998,-0.9606377482414246,0.24841725826263428,-0.12435446679592133,-0.26121073961257935,0.07128012180328369,0.08157867193222046
6.399992942810059,-0.043785929679870605,-0.03747791051864624,0.03145545721054077,-0.253849040012095,-1.4422585115325945,1.869146561212805,-0.9599677324295044,0.25113150477409363,-0.1240762323141098,-0.5258586406707764,0.1147727370262146,0.09241516143083572
6.419999837875366,-0.03989756107330322,-0.030791491270065308,0.04156404733657837,-0.2574575119623106,-1.4419062029816174,1.8566430175068256,-0.9590190649032593,0.2546226978302002,-0.12429715692996979,-0.6556068658828735,0.22810524702072144,0.10496844351291656
6.439995050430298,-0.00916069746017456,-0.01042640209197998,0.04055163264274597,-0.2605727069619925,-1.4398617305132781,1.8445204161688182,-0.9579717516899109,0.2576339542865753,-0.1261533796787262,-0.5347744822502136,0.29511621594429016,0.09332359582185745
6.459993124008179,0.026751160621643066,-0.020569205284118652,0.05112893879413605,-0.2644551118839226,-1.436276253692512,1.8348551799783086,-0.956514835357666,0.2613833546638489,-0.12945222854614258,-0.49048659205436707,0.3174896240234375,0.18859796226024628
6.480018854141235,0.05745673179626465,-0.08552965521812439,0.08324731886386871,-0.27012283285901456,-1.4333027821485311,1.8222769913676184,-0.9546430110931396,0.2668498158454895,-0.13209067285060883,-0.7753163576126099,0.3105109930038452,0.20500950515270233
6.4999940395355225,0.05198705196380615,-0.1307564675807953,0.09117616713047028,-0.27790502870023337,-1.4319484147960568,1.8066363462114412,-0.9523775577545166,0.2743416726589203,-0.1330920159816742,-0.7804996967315674,0.2515551745891571,0.35955777764320374
6.520004987716675,0.026506900787353516,-0.09503304958343506,0.0734763890504837,-0.2870382163308014,-1.4314164182525524,1.7937594674801463,-0.9497857093811035,0.28311285376548767,-0.13324500620365143,-0.5510373711585999,0.16883544623851776,0.33620068430900574
6.53999400138855,-0.017926454544067383,-0.07271206378936768,0.06376713514328003,-0.2939848193896695,-1.4304051828215227,1.7858746003694321,-0.9476802349090576,0.28976836800575256,-0.13392695784568787,-0.3150448501110077,0.1727185845375061,0.26337555050849915
6.559993028640747,-0.05009818077087402,-0.09606361389160156,0.038843587040901184,-0.29922400044383973,-1.4281364859401908,1.7809269837695116,-0.9458582401275635,0.2947787642478943,-0.13585889339447021,-0.27861759066581726,0.23850905895233154,0.1566891223192215
6.580013990402222,-0.08048611879348755,-0.11443638801574707,0.009066954255104065,-0.3015255207645704,-1.4238909258632606,1.7724041741081293,-0.9445992708206177,0.2969772517681122,-0.1397736817598343,-0.5839322805404663,0.41661736369132996,0.00010631210170686245
6.600036859512329,-0.07377725839614868,-0.10650771856307983,-0.024495601654052734,-0.3038496497636762,-1.41953957687687,1.756763127966108,-0.9432973265647888,0.29919570684432983,-0.1437782496213913,-0.8852667808532715,0.4758101999759674,0.01834561862051487
6.619992017745972,-0.04206287860870361,-0.04675745964050293,-0.08273990452289581,-0.3071649399167882,-1.4160774307675001,1.7381877047706726,-0.9418087005615234,0.3023574948310852,-0.1468895524740219,-0.885661780834198,0.4337855279445648,0.055026933550834656
6.639991998672485,0.009694457054138184,0.0334811806678772,-0.14653444290161133,-0.31029572179125414,-1.4137616208703865,1.722254200673668,-0.9405264258384705,0.3053402602672577,-0.1489214301109314,-0.6395428776741028,0.25951287150382996,0.006256936118006706
6.660041093826294,0.06656390428543091,0.06995651125907898,-0.17905040085315704,-0.3119074485232462,-1.4138575260526176,1.7120734486490128,-0.940053403377533,0.3068746030330658,-0.14875411987304688,-0.3615381419658661,0.05090578272938728,0.03781997784972191
6.679991006851196,0.09062093496322632,0.07546162605285645,-0.1670302152633667,-0.3139957349482768,-1.4154273767459706,1.7072815500972895,-0.9396505355834961,0.30886146426200867,-0.14717869460582733,-0.11840645223855972,-0.04139955714344978,0.10354869067668915
6.699991941452026,0.05321633815765381,0.06889602541923523,-0.1583297997713089,-0.316006378439442,-1.4158415730105773,1.7075891111432957,-0.9390959739685059,0.31077316403388977,-0.14669334888458252,0.10784751176834106,-0.007178381085395813,0.09161091595888138
6.7199928760528564,0.043297529220581055,0.08136725425720215,-0.1255583018064499,-0.316948631078051,-1.4152128922161165,1.7113861572010882,-0.938713788986206,0.31166863441467285,-0.14723826944828033,0.2185722142457962,-0.05895182862877846,0.059586767107248306
6.739994049072266,0.05156373977661133,0.07046002149581909,-0.0868033766746521,-0.3171384454186046,-1.4157908720262349,1.7176227968099385,-0.9387402534484863,0.3118489980697632,-0.14668653905391693,0.35974088311195374,-0.18177957832813263,0.05833372101187706
6.760000944137573,0.033965229988098145,0.07084158062934875,-0.04284505546092987,-0.31712219908539213,-1.4172893363162555,1.7259191524994204,-0.9389639496803284,0.31183356046676636,-0.14528048038482666,0.40201717615127563,-0.22733613848686218,0.058621250092983246
6.7798240184783936,0.02497762441635132,0.05957317352294922,-0.005934596061706543,-0.3170176274262944,-1.4193911613202748,1.7346901127238434,-0.9392995834350586,0.3117341995239258,-0.1433115452528,0.44020962715148926,-0.2724630534648895,0.06637667864561081
6.800002813339233,0.03059208393096924,0.049023985862731934,0.008926913142204285,-0.3175372660124625,-1.4224520389507693,1.7448269333114945,-0.9395735263824463,0.31222790479660034,-0.1404118537902832,0.5051165819168091,-0.33106234669685364,0.11981365084648132
6.819990873336792,0.023395001888275146,0.037010908126831055,0.017631709575653076,-0.3186503237926168,-1.4258490777955302,1.7564740272563526,-0.9397006034851074,0.31328511238098145,-0.1371689885854721,0.576984703540802,-0.3773140013217926,0.15718118846416473
6.8399999141693115,0.015244901180267334,0.010820776224136353,0.02484232187271118,-0.32111609262438395,-1.4294738312534472,1.769214972359066,-0.9394240379333496,0.31562578678131104,-0.1336527019739151,0.5761090517044067,-0.3733347952365875,0.25187933444976807
6.860002040863037,0.0039473772048950195,-0.014687418937683105,0.044566527009010315,-0.325069721096651,-1.4322506737722722,1.7817283907772645,-0.93854820728302,0.31937485933303833,-0.13087019324302673,0.5385773181915283,-0.30669835209846497,0.31100893020629883
6.880023002624512,-0.010388553142547607,-0.025748610496520996,0.044625356793403625,-0.33069325859373094,-1.4341359381779,1.7937405478483717,-0.9369990825653076,0.324698805809021,-0.12885382771492004,0.512193500995636,-0.2606346011161804,0.3911256492137909
6.899996042251587,-0.021846234798431396,-0.03566700220108032,0.04188598692417145,-0.3375419038618799,-1.4353189425622417,1.8055891494556928,-0.9349254965782166,0.3311687111854553,-0.1274419128894806,0.5145249962806702,-0.24468804895877838,0.43840181827545166
6.920083045959473,-0.02305704355239868,-0.057223379611968994,0.03378655016422272,-0.34492105710449666,-1.4362833981984178,1.8176948766090704,-0.9326008558273315,0.3381223976612091,-0.12620899081230164,0.5120558142662048,-0.2624968886375427,0.44764745235443115
6.939993143081665,-0.026868760585784912,-0.07861974835395813,0.03268314152956009,-0.35185683067855866,-1.437374182018465,1.8300486539283554,-0.9303913712501526,0.34464147686958313,-0.12487668544054031,0.5597394704818726,-0.27115392684936523,0.3975769579410553
6.9600279331207275,-0.039475977420806885,-0.08415961265563965,0.014050908386707306,-0.35727604543875907,-1.4383548410331073,1.8427290578144495,-0.9286483526229858,0.34972357749938965,-0.12371577322483063,0.546482503414154,-0.2716672122478485,0.28865212202072144
6.979995965957642,-0.04181331396102905,-0.08778920769691467,0.002182304859161377,-0.3599300920117386,-1.4393869903696157,1.8557358057101467,-0.927852213382721,0.35220879316329956,-0.12263516336679459,0.6143575310707092,-0.27965882420539856,0.16000670194625854
6.9999940395355225,-0.024579882621765137,-0.09095022082328796,-0.0006463527679443359,-0.3612699113207364,-1.440905825615162,1.868567398684229,-0.9275686144828796,0.35346245765686035,-0.12116453051567078,0.5547529458999634,-0.3271887004375458,0.12588436901569366
7.019991159439087,-0.03333014249801636,-0.10436132550239563,-0.0014628171920776367,-0.3623289084685688,-1.4438235207003953,1.8799371860297738,-0.9275463223457336,0.354452908039093,-0.11841018497943878,0.504173755645752,-0.36177730560302734,0.11703520268201828
7.039993047714233,-0.05459940433502197,-0.09198284149169922,-0.013433508574962616,-0.36317373320464374,-1.4467690000297657,1.8910841912045186,-0.9275935292243958,0.3552427291870117,-0.11564051359891891,0.5268235206604004,-0.3320239186286926,0.09654325246810913
7.059527158737183,-0.05105006694793701,-0.06437745690345764,-0.020087651908397675,-0.3635630961824833,-1.4493839000690345,1.902965446692454,-0.9277554154396057,0.35560667514801025,-0.11319780349731445,0.5737819671630859,-0.35893091559410095,0.07011846452951431
7.080025911331177,-0.03074955940246582,-0.05773800611495972,-0.01839720457792282,-0.3634794866024417,-1.4520387523547695,1.9153457034608683,-0.9280822277069092,0.3555285334587097,-0.1107378751039505,0.5680755972862244,-0.3420408070087433,0.07347416877746582
7.100076913833618,-0.013829410076141357,-0.07135415077209473,0.0031955912709236145,-0.36402395327895676,-1.453771711905257,1.927923726291688,-0.9280803203582764,0.3560373783111572,-0.10910676419734955,0.6106369495391846,-0.2685845196247101,0.1259952336549759
7.120002031326294,0.019407331943511963,-0.07070887088775635,0.015230484306812286,-0.36535852574289535,-1.4532393309330862,1.9421803232223198,-0.9275493621826172,0.35728418827056885,-0.10954500734806061,0.6902102828025818,-0.20185332000255585,0.1615711897611618
7.139991998672485,0.0721365213394165,-0.07033628225326538,-0.0005358979105949402,-0.3670840179716407,-1.4521119349433318,1.9575290239228431,-0.9268117547035217,0.3588952422142029,-0.11051749438047409,0.7142956852912903,-0.25374218821525574,0.18144650757312775
7.160002946853638,0.1276828646659851,-0.08616167306900024,0.0035303309559822083,-0.36926137163543593,-1.4528440837538745,1.973300408435203,-0.9261142611503601,0.36092668771743774,-0.10974668711423874,0.730065643787384,-0.40322422981262207,0.21009941399097443
7.1800010204315186,0.14653867483139038,-0.09179461002349854,0.017884977161884308,-0.3717685345372193,-1.4570691781270173,1.990398554292246,-0.9256676435470581,0.36326372623443604,-0.10572976619005203,0.8358584642410278,-0.6474918723106384,0.21527166664600372
7.1999640464782715,0.06430220603942871,-0.07191964983940125,0.018206462264060974,-0.3729885977326514,-1.4652229048319947,2.0099547200317733,-0.9260576963424683,0.364400178194046,-0.0981319397687912,0.9869797229766846,-0.8550106287002563,0.06913695484399796
7.219995975494385,-0.08293896913528442,-0.03888434171676636,0.004046089947223663,-0.36918988225663113,-1.4742434984947976,2.03339176218835,-0.9282761216163635,0.36086001992225647,-0.08990724384784698,1.2179749011993408,-0.8756606578826904,-0.23938506841659546
7.240034818649292,-0.17954009771347046,0.015666991472244263,-0.00875544548034668,-0.35816812360427136,-1.4818806598538214,2.060217001465083,-0.9328409433364868,0.35055920481681824,-0.08316345512866974,1.394024133682251,-0.8584327101707458,-0.6248922348022461
7.259994983673096,-0.16028636693954468,0.06185352802276611,-0.017492949962615967,-0.3403554328819501,-1.4888844797466438,2.089854447096561,-0.9394755959510803,0.3338221609592438,-0.07712675631046295,1.5175420045852661,-0.8579010367393494,-0.88691645860672
7.28000283241272,-0.08613526821136475,0.08807152509689331,-0.00815456360578537,-0.3194809549058403,-1.4960466732199773,2.119489237793057,-0.9467474222183228,0.3140738308429718,-0.07090114057064056,1.404159426689148,-0.8198954463005066,-0.9670957922935486
7.300034046173096,-0.03138613700866699,0.08213645219802856,-0.0026557371020317078,-0.2983695439615709,-1.5040814616707459,2.1448478655481535,-0.953690767288208,0.29396218061447144,-0.06371991336345673,1.1684917211532593,-0.7520864605903625,-0.9553924798965454
7.320004940032959,-0.0015447735786437988,0.10728362202644348,-0.022437389940023422,-0.27879065688795,-1.5120130641007303,2.1661586671054858,-0.9597283601760864,0.2751932144165039,-0.05648103356361389,1.0199538469314575,-0.6508176326751709,-0.8733200430870056
7.339998960494995,0.017201244831085205,0.16009396314620972,-0.08320432901382446,-0.2611536304730043,-1.5191082508854417,2.1857983974894357,-0.9648025631904602,0.25819525122642517,-0.04991324618458748,1.0057752132415771,-0.6074855923652649,-0.7922918796539307
7.359995126724243,0.036425113677978516,0.20778030157089233,-0.12739795446395874,-0.24549925780361617,-1.5259834226851163,2.2066347951853675,-0.9690422415733337,0.24304063618183136,-0.04345468804240227,1.0921859741210938,-0.6011543869972229,-0.6703508496284485
7.380002021789551,0.061244428157806396,0.24977073073387146,-0.07946014404296875,-0.23262254514418976,-1.5331920038293823,2.2282342658950482,-0.9723774194717407,0.23053021728992462,-0.036582838743925095,1.1230995655059814,-0.6494690179824829,-0.5273908972740173
7.400025129318237,0.03336596488952637,0.27009063959121704,-0.11380201578140259,-0.22297874000176277,-1.5397201888166876,2.254812530370952,-0.9747721552848816,0.22113560140132904,-0.030301908031105995,1.590572476387024,-0.6021500825881958,-0.3575664162635803
7.420035123825073,0.002088606357574463,0.33528414368629456,-0.19418621063232422,-0.21574793878752835,-1.5429748278111808,2.2961512141581,-0.976438581943512,0.21407808363437653,-0.02717299573123455,2.493757486343384,-0.6543080806732178,-0.2552488148212433
7.440001964569092,0.033153235912323,0.3639681935310364,-0.1810152530670166,-0.21050481770905555,-1.5448299601358426,2.3521814149180558,-0.9775959849357605,0.2089536041021347,-0.025390323251485825,2.8525469303131104,-0.6785159111022949,-0.13159000873565674
7.4599950313568115,0.03338366746902466,0.2460635006427765,-0.06894934177398682,-0.20730727334151774,-1.5452320173874696,2.406745982959484,-0.9782689809799194,0.2058255821466446,-0.02501421980559826,2.403261423110962,-0.4381296634674072,-0.06380384415388107
7.480026006698608,-0.021341145038604736,0.13197258114814758,-0.02586418390274048,-0.2055777591073547,-1.5414423913656512,2.4477625204328226,-0.9785215258598328,0.2041327804327011,-0.028731711208820343,1.6325249671936035,-0.050309691578149796,0.004791927523910999
7.500023126602173,-0.011432945728302002,0.09253780543804169,-0.016773875802755356,-0.20573981021355858,-1.534988739961897,2.4727566199915545,-0.978282630443573,0.2042914181947708,-0.035044919699430466,0.8169242143630981,0.15181952714920044,0.0765300765633583
7.51999306678772,0.04554390907287598,0.11061055958271027,0.022486388683319092,-0.20738590997321427,-1.529016020591837,2.4840572529478915,-0.9777185916900635,0.20590253174304962,-0.04087316617369652,0.3706367313861847,0.2030390352010727,0.1416478306055069
7.540081977844238,0.05128556489944458,0.15921978652477264,-0.00044232234358787537,-0.21029246386460887,-1.5233311465232888,2.49052192794308,-0.9768684506416321,0.20874592661857605,-0.046402089297771454,0.2816093862056732,0.2360592931509018,0.1547742784023285
7.559373140335083,0.058040618896484375,0.1858702152967453,0.014793813228607178,-0.2126558875502579,-1.5172031311646632,2.496667635905979,-0.9760704636573792,0.2110566943883896,-0.05236087739467621,0.3071155548095703,0.2564876079559326,0.13063006103038788
7.5800230503082275,0.09074586629867554,0.16424371302127838,0.04289143532514572,-0.21539345411619681,-1.5107191128576514,2.5030326037422657,-0.9751301407814026,0.2137318104505539,-0.058653682470321655,0.31198540329933167,0.24400191009044647,0.17756880819797516
7.60000205039978,0.11721152067184448,0.1568315029144287,0.0688139796257019,-0.2189055725250165,-1.5047540299681583,2.509790042833381,-0.974007785320282,0.21716144680976868,-0.06441939622163773,0.3245193660259247,0.22245019674301147,0.21582497656345367
7.619992971420288,0.11570733785629272,0.15267111361026764,0.08709292858839035,-0.22302892899787716,-1.4987497179229639,2.5165710041978278,-0.9727020859718323,0.22118453681468964,-0.07020138949155807,0.3039618134498596,0.2325519323348999,0.22927656769752502
7.639992952346802,0.11790460348129272,0.137037456035614,0.08553534001111984,-0.22723303010922977,-1.4929646240389332,2.5228122382100566,-0.9713440537452698,0.22528254985809326,-0.07575439661741257,0.2711675465106964,0.20639675855636597,0.24397197365760803
7.660002946853638,0.140691876411438,0.1323016881942749,0.08234262466430664,-0.23215918794242665,-1.4885842227633843,2.5282919153031234,-0.969884991645813,0.23007932305335999,-0.07991641014814377,0.24085789918899536,0.1029171422123909,0.28645050525665283
7.680000066757202,0.13779771327972412,0.13529516756534576,0.07764959335327148,-0.23763204903669238,-1.486232105339306,2.5339820846640313,-0.9684251546859741,0.23540188372135162,-0.08208989351987839,0.2785114645957947,0.012651250697672367,0.3026901185512543
7.700016975402832,0.08725392818450928,0.1380627602338791,0.0748288631439209,-0.24303050319868513,-1.4844767886501118,2.5407387245338344,-0.9669994115829468,0.240645170211792,-0.08367887884378433,0.3228212296962738,0.017293673008680344,0.2796327769756317
7.720033884048462,0.03300344944000244,0.1270405799150467,0.09628361463546753,-0.2477550104379641,-1.4815293391491444,2.5473281320714185,-0.9656053781509399,0.2452281415462494,-0.08642636984586716,0.2360946089029312,0.10980532318353653,0.25911036133766174
7.740134000778198,0.019833385944366455,0.1020432710647583,0.1194634959101677,-0.252703862473511,-1.478724038928689,2.5505266209560022,-0.964138925075531,0.25002285838127136,-0.08902217447757721,0.0314917266368866,0.07586262375116348,0.2740984857082367
7.760004997253418,-0.0017227530479431152,0.0752023458480835,0.11936307698488235,-0.2588713651953085,-1.478061085297527,2.549986374462523,-0.9625259041786194,0.2559897005558014,-0.08951682597398758,-0.14296196401119232,0.015051291324198246,0.32121366262435913
7.780009031295776,-0.057093679904937744,0.07707551121711731,0.11235111951828003,-0.2650204993393727,-1.478424229876653,2.546670716668678,-0.960972785949707,0.26192906498908997,-0.08902040868997574,-0.2091001272201538,0.04031794145703316,0.2582908868789673
7.800040006637573,-0.059637367725372314,0.0679534375667572,0.10815174132585526,-0.27036564758390946,-1.4780054437375347,2.5429871399193167,-0.9595276117324829,0.2670838236808777,-0.08929183334112167,-0.19582359492778778,0.10695067793130875,0.2575649619102478
7.820020914077759,-0.0009404420852661133,0.039541542530059814,0.0996248722076416,-0.2766097476928641,-1.4762780626036145,2.5397453454676304,-0.9576930403709412,0.27309584617614746,-0.09079000353813171,-0.1722508668899536,0.15164197981357574,0.33119621872901917
7.8399341106414795,0.05547815561294556,-0.0007554888725280762,0.08483434468507767,-0.28405532223967733,-1.4732690253567657,2.5374557794488735,-0.9553651809692383,0.28025075793266296,-0.0934707298874855,-0.132944256067276,0.20546188950538635,0.4101546108722687
7.859939813613892,0.10562312602996826,-0.04097944498062134,0.06828755140304565,-0.29368785713825835,-1.469774945463078,2.536769288362972,-0.952302873134613,0.2894841432571411,-0.09653155505657196,0.02397652342915535,0.14672960340976715,0.536113440990448
7.87993311882019,0.08640176057815552,-0.08558619022369385,0.014022767543792725,-0.305111431273686,-1.4661889963026522,2.5421376404442726,-0.948599636554718,0.30039945244789124,-0.09959401190280914,0.3534190058708191,0.050523266196250916,0.645832896232605
7.899143934249878,-0.046829164028167725,-0.1227315366268158,-0.02659761905670166,-0.31718664543896946,-1.4623416817186534,2.551919093344735,-0.944534420967102,0.3118947744369507,-0.10284268856048584,0.3831444978713989,0.06699100881814957,0.6420797109603882
7.9199440479278564,-0.27399617433547974,-0.21120703220367432,-0.05365133285522461,-0.3288902404360975,-1.4558948493940058,2.5587437963808073,-0.9401609301567078,0.3229929506778717,-0.1085038036108017,0.0759100392460823,0.46525847911834717,0.5793676376342773
7.93994402885437,-0.42893552780151367,-0.2798480689525604,-0.01972126215696335,-0.34002770195176985,-1.4420325211521585,2.552465763011365,-0.934940755367279,0.33351320028305054,-0.12105631083250046,-0.9287843704223633,1.074267029762268,0.4794693887233734
7.96001410484314,-0.3369240164756775,-0.38660290837287903,0.011791601777076721,-0.35449108652858663,-1.4291154484464814,2.520742972125189,-0.9284262657165527,0.34711313247680664,-0.13242752850055695,-2.1797783374786377,1.2434800863265991,0.595708429813385
7.979961156845093,-0.1634417176246643,-0.4057154655456543,-0.022775813937187195,-0.3764423779431833,-1.424237973227749,2.4692171558250395,-0.9200084805488586,0.3676142990589142,-0.13580869138240814,-2.7580602169036865,1.048877477645874,0.8324617147445679
7.9999611377716064,-0.10970604419708252,-0.28172826766967773,-0.10193049907684326,-0.40033840544432375,-1.4249560348095163,2.41483484728102,-0.911152720451355,0.3897300064563751,-0.13383297622203827,-2.5238149166107178,0.9427064657211304,0.8017441630363464
8.01996111869812,-0.10981649160385132,-0.15512284636497498,-0.16377781331539154,-0.4201193566995261,-1.4248731020118535,2.370232366665623,-0.9033365249633789,0.407869428396225,-0.13276143372058868,-1.7999933958053589,0.861175000667572,0.5248804092407227
8.03999400138855,-0.11121147871017456,-0.12325325608253479,-0.20558904111385345,-0.4326620546322778,-1.4197527600758948,2.3398979572659657,-0.8975164890289307,0.4192890524864197,-0.13660451769828796,-1.1650058031082153,0.9131845831871033,0.37568333745002747
8.059201002120972,-0.06173640489578247,-0.16950085759162903,-0.1895550936460495,-0.44319061825464234,-1.4097189345057102,2.317944490523983,-0.8916937112808228,0.4288240075111389,-0.14488694071769714,-1.0683456659317017,0.99835205078125,0.35270240902900696
8.079994916915894,-0.023495912551879883,-0.2541179060935974,-0.1572304368019104,-0.45376491429586724,-1.4003272396518904,2.2928320554320463,-0.8857753276824951,0.4383525550365448,-0.15247716009616852,-1.3764692544937134,1.0143038034439087,0.3062191903591156
8.100001096725464,0.01812922954559326,-0.2387557327747345,-0.12754547595977783,-0.4637244887467645,-1.3959377174634398,2.259758426594311,-0.8807544112205505,0.4472823441028595,-0.1555965542793274,-1.6920804977416992,0.8702110648155212,0.1821257621049881
8.119989156723022,0.06802988052368164,-0.16849258542060852,-0.09072472155094147,-0.4723971280322118,-1.3977002099167584,2.2221557810075607,-0.8771730661392212,0.4550221860408783,-0.15337009727954865,-1.7204598188400269,0.6475205421447754,0.07753820717334747
8.140027046203613,0.0729132890701294,-0.09747162461280823,-0.06995205581188202,-0.4774512254465291,-1.4028874798147613,2.18747693346735,-0.8756781220436096,0.4595169425010681,-0.1484316736459732,-1.3775967359542847,0.434347003698349,-0.10035932809114456
8.159993886947632,0.06074458360671997,-0.02445855736732483,-0.05257326364517212,-0.477296885856984,-1.4074654083180165,2.162398513203031,-0.8764184713363647,0.4593798518180847,-0.14443287253379822,-0.7868348956108093,0.2824779450893402,-0.2705174684524536
8.179992914199829,0.035903096199035645,0.00930437445640564,-0.046602070331573486,-0.4728066093656463,-1.4081177089349253,2.150015853622407,-0.8785392045974731,0.45538678765296936,-0.14419379830360413,-0.30310001969337463,0.22949905693531036,-0.35243117809295654
8.19999384880066,0.01955491304397583,0.0007717311382293701,-0.02773606777191162,-0.46620542010272686,-1.4075343323842036,2.1423744206091317,-0.8814018368721008,0.4494999051094055,-0.1451917141675949,-0.3288858234882355,0.17202413082122803,-0.41017088294029236
8.220019102096558,0.02209150791168213,-0.029174119234085083,-0.010821506381034851,-0.4595976347862843,-1.4089476705366664,2.1314990047781026,-0.8845182657241821,0.4435875415802002,-0.14442133903503418,-0.5198895931243896,0.17274415493011475,-0.3865177631378174
