timestamp,acceleration_x,acceleration_y,acceleration_z,attitude_pitch,attitude_roll,attitude_yaw,gravity_x,gravity_y,gravity_z,rotation_x,rotation_y,rotation_z
0.0,-0.2150213122367859,1.2993624210357666,-0.19273394346237183,0.1567850048987754,-1.5614965933596725,-0.5069879117817424,-0.9876918792724609,-0.156143456697464,-0.009185535833239555,2.2860147953033447,-0.4781307578086853,2.3670406341552734
0.01932668685913086,-0.29678016901016235,1.158503532409668,-0.11111605167388916,0.10520026313479802,-1.577518540987594,-0.45437249581249,-0.9944491982460022,-0.10500632971525192,0.006685000844299793,2.9234297275543213,-0.42738616466522217,2.7882466316223145
0.039650917053222656,-0.40760505199432373,0.9860062003135681,-0.038791775703430176,0.04582149120987727,-1.5882909112291619,-0.3919294255187155,-0.9987975358963013,-0.04580545797944069,0.01747533120214939,3.370776891708374,-0.1531115472316742,3.060645818710327
0.059050798416137695,-0.5162758827209473,0.8382059335708618,-0.01924288459122181,-0.01820980841801409,-1.5889446593253322,-0.3225435559018279,-0.9996695518493652,0.018208801746368408,0.018144328147172928,3.6951539516448975,0.14399895071983337,3.2021353244781494
0.08021974563598633,-0.568955659866333,0.7183911800384521,-0.04306137561798096,-0.08392282408210709,-1.5810418298387945,-0.24672153842683034,-0.9964283108711243,0.08382434397935867,0.010209266096353531,3.9943430423736572,0.2520431876182556,3.260908842086792
0.10115194320678711,-0.6092299222946167,0.6124944686889648,-0.008922874927520752,-0.1497373929595909,-1.5648054556411897,-0.16395528939845427,-0.9887925982475281,0.14917847514152527,-0.0059238001704216,4.2457356452941895,0.4370693266391754,3.296931505203247
0.12214899063110352,-0.6550625562667847,0.4725155830383301,0.07820689678192139,-0.21500437247815435,-1.5357827502526338,-0.07539485408836062,-0.9763768315315247,0.21335169672966003,-0.03420042246580124,4.3229899406433105,0.869171679019928,3.283092975616455
0.14008283615112305,-0.6218624114990234,0.30967044830322266,0.19805556535720825,-0.2764325266103527,-1.4914597431675267,0.014876681276033477,-0.9590092897415161,0.27292534708976746,-0.07624455541372299,4.0306010246276855,1.31202232837677,3.3556878566741943
0.15950989723205566,-0.5658559799194336,0.1852622628211975,0.2794996500015259,-0.3365423066993864,-1.4370428881579764,0.10099705165975428,-0.9354715943336487,0.3302253484725952,-0.12587407231330872,3.5072779655456543,1.5063362121582031,3.509693145751953
0.17995381355285645,-0.6120262742042542,0.07828313112258911,0.36098361015319824,-0.3964196193106241,-1.3754840386143228,0.1809386966458671,-0.9049111008644104,0.3861181139945984,-0.17902244627475739,2.859585762023926,1.8378489017486572,3.61236572265625
0.19994497299194336,-0.6447724103927612,-0.05721452832221985,0.49582159519195557,-0.4566655599695338,-1.3061917368723008,0.2508388750832422,-0.8662903308868408,0.44095781445503235,-0.2347283512353897,1.9704325199127197,2.1937663555145264,3.714120388031006
0.21994400024414062,-0.6267439723014832,-0.1883353292942047,0.575858473777771,-0.5192653212371915,-1.232884782855355,0.30938261805928396,-0.8190874457359314,0.4962424337863922,-0.28781819343566895,1.1696230173110962,2.344951629638672,3.786591053009033
0.23993587493896484,-0.6563582420349121,-0.19785970449447632,0.5670052766799927,-0.5816907331457077,-1.1591757029285115,0.3627146393362615,-0.7657456994056702,0.549437403678894,-0.3342934250831604,0.8544467091560364,2.220492124557495,3.675764322280884
0.25994300842285156,-0.7272112965583801,-0.15936869382858276,0.5756809711456299,-0.6379961411729801,-1.0838945489325993,0.41900582222798854,-0.7099378108978271,0.5955869555473328,-0.37585175037384033,0.8900599479675293,2.1300292015075684,3.403756856918335
0.2799558639526367,-0.7349215745925903,-0.2541716694831848,0.6634924411773682,-0.6861736286510374,-1.0044154580788152,0.4784225076084084,-0.6528652906417847,0.6335814595222473,-0.415140300989151,0.7064806222915649,2.166898488998413,3.1406478881835938
0.29996395111083984,-0.6583003401756287,-0.40403199195861816,0.7453427910804749,-0.7297476026455184,-0.9244077994144576,0.5355744195550513,-0.5949804186820984,0.6666815280914307,-0.4489254355430603,0.35976123809814453,2.09552264213562,2.9362165927886963
0.31996679306030273,-0.5818904042243958,-0.4724363088607788,0.7459297776222229,-0.7702905688856203,-0.8484296693324034,0.5893562443309247,-0.5384557843208313,0.6963438391685486,-0.47452160716056824,0.19019247591495514,1.831308126449585,2.689882516860962
0.34015369415283203,-0.533955454826355,-0.5207419395446777,0.7011614441871643,-0.8035259033007484,-0.7769797874343157,0.643227047566957,-0.4867050349712372,0.7198081612586975,-0.49496933817863464,0.3157643973827362,1.5040627717971802,2.3436429500579834
0.35999202728271484,-0.46979278326034546,-0.580423891544342,0.6688060760498047,-0.8262903136376246,-0.7110454194421223,0.6976338388663919,-0.4422251582145691,0.7354227304458618,-0.5134105086326599,0.5562328100204468,1.1105929613113403,1.9441845417022705
0.3799889087677002,-0.4235784709453583,-0.6257480978965759,0.6324412226676941,-0.8373315258805331,-0.6551371554972737,0.7502694567755793,-0.4078730344772339,0.7428593635559082,-0.5308481454849243,0.830118715763092,0.5824304223060608,1.493245244026184
0.39998769760131836,-0.4304225742816925,-0.6314131021499634,0.6200963258743286,-0.8359936970313252,-0.6131739525812605,0.797664930718634,-0.38581594824790955,0.7419630885124207,-0.5483036637306213,1.138358235359192,0.11021142452955246,0.9916355609893799
0.4199867248535156,-0.4872593581676483,-0.6555105447769165,0.6453598737716675,-0.8249149747329361,-0.5856598250043525,0.8356360417907469,-0.37510645389556885,0.7344900965690613,-0.5655258297920227,1.1744991540908813,-0.0960615873336792,0.49878084659576416
0.4400608539581299,-0.5210212469100952,-0.7280853986740112,0.7132253646850586,-0.8116373548340621,-0.5694469181949967,0.8581049510665413,-0.37111449241638184,0.7254151701927185,-0.5796956419944763,0.7106878757476807,0.10491510480642319,0.05652722716331482
0.4599888324737549,-0.4348486661911011,-0.8068639636039734,0.7409955859184265,-0.8042800985731852,-0.5656244861534606,0.8598307546521438,-0.371746301651001,0.7203314900398254,-0.5856000185012817,0.027775898575782776,0.06453483551740646,-0.35475417971611023
0.47998785972595215,-0.33043429255485535,-0.8417516946792603,0.6631079912185669,-0.80138937382178,-0.5820479496057608,0.84447734205177,-0.3824564218521118,0.7183234095573425,-0.5811529755592346,-0.30765122175216675,-0.7149471044540405,-0.7054063677787781
0.4999878406524658,-0.42528679966926575,-0.6937951445579529,0.5856016278266907,-0.7963911262394799,-0.624008601072229,0.8162502702568053,-0.4085909128189087,0.7148370742797852,-0.5675046443939209,-0.3853626251220703,-1.3183766603469849,-1.2577879428863525
0.5199856758117676,-0.687793493270874,-0.5008322596549988,0.5818445682525635,-0.7838800664930415,-0.6806290568046606,0.7709428616635119,-0.44564467668533325,0.7060325145721436,-0.5503808856010437,-0.6159875392913818,-1.025146484375,-2.0442676544189453
0.5399909019470215,-0.7461156845092773,-0.47396355867385864,0.6078256964683533,-0.7675959195416624,-0.7439738521914023,0.7047607086420615,-0.4873133599758148,0.6944072842597961,-0.5294564962387085,-1.2949154376983643,-0.8063761591911316,-2.531827688217163
0.5590877532958984,-0.5615277290344238,-0.4718986749649048,0.5061187744140625,-0.7533309102462733,-0.8222053237782009,0.6219477764773538,-0.5344043970108032,0.6840721368789673,-0.49644461274147034,-1.8598779439926147,-1.3614825010299683,-2.7265965938568115
0.5800700187683105,-0.540172278881073,-0.3087611794471741,0.3692382574081421,-0.7347814378056143,-0.9135830912862187,0.532838756518583,-0.5874217748641968,0.6704249978065491,-0.45328354835510254,-1.8764013051986694,-1.6498918533325195,-2.9542174339294434
0.6000208854675293,-0.605482280254364,-0.2051648497581482,0.2789309322834015,-0.7051029471752754,-1.0032521817494684,0.44607031004094133,-0.6421526670455933,0.6481122374534607,-0.40937820076942444,-1.7971712350845337,-1.5833477973937988,-3.235836982727051
0.6199889183044434,-0.537142276763916,-0.1885969042778015,0.2533877193927765,-0.6665579367137304,-1.0869941282574085,0.3626637121101335,-0.6957526803016663,0.6182843446731567,-0.36558544635772705,-1.880072832107544,-1.532655954360962,-3.308534622192383
0.6414968967437744,-0.4589306712150574,-0.12745267152786255,0.21036484837532043,-0.6239429361238149,-1.1654387654824552,0.2835784794644372,-0.7458118200302124,0.5842397212982178,-0.3200449049472809,-1.9984639883041382,-1.5366548299789429,-3.2854979038238525
0.6599807739257812,-0.48193812370300293,-0.030383169651031494,0.17437291145324707,-0.5769546725707517,-1.2366595904292692,0.20883394793237542,-0.7917741537094116,0.545474112033844,-0.2748671770095825,-2.0998573303222656,-1.3447293043136597,-3.344554901123047
0.6799938678741455,-0.4775278568267822,0.02687281370162964,0.1734580397605896,-0.5265589374772631,-1.3001899684520928,0.13467231103861493,-0.8330801725387573,0.5025613903999329,-0.23110564053058624,-2.4876556396484375,-1.1458650827407837,-3.360642671585083
0.7000017166137695,-0.44836175441741943,0.06526324152946472,0.18526309728622437,-0.47479026159966164,-1.3596226551559665,0.0554404802908665,-0.8696314692497253,0.4571519196033478,-0.1864226758480072,-3.056129217147827,-1.0107029676437378,-3.3512022495269775
0.7200689315795898,-0.456945538520813,0.1689966320991516,0.11383436620235443,-0.4195764075720032,-1.414893917405576,-0.029026204445185347,-0.9021854996681213,0.4073736369609833,-0.14180363714694977,-3.37125301361084,-0.8748854994773865,-3.497271776199341
0.7400670051574707,-0.4206390380859375,0.3165990710258484,-0.006057143211364746,-0.35738806117420463,-1.4632017981783647,-0.11052754647034767,-0.9313966035842896,0.3498285412788391,-0.1006016880273819,-3.2523751258850098,-0.8867592811584473,-3.6702592372894287
0.7600007057189941,-0.32923299074172974,0.48312294483184814,-0.09734970331192017,-0.2886768078025766,-1.5038280494186356,-0.1812887578320494,-0.956472635269165,0.28468403220176697,-0.06414925307035446,-2.796133279800415,-0.9049663543701172,-3.7708277702331543
0.7800006866455078,-0.2802841067314148,0.617155909538269,-0.2247576117515564,-0.21568926809219224,-1.5367165611211868,-0.23652456309239434,-0.9762619733810425,0.214020773768425,-0.03328366577625275,-2.201594829559326,-0.9725119471549988,-3.7793684005737305
0.8001008033752441,-0.25141727924346924,0.7625645399093628,-0.311992347240448,-0.1421186089950416,-1.5626380676751257,-0.2768065181020965,-0.9898852705955505,0.14164067804813385,-0.008075919933617115,-1.629482626914978,-0.8693715333938599,-3.6616556644439697
0.8195528984069824,-0.1888633370399475,0.8376806974411011,-0.35739386081695557,-0.07105518603918966,-1.5818285796105829,-0.3047664571844688,-0.9974160194396973,0.07099541276693344,0.0110041918233037,-1.2278109788894653,-0.7277308702468872,-3.4116621017456055
0.8399918079376221,-0.11737769842147827,0.9299076199531555,-0.4063117504119873,-0.005776536033942461,-1.595732965922103,-0.3266943743786819,-0.999672532081604,0.0057765040546655655,0.024933641776442528,-1.1164419651031494,-0.5387512445449829,-3.0310070514678955
0.8600568771362305,-0.026842236518859863,1.019013524055481,-0.46759772300720215,0.05085012587387203,-1.6050650457126132,-0.34660901681100664,-0.9981212019920349,-0.05082821473479271,0.03421773016452789,-1.0513172149658203,-0.42912113666534424,-2.5049335956573486
0.8800086975097656,0.08622622489929199,1.0788382291793823,-0.48820436000823975,0.09524808858517729,-1.611871768511181,-0.3658288826207236,-0.9946277737617493,-0.09510413557291031,0.04087776690721512,-1.0432636737823486,-0.3774954080581665,-1.8370585441589355
0.9000077247619629,0.14566946029663086,1.1237525939941406,-0.4995095729827881,0.12660837396696628,-1.6171565724336172,-0.3846240862660701,-0.9909300804138184,-0.12627039849758148,0.04597270116209984,-0.9276291131973267,-0.35812923312187195,-1.2282586097717285
0.9199910163879395,0.16607624292373657,1.172333836555481,-0.502865195274353,0.14604283509782265,-1.6218188349582188,-0.39880734366824494,-0.9880672097206116,-0.14552424848079681,0.050457458943128586,-0.535108745098114,-0.29350224137306213,-0.6524229049682617
0.9399857521057129,0.1794230341911316,1.181447982788086,-0.4945816993713379,0.1542575192871092,-1.626972162322606,-0.40354564738628496,-0.9865671992301941,-0.15364648401737213,0.05547960847616196,0.02805105596780777,-0.30561918020248413,-0.1613268107175827
0.9600687026977539,0.1735210418701172,1.1660455465316772,-0.47853612899780273,0.15275346323986147,-1.6346526134761556,-0.39707082785092024,-0.9863414764404297,-0.15216010808944702,0.06306985020637512,0.6160373091697693,-0.36180928349494934,0.26623672246932983
0.9799857139587402,0.12184751033782959,1.1272791624069214,-0.4349966049194336,0.14217731929664276,-1.644542759168921,-0.38114182727870427,-0.9872193336486816,-0.14169879257678986,0.07293616980314255,1.005111813545227,-0.3774847388267517,0.6595197916030884
0.9999918937683105,0.03300529718399048,1.0341366529464722,-0.34536707401275635,0.12413115151184806,-1.6528326068778516,-0.36054389565060185,-0.9889684319496155,-0.12381261587142944,0.08131378144025803,1.141597867012024,-0.18117469549179077,1.0032187700271606
1.019986867904663,-0.04853510856628418,0.9683244228363037,-0.2783207893371582,0.09798257737089168,-1.658810792448464,-0.33926320396304244,-0.9913513660430908,-0.09782586991786957,0.08747926354408264,1.2429344654083252,-0.21298402547836304,1.4066537618637085
1.0399847030639648,-0.270990788936615,1.0083098411560059,-0.34552276134490967,0.06582209596984992,-1.6633247932052522,-0.3124942368122461,-0.9935660362243652,-0.0657745748758316,0.09219640493392944,1.7976974248886108,0.06957690417766571,1.5224192142486572
1.0599846839904785,-0.40340614318847656,1.031935453414917,-0.3489784002304077,0.030628090558939218,-1.6593883096307898,-0.2727399189068728,-0.9956112504005432,-0.03062330186367035,0.08843465894460678,2.4204020500183105,0.46467965841293335,1.6811738014221191
1.0800046920776367,-0.2589762806892395,0.8801360726356506,-0.1880176067352295,-0.012045546918033131,-1.650015870874273,-0.22620880667045368,-0.9967916011810303,0.012045255862176418,0.07913098484277725,2.519340991973877,0.46964511275291443,2.249788284301758
1.0999836921691895,-0.2537825107574463,0.6792463064193726,-0.018573157489299774,-0.0669278898743092,-1.6383544059705244,-0.1805412196568901,-0.9954853057861328,0.06687793880701065,0.06735558062791824,2.4293251037597656,0.5909927487373352,2.843010187149048
1.1199848651885986,-0.5012721419334412,0.5907801389694214,0.06882762908935547,-0.12882944411827454,-1.6182858841423422,-0.13809899853629973,-0.9905950427055359,0.12847337126731873,0.047078315168619156,2.1770179271698,1.0249130725860596,3.0711843967437744
1.1401019096374512,-0.6539489030838013,0.514718770980835,0.13205134868621826,-0.19395339735360714,-1.587885313902766,-0.09775403876499643,-0.9811066389083862,0.19273966550827026,0.016767751425504684,2.028266668319702,1.3182705640792847,3.312373638153076
1.160019874572754,-0.6390737891197205,0.4135796129703522,0.19399917125701904,-0.26350079435271173,-1.5510725546020971,-0.05766303018281673,-0.9652964472770691,0.26046210527420044,-0.01904175616800785,1.8893805742263794,1.3832285404205322,3.593997001647949
1.17995285987854,-0.5853865146636963,0.2798611521720886,0.23905229568481445,-0.33637049640307704,-1.5111047474694812,-0.015932561378331947,-0.9422778487205505,0.3300631642341614,-0.05631295219063759,1.816512942314148,1.3900095224380493,3.842648983001709
1.1997647285461426,-0.557397723197937,0.16281363368034363,0.28230971097946167,-0.41129118150721045,-1.466204617845672,0.02944365726820712,-0.9115965366363525,0.39979317784309387,-0.0956946387887001,1.7774969339370728,1.4355053901672363,3.984138011932373
1.2200326919555664,-0.5359706878662109,0.046859800815582275,0.29782819747924805,-0.4867871678746862,-1.4159842502403115,0.0806656429244403,-0.8732702136039734,0.4677886664867401,-0.136283278465271,1.8070546388626099,1.4039088487625122,4.107823848724365
1.239926815032959,-0.5185514092445374,-0.024643242359161377,0.3598794937133789,-0.5604539069325815,-1.3583742096714375,0.1393080550965622,-0.8279758095741272,0.5315707325935364,-0.17857444286346436,1.8541792631149292,1.4175604581832886,4.0607829093933105
1.2599329948425293,-0.5211045742034912,-0.094748854637146,0.3785175085067749,-0.628344319439966,-1.2924349664083605,0.2078215375906642,-0.7778609991073608,0.5878061056137085,-0.22229790687561035,2.0421836376190186,1.3343631029129028,3.9002573490142822
1.2799439430236816,-0.5371948480606079,-0.16603589057922363,0.404818594455719,-0.6868430996204763,-1.216159225728156,0.28839825316070816,-0.7251343727111816,0.6340992450714111,-0.26851174235343933,2.19325852394104,1.3493115901947021,3.6418232917785645
1.3000149726867676,-0.5474427342414856,-0.2503264546394348,0.42891305685043335,-0.7337007254528222,-1.131336802441577,0.3773635371493355,-0.672131359577179,0.6696227192878723,-0.3159826695919037,2.1970365047454834,1.3360775709152222,3.2905361652374268
1.3199520111083984,-0.5244589447975159,-0.33826833963394165,0.5015357136726379,-0.7693803342956551,-1.0424570820710528,0.4678011901772926,-0.6203928589820862,0.6956902146339417,-0.3621160387992859,1.9560905694961548,1.3728758096694946,2.959474802017212
1.3399529457092285,-0.4891597628593445,-0.43581146001815796,0.5910386443138123,-0.7974997141023307,-0.954592273702796,0.5520259999983784,-0.5700291991233826,0.7156118750572205,-0.4036911725997925,1.5222384929656982,1.4885238409042358,2.6638588905334473
1.3600249290466309,-0.44114184379577637,-0.5434616208076477,0.6214017868041992,-0.8228656118728132,-0.8713313921951645,0.6254351948320107,-0.5204212665557861,0.7330977916717529,-0.43786901235580444,0.9317503571510315,1.4933286905288696,2.442305326461792
1.3800549507141113,-0.3988543450832367,-0.5941441059112549,0.5889307260513306,-0.8475277561079986,-0.7976502220689875,0.6865684786491388,-0.47368907928466797,0.7496464848518372,-0.4622216820716858,0.5230701565742493,1.3212532997131348,2.1449201107025146
1.4000718593597412,-0.36020177602767944,-0.5895972847938538,0.5489286780357361,-0.8683874332977425,-0.7338578457565529,0.7394632450960231,-0.4326907992362976,0.763288140296936,-0.4797604978084564,0.39389434456825256,1.0633710622787476,1.7986760139465332
1.4199867248535156,-0.314973384141922,-0.5978059768676758,0.5689693689346313,-0.8833757094389506,-0.6803766482962849,0.7852190756886555,-0.3991837799549103,0.7728853225708008,-0.4932551681995392,0.3957737684249878,0.7917305827140808,1.4161030054092407
1.4399828910827637,-0.28205400705337524,-0.6592205762863159,0.5809080600738525,-0.8923673828065181,-0.6365963906832031,0.8241657314611852,-0.3730669319629669,0.7785596251487732,-0.504644513130188,0.397564560174942,0.5577050447463989,1.0751475095748901
1.4600238800048828,-0.27008476853370667,-0.7032855153083801,0.5798331499099731,-0.8956526203139388,-0.6041951807799946,0.8553100080849487,-0.3550679087638855,0.7806171178817749,-0.5143576860427856,0.4814262390136719,0.24679136276245117,0.6928422451019287
1.4799809455871582,-0.27364012598991394,-0.7013696432113647,0.5642271637916565,-0.893249879396638,-0.5856857486099599,0.8773716897787023,-0.34652289748191833,0.7791131734848022,-0.5224027037620544,0.4928772747516632,-0.15074515342712402,0.29779115319252014
1.5000410079956055,-0.3366551995277405,-0.6681838631629944,0.47785699367523193,-0.8840080926052141,-0.5842532092571121,0.8884276549969221,-0.3497309982776642,0.7732864618301392,-0.5288822650909424,0.70409095287323,-0.5429206490516663,-0.24177230894565582
1.5200419425964355,-0.40003839135169983,-0.582029402256012,0.4295070171356201,-0.865205672515181,-0.5973606609234596,0.88873094955239,-0.36474746465682983,0.7612286806106567,-0.5361811518669128,0.8314031958580017,-0.7771905064582825,-0.7854490280151367
1.540024757385254,-0.4223399758338928,-0.5526362061500549,0.43992602825164795,-0.8403117511056595,-0.6232982231788398,0.8765980423714519,-0.38947343826293945,0.7448511719703674,-0.5417630672454834,0.7063326835632324,-0.9020585417747498,-1.288640022277832
1.5600976943969727,-0.42401689291000366,-0.5707983374595642,0.36546599864959717,-0.8129025603648866,-0.6626814762024797,0.8510939851442798,-0.4229070246219635,0.726285457611084,-0.5419033169746399,0.48651936650276184,-1.2145966291427612,-1.7604564428329468
1.5800018310546875,-0.4913922846317291,-0.47474443912506104,0.279483437538147,-0.7810895668803265,-0.7175513628011365,0.8125684097124564,-0.46695131063461304,0.7040535807609558,-0.5350375175476074,0.18243028223514557,-1.4564512968063354,-2.3599019050598145
1.5999317169189453,-0.580298125743866,-0.35507452487945557,0.35240018367767334,-0.7477144826328,-0.7841429599846438,0.7554779042311538,-0.5178312659263611,0.6799647212028503,-0.5191328525543213,-0.631980299949646,-1.221883773803711,-2.904381036758423
1.6199359893798828,-0.5502758026123047,-0.4003899097442627,0.4150344133377075,-0.7189556800240072,-0.860148734938768,0.6760131460227949,-0.5703450441360474,0.6585991978645325,-0.49087047576904297,-1.7639873027801514,-1.1704291105270386,-3.187044382095337
1.6391229629516602,-0.5145731568336487,-0.36728405952453613,0.39410001039505005,-0.695457583049896,-0.9501761691525662,0.577219704171548,-0.6245870590209961,0.6407368183135986,-0.4464833736419678,-2.6110384464263916,-1.3804019689559937,-3.3036701679229736
1.6600027084350586,-0.6040060520172119,-0.19026458263397217,0.2804180979728699,-0.6684289080772268,-1.045259766592581,0.470278071780526,-0.6788920164108276,0.6197537779808044,-0.3937145173549652,-2.8151135444641113,-1.3794593811035156,-3.512598752975464
1.6799838542938232,-0.6348937153816223,-0.06247663497924805,0.14809420704841614,-0.6286650951487105,-1.1347548032647512,0.3686365294586347,-0.73313307762146,0.5880655646324158,-0.3416060507297516,-2.484606981277466,-1.465997576713562,-3.7578554153442383
1.7000846862792969,-0.532784640789032,0.08112168312072754,0.04278877377510071,-0.5759612113755013,-1.2151447017685981,0.28408218847086286,-0.7861851453781128,0.5446411967277527,-0.29202571511268616,-1.8612760305404663,-1.785876750946045,-3.780658006668091
1.7199938297271729,-0.4860246777534485,0.22273489832878113,-0.014823302626609802,-0.514177563961985,-1.282304464143854,0.22617457193873647,-0.8347151279449463,0.49181893467903137,-0.24771931767463684,-0.8594781756401062,-1.8490750789642334,-3.652346134185791
1.7399828433990479,-0.4541545510292053,0.2885425388813019,0.0072723329067230225,-0.4484444613603648,-1.3310258536239743,0.19605194423797606,-0.8753437399864197,0.43356433510780334,-0.21399828791618347,-0.09930276870727539,-1.6237000226974487,-3.390498161315918
1.7600317001342773,-0.3239627480506897,0.27223122119903564,0.05561383068561554,-0.3866042225025252,-1.36878458747536,0.17986947149959773,-0.9073604941368103,0.3770454525947571,-0.18583223223686218,-0.10311196744441986,-1.5286909341812134,-2.9779164791107178
1.7799808979034424,-0.20911502838134766,0.21854570508003235,0.05414557456970215,-0.3332906368724579,-1.4052987765101608,0.16163750569130234,-0.9320594072341919,0.32715433835983276,-0.1556774526834488,-0.6606587767601013,-1.4780746698379517,-2.591251850128174
1.8000788688659668,-0.1468300223350525,0.21775466203689575,0.024409659206867218,-0.2881543341016419,-1.441979517825882,0.13384025078257258,-0.9508262872695923,0.284183144569397,-0.12316441535949707,-1.2604233026504517,-1.3158395290374756,-2.279806613922119
1.8199808597564697,-0.07643693685531616,0.28909629583358765,-0.024923153221607208,-0.24855013691732036,-1.4751304543161183,0.09951095845024098,-0.9648382663726807,0.24599890410900116,-0.09258471429347992,-1.555491328239441,-1.114300012588501,-2.044416666030884
1.8399808406829834,0.022292792797088623,0.37861573696136475,-0.06905770301818848,-0.21201943944665555,-1.504314942700408,0.06417537571852568,-0.9754484295845032,0.21043454110622406,-0.06494487076997757,-1.551811695098877,-1.0450820922851562,-1.889206051826477
1.8600058555603027,0.11233454942703247,0.42971697449684143,-0.08364742994308472,-0.17744440744589665,-1.5322161516731803,0.03165166452021822,-0.9835657477378845,0.17651468515396118,-0.03796497732400894,-1.474111557006836,-1.0991302728652954,-1.7278838157653809
1.8800806999206543,0.13407409191131592,0.4571155607700348,-0.10260564088821411,-0.1448922811521774,-1.558881847761358,0.0012812735315472054,-0.9894513487815857,0.14438584446907043,-0.011789355427026749,-1.453862190246582,-1.0868966579437256,-1.6225181818008423
1.9000167846679688,0.13007521629333496,0.48099303245544434,-0.12104761600494385,-0.11312009475528573,-1.5838344602321905,-0.028748383008182707,-0.9935243725776672,0.11287900060415268,0.012954437173902988,-1.5187007188796997,-1.0084092617034912,-1.5533342361450195
1.9199867248535156,0.1573880910873413,0.5144540071487427,-0.15620791912078857,-0.08239515297340323,-1.6062672768107418,-0.057183904043750004,-0.9959806799888611,0.08230195194482803,0.03534320369362831,-1.3685956001281738,-0.9836438298225403,-1.4659693241119385
1.9399809837341309,0.19438576698303223,0.5902889966964722,-0.20377123355865479,-0.05280188251394938,-1.6278274963907113,-0.08054578658173936,-0.9969828724861145,0.05277734994888306,0.05692082643508911,-1.0833978652954102,-1.0252366065979004,-1.3839776515960693
1.9600298404693604,0.21880120038986206,0.6576629281044006,-0.2398463487625122,-0.02553683065356147,-1.649203845458924,-0.09736971116673124,-0.9966027736663818,0.02553405426442623,0.07830167561769485,-0.8439600467681885,-1.0232430696487427,-1.2109681367874146
1.9799787998199463,0.2347468137741089,0.6473276019096375,-0.2367839813232422,-0.002757782993834001,-1.6690977206465634,-0.1138507973346941,-0.9951686263084412,0.0027577795553952456,0.09814279526472092,-1.0401451587677002,-0.9474111795425415,-0.9016299843788147
2.0000009536743164,0.22081905603408813,0.6078311800956726,-0.22472119331359863,0.013837545975626527,-1.6870255595818469,-0.1349986214273391,-0.9931579828262329,-0.01383710466325283,0.1159566268324852,-1.2096725702285767,-0.8592212200164795,-0.5226231813430786
2.020033836364746,0.1471889615058899,0.686046302318573,-0.2542198896408081,0.023664540047054004,-1.7027397572172822,-0.15776378972359878,-0.9910305738449097,-0.023662330582737923,0.13152410089969635,-1.1350630521774292,-0.768897533416748,-0.1787615269422531
2.0399818420410156,0.06421500444412231,0.7683517336845398,-0.2786332368850708,0.026686262121239895,-1.7174537059837214,-0.17830540206317663,-0.9889129400253296,-0.02668309397995472,0.14608021080493927,-0.9591413736343384,-0.7555813789367676,0.17895616590976715
2.0599818229675293,0.007463693618774414,0.753031849861145,-0.23462165892124176,0.021847726514944776,-1.7315938721586257,-0.19716448572526432,-0.9868642687797546,-0.021845988929271698,0.16006729006767273,-0.8691452741622925,-0.6916026473045349,0.6070753335952759
2.0799789428710938,-0.035092830657958984,0.7063462734222412,-0.1895444542169571,0.006929262969913605,-1.745299172212028,-0.21655203286527214,-0.9847893714904785,-0.006929207593202591,0.17361439764499664,-0.7166855335235596,-0.8169295191764832,1.191440224647522
2.100045680999756,-0.15875643491744995,0.6537103056907654,-0.23462510108947754,-0.019707074561895344,-1.7653012820340006,-0.23174835226004364,-0.9809531569480896,0.019705798476934433,0.1932433545589447,-0.27058953046798706,-1.131296157836914,1.6818593740463257
2.119997024536133,-0.4256587028503418,0.5668681859970093,-0.27249231934547424,-0.053610304410951465,-1.7871606576276646,-0.24062615670729345,-0.9752811789512634,0.05358462780714035,0.2143717110157013,0.05240437015891075,-0.8846476674079895,1.7458083629608154
2.1400468349456787,-0.5891775488853455,0.3128962814807892,-0.1850517988204956,-0.08582960823395912,-1.7965015888766525,-0.24809721050883038,-0.9710489511489868,0.08572426438331604,0.22297002375125885,-0.25226789712905884,0.006578946951776743,1.5958595275878906
2.1593217849731445,-0.40698057413101196,0.03854402154684067,0.12640035152435303,-0.11398531622595066,-1.790956031223504,-0.2705404937543457,-0.9695301055908203,0.11373864859342575,0.2169683426618576,-1.3454337120056152,0.7290487885475159,1.6763619184494019
2.179966926574707,-0.24060487747192383,-0.16129404306411743,0.2905940115451813,-0.1397298022007599,-1.777129314487104,-0.3129531894177943,-0.969249427318573,0.13927555084228516,0.20287536084651947,-2.0930092334747314,1.1620852947235107,1.6998333930969238
2.200002908706665,-0.19085174798965454,-0.19538013637065887,0.15007734298706055,-0.16291187647138639,-1.7591646302137025,-0.3628244588750209,-0.969304621219635,0.1621922105550766,0.1847769021987915,-2.2047533988952637,1.3893394470214844,1.5037013292312622
2.219419002532959,-0.13990521430969238,-0.0018054991960525513,-0.1021813303232193,-0.18051863840200005,-1.7389111527894578,-0.4073752138501778,-0.9698817729949951,0.17953981459140778,0.16460515558719635,-1.7802945375442505,1.3370754718780518,0.9480899572372437
2.239921808242798,-0.002621173858642578,0.16272574663162231,-0.3793949782848358,-0.18909182075069203,-1.7220223681132103,-0.43541137849533046,-0.9709661602973938,0.187966987490654,0.14796504378318787,-0.6657829880714417,0.8874426484107971,0.4333815574645996
2.259988784790039,0.23501133918762207,0.062371596693992615,-0.4316788911819458,-0.1991969612978838,-1.706934153973019,-0.4354080142388235,-0.9711563587188721,0.19788223505020142,0.13303399085998535,0.7606537342071533,0.6014478802680969,0.6438282132148743
2.2800087928771973,0.35218536853790283,-0.011464178562164307,-0.39450597763061523,-0.2185213532151749,-1.6958589640568689,-0.41050101350394175,-0.9685946702957153,0.21678638458251953,0.12177052348852158,1.7164897918701172,-0.1804323047399521,0.8798947930335999
2.3000118732452393,0.15860003232955933,0.07632245123386383,-0.2795391082763672,-0.24004788111000594,-1.6955664206166314,-0.36967600277522655,-0.9637757539749146,0.2377491295337677,0.12087830156087875,2.844918966293335,-0.44308266043663025,0.7434902787208557
2.319978713989258,-0.19274592399597168,-0.12311896681785583,-0.442291259765625,-0.2563179500735493,-1.6773788846919957,-0.294697004595734,-0.9618408679962158,0.25352051854133606,0.10290542244911194,4.446986198425293,0.2734917998313904,0.05400072783231735
2.3399477005004883,-0.13655054569244385,-0.35622456669807434,-0.24156641960144043,-0.2674521870156299,-1.6471178994264346,-0.2098051353007108,-0.9616398811340332,0.26427507400512695,0.0735367089509964,2.9264578819274902,0.5162709355354309,0.2879338264465332
2.3599939346313477,0.06499642133712769,-0.3689522445201874,0.09109115600585938,-0.27432704812725994,-1.6290083630568346,-0.16505006573764053,-0.9609773755073547,0.2708992063999176,0.05600372329354286,2.383507251739502,0.10342293232679367,0.23664702475070953
2.3799448013305664,0.04128742218017578,-0.10907763242721558,0.025502920150756836,-0.2898303144089224,-1.6148158195069806,-0.12845545988486018,-0.9573642015457153,0.2857896089553833,0.042169928550720215,1.2399615049362183,0.40793198347091675,1.013575553894043
2.400002956390381,-0.08874571323394775,-0.046673357486724854,0.026520375162363052,-0.30718867252709103,-1.5955469946436174,-0.10176835601032479,-0.9528957605361938,0.30238011479377747,0.023589622229337692,1.5086971521377563,0.738575279712677,0.5948821306228638
2.4199588298797607,0.05159163475036621,-0.10421645641326904,0.0141524076461792,-0.3191721364423448,-1.5698403474741804,-0.07081565800276053,-0.9494950771331787,0.31378060579299927,-0.0009076979476958513,1.4645860195159912,0.7814035415649414,0.6002972722053528
2.440013885498047,0.19674205780029297,-0.1542455554008484,0.050623536109924316,-0.3292283540695935,-1.5470316629059464,-0.03839530772048795,-0.9460250735282898,0.323312908411026,-0.02248620241880417,1.5470432043075562,0.48945122957229614,0.4099898338317871
2.4599809646606445,0.22344249486923218,-0.1184140145778656,0.16280776262283325,-0.334501792025525,-1.5274773788481153,-0.007449606681684061,-0.9436879754066467,0.3282986283302307,-0.04090515896677971,1.3632731437683105,0.5256286859512329,0.24974511563777924
2.47997784614563,0.19710659980773926,-0.2255454659461975,0.20973485708236694,-0.3379764913604275,-1.506215246081287,0.01793365738937403,-0.941460907459259,0.33157873153686523,-0.0608852319419384,0.9566790461540222,0.7617526650428772,0.21364200115203857
2.500002861022949,0.22279596328735352,-0.34032535552978516,0.25965678691864014,-0.34021288687348866,-1.48456320334945,0.03269738761564704,-0.9391810894012451,0.33368778228759766,-0.08118986338376999,0.3926376402378082,0.8587451577186584,0.12439997494220734
2.520040988922119,0.2434733510017395,-0.30848464369773865,0.21540236473083496,-0.34107549834673695,-1.4683908150303424,0.037071894859425705,-0.9374583959579468,0.33450081944465637,-0.09633790701627731,0.11692848801612854,0.6095005869865417,-0.022481640800833702
2.539979934692383,0.19510024785995483,-0.1693827509880066,0.20615394413471222,-0.3388875332153686,-1.4564614522345105,0.03919583251274634,-0.9369673132896423,0.3324381113052368,-0.10759729892015457,0.07254604250192642,0.585022509098053,-0.15691621601581573
2.5602517127990723,0.14339959621429443,-0.1828424334526062,0.2979302406311035,-0.33544504682915527,-1.4435343020864062,0.0353557051817239,-0.9366278052330017,0.3291894495487213,-0.11984483897686005,-0.4639040231704712,0.8283259272575378,-0.25128552317619324
2.580026865005493,0.15695291757583618,-0.34622615575790405,0.33824795484542847,-0.33198124649143645,-1.4307531518316525,0.015736791120550552,-0.9361432194709778,0.32591673731803894,-0.1319642961025238,-1.344333529472351,1.0656349658966064,-0.32527464628219604
2.600188732147217,0.2874114513397217,-0.4364132285118103,0.3094750642776489,-0.33053702064680446,-1.4218189740725067,-0.019205147463028843,-0.9353912472724915,0.3245510160923004,-0.14039228856563568,-1.7408101558685303,0.8737152218818665,-0.2914053499698639
2.6200578212738037,0.42317092418670654,-0.39686012268066406,0.2749141752719879,-0.33046994825254544,-1.4200601575476388,-0.05275349498137759,-0.9351642727851868,0.3244875967502594,-0.14204049110412598,-1.371169090270996,0.3922201991081238,-0.18252821266651154
2.640326976776123,0.4070873260498047,-0.23269057273864746,0.2567827105522156,-0.32909891679723585,-1.424879920471681,-0.07829041650078218,-0.9362775087356567,0.3231904208660126,-0.13759617507457733,-0.983443558216095,-0.008845992386341095,-0.4117131233215332
2.6599817276000977,0.27959245443344116,-0.1932169497013092,0.22859889268875122,-0.3193768391303803,-1.4333795807423761,-0.09527534224641096,-0.9404811859130859,0.3139749765396118,-0.13005754351615906,-0.557953953742981,-0.29551753401756287,-0.7152525782585144
2.680062770843506,0.20046466588974,-0.30545130372047424,0.2203199863433838,-0.30736905907788487,-1.4483269027324839,-0.10771618344898233,-0.9459938406944275,0.3025520443916321,-0.11643804609775543,-0.4478592872619629,-0.9286296367645264,-0.597364068031311
2.700000762939453,0.04347026348114014,-0.3083623945713043,0.19713813066482544,-0.2983812194269641,-1.4758161225030477,-0.11443727228599324,-0.9515056610107422,0.29397332668304443,-0.09064694494009018,-0.0695728063583374,-1.5282588005065918,-0.39014339447021484
2.7283997535705566,-0.4360131025314331,0.043738871812820435,0.1601579189300537,-0.26905043979389553,-1.514860223417663,-0.09154198352679639,-0.9625160694122314,0.2658161520957947,-0.05389561876654625,1.0751227140426636,-0.6049827933311462,-1.0531729459762573
2.740020751953125,-0.4360131025314331,0.043738871812820435,0.1601579189300537,-0.26905043979389553,-1.514860223417663,-0.09154198352679639,-0.9625160694122314,0.2658161520957947,-0.05389561876654625,1.0751227140426636,-0.6049827933311462,-1.0531729459762573
2.768258810043335,0.03850597143173218,-0.3361864984035492,0.20554983615875244,-0.22919426368624995,-1.5250767515527548,-0.07227158790389011,-0.972832202911377,0.2271929383277893,-0.04450849071145058,-0.3931064009666443,-0.23681017756462097,-0.8897705078125
2.788139820098877,0.17464518547058105,-0.39347144961357117,0.16056382656097412,-0.21266727990349943,-1.5363418434842098,-0.08498022597755923,-0.976891279220581,0.21106784045696259,-0.03367161005735397,-0.6058439016342163,-0.6119102835655212,-0.6888896226882935
2.8080968856811523,0.2512192726135254,-0.2810215353965759,0.09607601165771484,-0.20350480436043125,-1.553401137487486,-0.09389265431965006,-0.9792160987854004,0.20210304856300354,-0.017035366967320442,-0.21867738664150238,-0.9295842051506042,-0.3594493269920349
2.828073024749756,0.1505831480026245,-0.16187533736228943,0.08019816875457764,-0.19462636227827898,-1.5721670634816691,-0.0943078876337579,-0.9811192750930786,0.19339996576309204,0.0013448570389300585,0.1819220930337906,-0.8393938541412354,-0.5452632308006287
2.848268985748291,0.02922224998474121,-0.1686517298221588,0.05387115478515625,-0.1832094214181645,-1.584538514728644,-0.08876598673635686,-0.9831712245941162,0.18218621611595154,0.013511774130165577,0.32922595739364624,-0.49506375193595886,-0.5949743390083313
2.8679747581481934,0.02314174175262451,-0.2169136106967926,0.06401491165161133,-0.1710236418700375,-1.591078474261818,-0.08270262955325204,-0.9852085113525391,0.17019113898277283,0.019984884187579155,0.208553746342659,-0.29602229595184326,-0.621192991733551
2.889669895172119,0.09618937969207764,-0.18927447497844696,0.06804800033569336,-0.1597250411580215,-1.5968327758290266,-0.07686566213381328,-0.9869363903999329,0.15904675424098969,0.025702128186821938,0.38946637511253357,-0.4421965479850769,-0.5062729120254517
2.908578872680664,0.09197139739990234,-0.09453216195106506,0.03655087947845459,-0.15058150669632925,-1.6050283741813844,-0.06487408828938238,-0.9881048798561096,0.15001308917999268,0.033838070929050446,0.8048422932624817,-0.5765216946601868,-0.48816972970962524
2.9242329597473145,-0.015903711318969727,-0.0265548974275589,0.04397261142730713,-0.14126681234862298,-1.6150165976773836,-0.046073410606247346,-0.98907071352005,0.140797421336174,0.04376550763845444,0.9344421625137329,-0.6531093120574951,-0.4809703528881073
2.9479188919067383,-0.2222501039505005,-0.07200983166694641,0.02765798196196556,-0.13365613509832888,-1.62870899058184,-0.02808982877170064,-0.9894198775291443,0.13325855135917664,0.0573640838265419,0.7336969971656799,-0.8818588256835938,-0.35564547777175903
2.9680256843566895,-0.519947350025177,-0.08855530619621277,0.1285867542028427,-0.12848977578039117,-1.6396543496704412,-0.018629283710121392,-0.9894062280654907,0.1281365156173706,0.06823643296957016,0.21281273663043976,-0.2657674252986908,-0.26572319865226746
2.9879488945007324,-0.6885213851928711,-0.08027791231870651,0.24825620651245117,-0.12285351906069536,-1.636651932277158,-0.017811395797200008,-0.990311861038208,0.12254471331834793,0.06531203538179398,-0.08938539773225784,0.4673483371734619,-0.29276522994041443
3.0075278282165527,-0.46281492710113525,-0.085549496114254,0.31727051734924316,-0.11723566347301663,-1.6279266152578713,-0.02034321787275912,-0.9915156364440918,0.11696729809045792,0.05670728161931038,-0.1693083792924881,0.2671496570110321,-0.24583441019058228
3.027519702911377,-0.25206053256988525,-0.07137210667133331,0.2647871971130371,-0.11181180861085242,-1.6278070090863361,-0.021722592490551394,-0.9921413064002991,0.11157897859811783,0.05662401393055916,0.01147006917744875,-0.1502412110567093,-0.29743704199790955
3.047557830810547,-0.21495050191879272,-0.048867881298065186,0.1653965711593628,-0.1051374632222888,-1.6330172520385002,-0.017438579949548134,-0.9925538301467896,0.10494387149810791,0.061837438493967056,0.36741819977760315,-0.41806989908218384,-0.39075806736946106
3.066427707672119,-0.24336469173431396,-0.022403307259082794,0.0919337272644043,-0.09830613981362986,-1.641017632747615,-0.008771711259163399,-0.9927194118499756,0.09814787656068802,0.06982485949993134,0.39240726828575134,-0.41729846596717834,-0.34370192885398865
3.0874598026275635,-0.2965168356895447,-0.05316287279129028,0.11401152610778809,-0.09310745659744737,-1.6464544750592742,-0.0028249069527644553,-0.9928203821182251,0.09297299385070801,0.07525860518217087,0.16085311770439148,-0.19118979573249817,-0.19655369222164154
3.105443000793457,-0.30310630798339844,-0.04788420349359512,0.15511417388916016,-0.09146866984060231,-1.6483992958119662,-0.0012425836457629613,-0.9928228259086609,0.09134117513895035,0.07720103114843369,-0.03962792456150055,-0.025423282757401466,-0.012380511499941349
3.1288137435913086,-0.33307790756225586,0.028910979628562927,0.10527527332305908,-0.09076616363264714,-1.6486746170671382,-0.002929989637586396,-0.9928652048110962,0.09064158797264099,0.07747934758663177,-0.1177753135561943,-0.013629741035401821,-0.02928989753127098
3.148202896118164,-0.2799786329269409,0.07726116478443146,0.07594287395477295,-0.09031143988180129,-1.6511509686768644,-0.004508760068764471,-0.9927112460136414,0.09018872678279877,0.07994108647108078,0.013211123645305634,-0.225932776927948,-0.032585855573415756
3.1650729179382324,-0.2312990427017212,0.08079784363508224,0.09927880018949509,-0.08898195223778811,-1.6581923746722682,1.5865556244472878e-05,-0.9922422766685486,0.08886457234621048,0.08693951368331909,0.2875599265098572,-0.6801022291183472,-0.3055691421031952
3.183729887008667,-0.3426607847213745,0.027837149798870087,0.1376941204071045,-0.08747818230070274,-1.667816762701632,0.010143208853161887,-0.9914914965629578,0.08736665546894073,0.09649790078401566,0.6107912659645081,-0.3103906810283661,0.2249538153409958
3.203951835632324,-0.4375826120376587,-0.07634145766496658,0.11420285701751709,-0.08648948267315085,-1.6714486814529923,0.01900672763978008,-0.9912199974060059,0.086381696164608,0.10010690987110138,0.7289720773696899,-0.15312513709068298,-0.3114178478717804
3.2220559120178223,-0.46893614530563354,-0.191792830824852,0.04393504559993744,-0.0865388165155031,-1.666848513963312,0.038799038533023154,-0.9916656613349915,0.08643084019422531,0.09554567188024521,0.8540186882019043,0.3782654106616974,-0.009165076538920403
3.241550922393799,-0.43774449825286865,-0.10207398235797882,0.11752951145172119,-0.08438228671918768,-1.6591708358548487,0.05535706266715292,-0.9925534725189209,0.08428218215703964,0.08794549852609634,0.7468414306640625,0.28610727190971375,-0.1667788326740265
3.261326789855957,-0.2816001772880554,-0.08341056108474731,0.03668498992919922,-0.08683073527787889,-1.6529209900326671,0.059072978132675896,-0.9928749799728394,0.08672166615724564,0.08172333240509033,-0.40218523144721985,0.2133660465478897,0.4182812571525574
3.2826600074768066,-0.2180207371711731,-0.11260364204645157,-0.08022474497556686,-0.0965947053836708,-1.6536378265572675,0.042904899703501476,-0.9919251203536987,0.09644456207752228,0.08236105740070343,-0.7793141603469849,-0.12007486820220947,0.6038599610328674
3.3053438663482666,-0.34565889835357666,0.22547566890716553,-0.22325050830841064,-0.10551526120769003,-1.6619584700111272,0.044299286090468674,-0.9903093576431274,0.10531958192586899,0.09052964299917221,0.8405908942222595,-0.6803813576698303,0.20663319528102875
3.324526786804199,-0.45994657278060913,0.43750709295272827,0.0031660646200180054,-0.1109533762534558,-1.6688842005460847,0.061415976759771666,-0.9890737533569336,0.11072586476802826,0.09732848405838013,0.935741662979126,-0.4017176330089569,0.11451330780982971
3.343761920928955,-0.6230290532112122,-0.1424538791179657,0.08073948323726654,-0.11485892928406746,-1.6718320802494524,0.07355464828379582,-0.9883447885513306,0.11460655182600021,0.10019934922456741,0.14450615644454956,0.13195525109767914,0.2473122626543045
3.3646507263183594,-0.6204465627670288,-0.07679218053817749,0.18009161949157715,-0.12080217169387836,-1.6686109603289028,0.06520255263371535,-0.9879672527313232,0.120508573949337,0.09694703668355942,-0.9790812730789185,0.1697765737771988,0.4638720750808716
3.383452892303467,-0.5246675610542297,0.08387403190135956,0.08444680273532867,-0.13203968734975943,-1.6707340478814674,0.04185591489509969,-0.9863495230674744,0.13165634870529175,0.09890300780534744,-1.1248328685760498,-0.05609375610947609,0.9390836954116821
3.4065589904785156,-0.5449015498161316,0.19398581981658936,0.09995676577091217,-0.15216647666887623,-1.6752991305426161,0.01638758374507477,-0.9830527305603027,0.15157993137836456,0.10310737788677216,-1.028082251548767,-0.021333731710910797,1.2577251195907593
3.4265217781066895,-0.6259014010429382,0.20246915519237518,0.038346074521541595,-0.1770555596364687,-1.6774440068326244,-0.003391291730568017,-0.9787741899490356,0.176131933927536,0.10478155314922333,-0.6274896264076233,0.1271919161081314,1.4387062788009644
3.4463629722595215,-0.5428500175476074,0.18901494145393372,-0.015637755393981934,-0.205759619310343,-1.6779295898881628,-0.014345199295223088,-0.9732938408851624,0.2043108195066452,0.10467291623353958,-0.18444225192070007,0.04125383868813515,1.5769129991531372
3.466336727142334,-0.4566271901130676,0.08267121016979218,0.011055469512939453,-0.23896297464138289,-1.6792713603662162,-0.021918770548078424,-0.9658735394477844,0.23669520020484924,0.10518605262041092,-0.22542709112167358,0.0033284700475633144,1.7781498432159424
3.486146926879883,-0.5092618465423584,0.016432374715805054,0.03283964842557907,-0.2736365239423021,-1.6809887872409897,-0.0330694121513533,-0.9569552540779114,0.27023443579673767,0.10587813705205917,-0.40433117747306824,0.03472030535340309,1.8028664588928223
3.5063509941101074,-0.449817419052124,0.06529593467712402,0.035299912095069885,-0.3099109569080007,-1.6838095913004643,-0.04336059038061545,-0.9462856650352478,0.304973840713501,0.10740046203136444,-0.1363111436367035,-0.021214600652456284,1.9154809713363647
3.525035858154297,-0.3619418144226074,0.07069310545921326,0.0171353742480278,-0.3475791821319027,-1.686526417785441,-0.04779662505116061,-0.9339108467102051,0.34062275290489197,0.10856671631336212,0.10048220306634903,-0.0739385336637497,1.8687076568603516
3.5461816787719727,-0.3339387774467468,0.0024743080139160156,0.03479409217834473,-0.3831435499170685,-1.686192928256529,-0.05041750800995546,-0.9213255643844604,0.373837947845459,0.10679229348897934,0.009718628600239754,0.2761843204498291,1.7244499921798706
3.5659518241882324,-0.2734854221343994,-0.09997126460075378,-0.012704119086265564,-0.4161718891978427,-1.6807836710624964,-0.05521831244420937,-0.9091167449951172,0.40426206588745117,0.10039649903774261,-0.12734708189964294,0.4089621901512146,1.587681770324707
3.5849967002868652,-0.130279541015625,-0.0999768078327179,0.009957313537597656,-0.4460245525135124,-1.6762685650162492,-0.06524928841318722,-0.8971558213233948,0.431382417678833,0.0949774831533432,-0.4270355701446533,0.450418084859848,1.5098304748535156
3.604867935180664,-0.03242671489715576,-0.12045794725418091,-0.0028867721557617188,-0.474077067408342,-1.673866146553623,-0.07963170294673647,-0.884992778301239,0.4565174877643585,0.09154043346643448,-0.5910751819610596,0.4504113495349884,1.3937419652938843
3.6257786750793457,0.05251491069793701,-0.08513140678405762,0.011148802936077118,-0.49808035664060285,-1.6718718096697154,-0.09591872008584768,-0.8740176558494568,0.47774001955986023,0.08864382654428482,-0.4985213875770569,0.4991397559642792,1.1642190217971802
3.6461520195007324,0.15464812517166138,-0.08398094773292542,-0.013304479420185089,-0.5191252038441357,-1.666950585106651,-0.10581645180866059,-0.8642429113388062,0.49612078070640564,0.08335769176483154,-0.16300274431705475,0.4564196765422821,1.0181200504302979
3.6658668518066406,0.22545993328094482,-0.0930519700050354,-0.04468584060668945,-0.5371885906362147,-1.6599386371730154,-0.10738069665405493,-0.8557395935058594,0.5117225646972656,0.07648530602455139,0.13122989237308502,0.34877970814704895,0.8022943735122681
3.68449068069458,0.2746316194534302,-0.10539788007736206,-0.04012608528137207,-0.5523020289635884,-1.6528662629200563,-0.1052859858860012,-0.8484537601470947,0.5246483683586121,0.06978930532932281,0.19190789759159088,0.2610037922859192,0.699186384677887
3.705291748046875,0.30516988039016724,-0.14427214860916138,-0.012182600796222687,-0.5656686955555957,-1.6453927169987952,-0.10274367140184198,-0.8418825268745422,0.5359804630279541,0.06291814893484116,0.08434893935918808,0.36059507727622986,0.6548524498939514
3.7243099212646484,0.32601624727249146,-0.14934200048446655,-0.047263145446777344,-0.578887268284371,-1.638192525637947,-0.10197992704377232,-0.835171639919281,0.547092854976654,0.05637277290225029,0.09946929663419724,0.3180614709854126,0.6517123579978943
3.7457847595214844,0.3541589379310608,-0.11219096183776855,-0.06987249851226807,-0.5923867121510978,-1.6315142957179019,-0.10001387950528538,-0.8280817270278931,0.5583426356315613,0.05034131929278374,0.17497071623802185,0.23526085913181305,0.6746315360069275
3.7660837173461914,0.33920663595199585,-0.1044309139251709,-0.0659327507019043,-0.604788450589921,-1.6225334716310087,-0.09270228483340427,-0.8215219378471375,0.5685880780220032,0.04254116117954254,0.6960906982421875,0.30757054686546326,0.4969881772994995
3.785634994506836,0.28569191694259644,-0.10630464553833008,-0.06285620480775833,-0.6176032430256125,-1.6044985943548604,-0.08223113372014246,-0.8148056864738464,0.5790828466415405,0.02747119963169098,0.22886908054351807,0.3762037754058838,1.0660505294799805
3.8051676750183105,0.38990938663482666,-0.19769561290740967,0.10000455379486084,-0.6311522036256678,-1.5948225359450552,-0.08374237510167097,-0.8071153163909912,0.5900753736495972,0.019395653158426285,-0.014011495746672153,0.44054245948791504,0.44057390093803406
3.825267791748047,0.32683640718460083,-0.09118807315826416,-0.1542576551437378,-0.6438159175374304,-1.5857622981266908,-0.07876629308024113,-0.7997216582298279,0.6002517938613892,0.011969504877924919,0.16999845206737518,0.421997606754303,0.6350626945495605
3.845268726348877,0.31462305784225464,-0.05123502016067505,0.0011414289474487305,-0.6534785355709752,-1.576104505023452,-0.07471052597840688,-0.7939627170562744,0.6079519391059875,0.004214535467326641,0.3146689534187317,0.34980207681655884,0.3963101804256439
3.865144729614258,0.30487769842147827,-0.08665460348129272,-0.018847525119781494,-0.6623541270422659,-1.5605055916103714,-0.0634815855184557,-0.7885051369667053,0.6149749159812927,-0.008114583790302277,0.45769819617271423,0.5158211588859558,0.450739324092865
3.8846888542175293,0.26404911279678345,-0.09061753749847412,-0.018743574619293213,-0.6696452153361191,-1.5420354868188664,-0.050397042350677816,-0.7837178111076355,0.6207078695297241,-0.022546598687767982,0.5873838067054749,0.5452666878700256,0.30808746814727783
3.9043617248535156,0.237920880317688,-0.055889904499053955,-0.0555877648293972,-0.6743655019113103,-1.5188688088451847,-0.03227119473590428,-0.7800503969192505,0.6244018077850342,-0.04054252803325653,0.8613128662109375,0.6215691566467285,0.2329150289297104
3.923050880432129,0.22592157125473022,-0.060558974742889404,-0.04409985989332199,-0.6772206668769343,-1.4890999950297588,-0.004468434875779006,-0.7767180800437927,0.6266294717788696,-0.06359656900167465,1.3031163215637207,0.6552149057388306,0.22521819174289703
3.94386887550354,0.17008507251739502,-0.03505665063858032,-0.04036117345094681,-0.678801511203193,-1.4523056440509974,0.03117830212323628,-0.7728685140609741,0.6278606653213501,-0.09200872480869293,1.323516845703125,0.7616685628890991,0.1336597502231598
3.9636669158935547,0.12430906295776367,-0.12587255239486694,0.004343211650848389,-0.6768564655670305,-1.4180819157348679,0.06189992038066051,-0.7704731225967407,0.6263455748558044,-0.11858566105365753,1.0697319507598877,0.7563692927360535,0.06711852550506592
3.9844799041748047,0.15739798545837402,-0.23837310075759888,0.0572054386138916,-0.6743502762109692,-1.389956317646254,0.0836815495909538,-0.7683752775192261,0.6243899464607239,-0.14048780500888824,0.7059932947158813,0.5960220098495483,-0.1278516799211502
4.00368595123291,0.15967464447021484,-0.19051027297973633,0.07981975376605988,-0.6652848541793848,-1.3690803241501126,0.10319712930704628,-0.7707890868186951,0.617283284664154,-0.15762419998645782,1.118269920349121,0.3414086103439331,-0.426806777715683
4.0246758460998535,0.1417751908302307,-0.1078575849533081,0.0952676385641098,-0.6482389630721036,-1.3407280932852248,0.14070378441319217,-0.7761443257331848,0.6037835478782654,-0.18178489804267883,2.2042548656463623,0.22568252682685852,-0.5791869163513184
4.04465389251709,0.11007535457611084,-0.11890947818756104,0.13548757135868073,-0.6232684155294471,-1.3006682876018953,0.20106073729260324,-0.7825302481651306,0.5836921334266663,-0.21667948365211487,3.0420117378234863,0.17680801451206207,-0.6417530179023743
4.064538955688477,0.04548913240432739,-0.09987449645996094,0.12906813621520996,-0.5948318232221158,-1.2600591441059181,0.267427378428399,-0.7885770201683044,0.5603694915771484,-0.2532440423965454,2.8203933238983154,0.1732085794210434,-0.4063533842563629
4.084482908248901,0.006959199905395508,-0.17026150226593018,0.10158500075340271,-0.5735914048873073,-1.2329180855966613,0.3138238740614096,-0.7924664616584778,0.5426521897315979,-0.27843421697616577,1.6441713571548462,-0.03283778950572014,-0.44040462374687195
4.1042656898498535,-0.039768993854522705,-0.12615948915481567,0.06213861703872681,-0.5544835916529423,-1.215535062481927,0.348192595252696,-0.7970841526985168,0.5265043377876282,-0.29572007060050964,2.033720016479492,0.026058727875351906,-0.2974904775619507
4.124502897262573,-0.07118606567382812,0.07938331365585327,0.013397008180618286,-0.5335567731977895,-1.187145897605322,0.3997247931386262,-0.798412561416626,0.5085989236831665,-0.3222805857658386,2.607597827911377,0.11010649800300598,-0.12701719999313354
4.145339012145996,-0.12638312578201294,-0.0006672441959381104,0.03810960054397583,-0.5128791603212899,-1.1612465201365587,0.4476455540163677,-0.7992761135101318,0.4906879961490631,-0.3469626307487488,1.9323259592056274,0.14192229509353638,-0.12811191380023956
4.166079998016357,-0.15398091077804565,-0.21519231796264648,0.05268669128417969,-0.5008558629088582,-1.1417819226999193,0.4764831025162933,-0.7976793646812439,0.4801764488220215,-0.36488139629364014,0.9310671091079712,0.40372374653816223,0.006745212245732546
4.1817169189453125,-0.16519784927368164,-0.18615832924842834,-0.012321650981903076,-0.4953711662938581,-1.1259095131151302,0.4897318209634923,-0.7941529154777527,0.475358247756958,-0.37862372398376465,0.40454649925231934,0.46164748072624207,-0.046384312212467194
4.2002668380737305,-0.09328371286392212,-0.11660325527191162,-0.024725794792175293,-0.49215903493402846,-1.1157545708895436,0.4949707796110955,-0.7916346192359924,0.4725297689437866,-0.38733771443367004,0.1461971402168274,0.3452191650867462,0.023770896717905998
4.219923973083496,-0.057534873485565186,-0.2102557122707367,0.021656781435012817,-0.4946470493858467,-1.1104269234110342,0.49372400677760775,-0.7885039448738098,0.4747210443019867,-0.39102616906166077,-0.3973340690135956,0.2717006206512451,0.11613116413354874
4.239327907562256,-0.11824613809585571,-0.24584850668907166,0.03999730944633484,-0.5021624307329496,-1.1107073932706295,0.4809506468550729,-0.7853946685791016,0.48132213950157166,-0.3892098069190979,-0.8657231330871582,0.29821106791496277,0.07649995386600494
4.259918689727783,-0.11623674631118774,-0.25846433639526367,0.04872223734855652,-0.5129665371559468,-1.1141129929179299,0.46177512015490635,-0.7820024490356445,0.4907641112804413,-0.38421714305877686,-1.0511268377304077,0.3198187053203583,0.17008140683174133
4.28175687789917,-0.07069569826126099,-0.24928772449493408,0.1181822419166565,-0.5260905298218037,-1.1160302862897271,0.440566342941914,-0.7768843770027161,0.5021563768386841,-0.3798551559448242,-1.1575963497161865,0.56130450963974,0.17904601991176605
4.299921989440918,-0.09166306257247925,-0.23861920833587646,0.067938894033432,-0.5367959977877095,-1.1126986136232406,0.4239950695819072,-0.770748496055603,0.5113852620124817,-0.38004201650619507,-0.593572735786438,0.6234086751937866,0.1990959346294403
4.322474002838135,-0.05467629432678223,-0.19756978750228882,0.055722713470458984,-0.5450158099995633,-1.1046833966476122,0.41714386666637493,-0.7638968229293823,0.5184316039085388,-0.3843053877353668,-0.28187090158462524,0.465533047914505,0.22593694925308228
4.339919805526733,-0.01424318552017212,-0.2585487365722656,0.17006641626358032,-0.5528021058164196,-1.0975398338583802,0.41159765788071034,-0.7575159668922424,0.5250740647315979,-0.38790076971054077,-0.5368897318840027,0.558813214302063,0.27893003821372986
4.360503911972046,-0.0010453462600708008,-0.34228622913360596,0.18237784504890442,-0.5641701955805054,-1.0925066390395965,0.39967092274724053,-0.7502058744430542,0.5347148180007935,-0.388935923576355,-0.9226561784744263,0.5930447578430176,0.22471512854099274
4.382411956787109,-0.028515517711639404,-0.23972874879837036,0.09898489713668823,-0.57234957334186,-1.093170304311007,0.37980310583697047,-0.7465547323226929,0.5416086912155151,-0.38641461730003357,-0.8711451888084412,0.4253678619861603,-0.23942680656909943
4.400387763977051,-0.0016880035400390625,-0.21138745546340942,0.08230751752853394,-0.5728873897954246,-1.0991352303599915,0.3565316527825845,-0.7485867738723755,0.5420606732368469,-0.3818221986293793,-0.945339560508728,0.32921460270881653,-0.516014039516449
4.423527717590332,0.008817613124847412,-0.2790963053703308,0.14128431677818298,-0.571587132051226,-1.1079720151498909,0.32688257907161217,-0.7525615096092224,0.540967583656311,-0.37550660967826843,-1.226676106452942,0.4089997112751007,-0.7131022810935974
4.443363904953003,-0.04658401012420654,-0.2634955048561096,0.11099731922149658,-0.5674848587270485,-1.1175674038479186,0.29049189457693414,-0.7581188678741455,0.5375128388404846,-0.3692370057106018,-1.3047500848770142,0.5976329445838928,-1.01832115650177
4.46254301071167,-0.04855549335479736,-0.20287692546844482,0.08093196153640747,-0.5569578839995247,-1.1254379766153149,0.2514312423538604,-0.7660655975341797,0.5286062955856323,-0.3656761348247528,-1.1913678646087646,0.6833581924438477,-1.3719862699508667
4.482297897338867,0.01697307825088501,-0.1965307593345642,0.11923795938491821,-0.539669578542656,-1.1329924682324795,0.21148829817033007,-0.7769677042961121,0.5138525366783142,-0.36369889974594116,-1.2015844583511353,0.6124666333198547,-1.6268668174743652
4.503067970275879,0.06327515840530396,-0.18496200442314148,0.16491085290908813,-0.5188246799014579,-1.1447788891973145,0.16675805963557802,-0.7907837629318237,0.495859831571579,-0.35886523127555847,-1.4309167861938477,0.4650461971759796,-1.9187661409378052
4.523173809051514,0.03063511848449707,-0.15857794880867004,0.16528281569480896,-0.4930917112162603,-1.1613312372721571,0.11588448857889659,-0.8080554008483887,0.47335153818130493,-0.3506923317909241,-1.606430172920227,0.36246752738952637,-2.2198400497436523
4.543197870254517,0.01591891050338745,-0.13216128945350647,0.20842206478118896,-0.4649229273275444,-1.1796000699941915,0.060257547921999645,-0.8263285756111145,0.44835391640663147,-0.3408225178718567,-1.8777015209197998,0.3736259341239929,-2.287446975708008
4.5618367195129395,0.01001650094985962,-0.12500634789466858,0.2435550093650818,-0.4365293856922763,-1.1983000419585705,0.00030635419921343953,-0.8440772891044617,0.4227968752384186,-0.3298128843307495,-2.0595264434814453,0.3596535623073578,-2.3582186698913574
4.580938816070557,-0.0031786561012268066,-0.04053488373756409,0.2418607771396637,-0.40731009741583596,-1.2171516344382667,-0.060878517974833436,-0.8613691329956055,0.3961409330368042,-0.31798675656318665,-2.160658597946167,0.3110634684562683,-2.3600080013275146
4.602876901626587,-0.018052101135253906,0.05732834339141846,0.22469642758369446,-0.3769339452558904,-1.2355516238532123,-0.12345662290362674,-0.8780354857444763,0.36807140707969666,-0.3059036135673523,-2.202606439590454,0.19500266015529633,-2.4938082695007324
4.622793674468994,-0.009040117263793945,0.11329039931297302,0.21458780765533447,-0.34338456090011565,-1.2557889756030811,-0.1861976400549481,-0.8952873945236206,0.3366759717464447,-0.2917361855506897,-2.3171544075012207,0.005274796858429909,-2.556946039199829
4.64420485496521,0.007995426654815674,0.14298692345619202,0.2445109784603119,-0.3096776746560378,-1.278328760079842,-0.25106565870478814,-0.9119871854782104,0.3047516644001007,-0.2746012210845947,-2.575058937072754,-0.19577433168888092,-2.5079293251037598
4.663023948669434,-0.04805421829223633,0.18241411447525024,0.23461127281188965,-0.2768270057532684,-1.303650930336736,-0.32073088360460833,-0.9278064370155334,0.27330484986305237,-0.2539288401603699,-2.942413091659546,-0.3007082939147949,-2.5027852058410645
4.682691812515259,-0.11320191621780396,0.25905537605285645,0.21615912020206451,-0.24461265936184184,-1.3285312568739327,-0.3959396782430055,-0.9418976306915283,0.24218052625656128,-0.23276056349277496,-3.293856620788574,-0.20871587097644806,-2.4408881664276123
4.701581001281738,-0.09886389970779419,0.29530346393585205,0.2157801389694214,-0.21442298792824377,-1.3496602520512404,-0.4746075697737049,-0.9533059597015381,0.21278366446495056,-0.21431520581245422,-3.47001576423645,-0.1365448236465454,-2.2263970375061035
4.722420692443848,-0.05601006746292114,0.35589802265167236,0.18739378452301025,-0.1880395173001475,-1.3683780799016314,-0.5527860747984263,-0.9623157978057861,0.18693332374095917,-0.1974949985742569,-3.4288902282714844,-0.18902578949928284,-1.990567922592163
4.741458892822266,-0.05728191137313843,0.4630434513092041,0.12877029180526733,-0.16347713733722855,-1.3854707622889935,-0.6247245171007134,-0.9697719812393188,0.16274996101856232,-0.18180978298187256,-3.024752378463745,-0.23946748673915863,-1.7901533842086792
4.762297868728638,-0.04297149181365967,0.5478293299674988,0.0785064846277237,-0.1393891171011534,-1.3994360654166704,-0.6846132406477695,-0.9757968783378601,0.13893818855285645,-0.16886895895004272,-2.3723719120025635,-0.25940409302711487,-1.6233034133911133
4.782289028167725,0.01025933027267456,0.588937520980835,0.08967716991901398,-0.11720215591823087,-1.4111133888135174,-0.7313613706032569,-0.9805046916007996,0.11693401634693146,-0.15791435539722443,-1.878526210784912,-0.33896690607070923,-1.339184284210205
4.801219940185547,0.015414535999298096,0.5943456888198853,0.023378849029541016,-0.09807215230452053,-1.4233290968399794,-0.7679442953759122,-0.9843935370445251,0.09791501611471176,-0.14622731506824493,-1.4519894123077393,-0.4889414310455322,-1.1124721765518188
4.821106910705566,0.03143596649169922,0.5933941006660461,-0.055782437324523926,-0.08220497300172565,-1.4374878237989173,-0.7960038958624142,-0.9877806305885315,0.08211241662502289,-0.1324651837348938,-1.1267708539962769,-0.6709004640579224,-0.8486026525497437
4.841969966888428,0.06998509168624878,0.550445020198822,-0.08012843132019043,-0.07098292030775143,-1.4541238924545865,-0.8189730162882444,-0.9907005429267883,0.0709233283996582,-0.1161147877573967,-1.0681250095367432,-0.8061317801475525,-0.5611990094184875
4.861047744750977,0.07687455415725708,0.5183117389678955,-0.08105605840682983,-0.0645577442710823,-1.4719203551819462,-0.8416237677186454,-0.9930428266525269,0.06451290845870972,-0.09850931167602539,-1.1000841856002808,-0.803961992263794,-0.3317072093486786
4.882797718048096,0.07012486457824707,0.5063250064849854,-0.13420885801315308,-0.06215061792582111,-1.488613515914883,-0.8626818313118351,-0.9947007894515991,0.06211061403155327,-0.08193184435367584,-0.9625903964042664,-0.7370604276657104,-0.1008944883942604
4.901961803436279,0.10321784019470215,0.4920164942741394,-0.1871628761291504,-0.06333890190210344,-1.5048649350646182,-0.8810907497835426,-0.9958264827728271,0.06329655647277832,-0.06575153023004532,-0.8617126941680908,-0.8080599308013916,0.04754756763577461
4.921909809112549,0.12151247262954712,0.4750431180000305,-0.21605515480041504,-0.06569925502763174,-1.5228442607449222,-0.8962635111210413,-0.9966956377029419,0.06565199792385101,-0.047830283641815186,-0.6400749087333679,-0.8861916661262512,0.10918077826499939
4.9402618408203125,0.10228806734085083,0.4810994267463684,-0.2606700658798218,-0.06833110889210722,-1.541262587188696,-0.9064075292444173,-0.9972313046455383,0.06827794760465622,-0.029460536316037178,-0.3677372932434082,-0.8764641284942627,0.10620614886283875
4.961481809616089,0.06962740421295166,0.4588070809841156,-0.3144682049751282,-0.07004345634278421,-1.5581764767718118,-0.9122543419584301,-0.9974686503410339,0.06998619437217712,-0.01258857361972332,-0.21855157613754272,-0.7622126936912537,0.053121499717235565
4.981464862823486,0.0605587363243103,0.4261253774166107,-0.3351106643676758,-0.07059150647829758,-1.5711147289867333,-0.9163798053077493,-0.9975094795227051,0.0705328956246376,0.00031760919955559075,-0.1776968389749527,-0.49709078669548035,-0.000440250791143626
5.0012969970703125,0.07980889081954956,0.4566262662410736,-0.37748026847839355,-0.0699198948848806,-1.5795695909946053,-0.9170418148272215,-0.9975184202194214,0.06986293941736221,0.008751717396080494,0.14208070933818817,-0.3635895252227783,-0.060341350734233856
5.022225856781006,0.10066771507263184,0.49842530488967896,-0.46313416957855225,-0.06884395830447174,-1.5868256557742324,-0.909957496603856,-0.9975032210350037,0.06878959387540817,0.01599067635834217,0.5501794815063477,-0.4512413442134857,-0.06410093605518341
5.039951801300049,0.08554524183273315,0.5232221484184265,-0.4647030830383301,-0.06716030353576435,-1.5955094280059041,-0.896250163124606,-0.9974410533905029,0.06710983067750931,0.024654880166053772,0.8196125030517578,-0.456709623336792,-0.11074024438858032
5.060948848724365,0.02809041738510132,0.49146777391433716,-0.4648427963256836,-0.06615181353687659,-1.6029146314146459,-0.8781928500798414,-0.9972980618476868,0.06610357761383057,0.03204254060983658,0.9111741185188293,-0.36270418763160706,-0.02720831334590912
5.081902027130127,-0.018661141395568848,0.4752894639968872,-0.41870856285095215,-0.06721103845623234,-1.6066436600840603,-0.8599130144549826,-0.9971012473106384,0.06716044992208481,0.035758741199970245,0.9016811847686768,-0.1574496626853943,0.07502047717571259
5.1004438400268555,-0.018041133880615234,0.5039646625518799,-0.3983736038208008,-0.07035782682807717,-1.6087995179578876,-0.8435583739684023,-0.9968056678771973,0.07029979676008224,0.03790004551410675,0.8619906306266785,-0.23705625534057617,0.1411004513502121
5.12145471572876,-0.07298874855041504,0.5277091264724731,-0.4089456796646118,-0.07589455016762527,-1.6124729982783077,-0.8218004350698846,-0.9962558150291443,0.07582171261310577,0.041544683277606964,1.3252382278442383,-0.2500636875629425,0.3187117874622345
5.144493818283081,-0.20219898223876953,0.5644683837890625,-0.4014383554458618,-0.08452745336973057,-1.6112145128500035,-0.7900737200197334,-0.99561607837677,0.08442683517932892,0.04026292264461517,1.8431811332702637,0.13563723862171173,0.38896337151527405
5.162472724914551,-0.2080133557319641,0.488944411277771,-0.3079720735549927,-0.09579673229706075,-1.6010645723817192,-0.7527966162826562,-0.9949592351913452,0.09565027803182602,0.03012487106025219,1.8120819330215454,0.4907177686691284,0.6583268642425537
5.179390907287598,-0.09777843952178955,0.36037471890449524,-0.18078887462615967,-0.11463811077441241,-1.587280741276382,-0.722985879029271,-0.9933013319969177,0.11438718438148499,0.016375474631786346,1.143518090248108,0.5326882600784302,1.141321063041687
5.199986934661865,-0.15527832508087158,0.31096458435058594,-0.12846386432647705,-0.14074773397370618,-1.5736321825477106,-0.7058382753997714,-0.9901074767112732,0.1402834951877594,0.002807809505611658,0.7130807638168335,0.633736252784729,1.4086542129516602
5.219993829727173,-0.26093798875808716,0.3839731514453888,-0.1322317123413086,-0.17059449956644798,-1.5577269343940554,-0.6888479596440874,-0.9853999614715576,0.16976824402809143,-0.01287931203842163,1.0091371536254883,0.6509155035018921,1.5720542669296265
5.239965915679932,-0.2775399088859558,0.41886550188064575,-0.08667927980422974,-0.20255764982583313,-1.5397243258568625,-0.6600179302764754,-0.979082465171814,0.20117534697055817,-0.030431846156716347,1.7771964073181152,0.5433768033981323,1.6290591955184937
5.2599077224731445,-0.2712986469268799,0.373506635427475,0.0321769118309021,-0.233357066215565,-1.5193031078958406,-0.6164303317928571,-0.9716061353683472,0.23124489188194275,-0.05007539317011833,2.319291114807129,0.5681590437889099,1.5766005516052246
5.279915809631348,-0.2986323833465576,0.2867835760116577,0.1248505711555481,-0.2599734331292689,-1.4929202894019886,-0.561258546461128,-0.9634679555892944,0.25705486536026,-0.07518311589956284,2.8276641368865967,0.7614201903343201,1.5094577074050903
5.29991888999939,-0.25519365072250366,0.26089802384376526,0.18341785669326782,-0.28483859020763846,-1.4615813450515969,-0.49921364429226567,-0.9539892077445984,0.28100255131721497,-0.10460615158081055,2.9856557846069336,0.7012365460395813,1.468773365020752
5.319929838180542,-0.22736459970474243,0.235272616147995,0.22728748619556427,-0.3052744689724133,-1.428982730264591,-0.4338545467390906,-0.9441899657249451,0.30055496096611023,-0.1348038762807846,2.9630520343780518,0.7172033786773682,1.3878074884414673
5.340008735656738,-0.1931418776512146,0.17574119567871094,0.2882768511772156,-0.3234610850932954,-1.3939511616497187,-0.37017501528640695,-0.9333536028862,0.3178500533103943,-0.1668015718460083,2.670846700668335,0.7945159077644348,1.3201032876968384
5.359932899475098,-0.15027683973312378,0.12354299426078796,0.3221129775047302,-0.33859343591335445,-1.3579003192977293,-0.3120104719766037,-0.9219278693199158,0.33216071128845215,-0.19929489493370056,2.4921560287475586,0.9032771587371826,1.2977901697158813
5.379934787750244,-0.04385507106781006,0.059161990880966187,0.3533060848712921,-0.3540737715245331,-1.3200882088236614,-0.25485081015022537,-0.9086443185806274,0.34672173857688904,-0.23270048201084137,2.364266872406006,0.9533620476722717,1.426049828529358
5.400117874145508,0.012250661849975586,0.01772892475128174,0.3932651877403259,-0.36943194424704073,-1.2811001822229915,-0.1992509812250223,-0.8936747312545776,0.36108577251434326,-0.26638826727867126,2.266883134841919,0.9275694489479065,1.4694608449935913
5.4222259521484375,0.04271203279495239,-0.02946457266807556,0.42656078934669495,-0.3869656530802066,-1.243897414855475,-0.1472136819362532,-0.8770168423652649,0.3773801624774933,-0.2973645031452179,1.805857539176941,0.8955103158950806,1.6771297454833984
5.440701961517334,-0.011044800281524658,-0.09965348243713379,0.4395836889743805,-0.40661876369476574,-1.2075224571823309,-0.10114717311076848,-0.8585230708122253,0.3955060541629791,-0.3263634145259857,1.5710526704788208,0.9579824805259705,1.5999958515167236
5.4599668979644775,-0.01163637638092041,-0.0851561427116394,0.4990454912185669,-0.42521667204973745,-1.1707567940747137,-0.057402652350747076,-0.8390259742736816,0.412518173456192,-0.3547735810279846,1.5003324747085571,0.9540868997573853,1.6282762289047241
5.480331897735596,0.024751245975494385,-0.09754455089569092,0.5434012413024902,-0.44170927620415934,-1.134503270655062,-0.01312757693594009,-0.8193374872207642,0.42748531699180603,-0.3820241689682007,1.4298739433288574,0.7517729997634888,1.4740439653396606
5.499966859817505,0.02126789093017578,-0.18458130955696106,0.5624572038650513,-0.45529080230668517,-1.1051310324597525,0.025651679527319057,-0.8025027513504028,0.43972352147102356,-0.4032773971557617,1.1181693077087402,0.507417619228363,1.2902992963790894
5.520273685455322,-0.03159940242767334,-0.23450377583503723,0.5463824272155762,-0.4669915166136116,-1.0823600749176987,0.05697773840768195,-0.7885147929191589,0.45020195841789246,-0.4190019369125366,0.8319042921066284,0.40227124094963074,1.0335816144943237
5.540027856826782,-0.07916754484176636,-0.222829669713974,0.5466616749763489,-0.4747636990005519,-1.0629917330051557,0.08291289465236641,-0.7771709561347961,0.45712828636169434,-0.4324800372123718,0.9083253145217896,0.33025112748146057,0.7655588984489441
5.5599658489227295,-0.07769143581390381,-0.22540530562400818,0.5360130667686462,-0.4784867881168849,-1.047014376800572,0.10595870633533974,-0.7686831951141357,0.4604364335536957,-0.4439871907234192,0.749622642993927,0.17874236404895782,0.5323518514633179
5.580066680908203,-0.06676232814788818,-0.32783639430999756,0.5429108142852783,-0.47989546603309285,-1.036486587254237,0.12383130814155358,-0.7634074091911316,0.46168646216392517,-0.45172417163848877,0.4448777139186859,0.02894941158592701,0.400809645652771
5.601485729217529,-0.059002578258514404,-0.369511216878891,0.5587508678436279,-0.48254980919233736,-1.0336801150865382,0.13378021261179424,-0.7610810399055481,0.46403932571411133,-0.45323625206947327,0.21338683366775513,-0.23507647216320038,0.27216634154319763
5.619938850402832,-0.09142935276031494,-0.3379964232444763,0.538729190826416,-0.4852156215406028,-1.03946352897076,0.137265271689122,-0.7626203894615173,0.46639910340309143,-0.44819867610931396,-0.08576519042253494,-0.4714184105396271,0.10747386515140533
5.6399407386779785,-0.15937775373458862,-0.34520500898361206,0.5336365103721619,-0.48625819744496146,-1.0516637104038629,0.13451900225155175,-0.7676090002059937,0.46732109785079956,-0.4386199712753296,-0.18447360396385193,-0.628171980381012,-0.14120161533355713
5.659969806671143,-0.23160964250564575,-0.3902599513530731,0.5289084911346436,-0.4848041669288101,-1.069016741577017,0.12613792908593752,-0.7756993770599365,0.4660350978374481,-0.4255606532096863,-0.4361034631729126,-0.6875479221343994,-0.3355042040348053
5.679942846298218,-0.28290659189224243,-0.45597657561302185,0.5633395314216614,-0.48307695668163153,-1.0904297444597528,0.1085924603355999,-0.7853460907936096,0.46450623869895935,-0.4092256724834442,-0.8677839040756226,-0.6543364524841309,-0.5584405064582825
5.699965000152588,-0.30475836992263794,-0.4663882851600647,0.5397020578384399,-0.4802419002164436,-1.1181482937882259,0.08073870361851723,-0.7975671887397766,0.4619937241077423,-0.3878770172595978,-1.1823484897613525,-0.8717261552810669,-0.8091066479682922
5.719983816146851,-0.3712642788887024,-0.3627472519874573,0.46398627758026123,-0.47350558134582926,-1.1544923495500476,0.0460661858788088,-0.8139622807502747,0.4560089707374573,-0.35989072918891907,-1.3131992816925049,-1.146565318107605,-1.118200659751892
5.7399468421936035,-0.49569833278656006,-0.26594310998916626,0.44241803884506226,-0.4596639412443233,-1.1954697920385704,0.006747146896750937,-0.833815336227417,0.44364696741104126,-0.3285263776779175,-1.4522209167480469,-1.0827605724334717,-1.5106894969940186
5.760018825531006,-0.5312860608100891,-0.21714749932289124,0.44840168952941895,-0.4400271358740982,-1.2318519610966467,-0.03963772158610935,-0.8532660603523254,0.42596402764320374,-0.30081862211227417,-1.782027006149292,-0.5499036312103271,-1.7688161134719849
5.779963970184326,-0.30771785974502563,-0.21876874566078186,0.34145817160606384,-0.4183835396965041,-1.2655119688143999,-0.09282611912297604,-0.8714966177940369,0.4062839448451996,-0.2746397852897644,-2.1147210597991943,-0.775210976600647,-1.7985923290252686
5.80002498626709,-0.12520116567611694,-0.12692901492118835,0.16380096971988678,-0.3960686351969568,-1.3102466037937666,-0.14763382977101888,-0.8914461731910706,0.3857943117618561,-0.2376686930656433,-2.005063533782959,-1.4860044717788696,-1.7757718563079834
5.8199708461761475,-0.19953316450119019,-0.012517690658569336,0.0604129433631897,-0.37004135515469433,-1.3595191349133857,-0.19449509843456064,-0.9115814566612244,0.36165398359298706,-0.19551418721675873,-1.6309086084365845,-1.6133099794387817,-1.7893993854522705
5.839963912963867,-0.3275834321975708,0.019310593605041504,0.007953941822052002,-0.3402759671542409,-1.4036622248217883,-0.23305055643698402,-0.929527223110199,0.3337472379207611,-0.15681861340999603,-1.4063369035720825,-1.4459339380264282,-1.8353556394577026
5.85997200012207,-0.3336935043334961,0.08370193839073181,-0.009276032447814941,-0.3086253213865759,-1.4410906021781715,-0.2670890700355491,-0.9447489976882935,0.3037492036819458,-0.1232311874628067,-1.358967661857605,-1.2333580255508423,-1.748396396636963
5.87995982170105,-0.2868020534515381,0.10730195045471191,-0.034302614629268646,-0.2784065565823288,-1.4739349941293114,-0.3018329211021368,-0.9569879174232483,0.2748239040374756,-0.0929861068725586,-1.6797648668289185,-1.0322710275650024,-1.644443392753601
5.900489807128906,-0.2433595061302185,0.10199989378452301,-0.05011444538831711,-0.24997582041374658,-1.5034737437232533,-0.3453563888111219,-0.9667235016822815,0.24738052487373352,-0.06518083065748215,-2.3086276054382324,-0.8016595840454102,-1.5273555517196655
5.920673847198486,-0.16535860300064087,0.13227175176143646,-0.06823378801345825,-0.22299582114488442,-1.5296003776344058,-0.3993659508157011,-0.9744120240211487,0.22115226089954376,-0.04016455262899399,-2.7533674240112305,-0.5535274147987366,-1.4488450288772583
5.939964771270752,-0.06670624017715454,0.2530401349067688,-0.11751788854598999,-0.19623007096783396,-1.5523545490419668,-0.45872130685061935,-0.9806419610977173,0.1949731409549713,-0.018086832016706467,-2.9156885147094727,-0.4901518225669861,-1.3942142724990845
5.959967851638794,0.025499284267425537,0.34432756900787354,-0.15093278884887695,-0.16928181983205867,-1.5726312886592382,-0.5168504941207999,-0.9857044816017151,0.168474480509758,0.001808732165955007,-2.7374157905578613,-0.47071677446365356,-1.3158634901046753
5.980052947998047,0.07821059226989746,0.4211159944534302,-0.1852731704711914,-0.1425528844330451,-1.5905300027351894,-0.5672659005941588,-0.9896638989448547,0.14207056164741516,0.01953224278986454,-2.2338554859161377,-0.5227048397064209,-1.2831854820251465
6.000025749206543,0.09576141834259033,0.4817153811454773,-0.23730480670928955,-0.11597175194071621,-1.60670516575617,-0.603916051363119,-0.9926427602767944,0.11571196466684341,0.03565997630357742,-1.4878811836242676,-0.599082350730896,-1.251798391342163
6.020936965942383,0.09807026386260986,0.5289959907531738,-0.28862082958221436,-0.0904663127458598,-1.622100532112542,-0.6265127329764509,-0.9946004748344421,0.09034296125173569,0.051072005182504654,-0.9121390581130981,-0.702884316444397,-1.2080689668655396
6.039965867996216,0.0872601866722107,0.5337517857551575,-0.32254862785339355,-0.06556877402715942,-1.6379703691180232,-0.6400007062387083,-0.9956006407737732,0.06552179902791977,0.0669792965054512,-0.6122921705245972,-0.7843565344810486,-1.1862142086029053
6.059909820556641,0.07445317506790161,0.5440727472305298,-0.3463001251220703,-0.042136563495483795,-1.6538071557955716,-0.6501165630661492,-0.9956722855567932,0.04212409630417824,0.08284194767475128,-0.5847219228744507,-0.74408358335495,-1.0863405466079712
6.079969882965088,0.06478685140609741,0.5981671214103699,-0.4416149854660034,-0.02002870520639303,-1.668577311791895,-0.6579219071903202,-0.9950236082077026,0.020027365535497665,0.09760566055774689,-0.38770249485969543,-0.7000624537467957,-1.0375958681106567
6.099709987640381,0.09034121036529541,0.6417287588119507,-0.5322424173355103,-0.0008035080683849223,-1.6809746792269853,-0.6609646707151341,-0.9939363598823547,0.0008035079808905721,0.1099555566906929,-0.14964693784713745,-0.5158317685127258,-0.8210203051567078
6.119434833526611,0.16827785968780518,0.5997999310493469,-0.5180467367172241,0.01248954811678658,-1.6886581451928477,-0.6628129504806037,-0.99298495054245,-0.01248922385275364,0.11757996678352356,-0.2322433590888977,-0.2542925775051117,-0.4724559187889099
6.140836715698242,0.23322105407714844,0.5534680485725403,-0.4929865598678589,0.0184960443379292,-1.6915842147333038,-0.6685377935062132,-0.9925443530082703,-0.018494989722967148,0.12047380208969116,-0.38402828574180603,-0.08724377304315567,-0.0587785467505455
6.160256862640381,0.21137648820877075,0.5923858880996704,-0.5450820922851562,0.01711519513723361,-1.6931207875980925,-0.6752572028428967,-0.9923823475837708,-0.017114359885454178,0.1220017597079277,-0.18677960336208344,-0.06735928356647491,0.250323086977005
6.180016994476318,0.09560167789459229,0.6660076975822449,-0.583182692527771,0.01026145566483808,-1.6931854744108958,-0.6747526324443678,-0.9924675226211548,-0.010261275805532932,0.12207739800214767,0.3272795081138611,0.06282588839530945,0.40685856342315674
6.199927806854248,-0.025547266006469727,0.6782329678535461,-0.5383342504501343,-0.0003100760198848912,-1.6904093169440388,-0.6656164966254814,-0.9928550124168396,0.0003100760222878307,0.11932798475027084,0.6419878005981445,0.22099749743938446,0.5529183149337769
6.219988822937012,-0.11162054538726807,0.6131321787834167,-0.44869160652160645,-0.01517951467814222,-1.6836195942880565,-0.6550761322353871,-0.9935279488563538,0.015178931877017021,0.112571120262146,0.531122624874115,0.45682281255722046,0.8092445731163025
6.239909887313843,-0.18882542848587036,0.5534234046936035,-0.355755090713501,-0.03477937855082735,-1.6730682608682295,-0.648963513062874,-0.9941734075546265,0.0347723662853241,0.10203202068805695,0.3171856105327606,0.5532838702201843,1.0779533386230469
6.259913921356201,-0.3196413516998291,0.5744324922561646,-0.31092512607574463,-0.0589634274195442,-1.659656843758204,-0.6446551824967004,-0.9943236708641052,0.05892926827073097,0.08858941495418549,0.39293229579925537,0.8416943550109863,1.2692325115203857
6.279938697814941,-0.4089757800102234,0.6056747436523438,-0.2970324754714966,-0.08614311057523495,-1.6378265640982779,-0.6368804991296487,-0.9940547347068787,0.08603660762310028,0.06673169881105423,0.5950454473495483,1.223222017288208,1.3968985080718994
6.299973964691162,-0.2906438112258911,0.5171690583229065,-0.21097958087921143,-0.11756193033411236,-1.6112593022710482,-0.6254325251827486,-0.9922846555709839,0.11729131639003754,0.04017271846532822,0.664789080619812,1.2928987741470337,1.704102635383606
6.319787979125977,-0.21264123916625977,0.44642895460128784,-0.0973505973815918,-0.15570081530377805,-1.5842649065208068,-0.6133646920488504,-0.9878135323524475,0.15507248044013977,0.01330525055527687,0.6455058455467224,1.2123826742172241,2.022627830505371
6.339931964874268,-0.30497217178344727,0.39506688714027405,-0.012755154632031918,-0.1982394405794643,-1.556989848177949,-0.5993138333714559,-0.98032146692276,0.19694355130195618,-0.013535646721720695,0.7647401094436646,1.2680829763412476,2.169919967651367
6.359929800033569,-0.40667080879211426,0.3812161386013031,0.024406317621469498,-0.24126533440983564,-1.5261463033038958,-0.579397802126729,-0.9700686931610107,0.23893150687217712,-0.04334239661693573,1.0892199277877808,1.3555063009262085,2.1826441287994385
6.379989862442017,-0.3621978759765625,0.3381025791168213,0.06190264970064163,-0.283397149227127,-1.4920802141452851,-0.5497968939358249,-0.9571381211280823,0.27961888909339905,-0.07549819350242615,1.5169214010238647,1.2514244318008423,2.223586082458496
6.399961948394775,-0.26803404092788696,0.28147798776626587,0.09320473670959473,-0.32477194032148604,-1.4576868783592059,-0.5084332381022538,-0.9416676163673401,0.31909266114234924,-0.10696806758642197,2.0438215732574463,0.9442415833473206,2.271432399749756
6.420005798339844,-0.26539677381515503,0.2262606918811798,0.14232386648654938,-0.3635751248363219,-1.422084973431513,-0.4535353352214144,-0.9243157505989075,0.3556179106235504,-0.1384785771369934,2.5851573944091797,0.8118637800216675,2.24906587600708
6.4399518966674805,-0.31483888626098633,0.16194495558738708,0.20957911014556885,-0.3974311565028091,-1.3796738363777554,-0.38673446409754053,-0.905269205570221,0.387050986289978,-0.17515520751476288,2.9108495712280273,0.975631833076477,2.1491265296936035
6.459942817687988,-0.27418798208236694,0.07089406251907349,0.28511518239974976,-0.4262569998426768,-1.3294822649883244,-0.3143011135617177,-0.8841372728347778,0.41346561908721924,-0.2175949364900589,2.934034824371338,1.1241381168365479,2.111987590789795
6.4790449142456055,-0.18127787113189697,-0.01814165711402893,0.32200509309768677,-0.4518484195172778,-1.2754911704011611,-0.2408121942855798,-0.8606991767883301,0.43662920594215393,-0.2618243396282196,2.8035717010498047,1.1430944204330444,2.134674072265625
6.499960899353027,-0.12167257070541382,-0.08116671442985535,0.3537285625934601,-0.4754497059479488,-1.2207186772360126,-0.1690413342837262,-0.8351603746414185,0.45773831009864807,-0.30493080615997314,2.5169677734375,1.1266688108444214,2.1364598274230957
6.519984722137451,-0.11557763814926147,-0.13621267676353455,0.39573079347610474,-0.49770978533235183,-1.1672504377721378,-0.10229657064502964,-0.8080979585647583,0.47741442918777466,-0.34504106640815735,2.158773899078369,1.1316879987716675,2.1246426105499268
6.53996467590332,-0.14649200439453125,-0.1702250838279724,0.45392704010009766,-0.5199003684774399,-1.1145351302453492,-0.04138218445066387,-0.7790910005569458,0.4967936873435974,-0.3823784589767456,1.7586791515350342,1.1708513498306274,2.10750150680542
6.559962749481201,-0.2156394124031067,-0.22295653820037842,0.4895608425140381,-0.5420874173029306,-1.0628684270967848,0.012679066090260212,-0.7484872341156006,0.5159252882003784,-0.4166390299797058,1.343403697013855,1.2950143814086914,2.015594959259033
6.5799689292907715,-0.26335203647613525,-0.2785525321960449,0.5438121557235718,-0.5645159314979759,-1.0118919480653168,0.05767189392585898,-0.7162927985191345,0.5350069403648376,-0.4479869306087494,0.8202633261680603,1.4302935600280762,1.8499882221221924
6.599991798400879,-0.2515714764595032,-0.35973215103149414,0.586500883102417,-0.5866199706196844,-0.9633619202800908,0.09316554379653653,-0.6838381290435791,0.5535492300987244,-0.4753405451774597,0.4395734667778015,1.464789867401123,1.6411999464035034
6.619961738586426,-0.20256268978118896,-0.42201340198516846,0.6296172142028809,-0.6079281281187517,-0.9203732982189027,0.12003424228045774,-0.6532418131828308,0.5711680054664612,-0.4970334768295288,0.11789281666278839,1.3151447772979736,1.3812644481658936
6.639960765838623,-0.18308281898498535,-0.4448348879814148,0.6307034492492676,-0.6270102654582195,-0.8860941663246801,0.1385534637644356,-0.6272658109664917,0.5867263674736023,-0.512142539024353,-0.09918107092380524,1.0471601486206055,1.044274926185608
6.659960746765137,-0.17589539289474487,-0.45446836948394775,0.5984396934509277,-0.6419844518579849,-0.8611570485959367,0.14895099421604643,-0.6075671911239624,0.5987859964370728,-0.5218404531478882,-0.1790466010570526,0.8412193059921265,0.6437804698944092
6.679961681365967,-0.11215507984161377,-0.5093981623649597,0.5943112373352051,-0.6513313333761854,-0.8443954154001545,0.15362773784058345,-0.5945253372192383,0.6062456965446472,-0.5282100439071655,-0.1418134719133377,0.507121741771698,0.30080872774124146
6.699963808059692,-0.048652470111846924,-0.5318414568901062,0.5966106057167053,-0.6545364619962487,-0.8389419283282286,0.1549484991726801,-0.5901873707771301,0.6087915897369385,-0.5301432609558105,0.012683112174272537,-0.06653938442468643,0.012337141670286655
6.719960689544678,-0.10320329666137695,-0.48770642280578613,0.5614113807678223,-0.6518573303948887,-0.8461974348431707,0.1540180991094561,-0.5952373743057251,0.6066639423370361,-0.5269263982772827,0.08458449691534042,-0.5465171933174133,-0.283694863319397
6.739961862564087,-0.2634117007255554,-0.4530230164527893,0.5673516988754272,-0.6443351674822114,-0.8619664009624586,0.14732499697124465,-0.6069191694259644,0.6006670594215393,-0.5204309225082397,-0.05199817195534706,-0.5751582384109497,-0.6261924505233765
6.759960889816284,-0.3455080986022949,-0.49660032987594604,0.6181728839874268,-0.6366825532908932,-0.8818833466074949,0.12968553253803297,-0.6206938028335571,0.594531238079071,-0.511147677898407,-0.5748216509819031,-0.37038058042526245,-0.8688605427742004
6.77904486656189,-0.28254157304763794,-0.5429165363311768,0.6125847101211548,-0.6316133324362823,-0.9100771601617688,0.09859638632309133,-0.6372277736663818,0.5904476046562195,-0.4952903091907501,-1.0309096574783325,-0.7537506818771362,-1.100843906402588
6.7999608516693115,-0.30068206787109375,-0.3982165455818176,0.5129226446151733,-0.6250110240070489,-0.9576758805020631,0.057114273607490294,-0.663246214389801,0.5851061940193176,-0.4666426479816437,-1.243230938911438,-1.5205646753311157,-1.4740712642669678
6.819959878921509,-0.5854124426841736,-0.1860363483428955,0.4293797016143799,-0.6081699896977131,-1.018110407629195,0.008777533099112333,-0.6985079646110535,0.571366548538208,-0.4308444857597351,-1.0764360427856445,-1.5667973756790161,-2.118147134780884
6.839960813522339,-0.7535834312438965,-0.1503150463104248,0.45366308093070984,-0.579521152190815,-1.0697847819023352,-0.042028922466808394,-0.7338891625404358,0.547623336315155,-0.4018899202346802,-1.256588101387024,-0.7792836427688599,-2.3960564136505127
6.8599607944488525,-0.3990037441253662,-0.2459583878517151,0.46220648288726807,-0.5516707094498134,-1.1172493765842084,-0.10017755349053456,-0.7655471563339233,0.5241107940673828,-0.3731561601161957,-1.8312078714370728,-1.0910714864730835,-2.30104660987854
6.880016803741455,-0.17551547288894653,-0.231742262840271,0.33116307854652405,-0.5281409665645768,-1.181197588303488,-0.16319345272631314,-0.7990176677703857,0.5039284825325012,-0.328065425157547,-2.0678045749664307,-1.9809341430664062,-2.0722062587738037
6.899968862533569,-0.4209703803062439,-0.09270691871643066,0.2097611129283905,-0.5032022665704544,-1.24905453520032,-0.22271549602109159,-0.8310897350311279,0.48223331570625305,-0.2770218253135681,-1.9174567461013794,-1.6736572980880737,-2.150938034057617
6.919981002807617,-0.6141429543495178,-0.033601313829422,0.17870302498340607,-0.47119387194921075,-1.3007808823215639,-0.2783427554743881,-0.8587422370910645,0.4539503753185272,-0.2376781851053238,-1.9029958248138428,-0.9711264967918396,-2.2969045639038086
6.939965724945068,-0.346499502658844,-0.005181550979614258,0.12117403745651245,-0.4375763044853648,-1.3435253725459153,-0.3322195880568515,-0.8824892640113831,0.42374536395072937,-0.20409023761749268,-1.9558762311935425,-1.0609111785888672,-2.1456069946289062
6.9599668979644775,-0.15016472339630127,0.06130287051200867,0.04931850731372833,-0.4051500381891429,-1.3882625992545068,-0.3823124430902698,-0.9037750363349915,0.39415666460990906,-0.16682636737823486,-1.8498846292495728,-1.3179367780685425,-1.979349136352539
6.979960918426514,-0.1846441626548767,0.09682944416999817,0.023476257920265198,-0.3728059417483302,-1.4308025619735212,-0.42851678202358345,-0.9221979379653931,0.36423006653785706,-0.12995201349258423,-1.9252797365188599,-1.1270660161972046,-1.9283466339111328
6.999980926513672,-0.22166800498962402,0.11204978823661804,0.024689018726348877,-0.3393735716484222,-1.4675186909494808,-0.4773500200156247,-0.9379390478134155,0.33289647102355957,-0.09721400588750839,-2.215313196182251,-0.8759640455245972,-1.9515413045883179
7.019999980926514,-0.1668376326560974,0.19018027186393738,-0.016139864921569824,-0.30426948950893384,-1.500699673509664,-0.5287042628171155,-0.9517232179641724,0.29959630966186523,-0.0668220967054367,-2.317275047302246,-0.8432460427284241,-1.98085355758667
7.039961814880371,-0.11044222116470337,0.2935143709182739,-0.076332688331604,-0.2671627706916422,-1.5322420366988179,-0.5787755035805329,-0.9638071060180664,0.2639959156513214,-0.03717732056975365,-2.291031837463379,-0.8989972472190857,-1.9900364875793457
7.059959888458252,-0.08340871334075928,0.36002635955810547,-0.1421874761581421,-0.22823847605597458,-1.5616071182414306,-0.6264595746560147,-0.9740254878997803,0.22626203298568726,-0.008950775489211082,-2.254836082458496,-0.8466385006904602,-2.020632743835449
7.079981803894043,-0.04276794195175171,0.4228006899356842,-0.1860438585281372,-0.1876274263787824,-1.587191625192618,-0.6720057263158032,-0.9823176264762878,0.18652848899364471,0.016106832772493362,-2.2165439128875732,-0.7799091339111328,-2.007782220840454
7.100034713745117,0.012073695659637451,0.47240912914276123,-0.22717106342315674,-0.1474019849218625,-1.6093076131558341,-0.7146047896256756,-0.9884227514266968,0.14686879515647888,0.03808426111936569,-2.0681166648864746,-0.7133905291557312,-1.895835041999817
7.119960784912109,0.015407145023345947,0.5748458504676819,-0.3098158836364746,-0.10831867048253677,-1.6273574051421495,-0.7512567366462284,-0.9925495386123657,0.10810697823762894,0.05619961395859718,-1.728150486946106,-0.6187315583229065,-1.8507500886917114
7.139983892440796,0.020637691020965576,0.6904584765434265,-0.41824591159820557,-0.06982156124024956,-1.641816957495987,-0.7786131065307168,-0.9950488209724426,0.06976484507322311,0.07078805565834045,-1.2498648166656494,-0.5913888216018677,-1.7924507856369019
7.160019874572754,0.0660400390625,0.7607703804969788,-0.4989880323410034,-0.03440234856291905,-1.6548481134004493,-0.7968727165087859,-0.9958802461624146,0.03439556434750557,0.08390318602323532,-0.863896906375885,-0.6111104488372803,-1.5820614099502563
7.179930686950684,0.11089420318603516,0.7646076083183289,-0.5254671573638916,-0.004847290782781314,-1.6664636206422647,-0.808484923965562,-0.9954156875610352,0.004847271833568811,0.09552031010389328,-0.5846399664878845,-0.49492722749710083,-1.2418798208236694
7.1999359130859375,0.1410001516342163,0.7656303644180298,-0.5145803689956665,0.016333057367375163,-1.6737067557410106,-0.8172514874848488,-0.9945768713951111,-0.01633233204483986,0.10271519422531128,-0.5267181396484375,-0.24009466171264648,-0.781324028968811
7.218976020812988,0.16348028182983398,0.7946367263793945,-0.5318562984466553,0.028481591399660743,-1.6763470825357434,-0.8258722564142961,-0.9940316081047058,-0.02847774140536785,0.10531216859817505,-0.4220361113548279,-0.06687893718481064,-0.3440196216106415
7.239903926849365,0.17942196130752563,0.8161635398864746,-0.5589643716812134,0.03148559181251084,-1.676979250705076,-0.830767136253438,-0.9938751459121704,-0.03148039057850838,0.10593098402023315,-0.058902084827423096,-0.03682800382375717,0.08957266807556152
7.259899854660034,0.1575031280517578,0.8365167379379272,-0.5732582807540894,0.025866006207342165,-1.6782633183768714,-0.8270619482793671,-0.9938985109329224,-0.025863122195005417,0.10722438246011734,0.5127750635147095,-0.08029328286647797,0.4063645303249359
7.279908895492554,0.08715027570724487,0.8343600630760193,-0.5367813110351562,0.013666562523500202,-1.6801475695937766,-0.8120190823227641,-0.9939343333244324,-0.013666137121617794,0.10912325233221054,1.1041233539581299,-0.06570430099964142,0.6356968879699707
7.2999749183654785,-0.006026268005371094,0.7782271504402161,-0.4510284662246704,-0.003862049473980643,-1.6807077151168508,-0.787367012515291,-0.9939586520195007,0.0038620398845523596,0.10968942940235138,1.5003175735473633,0.012182770296931267,0.8414926528930664
7.31998872756958,-0.12364202737808228,0.7168276906013489,-0.36074602603912354,-0.026064597940274534,-1.6803490137590793,-0.757583297021522,-0.9936677813529968,0.02606164664030075,0.10929657518863678,1.699233055114746,-0.014053183607757092,1.0276237726211548
7.339926719665527,-0.339372456073761,0.7144041657447815,-0.3598029613494873,-0.05083067666733787,-1.676522676115768,-0.7234526855771105,-0.9931318163871765,0.05080879107117653,0.1053931936621666,2.005845546722412,0.3473565876483917,1.049424648284912
7.359926700592041,-0.43292510509490967,0.6921834945678711,-0.30913281440734863,-0.0768128685609181,-1.661386740145344,-0.6825231860893953,-0.9929630756378174,0.07673735171556473,0.09019981324672699,2.274247646331787,0.8712393641471863,1.1865065097808838
7.379958868026733,-0.2590674161911011,0.5793774127960205,-0.17225360870361328,-0.10790453980811344,-1.6386841367651794,-0.6398019223719204,-0.9918939471244812,0.10769526660442352,0.06744115054607391,2.180097818374634,0.8924638628959656,1.6115097999572754
7.399957895278931,-0.22188234329223633,0.465516060590744,-0.04967642202973366,-0.14693524576964806,-1.617961819311981,-0.6003403215659363,-0.988124430179596,0.1464070975780487,0.04663996770977974,1.9658141136169434,0.7402799725532532,2.0047287940979004
7.419983863830566,-0.4754096269607544,0.42396533489227295,0.00390767864882946,-0.18962628883826582,-1.5935746183888966,-0.5631579183697092,-0.9818200469017029,0.18849189579486847,0.02236805111169815,1.8676342964172363,1.0685783624649048,2.0512502193450928
7.440046787261963,-0.6380497217178345,0.3865166902542114,0.04844534397125244,-0.23061914649193435,-1.5608290634254864,-0.5253196192492644,-0.9734768271446228,0.2285803258419037,-0.00970322173088789,1.8803576231002808,1.4097703695297241,2.0394175052642822
7.460000991821289,-0.5491999387741089,0.32506242394447327,0.12582075595855713,-0.27176091682161374,-1.5210253797216935,-0.4852888706787905,-0.9621070623397827,0.26842814683914185,-0.04792455956339836,1.858792781829834,1.5218313932418823,2.2152440547943115
7.479959011077881,-0.4045144319534302,0.22449490427970886,0.21419036388397217,-0.3154071267874919,-1.4795157168135553,-0.4442674025889335,-0.9467124342918396,0.31020355224609375,-0.08665730059146881,1.8294901847839355,1.4166182279586792,2.384542226791382
7.499959945678711,-0.37262415885925293,0.1279635727405548,0.29761624336242676,-0.3619756705505801,-1.4352094622608265,-0.40244612535098834,-0.9266160130500793,0.3541225790977478,-0.1264125555753708,1.4699289798736572,1.6255512237548828,2.6840016841888428
7.5199668407440186,-0.3566376566886902,0.04393959045410156,0.33047056198120117,-0.41055098964091047,-1.386315075103005,-0.36130016252407565,-0.9013427495956421,0.39911457896232605,-0.1681932508945465,1.5314053297042847,1.6799437999725342,2.758491277694702
7.539960861206055,-0.27998220920562744,0.031145155429840088,0.3487650156021118,-0.45976649395119906,-1.334909020503751,-0.3154006061236785,-0.8713393211364746,0.4437388479709625,-0.20943692326545715,1.6001619100570679,1.517112135887146,2.914675712585449
7.559957981109619,-0.26556217670440674,-0.022900432348251343,0.3450387120246887,-0.5070410026956342,-1.2810864034503475,-0.26057896611665327,-0.8377552032470703,0.48559266328811646,-0.24973224103450775,1.8405723571777344,1.339158296585083,2.918207883834839
7.580043792724609,-0.2874991297721863,-0.06863439083099365,0.37250882387161255,-0.5504867695067012,-1.223436830712025,-0.1983674756394003,-0.8013681769371033,0.5231021642684937,-0.2901265621185303,1.8956832885742188,1.3061647415161133,2.9008073806762695
7.6000800132751465,-0.29036325216293335,-0.16606533527374268,0.4114862084388733,-0.5900106502526131,-1.161068050892194,-0.13211772253910686,-0.7621576189994812,0.5563699007034302,-0.3310112953186035,1.8007380962371826,1.3620673418045044,2.849324941635132
7.619961738586426,-0.27721524238586426,-0.23862069845199585,0.45951327681541443,-0.6265308306641049,-1.0955159521173643,-0.06570326019325437,-0.7202824950218201,0.5863380432128906,-0.37067657709121704,1.5578993558883667,1.4098538160324097,2.792632818222046
7.6400346755981445,-0.2725639343261719,-0.3068915605545044,0.49129176139831543,-0.6607190704748297,-1.0280942163024633,-0.0014542679607436801,-0.6761056184768677,0.6136847734451294,-0.40776512026786804,1.2900234460830688,1.470024824142456,2.701280117034912
7.659961700439453,-0.2695329189300537,-0.36976051330566406,0.5018772482872009,-0.6919706884637757,-0.959854498652167,0.0601274549654928,-0.6307051777839661,0.6380558013916016,-0.44169652462005615,1.0249277353286743,1.5079599618911743,2.538909912109375
7.67999267578125,-0.2507544755935669,-0.4138946533203125,0.5347538590431213,-0.7201738780318109,-0.8927396819293226,0.11698433873190896,-0.5854119658470154,0.659515380859375,-0.47152140736579895,0.7532413005828857,1.5109813213348389,2.31575083732605
7.699965953826904,-0.2179461121559143,-0.46584242582321167,0.5604895949363708,-0.7450183992640962,-0.8298356165676328,0.1677591652933192,-0.542353630065918,0.6779853105545044,-0.4961737096309662,0.4973098635673523,1.3692548274993896,2.032426357269287
7.719968795776367,-0.19734591245651245,-0.4965994358062744,0.5475072264671326,-0.766058825661916,-0.7745628894913376,0.21119219621806984,-0.5040243864059448,0.6933004260063171,-0.515066921710968,0.3466406464576721,1.1912235021591187,1.6735913753509521
7.7399609088897705,-0.18354618549346924,-0.5183462500572205,0.5275899171829224,-0.7814868071281601,-0.7274100378606161,0.2468196707572518,-0.4720172584056854,0.704335629940033,-0.5301991701126099,0.2545138895511627,1.0282267332077026,1.2457119226455688
7.7600250244140625,-0.1458550989627838,-0.5538179278373718,0.5457768440246582,-0.7918727125462789,-0.6922863633950486,0.2718435982281337,-0.44841378927230835,0.7116701006889343,-0.5407871603965759,0.13654659688472748,0.6860973238945007,0.7694912552833557
7.779955863952637,-0.1354832649230957,-0.678824782371521,0.5964504480361938,-0.7976116189604342,-0.672134092851045,0.2851367854154854,-0.43487510085105896,0.715690016746521,-0.5465083718299866,-0.05565349757671356,0.3672866225242615,0.3234352767467499
7.79995584487915,-0.1765156388282776,-0.7601210474967957,0.6691558957099915,-0.8036127320173896,-0.6704123319474082,0.28222182802101675,-0.4312572777271271,0.7198684215545654,-0.5438811779022217,-0.5624004006385803,0.049524903297424316,-0.13504689931869507
7.819957733154297,-0.27390357851982117,-0.7083814144134521,0.6033924221992493,-0.8101459958565829,-0.6886429106728055,0.2581500716621902,-0.4381020963191986,0.7243878245353699,-0.5322863459587097,-0.9501019716262817,-0.14032980799674988,-0.7697130441665649
7.8399858474731445,-0.3154381215572357,-0.5475507974624634,0.5203900337219238,-0.8109832397383998,-0.724003949222956,0.21649274760981907,-0.45624473690986633,0.7249647378921509,-0.5160107016563416,-0.9151642918586731,-0.41312283277511597,-1.3338234424591064
7.859959840774536,-0.27846720814704895,-0.4736478328704834,0.44792497158050537,-0.8004674455751039,-0.7712698408129443,0.17000612745598195,-0.4854031205177307,0.7176817059516907,-0.4993164837360382,-0.4749210774898529,-1.001900315284729,-1.7256214618682861
7.879985809326172,-0.3025485873222351,-0.4633699059486389,0.4344208538532257,-0.7780120312463463,-0.8287024046503595,0.12604398054281535,-0.5250118970870972,0.7018647789955139,-0.48140260577201843,-0.24592825770378113,-1.558327555656433,-2.0660927295684814
7.8999128341674805,-0.4680507183074951,-0.3629491925239563,0.436901718378067,-0.7459901181892058,-0.8928377956991321,0.08056570339136479,-0.5720036029815674,0.6786993145942688,-0.46062907576560974,-0.14544689655303955,-1.6789302825927734,-2.53987193107605
7.919957876205444,-0.6512288451194763,-0.25533193349838257,0.39952552318573,-0.7030559754071728,-0.9558697933728576,0.03433699258796379,-0.6231243014335632,0.6465520262718201,-0.4400985836982727,-0.09055335819721222,-1.5393095016479492,-2.955925703048706
7.940009832382202,-0.6725854873657227,-0.16491204500198364,0.4053537845611572,-0.6547463622114504,-1.0149133866547373,-0.014150430832767185,-0.6737738251686096,0.6089580655097961,-0.41856780648231506,-0.4614028036594391,-1.333242654800415,-3.131002426147461
7.959957838058472,-0.5100539326667786,-0.17011743783950806,0.4014355540275574,-0.6094114084643236,-1.074421982047034,-0.07060929688518178,-0.721025288105011,0.5723848938941956,-0.390510231256485,-1.2692564725875854,-1.3423172235488892,-3.049891710281372
7.979964733123779,-0.3635650873184204,-0.18173009157180786,0.384003609418869,-0.5726217814262026,-1.141355263881636,-0.13934577044932894,-0.7641662955284119,0.5418374538421631,-0.34994590282440186,-2.1543455123901367,-1.5174224376678467,-2.7932517528533936
7.999980926513672,-0.4010312557220459,-0.14345812797546387,0.3103104829788208,-0.5416597294550006,-1.2112983434308167,-0.2155207979533966,-0.8020784854888916,0.5155588388442993,-0.30144500732421875,-2.555044174194336,-1.4060511589050293,-2.5845019817352295
8.019958019256592,-0.495754599571228,-0.04316684603691101,0.17793884873390198,-0.5095593815212269,-1.2747350125651735,-0.2905780117787928,-0.8349797129631042,0.48779264092445374,-0.2546904385089874,-2.524582624435425,-1.2039282321929932,-2.594020128250122
8.039963722229004,-0.457184374332428,0.12383762001991272,0.06343784928321838,-0.47093841063436215,-1.3308640126175721,-0.3584129388079105,-0.8656153082847595,0.45372274518013,-0.21176843345165253,-2.1932482719421387,-1.2635377645492554,-2.724637508392334
8.05995798110962,-0.35856735706329346,0.2366657555103302,0.030500054359436035,-0.4261562317090721,-1.381977438220816,-0.41331741761510327,-0.8943777084350586,0.4133738875389099,-0.17091138660907745,-1.7194832563400269,-1.4460790157318115,-2.688955545425415
8.079916000366211,-0.3649284243583679,0.2501205801963806,0.06655144691467285,-0.3795638184120195,-1.4282359207210735,-0.4575851611150068,-0.9194039702415466,0.370515376329422,-0.13196581602096558,-1.6262667179107666,-1.3866018056869507,-2.603105068206787
8.099985837936401,-0.4407671093940735,0.25184503197669983,0.09171415120363235,-0.3326237068196602,-1.46799709770109,-0.5009432342534342,-0.940199077129364,0.3265240490436554,-0.09699364751577377,-1.8520176410675049,-1.0846636295318604,-2.5669007301330566
8.119961738586426,-0.3892962336540222,0.30087849497795105,0.04447663575410843,-0.2856310987008037,-1.501788545815518,-0.5465332456159075,-0.9572003483772278,0.2817630469799042,-0.06615932285785675,-2.0641560554504395,-0.9580805897712708,-2.4904212951660156
8.1399827003479,-0.24010294675827026,0.3998420834541321,-0.025604013353586197,-0.23864719798961076,-1.5336166128947168,-0.5917178208908697,-0.9709873795509338,0.23638838529586792,-0.03611767664551735,-2.0139620304107666,-1.0692330598831177,-2.446133613586426
8.159952878952026,-0.14460796117782593,0.4976351857185364,-0.09198927879333496,-0.19062032105107793,-1.565304583328564,-0.6316777222684541,-0.9818722009658813,0.18946801126003265,-0.005392244551330805,-1.7824456691741943,-1.2373170852661133,-2.431434154510498
8.17991590499878,-0.11600154638290405,0.5690176486968994,-0.13841474056243896,-0.14156825124098388,-1.5966337097950194,-0.6643742324199773,-0.9896656274795532,0.1410958468914032,0.025576060637831688,-1.4752528667449951,-1.2902030944824219,-2.3957343101501465
8.199784755706787,-0.10570895671844482,0.6285838484764099,-0.18524742126464844,-0.09290893043715341,-1.6253551403325583,-0.6886059856801026,-0.99420565366745,0.09277532249689102,0.05429656803607941,-1.1315513849258423,-1.2685540914535522,-2.356543779373169
8.219969749450684,-0.0681259036064148,0.6976828575134277,-0.238547682762146,-0.04548157259820943,-1.6512804711656537,-0.7053165343381657,-0.9957320690155029,0.04546589404344559,0.08031413704156876,-0.8936835527420044,-1.2079975605010986,-2.2487425804138184
8.23989987373352,-0.0006610751152038574,0.7557780742645264,-0.28933727741241455,-0.0014087466137708098,-1.6748202299905537,-0.7184441003074024,-0.9945933818817139,0.0014087461167946458,0.103836290538311,-0.8403130769729614,-1.1195783615112305,-2.0077481269836426
8.259904861450195,0.07327014207839966,0.767203152179718,-0.3412247896194458,0.037109199224638865,-1.6960495695411022,-0.7314085530929992,-0.9914830327033997,-0.03710068389773369,0.12483999878168106,-0.9292914271354675,-1.0187410116195679,-1.6653627157211304
8.279956817626953,0.12161791324615479,0.790694534778595,-0.37032437324523926,0.06932988135596715,-1.713568910987974,-0.7480258878684375,-0.9874475002288818,-0.06927435100078583,0.1419462114572525,-1.1496819257736206,-0.8076574206352234,-1.3022881746292114
8.299970865249634,0.1843087077140808,0.7966727018356323,-0.3744690418243408,0.09452773422140373,-1.7254382916357984,-0.7691040016163506,-0.9836556911468506,-0.09438702464103699,0.1533387154340744,-1.3074464797973633,-0.5420386791229248,-0.8682436347007751
