timestamp,acceleration_x,acceleration_y,acceleration_z,attitude_pitch,attitude_roll,attitude_yaw,gravity_x,gravity_y,gravity_z,rotation_x,rotation_y,rotation_z
0.0,-0.059320151805877686,0.6908465623855591,-0.17526304721832275,0.030450918924402808,-1.6383081686977996,-3.048520998514164,-0.9972593784332275,-0.030446212738752365,0.06742929667234421,1.274461269378662,1.3174570798873901,2.157391309738159
0.020428895950317383,-0.14404499530792236,0.6383169889450073,-0.11211085319519043,-0.017781342360711647,-1.6109333691027048,-3.0268509439789124,-0.9990367293357849,0.017780404537916183,0.04011992737650871,1.151803970336914,1.4521006345748901,2.5533082485198975
0.04011416435241699,-0.2544429302215576,0.5571276545524597,-0.04209327697753906,-0.07288066867820125,-1.5790065671094948,-3.0075396964747894,-0.9973118901252747,0.07281617075204849,0.008188354782760143,0.8725801110267639,1.6889344453811646,2.9204540252685547
0.06302189826965332,-0.3631121516227722,0.43427765369415283,0.07366698980331421,-0.13488710253097447,-1.5411058986519837,-2.9945619816880438,-0.9904798269271851,0.13447843492031097,-0.029416413977742195,0.3219297528266907,2.0172417163848877,3.30116868019104
0.08249592781066895,-0.4388049840927124,0.2848215103149414,0.1977367401123047,-0.20450070165912504,-1.4958963155484206,-2.9918980491767324,-0.9764173626899719,0.2030782848596573,-0.07327073812484741,-0.43533241748809814,2.441472291946411,3.6844000816345215
0.1008460521697998,-0.43654364347457886,0.12673279643058777,0.3311586380004883,-0.28360910154237595,-1.4496314466053628,-3.000897243286053,-0.9530133008956909,0.27982237935066223,-0.11604016274213791,-1.1927708387374878,2.2977938652038574,4.11792516708374
0.12080216407775879,-0.49939119815826416,-0.0039886534214019775,0.42129701375961304,-0.37143367176946157,-1.4137973348642152,-3.0185405418657227,-0.9203477501869202,0.36295172572135925,-0.14569269120693207,-1.65863835811615,1.9218807220458984,4.2497053146362305
0.14081883430480957,-0.7392968535423279,-0.1011197566986084,0.4354209303855896,-0.4588662169935656,-1.379374479053452,-3.037430571292451,-0.8801795840263367,0.4429318904876709,-0.1705741137266159,-1.5746790170669556,2.3685965538024902,3.9927029609680176
0.16085004806518555,-0.7727460265159607,-0.2250770926475525,0.420180082321167,-0.5381017304568482,-1.3360565787100367,-3.053623247242331,-0.8351336717605591,0.512506902217865,-0.19972100853919983,-1.5084245204925537,2.617743968963623,3.488342761993408
0.18084216117858887,-0.44933682680130005,-0.3312021493911743,0.3888329863548279,-0.60970623588298,-1.2956991905406299,-3.0680888917296203,-0.7889901995658875,0.5726266503334045,-0.2226952314376831,-1.4221510887145996,2.132312774658203,3.1562843322753906
0.20066094398498535,-0.22016173601150513,-0.36278849840164185,0.26664412021636963,-0.6722362628256301,-1.2686465461748082,-3.073256257609128,-0.7469861507415771,0.6227372884750366,-0.23283058404922485,-0.631057858467102,0.8043800592422485,2.7390425205230713
0.22086691856384277,-0.1711103916168213,-0.40446096658706665,0.15009784698486328,-0.722241352067614,-1.2520276103688655,-3.052262481951461,-0.7125260829925537,0.6610680818557739,-0.23515033721923828,0.6166104674339294,-0.43665140867233276,2.566619634628296
0.24100184440612793,-0.2942211627960205,-0.507472813129425,0.16028381884098053,-0.76110750843182,-1.2349632557299062,-3.0031071287587356,-0.6836230754852295,0.689723789691925,-0.23862233757972717,1.476351022720337,-1.0826719999313354,2.214479684829712
0.2608520984649658,-0.5609678030014038,-0.6198159456253052,0.21335621178150177,-0.7849301036971501,-1.2101705818989676,-2.93845750089145,-0.6619325876235962,0.7067757248878479,-0.2496263086795807,1.9960956573486328,-0.8181118369102478,1.6306039094924927
0.2808680534362793,-0.6732840538024902,-0.6734580993652344,0.3269157409667969,-0.796133400383053,-1.1723946314852352,-2.87153196243171,-0.644693911075592,0.7146568298339844,-0.2713584303855896,1.9297120571136475,-0.22392544150352478,1.1581999063491821
0.30093884468078613,-0.5519456267356873,-0.7844625115394592,0.3915475904941559,-0.7994065168116894,-1.1351357402363136,-2.815112185137318,-0.6320144534111023,0.7169424891471863,-0.2941964864730835,1.475951075553894,-0.19565829634666443,0.7499471306800842
0.32084107398986816,-0.41284239292144775,-0.8330056667327881,0.38893112540245056,-0.7996323466809813,-1.1150694889861301,-2.779208091751728,-0.625838577747345,0.7170999050140381,-0.3067471981048584,0.8067317605018616,-0.3429279029369354,0.3263927698135376
0.34084200859069824,-0.37861180305480957,-0.79596346616745,0.30629581212997437,-0.7961009937746532,-1.1105095109726684,-2.763676858607228,-0.6266982555389404,0.7146341800689697,-0.3107208013534546,0.3827749490737915,-0.29249536991119385,-0.17262931168079376
0.360882043838501,-0.3316904306411743,-0.7286610007286072,0.21274706721305847,-0.7864469513225061,-1.1141156712168536,-2.7613232951127595,-0.6339772939682007,0.7078480124473572,-0.3114866316318512,0.2252979427576065,-0.2537323534488678,-0.5965602397918701
0.38010191917419434,-0.2186744213104248,-0.677341878414154,0.18376711010932922,-0.7720074209255587,-1.1237613120417804,-2.7660120401248656,-0.6461021900177002,0.6975749731063843,-0.30974361300468445,0.09560433775186539,-0.4169868528842926,-0.8376891016960144
0.39997410774230957,-0.12510311603546143,-0.6320270299911499,0.18388700485229492,-0.7542343961224325,-1.1420979154289121,-2.7767938642326992,-0.6628455519676208,0.6847308874130249,-0.30295130610466003,-0.047988373786211014,-0.6631286144256592,-1.115692377090454
0.42084503173828125,-0.11092865467071533,-0.5535362958908081,0.17289263010025024,-0.731569337518661,-1.1681035509885154,-2.793392455524739,-0.6846036314964294,0.6680382490158081,-0.29162126779556274,-0.14131058752536774,-0.7961901426315308,-1.4541418552398682
0.44083094596862793,-0.1440829038619995,-0.4428403973579407,0.14285686612129211,-0.7029270519350409,-1.1973368251521297,-2.81326008202883,-0.710363507270813,0.6464536786079407,-0.27835485339164734,-0.1505686640739441,-0.8142930269241333,-1.7684777975082397
0.460921049118042,-0.1650431752204895,-0.3468286395072937,0.11244058609008789,-0.6682846592893075,-1.2271460203303293,-2.8342235456000857,-0.738994300365448,0.6196405291557312,-0.2644485831260681,-0.16758450865745544,-0.8540982604026794,-2.055757522583008
0.48091697692871094,-0.1547408103942871,-0.2650125026702881,0.09759439527988434,-0.6282763554212222,-1.2585711337373227,-2.856428968517026,-0.7699265480041504,0.5877511501312256,-0.24851903319358826,-0.2287466824054718,-0.9600699543952942,-2.309131622314453
0.5008440017700195,-0.13929343223571777,-0.18124794960021973,0.08269840478897095,-0.5837254097939714,-1.2923673352363363,-2.87971557201582,-0.8022807240486145,0.551136314868927,-0.22933529317378998,-0.30633601546287537,-1.1065235137939453,-2.517974853515625
0.5208480358123779,-0.1356651782989502,-0.09516376256942749,0.04498894512653351,-0.5349238332935061,-1.3282674737952902,-2.902882352081459,-0.8351294994354248,0.5097755193710327,-0.20660993456840515,-0.3213953375816345,-1.2526357173919678,-2.718174457550049
0.5408539772033691,-0.14464563131332397,-0.004573643207550049,-0.009485706686973572,-0.48178259306024135,-1.3647416467327391,-2.9239811548829353,-0.8674240708351135,0.4633595943450928,-0.18131013214588165,-0.2877667546272278,-1.3645905256271362,-2.8801426887512207
0.5608799457550049,-0.14024347066879272,0.08962157368659973,-0.06630468368530273,-0.42581594238084325,-1.4006567180069065,-2.9429686327722404,-0.8975526690483093,0.41306400299072266,-0.15420003235340118,-0.31752023100852966,-1.355193853378296,-2.9546244144439697
0.5809261798858643,-0.12899333238601685,0.17210164666175842,-0.1349361389875412,-0.3664724465762165,-1.4345588726976957,-2.9569570852723652,-0.9249465465545654,0.3583243489265442,-0.12679781019687653,-0.1697247326374054,-1.585365891456604,-3.11311674118042
0.6008529663085938,-0.09974014759063721,0.29230284690856934,-0.14931374788284302,-0.30677020192439336,-1.469391275224786,-2.9696338960893702,-0.9484166502952576,0.30198121070861816,-0.09650525450706482,-0.2761741280555725,-1.484699010848999,-2.957151174545288
0.6209771633148193,-0.08251214027404785,0.3138682246208191,-0.19171679019927979,-0.2488893698396736,-1.503650943756652,-2.980257154671811,-0.967002809047699,0.2463276982307434,-0.06502752751111984,-0.24925276637077332,-1.601537823677063,-2.90877103805542
0.6408288478851318,-0.1087421178817749,0.41549456119537354,-0.23801904916763306,-0.1932810770541176,-1.535880515134408,-2.9877878771849944,-0.9807812571525574,0.19207990169525146,-0.03425869718194008,-0.19824621081352234,-1.4718799591064453,-2.6854703426361084
0.660923957824707,-0.12867480516433716,0.4886794984340668,-0.28676289319992065,-0.14221626615783822,-1.564712204395285,-2.9923082390442377,-0.9898859858512878,0.14173735678195953,-0.006022661458700895,-0.14104072749614716,-1.3575057983398438,-2.4490180015563965
0.6808450222015381,-0.15418529510498047,0.5757988095283508,-0.32634246349334717,-0.09633189907273781,-1.5906373511886511,-2.9945471830762886,-0.9951677918434143,0.09618297964334488,0.019747739657759666,-0.1312173306941986,-1.228154182434082,-2.126085042953491
0.7008440494537354,-0.19444340467453003,0.6424313187599182,-0.3322559595108032,-0.05816297433669604,-1.614061226387163,-2.9971254630791897,-0.9973748326301575,0.058130186051130295,0.043178267776966095,-0.2702592611312866,-1.0527758598327637,-1.6963547468185425
0.7208421230316162,-0.2889571785926819,0.6844465136528015,-0.3494229316711426,-0.027898377411729937,-1.6304677989092335,-3.0035403781965653,-0.9978317618370056,0.0278947576880455,0.05961286276578903,-0.5514428019523621,-0.5440612435340881,-1.2924959659576416
0.7408430576324463,-0.29458826780319214,0.6974313855171204,-0.3364826440811157,-0.006075113394258317,-1.6366216341647453,-3.0169891658833894,-0.9978158473968506,0.006075075827538967,0.06577656418085098,-0.9327998757362366,-0.06096147373318672,-0.7896613478660583
0.7608599662780762,-0.21113520860671997,0.6967403888702393,-0.3292018175125122,0.005639388043959921,-1.6335303947653368,-3.037992691247303,-0.9980170130729675,-0.005639357957988977,0.06269192695617676,-1.236238718032837,0.3610037863254547,-0.24713951349258423
0.780876874923706,-0.07005339860916138,0.6686307787895203,-0.2802354097366333,0.005987438291783702,-1.623456994099536,-3.065152873273219,-0.9985957145690918,-0.005987402517348528,0.05263538286089897,-1.4740134477615356,0.6046531796455383,0.36547479033470154
0.8008430004119873,0.05334353446960449,0.6384328007698059,-0.27703607082366943,-0.005442332970362854,-1.6110579734623611,-3.0957987140000887,-0.9991750121116638,0.005442305933684111,0.040250182151794434,-1.4818562269210815,0.6206789016723633,0.8580901622772217
0.8208410739898682,0.10624492168426514,0.6581847667694092,-0.3433781862258911,-0.024358507418800156,-1.5998714685441422,-3.1215699918615054,-0.9992809891700745,0.024356098845601082,0.029062427580356598,-0.9414128661155701,0.5372125506401062,1.0924654006958008
0.8408679962158203,0.15550285577774048,0.6942428350448608,-0.4194701910018921,-0.04755056536840221,-1.5913959850540251,-3.130603325357604,-0.9986578822135925,0.04753264784812927,0.020574921742081642,0.15277817845344543,0.3128319978713989,1.246472716331482
0.860943078994751,0.20877152681350708,0.7107365131378174,-0.45388472080230713,-0.07425904123226984,-1.5877015589738313,-3.115055041004565,-0.9971015453338623,0.07419081032276154,0.01685783825814724,1.443939447402954,-0.04684734344482422,1.4016902446746826
0.880842924118042,0.1999989151954651,0.6802217960357666,-0.43666553497314453,-0.10431478498357802,-1.5879852947714317,-3.075101799294228,-0.9944173097610474,0.10412570089101791,0.0170946903526783,2.5497047901153564,-0.30565813183784485,1.5211983919143677
0.9008419513702393,0.08279651403427124,0.586887001991272,-0.3760960102081299,-0.1357585722579257,-1.5873038534870596,-3.016697425962454,-0.9906639456748962,0.13534194231033325,0.016354897990822792,3.2555458545684814,-0.2734251916408539,1.5100908279418945
0.920853853225708,-0.06517761945724487,0.4778878092765808,-0.30164313316345215,-0.16603196041266108,-1.5791431299321361,-2.946835647780059,-0.9862141609191895,0.16527019441127777,0.008231926709413528,3.65690279006958,0.08279027789831161,1.4370650053024292
0.9408800601959229,-0.15764063596725464,0.3733544945716858,-0.21582072973251343,-0.1942092688443391,-1.5595064547535133,-2.87285005956796,-0.9811380505561829,0.1929907351732254,-0.011077393777668476,3.655986785888672,0.5571230053901672,1.3615963459014893
0.9608519077301025,-0.1771131157875061,0.24537025392055511,-0.08073937892913818,-0.22025827139979018,-1.5271148496766673,-2.799698794759143,-0.974910318851471,0.2184816598892212,-0.042612627148628235,3.2650089263916016,1.1963688135147095,1.4752172231674194
0.9808928966522217,-0.13190042972564697,0.13353575766086578,0.044533900916576385,-0.24873618687525936,-1.4843276627995228,-2.7407679529565416,-0.9656034111976624,0.2461792379617691,-0.08370315283536911,2.261005401611328,1.6806917190551758,1.7095924615859985
1.0008480548858643,-0.10132157802581787,0.00026360154151916504,0.1149262934923172,-0.2805792507174348,-1.437283093363123,-2.69818228378072,-0.9523435831069946,0.27691230177879333,-0.12791141867637634,1.4939937591552734,1.9216644763946533,1.8556073904037476
1.0208451747894287,-0.12475621700286865,-0.0014211535453796387,0.19006426632404327,-0.3157865385353045,-1.3868083695770084,-2.665882542742404,-0.9345089197158813,0.31056421995162964,-0.173905149102211,0.8752843737602234,2.1658477783203125,2.1722288131713867
1.0408451557159424,-0.1415959596633911,-0.0024592578411102295,0.2674970030784607,-0.3580691180127429,-1.335797725750202,-2.647711573689876,-0.9108332991600037,0.35046645998954773,-0.21807372570037842,0.09214761108160019,2.334219217300415,2.2367258071899414
1.0608408451080322,-0.1864689588546753,-0.06643152236938477,0.32319605350494385,-0.40175234279511124,-1.2855516545547865,-2.6370653599737093,-0.883187472820282,0.39103177189826965,-0.25898703932762146,-0.27837905287742615,2.2860779762268066,2.2925028800964355
1.0808398723602295,-0.23641157150268555,-0.008655458688735962,0.3566243648529053,-0.44821034129494763,-1.2376645126453103,-2.630571537983831,-0.8516774773597717,0.43335333466529846,-0.2947041690349579,-0.5084006786346436,2.2561206817626953,2.266353130340576
1.100841999053955,-0.3070419430732727,-0.021701782941818237,0.39336809515953064,-0.4928090325790529,-1.1902242378567176,-2.6247874304874546,-0.8179733157157898,0.47310253977775574,-0.327251672744751,-0.5838514566421509,2.229870319366455,2.109983205795288
1.1208510398864746,-0.30715829133987427,-0.06651228666305542,0.4528636932373047,-0.5359049626578298,-1.1440172485419735,-2.619785590090397,-0.7826855182647705,0.5106193423271179,-0.3559093177318573,-0.7105358242988586,2.143186569213867,2.0397839546203613
1.1409449577331543,-0.2688215374946594,-0.12669265270233154,0.49823176860809326,-0.578625802630348,-1.1003614464358107,-2.615087802656995,-0.7462694644927979,0.546873927116394,-0.3794878125190735,-0.7723975777626038,1.972104787826538,1.9947638511657715
1.16084885597229,-0.2178870439529419,-0.17947262525558472,0.5214508771896362,-0.620585014947992,-1.0601919726261066,-2.608797249345233,-0.7097710967063904,0.5815111994743347,-0.39757999777793884,-0.737531304359436,1.6843615770339966,1.9604688882827759
1.180891990661621,-0.17973536252975464,-0.2162429690361023,0.5307055711746216,-0.6607627117894502,-1.0243677121902215,-2.59910373052217,-0.6745585799217224,0.6137192249298096,-0.4102679193019867,-0.6055439710617065,1.3010213375091553,1.89531672000885
1.200850009918213,-0.17912143468856812,-0.24467986822128296,0.5329920053482056,-0.6969294421625546,-0.9938689787729911,-2.584539891315543,-0.6427017450332642,0.641866147518158,-0.4182610809803009,-0.35241448879241943,0.8360579013824463,1.7573155164718628
1.2208969593048096,-0.21912503242492676,-0.26246893405914307,0.532121479511261,-0.7266917235436787,-0.9686456506324596,-2.564913753849392,-0.615927517414093,0.6644007563591003,-0.4233262240886688,-0.06313775479793549,0.43259668350219727,1.5093021392822266
1.2408649921417236,-0.29016369581222534,-0.27698928117752075,0.5456863641738892,-0.7482683009648023,-0.9484302041406237,-2.543657631530704,-0.5954564809799194,0.6803706884384155,-0.4272323548793793,0.07813810557126999,0.15837113559246063,1.1546320915222168
1.2608439922332764,-0.347162663936615,-0.2985377311706543,0.5555061101913452,-0.76298962530678,-0.9349776073609171,-2.5263720918744847,-0.5815330743789673,0.6910853385925293,-0.4292090833187103,0.04030786454677582,0.04633595049381256,0.7787812352180481
1.2808420658111572,-0.3437645435333252,-0.326147198677063,0.5482547879219055,-0.773330953442427,-0.9290969500840586,-2.5171487711055707,-0.5732429623603821,0.698522686958313,-0.42832061648368835,-0.12802265584468842,-0.15784861147403717,0.4574267566204071
1.3008410930633545,-0.3003685474395752,-0.3627268075942993,0.5383387804031372,-0.7808921665557633,-0.9358878500766287,-2.5159211273618722,-0.5718696713447571,0.7039133906364441,-0.4212733209133148,-0.24330201745033264,-0.6273029446601868,0.2072456032037735
1.320909023284912,-0.3365193009376526,-0.35475724935531616,0.5021422505378723,-0.7849326408547518,-0.956215046028043,-2.520888896570195,-0.5779857635498047,0.7067775130271912,-0.4079192280769348,-0.2696605324745178,-0.9990275502204895,-0.11627151817083359
1.3409359455108643,-0.4519546627998352,-0.3335844874382019,0.45069995522499084,-0.7824212438027338,-0.9838451277455803,-2.532869146852509,-0.5905105471611023,0.7049986720085144,-0.3927775025367737,-0.30505549907684326,-0.823874294757843,-0.5809476971626282
1.3608460426330566,-0.44645798206329346,-0.362453818321228,0.3757963180541992,-0.7730835515962893,-1.0103873466498137,-2.552819499803733,-0.6062765121459961,0.6983456611633301,-0.3804502785205841,-0.34188491106033325,-0.49654054641723633,-0.9623969793319702
1.3808469772338867,-0.2565082907676697,-0.40511244535446167,0.1600189507007599,-0.7558671019916691,-1.0358409886207285,-2.572826125636789,-0.6260142922401428,0.6859198808670044,-0.3709716498851776,0.10883639007806778,-0.7477342486381531,-1.2490442991256714
1.400848150253296,-0.0653526782989502,-0.35779863595962524,-0.019861310720443726,-0.7270699540520136,-1.0588891946949517,-2.575787252653157,-0.6513526439666748,0.6646834015846252,-0.3659723997116089,1.146159291267395,-1.35245943069458,-1.2953948974609375
1.4208629131317139,0.02037787437438965,-0.30738013982772827,0.07592564821243286,-0.6932959562154215,-1.0816010734091135,-2.559665243574759,-0.6789320111274719,0.6390756964683533,-0.3614327609539032,1.3622606992721558,-1.8941082954406738,-1.1137173175811768
1.4408509731292725,-0.10734987258911133,-0.3390258550643921,0.2369706630706787,-0.6611821450776699,-1.1112340269935022,-2.5484428612426964,-0.7073779702186584,0.6140503287315369,-0.35008400678634644,0.8589333295822144,-1.6445602178573608,-1.4175658226013184
1.460845947265625,-0.4048923850059509,-0.43849796056747437,0.16873818635940552,-0.6279283417327365,-1.1389539668629418,-2.552527214320909,-0.7349544763565063,0.5874695181846619,-0.33870580792427063,0.24242061376571655,-0.8860735893249512,-1.6631643772125244
1.4813458919525146,-0.5379223823547363,-0.44967132806777954,0.12182345986366272,-0.6005963337420732,-1.1632924062458183,-2.574833560923546,-0.7574419975280762,0.5651345252990723,-0.32696256041526794,-0.863429605960846,-0.33582669496536255,-1.5839111804962158
1.5009090900421143,-0.4838324189186096,-0.3971864581108093,0.1177443265914917,-0.58130883350339,-1.1940250734009148,-2.6215929605845334,-0.7771234512329102,0.5491182804107666,-0.3074873089790344,-1.9304535388946533,-0.18340075016021729,-1.7303892374038696
1.5208430290222168,-0.39201414585113525,-0.28967440128326416,0.00961315631866455,-0.5620955990450212,-1.2340412238627712,-2.6869649003249987,-0.798613965511322,0.5329605340957642,-0.27958688139915466,-2.4656009674072266,-0.31093162298202515,-1.9977340698242188
1.5408430099487305,-0.276439368724823,-0.12810444831848145,-0.09669965505599976,-0.5378672117534061,-1.2787455149798166,-2.7571727710116503,-0.8224376440048218,0.512305498123169,-0.24726390838623047,-2.416780948638916,-0.5291393995285034,-2.159881591796875
1.5608890056610107,-0.15054988861083984,0.0066366493701934814,-0.15632878243923187,-0.5071676917243042,-1.3237695559030185,-2.820019470916671,-0.8475885391235352,0.48570340871810913,-0.21374253928661346,-1.9914824962615967,-0.7843241095542908,-2.2442800998687744
1.5808629989624023,-0.07211959362030029,0.09679406881332397,-0.22550976276397705,-0.470481814592046,-1.3640560870941811,-2.868804868514587,-0.8723689913749695,0.453315794467926,-0.18296800553798676,-1.172598958015442,-0.9846723079681396,-2.363903760910034
1.6008410453796387,-0.07991844415664673,0.17663124203681946,-0.3466871380805969,-0.42517485766539637,-1.397070901809553,-2.8937436325330137,-0.897254467010498,0.41248008608818054,-0.1574632227420807,-0.5182196497917175,-1.061825156211853,-2.3808271884918213
1.6208441257476807,-0.03563809394836426,0.30922558903694153,-0.3564531207084656,-0.38384693502614836,-1.4279893848293639,-2.9205669846093727,-0.9177921414375305,0.37449023127555847,-0.13196539878845215,-1.1517459154129028,-1.0476325750350952,-2.315314292907715
1.6408841609954834,-0.05861550569534302,0.1701507270336151,-0.4703298807144165,-0.3380355950103663,-1.4590521866693338,-2.947644020824246,-0.9375240802764893,0.3316344916820526,-0.10520105808973312,-0.5098326802253723,-0.9790149331092834,-2.465481996536255
1.660897970199585,-0.010744631290435791,0.4938754141330719,-0.5009322166442871,-0.29048115075571634,-1.4798306026477324,-2.948459596033399,-0.9541448950767517,0.2864132523536682,-0.087034672498703,0.7871754169464111,-1.074855089187622,-2.2510054111480713
1.6808421611785889,0.103313148021698,0.5855519771575928,-0.4762883186340332,-0.24652745688196134,-1.4983232954845194,-2.9261089004886425,-0.9672202467918396,0.24403788149356842,-0.07022036612033844,1.8819667100906372,-1.3455930948257446,-2.0036814212799072
1.7008390426635742,0.11149019002914429,0.5600221753120422,-0.4536321759223938,-0.20471027960546218,-1.5155260518294182,-2.8713652750207466,-0.9776248931884766,0.20328350365161896,-0.05408868193626404,3.870478868484497,-1.6165519952774048,-1.837881326675415
1.720890998840332,0.05350351333618164,0.744587242603302,-0.5208832025527954,-0.16806811830254134,-1.5298425328179541,-2.778342926608587,-0.985083281993866,0.1672780066728592,-0.040365468710660934,5.147747039794922,-1.5137310028076172,-1.3908519744873047
1.7409310340881348,0.08660417795181274,0.5716922283172607,-0.39263051748275757,-0.14080870946375076,-1.5449400425316147,-2.6804956266897215,-0.9897719025611877,0.14034385979175568,-0.025597527623176575,4.295014381408691,-1.4873640537261963,-1.0025205612182617
1.760986089706421,0.11203771829605103,0.19181981682777405,-0.28363847732543945,-0.12443425665814795,-1.5634078629332482,-2.617069226920846,-0.9922409057617188,0.12411338090896606,-0.007331269793212414,1.9646532535552979,-1.1025817394256592,-0.526218056678772
1.7808430194854736,0.07592916488647461,0.0028607696294784546,-0.297542929649353,-0.11686609447935761,-1.5760012597890853,-2.5982488289157177,-0.9931654930114746,0.11660025268793106,0.005169406533241272,-0.05493195354938507,-0.47896867990493774,-0.17032739520072937
1.8008430004119873,0.06065630912780762,0.06706918776035309,-0.34902727603912354,-0.11821877098402446,-1.5810281478012949,-2.6094808067584685,-0.9929682612419128,0.11794359982013702,0.010160228237509727,-0.8884514570236206,0.0703606829047203,0.2649308145046234
1.8208448886871338,0.10346585512161255,0.22558236122131348,-0.39949357509613037,-0.12497770203080787,-1.5788581901527015,-2.6293932446638544,-0.9921682476997375,0.12465260922908783,0.007998897694051266,-1.0189166069030762,0.3459625244140625,0.39795541763305664
1.8409600257873535,0.172745943069458,0.33814364671707153,-0.3880656957626343,-0.13379753357729418,-1.5732332284588046,-2.647502194240024,-0.9910595417022705,0.13339868187904358,0.0024151194375008345,-0.7321956753730774,0.4319716989994049,0.5141248106956482
1.860846996307373,0.20137882232666016,0.3168640732765198,-0.375174343585968,-0.14551721855382402,-1.565852607213424,-2.6589068072121678,-0.9894189834594727,0.14500419795513153,-0.004891450051218271,-0.4257919490337372,0.4763457477092743,0.6474803686141968
1.8808519840240479,0.1660899519920349,0.2756744623184204,-0.3169689178466797,-0.15946401905236546,-1.556467318340128,-2.66620229040541,-0.9872111678123474,0.15878905355930328,-0.01414672564715147,-0.3583977520465851,0.5803413987159729,0.7371902465820312
1.9009289741516113,0.11660325527191162,0.23873884975910187,-0.23225170373916626,-0.17511869350935558,-1.545300723874635,-2.674550447191502,-0.9843859076499939,0.17422501742839813,-0.025102950632572174,-0.5207386612892151,0.6554040312767029,0.8189329504966736
1.9208528995513916,0.05746692419052124,0.21582426130771637,-0.15759402513504028,-0.19265284259332613,-1.53490886773381,-2.6875041208986863,-0.980867862701416,0.19146333634853363,-0.03521597757935524,-0.8022244572639465,0.5812814831733704,0.8866742253303528
1.9409048557281494,-0.06955349445343018,0.2240665853023529,-0.12316995859146118,-0.2111069657025832,-1.5277605369553455,-2.7036525696547193,-0.9768943190574646,0.2095424234867096,-0.04206739366054535,-0.8129960894584656,0.5482019782066345,0.8807111978530884
1.9608490467071533,-0.24839365482330322,0.2863287925720215,-0.09647423028945923,-0.2281890832928487,-1.5159817087069585,-2.7177441029702063,-0.9726147055625916,0.22621391713619232,-0.05336696654558182,-0.6305007934570312,0.9631567597389221,0.7514450550079346
1.9808540344238281,-0.2762491703033447,0.31820979714393616,-0.03485465794801712,-0.2429343293944863,-1.495364965238525,-2.726862121540593,-0.9678763747215271,0.24055182933807373,-0.07314702123403549,-0.3537903428077698,1.2812033891677856,0.7049872875213623
2.0008440017700195,-0.08464878797531128,0.2715880870819092,0.05732542276382446,-0.25899231546521745,-1.4709010241242544,-2.7310448333701336,-0.9618295431137085,0.2561066150665283,-0.09640313684940338,-0.2183595895767212,1.2177305221557617,0.8951306343078613
2.0209028720855713,0.09464675188064575,0.19534900784492493,0.14396469295024872,-0.2801010557754616,-1.44945023990199,-2.7325483370768224,-0.9539608955383301,0.27645277976989746,-0.11633096635341644,-0.13037508726119995,0.9586518406867981,1.1912356615066528
2.040843963623047,0.1438286304473877,0.13901951909065247,0.19142639636993408,-0.30620327489209104,-1.4309966514091577,-2.7280244408550245,-0.9441826939582825,0.30144068598747253,-0.1328631192445755,0.2804029583930969,0.756497859954834,1.4421216249465942
2.0608420372009277,0.12978172302246094,0.11626243591308594,0.19552278518676758,-0.3344411573646791,-1.413574154335181,-2.710280944974388,-0.9329434037208557,0.32824134826660156,-0.1479000300168991,1.0273252725601196,0.39435315132141113,1.5906134843826294
2.0808639526367188,0.07282662391662598,0.10410189628601074,0.15526218712329865,-0.36096100929966235,-1.3980117338361577,-2.67295975203716,-0.9216272234916687,0.35317346453666687,-0.16084684431552887,1.9807355403900146,-0.12092672288417816,1.5858242511749268
2.100851058959961,-0.04368102550506592,0.1068163812160492,0.18723620474338531,-0.3827625263298128,-1.3836716250365684,-2.618950462310741,-0.9114428758621216,0.3734845221042633,-0.17257243394851685,2.4988081455230713,-0.33281856775283813,1.4353840351104736
2.1208441257476807,-0.15742194652557373,0.0465051531791687,0.30074530839920044,-0.398696864936353,-1.3676726951266835,-2.560685324920906,-0.9026214480400085,0.3882177472114563,-0.18590760231018066,2.411807060241699,-0.2655205726623535,1.1837214231491089
2.1408751010894775,-0.18639183044433594,-0.06890788674354553,0.3720417022705078,-0.4115259869308245,-1.3508600131790143,-2.5093409472379595,-0.8944340944290161,0.4000083804130554,-0.19995301961898804,1.9057615995407104,-0.1250588744878769,1.0973013639450073
2.160949945449829,-0.17211651802062988,-0.1290522813796997,0.3300524652004242,-0.4257154781619387,-1.3371100371229987,-2.4677757015393254,-0.8859888911247253,0.41297250986099243,-0.21089647710323334,1.552728533744812,-0.15399493277072906,1.156743049621582
2.1809098720550537,-0.17738628387451172,-0.10798883438110352,0.29747921228408813,-0.44244326112641574,-1.3219290884820663,-2.431043540490671,-0.8758668899536133,0.4281487464904785,-0.22258900105953217,1.233314037322998,0.16410893201828003,1.2592700719833374
2.200921058654785,-0.10388338565826416,-0.14386379718780518,0.3855590224266052,-0.4627891270600119,-1.3033744016874964,-2.4039704419150247,-0.8630051016807556,0.4464455842971802,-0.23645007610321045,0.5671781897544861,0.4994616210460663,1.3349459171295166
2.22084903717041,0.02920210361480713,-0.2690622806549072,0.4208828806877136,-0.4879315887664505,-1.2848554153716043,-2.3900896606215407,-0.8474394679069519,0.4687998592853546,-0.24914513528347015,0.013363477773964405,0.693767786026001,1.4242171049118042
2.2409279346466064,0.14425408840179443,-0.37541016936302185,0.38039523363113403,-0.5163175206544349,-1.2671023178305607,-2.3802024855798645,-0.8298467993736267,0.49368104338645935,-0.26006433367729187,0.08481398224830627,0.5497920513153076,1.557395100593567
2.26092791557312,0.2083478569984436,-0.3763082027435303,0.3164408504962921,-0.5440310731791407,-1.2499114206902462,-2.362384189629952,-0.8119549751281738,0.517589271068573,-0.26987093687057495,0.5584019422531128,0.2361496537923813,1.4988081455230713
2.280925989151001,0.20436352491378784,-0.3309537172317505,0.2741275727748871,-0.5639953059078706,-1.2348030269083083,-2.3347661564762743,-0.7978693842887878,0.5345669984817505,-0.27864405512809753,0.9936575889587402,-0.1370452344417572,1.1353133916854858
2.300977945327759,0.16253191232681274,-0.34310007095336914,0.3233480751514435,-0.5747390584412176,-1.2208487638471783,-2.302704020782383,-0.7884626984596252,0.5436158180236816,-0.2877644896507263,1.1210832595825195,-0.18692463636398315,0.8029909133911133
2.329226016998291,0.11034011840820312,-0.4806309938430786,0.43966636061668396,-0.579987860616131,-1.2059834305138741,-2.2593545964069763,-0.7814216613769531,0.5480138063430786,-0.2984309196472168,0.4922066330909729,-0.3262351453304291,0.0608086884021759
2.349332094192505,0.058612942695617676,-0.3692825436592102,0.37675750255584717,-0.5749553966807738,-1.2089407340974612,-2.2501238164157127,-0.7848703265190125,0.5437973737716675,-0.2970913350582123,0.45014047622680664,-0.5022162795066833,-0.2437993288040161
2.369014024734497,-0.004817366600036621,-0.22053545713424683,0.3017861843109131,-0.5646567922236599,-1.216543475172907,-2.2420215924252087,-0.7923170924186707,0.5351259112358093,-0.2930428683757782,0.5493706464767456,-0.6615085601806641,-0.4728717803955078
2.388033151626587,-0.04418778419494629,-0.19028902053833008,0.29890158772468567,-0.5505719380040914,-1.226309331275916,-2.2347284616159295,-0.8021562099456787,0.5231747627258301,-0.287808358669281,0.45549270510673523,-0.7060324549674988,-0.648195207118988
2.4089879989624023,-0.08391553163528442,-0.23349636793136597,0.3608318269252777,-0.5339623337239614,-1.2421794950690417,-2.2349625035977034,-0.8147357702255249,0.5089480876922607,-0.2778087258338928,0.08192276954650879,-0.8671644330024719,-0.9412758946418762
2.4288718700408936,-0.15642082691192627,-0.20741701126098633,0.38185620307922363,-0.5145883455847872,-1.2607577665682377,-2.2437366021220035,-0.8289918303489685,0.49217653274536133,-0.26558414101600647,-0.17406514286994934,-0.4516875147819519,-1.113740086555481
2.4488961696624756,-0.1461663842201233,-0.1792372763156891,0.32259902358055115,-0.493956732204369,-1.2701483345980673,-2.2578231437888405,-0.8409703969955444,0.4741133451461792,-0.26073983311653137,-0.3931632339954376,0.1508645862340927,-1.2280354499816895
2.46915602684021,0.08641284704208374,-0.23664572834968567,0.2720796763896942,-0.47381094978215366,-1.2751485939249279,-2.276489156328324,-0.8512291312217712,0.4562807083129883,-0.25926217436790466,-0.5384539365768433,-0.016268128529191017,-1.156001329421997
2.488882064819336,0.2933608293533325,-0.185728520154953,0.1574012041091919,-0.45575272144909684,-1.2921962777955374,-2.29065932465976,-0.8633071780204773,0.4401383399963379,-0.24693971872329712,-0.07598815858364105,-1.0431348085403442,-0.9510737657546997
2.509507894515991,0.23881816864013672,0.007206708192825317,0.010209992527961731,-0.4367530903195208,-1.3181667838947941,-2.2884476250515298,-0.8773679733276367,0.4229995906352997,-0.22648797929286957,0.7887657284736633,-1.5263546705245972,-0.8579424023628235
2.528710126876831,-0.013718068599700928,0.06811907887458801,-0.02980095148086548,-0.41405466177692424,-1.3398417034076688,-2.2712261174325734,-0.8911892175674438,0.4023246467113495,-0.20956362783908844,1.1445118188858032,-1.2906426191329956,-1.0062363147735596
2.548635959625244,-0.1449527144432068,-0.015588462352752686,0.03780883550643921,-0.3888879547277014,-1.354261600472999,-2.2539703290692947,-0.903722882270813,0.3791596293449402,-0.19880427420139313,0.8939810991287231,-0.8228316307067871,-1.0703028440475464
2.568614959716797,-0.08679735660552979,-0.10957363247871399,0.09676039218902588,-0.3684814569025306,-1.3658662649484734,-2.245641778074141,-0.91335529088974,0.3601992428302765,-0.1898389458656311,0.3054887354373932,-0.6794291734695435,-0.7211220860481262
2.5874040126800537,-0.03531676530838013,-0.07556885480880737,0.09568172693252563,-0.3566245801416365,-1.3788344404474462,-2.245384565648458,-0.9198682308197021,0.34911319613456726,-0.17878104746341705,0.012616408057510853,-0.6007383465766907,-0.5097476243972778
2.608410120010376,-0.09347701072692871,-0.006490737199783325,0.046746253967285156,-0.34670821190219475,-1.3887539930357897,-2.2475886609737654,-0.9249556660652161,0.3398037254810333,-0.17026609182357788,-0.01765481010079384,-0.3140028715133667,-0.49776971340179443
2.627487897872925,-0.08420240879058838,-0.013462424278259277,-0.008783876895904541,-0.3369242575941286,-1.3947861934087102,-2.2483245314444287,-0.9291948676109314,0.3305858373641968,-0.1652577817440033,0.16180308163166046,-0.36321526765823364,-0.4777144491672516
2.648574113845825,-0.027915358543395996,-0.015720367431640625,-0.018678605556488037,-0.3278357392045693,-1.4035128126983414,-2.2444870510002084,-0.9335257411003113,0.3219947814941406,-0.1576366275548935,0.31949588656425476,-0.6148238182067871,-0.3546976149082184
2.6676290035247803,-0.08688819408416748,0.005831509828567505,-0.020179107785224915,-0.3198455950469251,-1.4147843450275515,-2.238749139236727,-0.9377549290657043,0.3144199848175049,-0.14749965071678162,0.35902640223503113,-0.6294206976890564,-0.4003448486328125
2.6872289180755615,-0.19304543733596802,-0.008729815483093262,-0.024871349334716797,-0.3097243465509577,-1.4223929464216527,-2.2333563130391765,-0.9419491291046143,0.30479609966278076,-0.14082376658916473,0.2509806454181671,-0.2928360104560852,-0.5066046714782715
2.707998037338257,-0.13915258646011353,-0.04565885663032532,0.017962977290153503,-0.29931469774202424,-1.4267357516532118,-2.2335142522981113,-0.9456406831741333,0.2948654294013977,-0.13717983663082123,-0.18275314569473267,-0.1879216432571411,-0.49908655881881714
2.7281148433685303,-0.033964335918426514,-0.07776176929473877,0.06391751766204834,-0.2913542832534308,-1.4361802676035813,-2.2447033012156377,-0.9491900205612183,0.28724968433380127,-0.12855368852615356,-0.7014124393463135,-0.4481733739376068,-0.45139309763908386
2.7484309673309326,-0.07636088132858276,-0.06547346711158752,0.017695486545562744,-0.28491944753133636,-1.4504035986738484,-2.2603640691042113,-0.9527377486228943,0.2810801565647125,-0.11526010930538177,-0.6062530279159546,-0.4757829010486603,-0.3817416727542877
2.768656015396118,-0.18068921566009521,0.015428692102432251,0.0012292712926864624,-0.2789621541272212,-1.4595946015151686,-2.269336113679513,-0.9554041028022766,0.27535808086395264,-0.106682687997818,-0.1572757214307785,-0.19702103734016418,-0.33116212487220764
2.78692889213562,-0.18043005466461182,0.04307219386100769,-0.030734769999980927,-0.27205417483260697,-1.4622794555796994,-2.2682189191137696,-0.9575551748275757,0.2687106132507324,-0.1043207049369812,0.29204651713371277,-0.12186086922883987,-0.32010117173194885
2.8077590465545654,-0.09957349300384521,0.00841909646987915,-0.014266371726989746,-0.26626128934066284,-1.463403621402294,-2.261450195435859,-0.9592034816741943,0.26312631368637085,-0.1034093052148819,0.3683600425720215,-0.17569959163665771,-0.18327736854553223
2.8278119564056396,-0.08965176343917847,-0.053105562925338745,-0.002255737781524658,-0.26262662521008284,-1.4649377469682423,-2.2557130574638355,-0.9603055715560913,0.25961801409721375,-0.10203801840543747,0.20063617825508118,-0.10021921992301941,-0.14393314719200134
2.846721887588501,-0.11685436964035034,-0.056342899799346924,0.011577367782592773,-0.2598651243130705,-1.4647531641526113,-2.2555176782489252,-0.9609960317611694,0.2569501996040344,-0.10229077190160751,-0.14348655939102173,0.11341787874698639,-0.1363716721534729
2.865691900253296,-0.07248115539550781,-0.05567637085914612,0.0012448430061340332,-0.2581495564690896,-1.4631849659700538,-2.259945558374132,-0.961271345615387,0.2552918493747711,-0.10384487360715866,-0.22940976917743683,0.10792998224496841,-0.06864549964666367
2.8875820636749268,-0.0021065473556518555,-0.03415939211845398,0.0061226487159729,-0.2578159930577276,-1.4632631639530653,-2.263375541672984,-0.9613639712333679,0.2549693286418915,-0.10377883166074753,-0.06814596056938171,-0.01643555238842964,-0.014035221189260483
2.9074618816375732,-0.008472621440887451,0.007972508668899536,-0.00643545389175415,-0.25722968197616575,-1.4644542380663226,-2.2620075114532057,-0.9616354703903198,0.25440236926078796,-0.10264955461025238,0.21798266470432281,-0.1410089135169983,-0.049277447164058685
2.9266579151153564,-0.06976813077926636,0.04226115345954895,-0.02645808458328247,-0.25561848429731315,-1.4667545216171096,-2.2551306785073884,-0.9622753858566284,0.25284385681152344,-0.10047968477010727,0.4391774833202362,-0.2689601182937622,-0.04580235481262207
2.9465270042419434,-0.1622440218925476,0.08457782864570618,-0.026851408183574677,-0.2529498381887084,-1.4693266868026484,-2.244891353547519,-0.9631984829902649,0.25026100873947144,-0.09807222336530685,0.5317820906639099,-0.236144557595253,-0.10023272037506104
2.9663710594177246,-0.23774385452270508,0.0760718435049057,0.030858173966407776,-0.2506250812251526,-1.4712547278286114,-2.235747893357168,-0.9639620184898376,0.2480095624923706,-0.09627250581979752,0.33206820487976074,-0.1447857916355133,-0.02564554661512375
2.9871370792388916,-0.286720335483551,0.01608872413635254,0.10120225697755814,-0.2517286584403686,-1.4698635441552539,-2.2288196850476814,-0.963554322719574,0.24907851219177246,-0.09758582711219788,0.3634316325187683,0.15094375610351562,0.24116988480091095
3.0073800086975098,-0.40777426958084106,0.06859520077705383,0.12496209889650345,-0.258050701373224,-1.4615220064795065,-2.221591059045866,-0.9611222147941589,0.2551962733268738,-0.10544601827859879,0.2274874448776245,0.4993758797645569,0.3749517798423767
3.0286920070648193,-0.5637851357460022,0.17088449001312256,0.08981341123580933,-0.26258853581937214,-1.4504544646121262,-2.218906723531311,-0.9587368965148926,0.25958120822906494,-0.11593639105558395,-0.01930605061352253,0.45474570989608765,0.1610414832830429
3.04742693901062,-0.5197259187698364,0.1331295371055603,0.04233837127685547,-0.2693463464549271,-1.4486262068111588,-2.2183081083662524,-0.9567603468894958,0.2661014199256897,-0.1174725592136383,0.0837869793176651,-0.18415895104408264,0.3865610659122467
3.06705904006958,-0.42137444019317627,0.15718868374824524,0.06038833409547806,-0.274736527030181,-1.4579251119530494,-2.218029078907012,-0.9563721418380737,0.2712933421134949,-0.1084076464176178,0.18307077884674072,-0.6139585375785828,0.3124561905860901
3.0871741771698,-0.49644386768341064,-0.0033779144287109375,0.038629479706287384,-0.28376697232798087,-1.4678632012196324,-2.211772814393304,-0.9549263715744019,0.27997395396232605,-0.09864218533039093,0.1553066074848175,-0.4816097319126129,0.5572752952575684
3.106865167617798,-0.5305850505828857,0.021634280681610107,0.11373472213745117,-0.2924692814954491,-1.4748815767456132,-2.2091454973794624,-0.9531338810920715,0.2883175313472748,-0.091700978577137,0.04381716251373291,-0.2924652695655823,0.34344246983528137
3.125828981399536,-0.4707942605018616,0.021791845560073853,0.053756482899188995,-0.29914777602647186,-1.479749348650743,-2.2099830210220563,-0.9516299962997437,0.29470592737197876,-0.08688324689865112,-0.23171766102313995,-0.20998051762580872,0.307492196559906
3.1467559337615967,-0.35079681873321533,-0.02494749426841736,0.029813051223754883,-0.30530309266791705,-1.4881843150189018,-2.2177533018281155,-0.9505032896995544,0.30058225989341736,-0.07870210707187653,-0.5261934399604797,-0.4252893626689911,0.2668854892253876
3.165879964828491,-0.2879024147987366,-0.019464194774627686,-0.011801362037658691,-0.3119438641858599,-1.502097675500776,-2.228804570970711,-0.949493944644928,0.3069092631340027,-0.06533176451921463,-0.5245950818061829,-0.6132285594940186,0.3074759840965271
3.1865530014038086,-0.30301088094711304,0.05382153391838074,-0.08649026602506638,-0.3184622876793108,-1.5182700755095762,-2.2370826434231827,-0.9484081268310547,0.3131065368652344,-0.04986218735575676,-0.29450708627700806,-0.7260399460792542,0.2991721034049988
3.2057769298553467,-0.29631316661834717,0.0936899185180664,-0.10574060678482056,-0.3252047661929126,-1.533522918721617,-2.2409203825141994,-0.9469271302223206,0.3195028305053711,-0.03531155735254288,-0.12013355642557144,-0.6477245688438416,0.3691253066062927
3.2264530658721924,-0.2846989631652832,0.07769724726676941,-0.08529925346374512,-0.33325263740774264,-1.5450901027960051,-2.2422855877503327,-0.9446712732315063,0.327118456363678,-0.02428928203880787,-0.05148615688085556,-0.45467397570610046,0.41156813502311707
3.246350049972534,-0.26297616958618164,0.08657887578010559,-0.08378177881240845,-0.3407212367698218,-1.5528044730051693,-2.2425426878636054,-0.9423614144325256,0.334166944026947,-0.01695665717124939,0.02808026596903801,-0.32093241810798645,0.33871695399284363
3.2664060592651367,-0.22696495056152344,0.06134897470474243,-0.10532081127166748,-0.3470985020007238,-1.5579982967369845,-2.2411925068743708,-0.9402865767478943,0.3401707708835602,-0.01203447300940752,0.08443770557641983,-0.26735004782676697,0.30440860986709595
3.2853970527648926,-0.1875951886177063,0.014671742916107178,-0.10688579082489014,-0.35288190072145764,-1.562826373286362,-2.239041393516696,-0.938351035118103,0.3456035554409027,-0.007478772662580013,0.12207639217376709,-0.3035627603530884,0.26643654704093933
3.3062798976898193,-0.17268449068069458,0.023969799280166626,-0.11623531579971313,-0.35829631935875844,-1.5680525606409557,-2.235007546323119,-0.9364922046661377,0.3506792485713959,-0.0025695222429931164,0.2651139497756958,-0.3463340997695923,0.2825867831707001
3.326133966445923,-0.18152832984924316,0.044556111097335815,-0.10986709594726562,-0.36411713451996375,-1.5713393739378865,-2.2279270704389553,-0.9344385266304016,0.3561244606971741,0.000507444201502949,0.3724515438079834,-0.2088281661272049,0.3229418396949768
3.3442389965057373,-0.1792033314704895,0.026487767696380615,-0.11072206497192383,-0.37182173945332664,-1.5709811158687184,-2.2201273062475377,-0.9316672086715698,0.3633132874965668,0.00017216191918123513,0.3275245726108551,-0.011465384624898434,0.4467260539531708
3.3651909828186035,-0.1675226092338562,-0.0006427168846130371,-0.10585379600524902,-0.38145419377216633,-1.5675779444194915,-2.216657063054494,-0.9281195402145386,0.37227052450180054,-0.0029870537109673023,-0.044537387788295746,0.21472647786140442,0.4935246407985687
3.386120080947876,-0.14958059787750244,-0.00527876615524292,-0.08816659450531006,-0.39209478493084887,-1.5639288698819913,-2.223063008245545,-0.9240888357162476,0.3821250796318054,-0.006346240174025297,-0.5564662218093872,0.37414082884788513,0.5975895524024963
3.4060819149017334,-0.09595680236816406,-0.04168236255645752,-0.03989928960800171,-0.40653264073528395,-1.5621051966224428,-2.238608880314321,-0.9184629321098328,0.3954269587993622,-0.007982682436704636,-0.8142232894897461,0.3789551854133606,0.8176218867301941
3.4259750843048096,-0.07501643896102905,0.029777318239212036,-0.06170696020126343,-0.42358784216074535,-1.5621933708667677,-2.2530691700984837,-0.9115864038467407,0.41103383898735046,-0.00784253142774105,-0.4038161635398865,0.18734705448150635,0.8896647095680237
3.445749044418335,-0.11721944808959961,0.14592435956001282,-0.13751232624053955,-0.4424355548856641,-1.558149684896731,-2.2509550176211914,-0.9036393165588379,0.4281417727470398,-0.011428612284362316,0.5903137922286987,0.17062407732009888,1.0145204067230225
3.466660976409912,-0.15664982795715332,0.1840580701828003,-0.15184485912322998,-0.4628968036094758,-1.5444339314521214,-2.229441484534477,-0.894451916217804,0.4465419352054596,-0.023585358634591103,1.2118748426437378,0.2777322232723236,1.0690661668777466
3.4857661724090576,-0.1523371934890747,0.07946747541427612,-0.08957010507583618,-0.4846135204099043,-1.523651169622669,-2.1999199734150388,-0.8838719725608826,0.46586641669273376,-0.04170118272304535,1.2520811557769775,0.4434499442577362,1.1969103813171387
3.5057170391082764,-0.1375560760498047,-0.009333580732345581,-0.04457592964172363,-0.507300859320915,-1.5005657253976181,-2.172568424082329,-0.8719044327735901,0.48581981658935547,-0.0613352507352829,0.9968028664588928,0.5484286546707153,1.2141953706741333
3.526017904281616,-0.11152297258377075,-0.03804290294647217,-0.009771391749382019,-0.5298326888279522,-1.4793590629732671,-2.1525262552328956,-0.859286904335022,0.5053889751434326,-0.07879054546356201,0.5692740082740784,0.5831953883171082,1.1664313077926636
3.5456011295318604,-0.09368079900741577,-0.056229352951049805,0.01791626214981079,-0.552117260492265,-1.4602066816914816,-2.1390436951462237,-0.8462148904800415,0.5244910717010498,-0.09396598488092422,0.40474197268486023,0.6541493535041809,1.1943697929382324
3.564471960067749,-0.05458784103393555,-0.06420612335205078,0.052670761942863464,-0.5760197064987593,-1.440007048556071,-2.126334887767986,-0.8314749598503113,0.5446902513504028,-0.10937235504388809,0.3793363869190216,0.6683750748634338,1.2991130352020264
3.5853140354156494,-0.04297971725463867,-0.02878361940383911,0.07857436686754227,-0.5999806267591613,-1.4189198152378713,-2.1124242366545416,-0.8158459663391113,0.5646264553070068,-0.12486942112445831,0.45461222529411316,0.6996129155158997,1.2317746877670288
3.6043589115142822,-0.05062520503997803,-0.04232954978942871,0.07893075048923492,-0.6218645744727131,-1.3940318328464372,-2.0951139855512686,-0.8001285791397095,0.5825516581535339,-0.14292603731155396,0.5846518278121948,0.7863076329231262,1.1583679914474487
3.625182867050171,-0.00039964914321899414,-0.08465611934661865,0.10293079912662506,-0.6410890083931002,-1.3663678475261425,-2.0755114514226976,-0.784756600856781,0.5980685949325562,-0.1626994013786316,0.5930725336074829,0.8007655143737793,1.0454423427581787
3.64431095123291,0.06491601467132568,-0.10637259483337402,0.10335828363895416,-0.6582050746081811,-1.3392469818553019,-2.055021444482394,-0.7699788808822632,0.6116979122161865,-0.1815442591905594,0.6359370946884155,0.7041186094284058,0.9931182265281677
3.6645500659942627,0.09042859077453613,-0.10110002756118774,0.11865603923797607,-0.6745783468988559,-1.3120814559939298,-2.033874959086509,-0.7549794316291809,0.6245680451393127,-0.1998022347688675,0.5764757990837097,0.6900417804718018,0.9927194118499756
3.685235023498535,0.06891316175460815,-0.08247381448745728,0.10309332609176636,-0.6893058441725715,-1.2848844610892667,-2.0124896256702693,-0.7403609752655029,0.6360016465187073,-0.2176409512758255,0.6333014965057373,0.7270154356956482,0.8802430033683777
3.705132007598877,0.05510258674621582,-0.06586015224456787,0.1197022944688797,-0.7013725593044002,-1.2556006435743297,-1.9911638744347986,-0.7263214588165283,0.6452668905258179,-0.23682866990566254,0.5609517097473145,0.7991810441017151,0.7415798306465149
3.7239370346069336,0.08416104316711426,-0.07607680559158325,0.12322893738746643,-0.7107284157479138,-1.2270139051010203,-1.9708964767723456,-0.7135403156280518,0.6523860096931458,-0.2554462254047394,0.6167726516723633,0.7529667019844055,0.681688129901886
3.7442119121551514,0.12495708465576172,-0.07142496109008789,0.12481039762496948,-0.7192183424965002,-1.1983708134969036,-1.9490175987737144,-0.700747549533844,0.6587967872619629,-0.2737513780593872,0.6429733633995056,0.6614357829093933,0.6907559037208557
3.7651588916778564,0.13030904531478882,-0.07979625463485718,0.14933490753173828,-0.7271483850321024,-1.1703569266655802,-1.9258981261251091,-0.6879720687866211,0.6647419929504395,-0.291226327419281,0.6578316688537598,0.654220700263977,0.6880669593811035
3.7850568294525146,0.09016519784927368,-0.09898322820663452,0.16557323932647705,-0.7339384896423399,-1.1412322993693036,-1.9036945586357752,-0.675080418586731,0.6697993278503418,-0.3092499375343323,0.5538648962974548,0.7906327247619629,0.5897105932235718
3.8038909435272217,0.08568507432937622,-0.12465333938598633,0.17698043584823608,-0.73909436033833,-1.1136884085940093,-1.8863242850907915,-0.663199782371521,0.6736188530921936,-0.3261961042881012,0.42906931042671204,0.7523460984230042,0.4302578270435333
3.823889970779419,0.11731064319610596,-0.11289846897125244,0.1516924500465393,-0.7422293696211645,-1.0887068707590768,-1.8699584386651684,-0.6529704928398132,0.6759325265884399,-0.34167954325675964,0.5188379883766174,0.650473415851593,0.4315109848976135
3.844744920730591,0.13193684816360474,-0.09089541435241699,0.1444171667098999,-0.7449867691804736,-1.0641603316939936,-1.851666754389813,-0.642755389213562,0.677962064743042,-0.3566974103450775,0.5254602432250977,0.5771172642707825,0.416448175907135
3.8616831302642822,0.10796350240707397,-0.08799636363983154,0.13906067609786987,-0.7461292306083329,-1.040316437237463,-1.8341042861223367,-0.6333999633789062,0.6788014769554138,-0.3715282380580902,0.530017614364624,0.6405426859855652,0.34388530254364014
3.884507894515991,0.11640775203704834,-0.1163485050201416,0.14829957485198975,-0.747024872606533,-1.0162594650614076,-1.8181354951980921,-0.6237625479698181,0.6794588565826416,-0.38633662462234497,0.39996474981307983,0.6542065739631653,0.3296287953853607
3.904492139816284,0.14050859212875366,-0.14484548568725586,0.13642442226409912,-0.7487644440607343,-0.9962241303540128,-1.8062840380114562,-0.6149043440818787,0.6807342171669006,-0.39811256527900696,0.2552171051502228,0.5414162874221802,0.29011932015419006
3.9244658946990967,0.15222066640853882,-0.12266010046005249,0.10423809289932251,-0.7517276496526912,-0.9789924005895119,-1.7967289900429506,-0.6062765121459961,0.6829018592834473,-0.4075217545032501,0.1524912714958191,0.5612432360649109,0.3265664875507355
3.943535089492798,0.14435672760009766,-0.12359058856964111,0.1069403886795044,-0.757318955209515,-0.9619652622596292,-1.7908376857265278,-0.5961084961891174,0.6869756579399109,-0.4155951142311096,-0.21545572578907013,0.7590704560279846,0.39580827951431274
3.9640891551971436,0.1759030818939209,-0.23501962423324585,0.14912039041519165,-0.7705810421515141,-0.9501159016789315,-1.7970896695798428,-0.5836790204048157,0.6965522766113281,-0.41729357838630676,-0.8857661485671997,0.8122026920318604,0.4225773215293884
3.984083890914917,0.24027156829833984,-0.27765583992004395,0.13252395391464233,-0.79040653966453,-0.946698463919574,-1.812635223999398,-0.5709295868873596,0.7106393575668335,-0.41113418340682983,-1.0747753381729126,0.6245904564857483,0.5457668900489807
4.004220008850098,0.2508847713470459,-0.17796069383621216,0.08537593483924866,-0.811150277390586,-0.9444464230046409,-1.824576745576591,-0.5579373836517334,0.7250798344612122,-0.4036894738674164,-0.7684041261672974,0.4688016176223755,0.6365602016448975
4.024499177932739,0.19516700506210327,-0.10868406295776367,0.05283823609352112,-0.8267645658560173,-0.9377907943603394,-1.8262464678034933,-0.5460428595542908,0.7357439994812012,-0.40064701437950134,-0.23373912274837494,0.3387376368045807,0.528397798538208
4.045696020126343,0.13847756385803223,-0.05923062562942505,0.05766591429710388,-0.8337760940210976,-0.9270184161498329,-1.819510141485728,-0.5375559329986572,0.7404745221138,-0.4033994972705841,0.15633513033390045,0.2468867152929306,0.3092140555381775
4.061991930007935,0.12389671802520752,-0.06408560276031494,0.06489044427871704,-0.8343025350669045,-0.9148118596810952,-1.8078895102667327,-0.5322830080986023,0.7408282160758972,-0.40969324111938477,0.415028840303421,0.12636874616146088,0.23818673193454742
4.082911014556885,0.1301916241645813,-0.0633319616317749,0.07333806157112122,-0.8319114228800347,-0.9030387583995051,-1.7930123387345935,-0.5288122296333313,0.7392200231552124,-0.41702696681022644,0.5530426502227783,-0.06729953736066818,0.17186681926250458
4.103833913803101,0.09633094072341919,0.0005608201026916504,0.030607491731643677,-0.8257181181746295,-0.8909912547732008,-1.772863723253781,-0.5273001790046692,0.7350348830223083,-0.4262373149394989,0.9335054755210876,-0.1682170033454895,0.22893191874027252
4.123678922653198,0.017622768878936768,0.04180729389190674,-0.011676102876663208,-0.8159101918536348,-0.8720830444939826,-1.7435686985215895,-0.524641752243042,0.7283495664596558,-0.440746933221817,1.2052090167999268,-0.07570003718137741,0.2505577802658081
4.143160104751587,-0.04579329490661621,0.04198133945465088,0.0012934505939483643,-0.8029845368001335,-0.848651687184748,-1.7121969227062748,-0.5211927890777588,0.7194322347640991,-0.4591028094291687,1.2533543109893799,0.14243115484714508,0.17331703007221222
4.163702964782715,-0.028964996337890625,-0.00945901870727539,0.020379602909088135,-0.7889425342301992,-0.8237235192588345,-1.6837134058832919,-0.5169487595558167,0.7096085548400879,-0.47876882553100586,1.1830476522445679,0.307684987783432,0.1624993234872818
4.183573007583618,0.04136866331100464,-0.06199890375137329,0.04466503858566284,-0.7745850939970306,-0.7994077575281414,-1.657848791890873,-0.5124075412750244,0.6994196176528931,-0.49824774265289307,1.1881940364837646,0.30410465598106384,0.11422280222177505
4.203634977340698,0.0938413143157959,-0.07089018821716309,0.05795693397521973,-0.7583741556189811,-0.7749752343566707,-1.6310792889754508,-0.5079496502876282,0.6877420544624329,-0.5186501741409302,1.274986982345581,0.27528730034828186,0.08716922998428345
4.222448110580444,0.08571702241897583,-0.06029379367828369,0.0973043441772461,-0.7399851779305833,-0.7515919172450559,-1.6050054067228632,-0.5042350888252258,0.6742769479751587,-0.5395345091819763,1.399798035621643,0.19699470698833466,-0.004010816104710102
4.243309020996094,0.06166619062423706,0.010394930839538574,0.08139443397521973,-0.7191139283692448,-0.7299166500424948,-1.5779303294676388,-0.5016992092132568,0.6587182879447937,-0.560703456401825,1.5156266689300537,0.153063103556633,0.11549317836761475
4.263434171676636,0.04756394028663635,0.030429959297180176,0.04458296298980713,-0.6992879088799494,-0.710173334699254,-1.5480888756432925,-0.49894949793815613,0.6436728835105896,-0.5802884697914124,1.4343208074569702,-0.1233660876750946,0.3261643946170807
4.283231019973755,0.03546792268753052,0.022215664386749268,0.0010306835174560547,-0.6849255252647078,-0.6953181120420492,-1.5162761788560615,-0.4961460530757904,0.632615327835083,-0.5946738123893738,1.299160361289978,-0.15105976164340973,0.5284826159477234
4.30336594581604,-0.04974794387817383,-0.025231003761291504,-0.03603470325469971,-0.6987057784566882,-0.6760166874927896,-1.4960375390559355,-0.47907593846321106,0.6432272791862488,-0.597281277179718,-1.4344522953033447,0.7094455361366272,1.3942519426345825
4.323246955871582,-0.2686389982700348,-0.20609670877456665,-0.3615868091583252,-0.7262343064670632,-0.6660531585760056,-1.5006651494038201,-0.461982399225235,0.6640588045120239,-0.58787602186203,-0.4949062168598175,0.36805859208106995,0.12732288241386414
4.343078851699829,0.013701021671295166,0.20876455307006836,-0.19770145416259766,-0.7309104070286871,-0.6539257389826246,-1.4921109910553496,-0.45292532444000244,0.6675477623939514,-0.5909642577171326,0.30866456031799316,0.34603673219680786,0.7937788963317871
4.3631110191345215,0.14927533268928528,0.07596784830093384,-0.008293867111206055,-0.7352833533594128,-0.6357415706832275,-1.4684589401293375,-0.44036728143692017,0.6707973480224609,-0.5967475771903992,0.35761892795562744,-0.1372186839580536,0.698189377784729
4.383033990859985,0.005419671535491943,-0.16016191244125366,-0.029541432857513428,-0.7362302173310742,-0.6274750381254376,-1.4495405926530602,-0.43504616618156433,0.6714992523193359,-0.5998530387878418,0.4126216471195221,-0.24009296298027039,0.5835033059120178
4.400845050811768,0.013190090656280518,-0.00025957822799682617,-0.02989429235458374,-0.7352141754945197,-0.6181036975191444,-1.4287004933015148,-0.4298008382320404,0.6707460284233093,-0.604459285736084,0.5468801259994507,-0.2510133385658264,0.5775039196014404
4.4227869510650635,0.04185432195663452,0.025977611541748047,0.007773935794830322,-0.7315074569380582,-0.610808964321539,-1.409458820687155,-0.4268031716346741,0.6679921746253967,-0.6096110939979553,0.5902504920959473,-0.21305158734321594,0.3528987765312195
4.443041086196899,0.05650833249092102,-0.06192880868911743,0.04424476623535156,-0.7340947254891856,-0.6054104542902589,-1.3975698000355259,-0.4225209355354309,0.6699153184890747,-0.6104831099510193,-0.3201415240764618,-0.07843057066202164,0.5812758207321167
4.462843179702759,0.07801306247711182,-0.15939301252365112,0.012468218803405762,-0.7489808505625886,-0.6018757493266146,-1.389583830127544,-0.4146677851676941,0.6808927059173584,-0.603685200214386,-0.40186330676078796,-0.15635208785533905,0.7148546576499939
4.482359170913696,0.07794764637947083,0.016060709953308105,-0.05958014726638794,-0.7585545367633114,-0.5950777066434866,-1.3738766754644656,-0.4068813920021057,0.6878730058670044,-0.6010643243789673,0.31523868441581726,-0.17769475281238556,0.7864193916320801
4.502843141555786,0.02930477261543274,0.1346563696861267,-0.0889241099357605,-0.7561757792318162,-0.5787062843303103,-1.3465584139818285,-0.397880882024765,0.6861444711685181,-0.6090128421783447,0.8909134268760681,-0.07108157873153687,0.6784281134605408
4.522497892379761,-0.021077871322631836,0.0714714527130127,-0.03912067413330078,-0.7464641982399198,-0.5619510404443433,-1.3208828240539165,-0.39115360379219055,0.6790474057197571,-0.6212033629417419,0.8977542519569397,-0.012671263888478279,0.4003746211528778
4.545006036758423,-0.009263932704925537,-0.045529842376708984,-0.01598578691482544,-0.7357458428836283,-0.548207895643932,-1.3004249642323498,-0.38635075092315674,0.6711402535438538,-0.6326957941055298,0.8309836387634277,0.005107022821903229,0.3343692719936371
4.562362909317017,0.002145320177078247,-0.11486494541168213,-0.001230776309967041,-0.7253781986405953,-0.5356735744327711,-1.2819413127269454,-0.3819213807582855,0.6634184718132019,-0.6434377431869507,0.7453325390815735,0.01769445277750492,0.3034636676311493
4.580823183059692,-0.016854017972946167,-0.15110087394714355,0.054516613483428955,-0.7162738866825056,-0.5247192061174621,-1.2669386726872298,-0.37786033749580383,0.656578779220581,-0.6527831554412842,0.6198307275772095,0.0923127681016922,0.20967483520507812
4.600806951522827,-0.06535929441452026,-0.19694745540618896,0.0825965404510498,-0.7089054487585855,-0.5151296983193627,-1.2568792858827478,-0.3739565312862396,0.6510033011436462,-0.66056889295578,0.3676505982875824,0.21079200506210327,0.05906295403838158
4.620790958404541,-0.10373616218566895,-0.21165961027145386,0.10223901271820068,-0.7045348891818847,-0.5091862177372669,-1.2559315804576776,-0.37140727043151855,0.6476795077323914,-0.6652577519416809,0.05854933336377144,0.31850337982177734,-0.21682940423488617
4.640794038772583,-0.13113188743591309,-0.2457466721534729,0.12246054410934448,-0.7032524964123823,-0.5072645069825562,-1.2646330453768988,-0.3705313801765442,0.6467019319534302,-0.6666957139968872,-0.2872058153152466,0.4250248670578003,-0.4121828079223633
4.660470008850098,-0.1362515687942505,-0.2620524764060974,0.14118069410324097,-0.7057080123198625,-0.5090797242985283,-1.2813932396675165,-0.3709658980369568,0.6485729217529297,-0.6646333932876587,-0.5254494547843933,0.47999054193496704,-0.5894372463226318
4.680783987045288,-0.15802288055419922,-0.27190643548965454,0.17486906051635742,-0.7092776208614894,-0.5131672980518144,-1.304375838866125,-0.37254053354263306,0.6512857675552368,-0.6610903143882751,-0.6305952072143555,0.6398188471794128,-0.7713586688041687
4.700935125350952,-0.20362937450408936,-0.3254517912864685,0.24752068519592285,-0.7112528390816468,-0.5168140825651587,-1.3337247988138121,-0.37431254982948303,0.6527833938598633,-0.6586076617240906,-0.6173976063728333,0.884265124797821,-1.1085622310638428
4.720798015594482,-0.21338874101638794,-0.2937855124473572,0.3349870443344116,-0.7101197405102824,-0.5244566493292793,-1.3748111528927498,-0.37970516085624695,0.6519245505332947,-0.6563675999641418,-0.7644718885421753,1.0578848123550415,-1.6545875072479248
4.740795850753784,-0.20506533980369568,-0.24272429943084717,0.3651247024536133,-0.7040915147756329,-0.5311761114683579,-1.4216539034554136,-0.3860906958580017,0.6473416686058044,-0.6571779251098633,-0.6056442856788635,1.293133020401001,-1.6345791816711426
4.762210130691528,-0.17109185457229614,-0.11925482749938965,0.34600961208343506,-0.6990036069404305,-0.5372552480818705,-1.4699842951742788,-0.39175912737846375,0.6434552669525146,-0.657639741897583,-0.7780202031135559,1.211294412612915,-1.9613690376281738
4.780812978744507,-0.2550904154777527,-0.11160427331924438,0.3608686327934265,-0.688279909612706,-0.5515308593965552,-1.5293987647693017,-0.4046996235847473,0.6352096199989319,-0.6578198075294495,-0.6603984236717224,1.181014060974121,-2.5162856578826904
4.8008129596710205,-0.4124758839607239,-0.1717911958694458,0.4111250638961792,-0.6673275141442688,-0.5744893198505143,-1.5960984604505715,-0.426833838224411,0.6188890337944031,-0.6593855619430542,-0.2785528004169464,0.6575519442558289,-2.884894847869873
4.8208301067352295,-0.43563809990882874,-0.019945383071899414,0.11437380313873291,-0.6396641135469949,-0.5980085719577597,-1.652759797119468,-0.45169106125831604,0.5969259738922119,-0.6630645990371704,-0.027885984629392624,0.5872251391410828,-2.35267972946167
4.841820001602173,-0.5526617765426636,0.299993634223938,0.05108380317687988,-0.6162721942582143,-0.6109095579087475,-1.700090717766882,-0.4680902361869812,0.5779971480369568,-0.6684390902519226,-0.32617321610450745,0.8397004008293152,-2.2688913345336914
4.861651182174683,-0.4925954043865204,0.263974130153656,0.17493927478790283,-0.6015498324733815,-0.6299480192718918,-1.7575669041649506,-0.4856913983821869,0.5659209489822388,-0.6662112474441528,-1.2188395261764526,0.45553791522979736,-2.3806955814361572
4.881831884384155,-0.20476430654525757,0.1877291202545166,0.2283564805984497,-0.598310744598102,-0.6644090349771811,-1.824422848774152,-0.5094844102859497,0.5632474422454834,-0.6505213379859924,-1.7701084613800049,-0.09877783060073853,-2.2634925842285156
4.901517152786255,-0.15200239419937134,0.21555596590042114,0.12098073959350586,-0.5969511579423963,-0.7096310116329191,-1.8957076908362827,-0.5388698577880859,0.5621235370635986,-0.6274046301841736,-1.827234148979187,-0.3805714249610901,-2.3980627059936523
4.921302080154419,-0.11806827783584595,0.16651654243469238,0.023541927337646484,-0.5907070950048986,-0.7606535849008323,-1.9678726929119126,-0.5725750923156738,0.5569484233856201,-0.6016364097595215,-1.7047675848007202,-0.6981980204582214,-2.476341485977173
4.941509008407593,0.02249091863632202,0.08212125301361084,-0.07332736253738403,-0.5774265191974809,-0.817101888948416,-2.0381072394153716,-0.6109461784362793,0.5458695292472839,-0.5733858346939087,-1.547038197517395,-1.0546503067016602,-2.610281229019165
4.960848093032837,0.07045000791549683,0.07974302768707275,-0.06915837526321411,-0.5587424703225637,-0.8760126143499414,-2.1085267875165665,-0.6513674855232239,0.530120313167572,-0.5428563952445984,-1.7669235467910767,-1.0396690368652344,-2.7549514770507812
4.981572866439819,0.09557265043258667,-0.003554046154022217,0.09780240058898926,-0.5446051890661315,-0.9346882208908767,-2.1917166776627357,-0.6880409717559814,0.5180804133415222,-0.508126437664032,-3.530695915222168,-0.22358714044094086,-2.7051544189453125
5.0014941692352295,0.12934273481369019,-0.07593822479248047,-0.02157503366470337,-0.5612767866213476,-1.0029012860107416,-2.3376236402817607,-0.713693380355835,0.5322675108909607,-0.45533835887908936,-7.592289447784424,1.1982922554016113,-2.877796173095703
5.02148699760437,0.20110517740249634,-0.01067197322845459,-0.2910808026790619,-0.5942980413974666,-1.087275230788846,-2.533219907810894,-0.7335606217384338,0.5599272847175598,-0.38518866896629333,-6.8385090827941895,1.1487743854522705,-2.830573797225952
5.041084051132202,0.2090199589729309,0.7214147448539734,-0.6722220182418823,-0.5705445241925011,-1.1395290955562258,-2.66336850333294,-0.7645467519760132,0.5400903820991516,-0.3518105447292328,-1.739380121231079,1.2077782154083252,-3.6924242973327637
5.0609290599823,0.03454887866973877,0.901986300945282,-0.5614446401596069,-0.508082135188628,-1.1219180838750655,-2.6824109796301308,-0.7871277928352356,0.4865025579929352,-0.37913766503334045,2.3108139038085938,1.164374589920044,-2.9041597843170166
5.08084511756897,0.2739911675453186,0.3853466808795929,-0.13801464438438416,-0.43711042092985103,-1.108633684874434,-2.6667204632653205,-0.8109326958656311,0.4233233332633972,-0.4039621949195862,1.535521388053894,-0.4780345857143402,-2.73929762840271
5.101154088973999,0.4731351137161255,0.18299540877342224,0.140780508518219,-0.39261109158834606,-1.132935827966598,-2.6806766321608335,-0.8367521166801453,0.38260212540626526,-0.3917417824268341,-0.6746625304222107,-1.2615054845809937,-1.831465244293213
5.12084698677063,0.19545191526412964,0.18199872970581055,0.120282381772995,-0.37623826034328633,-1.1721318165535146,-2.721853163243391,-0.8571187853813171,0.36742445826530457,-0.36103546619415283,-1.9461477994918823,-0.9357489943504333,-1.2608121633529663
5.1409080028533936,-0.09832137823104858,0.5494638681411743,-0.08575281500816345,-0.37123611762945213,-1.2009607006809937,-2.768463776279405,-0.8688724040985107,0.36276760697364807,-0.3368392884731293,-1.6863248348236084,-0.34807467460632324,-0.8501462340354919
5.16094708442688,-0.023177027702331543,0.7880966663360596,-0.32501429319381714,-0.3671451471329217,-1.2168194450886425,-2.7975538112331306,-0.8754894137382507,0.3589523136615753,-0.323529988527298,-0.7548000812530518,-0.16888883709907532,-0.4618978202342987
5.180824041366577,0.14240550994873047,0.6456732749938965,-0.33684414625167847,-0.36586803191643524,-1.2237904922306548,-2.8104383672047955,-0.8781538605690002,0.3577600121498108,-0.31757473945617676,-0.40622568130493164,-0.07891153544187546,-0.12246140837669373
5.200844049453735,0.23700183629989624,0.36605843901634216,-0.331596702337265,-0.3670584605289947,-1.2258514314176931,-2.817015892907523,-0.8784051537513733,0.3588714003562927,-0.3156200349330902,-0.25321659445762634,0.11675427854061127,0.02776153013110161
5.220847845077515,0.35147106647491455,0.21209171414375305,-0.35320499539375305,-0.37017230961334446,-1.224742620779332,-2.8234515232117956,-0.876999020576477,0.36177608370780945,-0.3162132203578949,-0.46895426511764526,0.22613999247550964,0.025258352980017662
5.2408459186553955,0.4347553253173828,0.15877887606620789,-0.29327455163002014,-0.37406925282311376,-1.2244271490656762,-2.8369761032126775,-0.8755664825439453,0.3654063045978546,-0.31600886583328247,-0.8650472164154053,0.2933068573474884,-0.08218728750944138
5.260845899581909,0.5018039345741272,0.13466155529022217,-0.2720905542373657,-0.37918149952077557,-1.2269032804436295,-2.8588193691692676,-0.8745762705802917,0.37016022205352783,-0.3132059872150421,-1.161279320716858,0.2147446721792221,-0.11297352612018585
5.280845880508423,0.5495121479034424,0.16339808702468872,-0.29227983951568604,-0.38364868450807516,-1.2336135864121607,-2.880323856578974,-0.8750889897346497,0.37430641055107117,-0.3067801594734192,-0.7397426962852478,-0.10430725663900375,-0.1199294775724411
5.3009631633758545,0.529205858707428,0.30110156536102295,-0.32792648673057556,-0.38474266710310007,-1.242257425881632,-2.888145004516692,-0.8773200511932373,0.3753206431865692,-0.29907241463661194,0.007529623806476593,-0.48137393593788147,-0.0219019316136837
5.320849180221558,0.42618608474731445,0.4289003014564514,-0.30409908294677734,-0.3818893666294021,-1.2530436882438007,-2.881339627480329,-0.8815084099769592,0.3726744055747986,-0.28992554545402527,0.6713823676109314,-0.8236736059188843,-0.06965190917253494
5.3408448696136475,0.28957033157348633,0.4317644536495209,-0.2999855577945709,-0.3738662426285864,-1.2648754611632185,-2.8636344131444567,-0.8876996040344238,0.36521732807159424,-0.2803671956062317,1.0762958526611328,-1.0193690061569214,-0.19986264407634735
5.360846042633057,0.22301089763641357,0.4073699116706848,-0.25080394744873047,-0.36200551124091823,-1.2805626546887157,-2.8433825438516345,-0.8960760831832886,0.3541504740715027,-0.26762861013412476,1.0094926357269287,-1.2913413047790527,-0.3785518407821655
5.380850076675415,0.18069058656692505,0.4118744134902954,-0.20028112828731537,-0.3490782832512877,-1.3030846493258224,-2.828841406142988,-0.9062155485153198,0.3420318365097046,-0.24857138097286224,0.6372692584991455,-1.4534162282943726,-0.4782343804836273
5.40085506439209,0.08253824710845947,0.4233631193637848,-0.16546770930290222,-0.33607068868072293,-1.3295598294843625,-2.8187680765777428,-0.9167209267616272,0.3297801613807678,-0.2255387008190155,0.8065078258514404,-1.479290246963501,-0.5280392169952393
5.420912027359009,-0.02742868661880493,0.5319344997406006,-0.21012663841247559,-0.32163535531019694,-1.3480655459323871,-2.793140164907903,-0.9252843856811523,0.3161184787750244,-0.20956629514694214,1.9466097354888916,-1.1866657733917236,-0.27643343806266785
5.440882921218872,-0.09032249450683594,0.7101105451583862,-0.2149263471364975,-0.309421210024043,-1.3530465643502239,-2.7425796221994627,-0.9300174713134766,0.30450737476348877,-0.20577366650104523,2.949314594268799,-0.895229697227478,0.12240057438611984
5.460882902145386,-0.16452616453170776,0.6916208267211914,-0.16086095571517944,-0.3014813690631147,-1.348159918908106,-2.675977991692134,-0.931329607963562,0.2969350814819336,-0.2108430713415146,3.3328609466552734,-0.5842088460922241,0.49202093482017517
5.480911016464233,-0.26008838415145874,0.582514762878418,-0.08372485637664795,-0.3008802040558721,-1.3334312251005525,-2.607017060662088,-0.928296685218811,0.29636096954345703,-0.22457893192768097,3.025667667388916,0.04975181445479393,0.9686744809150696
5.500854969024658,-0.31889063119888306,0.4654642641544342,-0.03634822368621826,-0.3115066759481979,-1.3073827365708344,-2.5462034601733046,-0.9190397262573242,0.3064931333065033,-0.24784667789936066,2.2709853649139404,0.7040990591049194,1.4810044765472412
5.5209128856658936,-0.33694952726364136,0.36010587215423584,0.07773786783218384,-0.3356768377657288,-1.2731072488862165,-2.5027468107240276,-0.9026593565940857,0.32940831780433655,-0.27694129943847656,1.0016423463821411,1.3478374481201172,1.9840679168701172
5.54089617729187,-0.35260432958602905,0.20975491404533386,0.1324179768562317,-0.37577851338949453,-1.23269651271861,-2.480321187676179,-0.8775593042373657,0.3669968247413635,-0.3085501492023468,-0.20222891867160797,1.9036271572113037,2.4672000408172607
5.560909032821655,-0.3399205803871155,0.10473248362541199,0.18569457530975342,-0.4291810768652923,-1.188795946552388,-2.470855159095431,-0.8437647819519043,0.4161262810230255,-0.33896905183792114,-0.721136212348938,2.0543906688690186,2.835573434829712
5.580848932266235,-0.28811371326446533,0.09864026308059692,0.1705341637134552,-0.48807409109424615,-1.1426955594744026,-2.4557864846892983,-0.8035306930541992,0.46892571449279785,-0.3666706085205078,-0.2475050538778305,1.8398008346557617,3.103475570678711
5.600833177566528,-0.2881852984428406,0.10520881414413452,0.13752615451812744,-0.5432699253699459,-1.0910585867334388,-2.4207455397627577,-0.7593917846679688,0.5169378519058228,-0.39509448409080505,0.5894819498062134,1.6005221605300903,3.1767539978027344
5.620849847793579,-0.33914071321487427,0.018923461437225342,0.1778268814086914,-0.5885528713239703,-1.0314400313873555,-2.365721809369839,-0.713670015335083,0.5551579594612122,-0.4271707236766815,1.1719746589660645,1.4357060194015503,3.0327794551849365
5.64084792137146,-0.36469757556915283,-0.08873462677001953,0.32152122259140015,-0.6241042586742517,-0.9672922832642934,-2.302293177206337,-0.6681393980979919,0.5843706130981445,-0.46054399013519287,1.2441655397415161,1.382676362991333,2.786529302597046
5.660851001739502,-0.35201865434646606,-0.2015894651412964,0.40495824813842773,-0.6531447775150873,-0.9032260934749402,-2.2402065137999387,-0.6236894130706787,0.6076869368553162,-0.49165868759155273,1.0367454290390015,1.3105099201202393,2.522953510284424
5.680861949920654,-0.3162163496017456,-0.2618390917778015,0.4478880763053894,-0.6769876432593627,-0.8430232517051829,-2.18248821307045,-0.5819922685623169,0.626447856426239,-0.5185056924819946,0.9634475708007812,1.133778691291809,2.236583709716797
5.70089316368103,-0.2905268669128418,-0.2747882604598999,0.433380663394928,-0.6935748093461287,-0.7872923916291976,-2.126240197344481,-0.5447697639465332,0.6392901539802551,-0.5427098274230957,1.0826586484909058,0.8878610730171204,1.9699426889419556
5.720846891403198,-0.2832810878753662,-0.27761733531951904,0.4447815418243408,-0.70224617749974,-0.7367687507184556,-2.071851082678369,-0.5129225850105286,0.6459340453147888,-0.5654022693634033,1.1559607982635498,0.6815218925476074,1.6463216543197632
5.740848064422607,-0.28826668858528137,-0.3189711570739746,0.46740978956222534,-0.7047906701849868,-0.6931997230786433,-2.023328481157181,-0.4867577850818634,0.6478744149208069,-0.5859400033950806,1.0414772033691406,0.5518452525138855,1.317134141921997
5.760849952697754,-0.28602054715156555,-0.3610859513282776,0.5251035690307617,-0.7049316006195958,-0.6581017262449351,-1.9851275322355095,-0.4658410847187042,0.6479817628860474,-0.6025876998901367,0.7636902928352356,0.4916887581348419,0.9752303957939148
5.780882120132446,-0.2719552516937256,-0.40099602937698364,0.5434337854385376,-0.7055237021683598,-0.6317197088964902,-1.9590003122905255,-0.4495566487312317,0.6484326124191284,-0.6143565773963928,0.3936340808868408,0.44193655252456665,0.6518945693969727
5.800847053527832,-0.246869295835495,-0.42070382833480835,0.5545966625213623,-0.7073605598499616,-0.6149847064681568,-1.9449607143683232,-0.4385250508785248,0.6498298645019531,-0.6208197474479675,0.09213642030954361,0.3232806622982025,0.3371730148792267
5.820847034454346,-0.22060516476631165,-0.4202580451965332,0.5313432216644287,-0.7100694746075714,-0.6077826542548456,-1.941412842925951,-0.43303561210632324,0.6518864631652832,-0.6225143671035767,-0.14544019103050232,0.1529664397239685,0.035459063947200775
5.840847015380859,-0.21166884899139404,-0.4187319278717041,0.505739152431488,-0.7121435906486133,-0.6111337186861381,-1.9471398741916424,-0.43434256315231323,0.6534578800201416,-0.6199511289596558,-0.2563849091529846,-0.11092415452003479,-0.26757004857063293
5.860846996307373,-0.2309999167919159,-0.39214909076690674,0.4722388982772827,-0.7118991091997965,-0.6242888051272361,-1.9605643681708946,-0.4425536096096039,0.653272807598114,-0.6143134236335754,-0.3193862736225128,-0.3228755593299866,-0.5787979960441589
5.880848169326782,-0.2697301208972931,-0.3637844920158386,0.4543987512588501,-0.7091633395832575,-0.646080560000324,-1.982016783632627,-0.4569087326526642,0.6511990427970886,-0.6059490442276001,-0.4481366276741028,-0.4392032325267792,-0.8961558938026428
5.900869131088257,-0.29581356048583984,-0.3543606996536255,0.44450438022613525,-0.705237232139297,-0.6752406925268376,-2.0126402610663545,-0.47597604990005493,0.6482145190238953,-0.594360888004303,-0.6949975490570068,-0.49462175369262695,-1.1841106414794922
5.920874834060669,-0.2861015498638153,-0.3421459197998047,0.4362984299659729,-0.7010263891084255,-0.7122493347885123,-2.0529665515419726,-0.49942097067832947,0.6450023651123047,-0.5784034729003906,-0.9288779497146606,-0.6313385963439941,-1.4575231075286865
5.9409120082855225,-0.2862858772277832,-0.3092561364173889,0.41036689281463623,-0.6943466874694028,-0.7585522134263065,-2.100860800329935,-0.5286097526550293,0.6398835182189941,-0.557781994342804,-1.0343605279922485,-0.9388227462768555,-1.726709246635437
5.960857152938843,-0.3655131459236145,-0.25142353773117065,0.3830496072769165,-0.6828627772184581,-0.8154750476014058,-2.155446947526483,-0.564799964427948,0.6310164332389832,-0.5318074822425842,-1.16571843624115,-1.268186330795288,-2.0922272205352783
5.98088002204895,-0.5317092537879944,-0.1964830756187439,0.3871753215789795,-0.6652352216903246,-0.8815285307738175,-2.219775992186638,-0.6071610450744629,0.6172442436218262,-0.5003649592399597,-1.480425238609314,-1.2579771280288696,-2.565720319747925
6.000866174697876,-0.649598240852356,-0.15940165519714355,0.3858236074447632,-0.6422800167008454,-0.9497545351117498,-2.2966522334056516,-0.6512135863304138,0.5990226864814758,-0.4659322202205658,-1.994451880455017,-0.8681754469871521,-2.9628303050994873
6.020931959152222,-0.5459674000740051,-0.131935715675354,0.3438575267791748,-0.6158594137398254,-1.0166336942675853,-2.3850264898511386,-0.6941144466400146,0.5776602625846863,-0.42955079674720764,-2.4474196434020996,-0.6965908408164978,-3.169734001159668
6.040853023529053,-0.30506157875061035,-0.06985098123550415,0.22489279508590698,-0.5858937071019439,-1.0839967348951596,-2.475183914490545,-0.7364271283149719,0.5529442429542542,-0.3897792398929596,-2.4435572624206543,-0.9951929450035095,-3.122684955596924
6.060887098312378,-0.19877463579177856,0.021211564540863037,0.08867895603179932,-0.5506274336363421,-1.1501604014990303,-2.554560998368882,-0.7779099941253662,0.523222029209137,-0.34798675775527954,-1.9864875078201294,-1.307392954826355,-3.011012315750122
6.0808470249176025,-0.29550909996032715,0.09159353375434875,0.005824744701385498,-0.508971241755462,-1.2084727181312378,-2.6177325627392514,-0.8165515065193176,0.48727914690971375,-0.3095203638076782,-1.5322003364562988,-1.273285150527954,-2.9437179565429688
6.100862979888916,-0.4269437789916992,0.14915427565574646,0.011356532573699951,-0.4641839741932235,-1.2566655499355739,-2.6718179243177205,-0.8504305481910706,0.44769325852394104,-0.27629485726356506,-1.5822840929031372,-1.026761531829834,-2.8768131732940674
6.1208131313323975,-0.46633380651474,0.16533640027046204,0.06487955152988434,-0.4211955317864099,-1.297737951606166,-2.7276620515599284,-0.878789484500885,0.4088518023490906,-0.24610812962055206,-2.0767571926116943,-0.6801108717918396,-2.6912574768066406
6.1408960819244385,-0.4488963484764099,0.1725826859474182,0.09730607271194458,-0.38348541150836646,-1.3326175700429612,-2.792079869095204,-0.9011861085891724,0.3741549849510193,-0.2187964916229248,-2.7146172523498535,-0.29013100266456604,-2.4777886867523193
6.16084885597229,-0.40841537714004517,0.21391212940216064,0.07290446758270264,-0.3496735825477219,-1.3613945691969391,-2.8649599233440424,-0.9189620614051819,0.34259116649627686,-0.19529515504837036,-3.121959686279297,-0.005654988810420036,-2.3511030673980713
6.180883169174194,-0.31748104095458984,0.3100570738315582,0.0165291428565979,-0.3167171151148217,-1.3848206991528957,-2.9390113431913836,-0.9338770508766174,0.3114486336708069,-0.1757088005542755,-3.0240190029144287,0.04965309798717499,-2.2665514945983887
6.200847864151001,-0.20747005939483643,0.41023948788642883,-0.044102177023887634,-0.2826413636201268,-1.4039052397693206,-3.0042095231443,-0.9469794034957886,0.2788931727409363,-0.1595262587070465,-2.4865379333496094,-0.03869443014264107,-2.1973485946655273
6.220847845077515,-0.10746121406555176,0.4610009491443634,-0.07677453756332397,-0.24692988355861564,-1.4193162907911379,-3.0558151094109465,-0.9585636258125305,0.2444281280040741,-0.14632415771484375,-1.8959076404571533,-0.1337076723575592,-2.1195807456970215
6.240848064422607,-0.019925415515899658,0.47252124547958374,-0.07388144731521606,-0.21061190740645724,-1.4327487311471498,-3.096148242768676,-0.9686000347137451,0.20905832946300507,-0.13456882536411285,-1.5127934217453003,-0.29663172364234924,-2.037632703781128
6.260848045349121,0.04084575176239014,0.4763321876525879,-0.08576929569244385,-0.17442269174825137,-1.4472748101564934,-3.129926152066192,-0.9773234128952026,0.17353962361812592,-0.12133821099996567,-1.3241558074951172,-0.5020370483398438,-1.9816644191741943
6.280846834182739,0.057289958000183105,0.5004991888999939,-0.13297192752361298,-0.13844666333322445,-1.4631991253012122,3.124036275534268,-0.9847038388252258,0.13800480961799622,-0.10636214911937714,-1.1390869617462158,-0.6052821278572083,-1.9264154434204102
6.300879955291748,0.07280325889587402,0.5445865988731384,-0.18197423219680786,-0.10313332847284991,-1.4786528523232947,3.0989574272629454,-0.9904669523239136,0.10295059531927109,-0.09152423590421677,-1.0073933601379395,-0.6352590918540955,-1.8319475650787354
6.320849180221558,0.12017130851745605,0.5775431990623474,-0.21424376964569092,-0.069913631717598,-1.4938677598176298,3.0764488337509426,-0.9946067333221436,0.0698566883802414,-0.07666496187448502,-0.9705597162246704,-0.6929531097412109,-1.6621243953704834
6.340846061706543,0.14784467220306396,0.5969723463058472,-0.23715221881866455,-0.040092832477639534,-1.5091999329468004,3.054310732234459,-0.9973015189170837,0.040082093328237534,-0.06150798499584198,-1.052620768547058,-0.7034315466880798,-1.4715825319290161
6.360857009887695,0.13768160343170166,0.6260064244270325,-0.2745591402053833,-0.013886609536647629,-1.5230824679494248,3.0305648961870006,-0.9987656474113464,0.013886163011193275,-0.04769115895032883,-1.1598293781280518,-0.6063580513000488,-1.276859998703003
6.380851984024048,0.13368523120880127,0.6542261242866516,-0.33464837074279785,0.008397991099018289,-1.5339446603694715,3.0057106307068366,-0.999285876750946,-0.008397892117500305,-0.03684202954173088,-1.2417552471160889,-0.4706176817417145,-1.0560270547866821
6.400845050811768,0.16588842868804932,0.6900306940078735,-0.35387587547302246,0.026123803476333647,-1.5415709415150318,2.979732299623481,-0.9992319345474243,-0.026120832189917564,-0.02921125665307045,-1.2818512916564941,-0.3395020365715027,-0.7984375953674316
6.420847177505493,0.2144486904144287,0.700196385383606,-0.37380361557006836,0.03834055195671308,-1.5462487991085063,2.954715079436714,-0.9989641308784485,-0.038331158459186554,-0.02452702634036541,-1.1680384874343872,-0.22484806180000305,-0.49222803115844727
6.440901041030884,0.26681995391845703,0.7285330891609192,-0.41271597146987915,0.04443517729862945,-1.5493923119936024,2.934353595167308,-0.9987841248512268,-0.04442055523395538,-0.021381255239248276,-0.8090399503707886,-0.18921753764152527,-0.15948237478733063
6.4609458446502686,0.31271523237228394,0.7570794224739075,-0.4720826745033264,0.043775563999881216,-1.5532220475832161,2.9243286334327214,-0.9988879561424255,-0.04376158490777016,-0.01755654253065586,-0.16510240733623505,-0.26393207907676697,0.21195337176322937
6.480865955352783,0.3305947780609131,0.7710122466087341,-0.5181437134742737,0.03597363111848143,-1.56010911393868,2.9282832060691346,-0.9992960095405579,-0.035965871065855026,-0.010680096223950386,0.5442366600036621,-0.38309672474861145,0.5731545686721802
6.500859022140503,0.2826933264732361,0.7477765679359436,-0.5523565411567688,0.021551486092226377,-1.5683733688519834,2.945087695463023,-0.9997648596763611,-0.02154981717467308,-0.0024223930668085814,1.0799566507339478,-0.3848472535610199,0.8626152873039246
6.520848035812378,0.19760501384735107,0.6832936406135559,-0.5199896097183228,0.0020039696006185137,-1.57517627492007,2.9682962928958867,-0.9999884366989136,-0.0020039682276546955,0.0043799253180623055,1.1708918809890747,-0.26668623089790344,1.0957064628601074
6.540847063064575,0.10134798288345337,0.6161540746688843,-0.49075281620025635,-0.022153380997963032,-1.5803352341283674,2.989959881040616,-0.9997091889381409,0.02215156890451908,0.009536422789096832,1.0121182203292847,-0.2939673960208893,1.2908798456192017
6.560858964920044,-0.08713668584823608,0.5977445840835571,-0.4903377294540405,-0.048499356268181,-1.5837938053920584,3.0092806974672186,-0.9987398386001587,0.04848034679889679,0.012981831096112728,1.0057106018066406,-0.03808421269059181,1.3071582317352295
6.580873966217041,-0.2861631512641907,0.6390916109085083,-0.4982879161834717,-0.0748148121910149,-1.57793912836173,3.0314514285724705,-0.9971773624420166,0.07474503666162491,0.007122761104255915,1.2648417949676514,0.49880796670913696,1.3280209302902222
6.60087513923645,-0.2909373641014099,0.6342750191688538,-0.42838358879089355,-0.1031821633176914,-1.5607106205821435,3.0587878703501503,-0.9946310520172119,0.10299917310476303,-0.010031896643340588,1.4015235900878906,0.9409527778625488,1.5595043897628784
6.6207969188690186,-0.1394684910774231,0.5402034521102905,-0.2743986248970032,-0.1376909290162081,-1.537516132092058,3.0859994575651113,-0.9899870753288269,0.13725626468658447,-0.03295913338661194,1.2095046043395996,1.0083885192871094,1.9654172658920288
6.6407999992370605,-0.10715556144714355,0.4289984703063965,-0.1929909586906433,-0.1793063784948656,-1.5148607430999286,3.1113221573083467,-0.9824289083480835,0.17834711074829102,-0.0550101175904274,1.1872310638427734,0.8631073832511902,2.283668279647827
6.66084885597229,-0.2404986023902893,0.4290205240249634,-0.2019435167312622,-0.22443981014792755,-1.4917306736471458,-3.1397007357592592,-0.9718732833862305,0.22256025671958923,-0.07700231671333313,1.7407194375991821,0.8149913549423218,2.4321494102478027
6.680860996246338,-0.37283962965011597,0.4599524140357971,-0.20887422561645508,-0.269858234947176,-1.4644883031809741,-3.0907881365064203,-0.958367645740509,0.266594797372818,-0.10226771980524063,2.5820484161376953,0.7072036266326904,2.5412099361419678
6.70085883140564,-0.49005037546157837,0.43688544631004333,-0.12298552691936493,-0.3132534911459076,-1.4307160359976043,-3.023648350527864,-0.9420174956321716,0.3081554174423218,-0.132828027009964,3.162320613861084,0.7800679206848145,2.5537190437316895
6.720870018005371,-0.6010711193084717,0.31889188289642334,0.0409255176782608,-0.3537865323532392,-1.3873090898061422,-2.9489413538148,-0.922320544719696,0.3464522957801819,-0.17115922272205353,3.079456329345703,1.138831615447998,2.5817482471466064
6.740925073623657,-0.6711905598640442,0.18253934383392334,0.17782747745513916,-0.39209733046863954,-1.3342415510639518,-2.87825495672268,-0.8983742594718933,0.38212740421295166,-0.21656948328018188,2.5663509368896484,1.6012794971466064,2.5450000762939453
6.760890007019043,-0.6443450450897217,0.08700373768806458,0.2511659264564514,-0.42954813548685994,-1.2738232183980966,-2.815484381373354,-0.8693574070930481,0.4164600372314453,-0.26604318618774414,2.01115083694458,1.8968526124954224,2.610342264175415
6.780802011489868,-0.5716264843940735,0.02205398678779602,0.28277286887168884,-0.46841433259603527,-1.210487091635295,-2.759798373594686,-0.8349897861480713,0.4514719843864441,-0.3145873546600342,1.5044331550598145,2.0358898639678955,2.6984362602233887
6.800851106643677,-0.5172889232635498,-0.032472580671310425,0.3310091197490692,-0.5097366623961925,-1.1451752820826278,-2.7101344100931195,-0.7949973940849304,0.48794740438461304,-0.36039745807647705,0.9694686532020569,2.1813127994537354,2.808544397354126
6.820850133895874,-0.47224897146224976,-0.10770595073699951,0.3921186327934265,-0.5544769883560107,-1.0779677155611942,-2.6655483084450604,-0.749003529548645,0.5264987349510193,-0.40223512053489685,0.511980414390564,2.275597095489502,2.9151976108551025
6.840939044952393,-0.43737030029296875,-0.16804450750350952,0.44160789251327515,-0.6020639453974078,-1.0095414300945345,-2.6230566457505047,-0.697731077671051,0.5663447380065918,-0.43866288661956787,0.20594757795333862,2.2366013526916504,2.994661331176758
6.860852003097534,-0.4296231269836426,-0.199224591255188,0.47866788506507874,-0.6498061460000958,-0.940096518472302,-2.5788031620693213,-0.6430239677429199,0.6050320863723755,-0.46952781081199646,0.10976984351873398,2.129957914352417,2.963442325592041
6.880850076675415,-0.4435906410217285,-0.2328324317932129,0.517371654510498,-0.6940786002449172,-0.8690363353015836,-2.531322586197527,-0.5870184898376465,0.6396774649620056,-0.496207594871521,0.09801983833312988,2.024108409881592,2.8184103965759277
6.900891065597534,-0.4481581449508667,-0.2813118100166321,0.5390430688858032,-0.7318871624621472,-0.7964181721846204,-2.4804614439532084,-0.5317918658256531,0.6682747006416321,-0.5201984643936157,0.22064316272735596,1.928952932357788,2.575986862182617
6.92090106010437,-0.4258772134780884,-0.31497877836227417,0.5450924038887024,-0.7608696658368262,-0.7229733529510384,-2.426384672516816,-0.4791674017906189,0.6895515322685242,-0.5430629253387451,0.4033770263195038,1.727329969406128,2.3071982860565186
6.94084906578064,-0.3818760812282562,-0.3459451198577881,0.5664939880371094,-0.7815410442878472,-0.65306824519417,-2.3718846115730767,-0.43131059408187866,0.7043741345405579,-0.5637626051902771,0.45922330021858215,1.4720407724380493,2.034162759780884
6.96085000038147,-0.3539561629295349,-0.40762633085250854,0.5867374539375305,-0.7966450396740717,-0.5903001219098123,-2.3215638168712633,-0.3891315758228302,0.715014636516571,-0.5808017253875732,0.37039914727211,1.2507944107055664,1.730795979499817
6.980849027633667,-0.3406220078468323,-0.47708582878112793,0.597259521484375,-0.8081520218086067,-0.5364421191983362,-2.2789283495723303,-0.3530731201171875,0.7230117321014404,-0.5937957763671875,0.21361660957336426,1.0914442539215088,1.3964624404907227
7.000893831253052,-0.31258895993232727,-0.5350967645645142,0.6015150547027588,-0.8179832257070235,-0.49248119752872777,-2.2464738326954707,-0.3232600688934326,0.7297684550285339,-0.6024458408355713,0.03348903730511665,0.9336456656455994,1.0253782272338867
7.020848989486694,-0.27630674839019775,-0.5796474814414978,0.6002281904220581,-0.8265631972421001,-0.46123371536447344,-2.2253173870220704,-0.301482617855072,0.7356076240539551,-0.6066216230392456,-0.12867048382759094,0.6169798970222473,0.6607187986373901
7.040849924087524,-0.27020370960235596,-0.5875824093818665,0.5917571187019348,-0.8340727933130881,-0.44488170050714615,-2.2148668983706865,-0.2891377806663513,0.7406738996505737,-0.6064665913581848,-0.22845664620399475,0.27174973487854004,0.2718333303928375
7.060849905014038,-0.29499906301498413,-0.5816035866737366,0.5737592577934265,-0.83942958491055,-0.4442030886445138,-2.217767504571925,-0.28701692819595337,0.7442622780799866,-0.6030713319778442,-0.34680914878845215,-0.0010499391937628388,-0.21488240361213684
7.080848932266235,-0.3201715350151062,-0.5701215863227844,0.5717796087265015,-0.84358630653511,-0.46049976359880085,-2.235584654941891,-0.2954290807247162,0.7470320463180542,-0.5955374836921692,-0.5676319599151611,-0.27547192573547363,-0.6631133556365967
7.10080099105835,-0.35107818245887756,-0.5650458931922913,0.5528379082679749,-0.847620450292236,-0.49174752478002326,-2.268628447699158,-0.3124655485153198,0.749707818031311,-0.5833554267883301,-0.7689268589019775,-0.36186832189559937,-1.10634446144104
7.120867967605591,-0.3456529974937439,-0.5393030643463135,0.4708971381187439,-0.8477799288238147,-0.5359554016858943,-2.314497768149668,-0.3378797471523285,0.7498133182525635,-0.5688737630844116,-0.7084314823150635,-0.6968273520469666,-1.5186251401901245
7.140851020812988,-0.32494959235191345,-0.4524732828140259,0.4238123893737793,-0.8403741057236374,-0.5960799221709813,-2.367814825935571,-0.37455910444259644,0.7448927760124207,-0.552123486995697,-0.5580332279205322,-1.3545836210250854,-1.8878581523895264
7.1608500480651855,-0.42035338282585144,-0.35999858379364014,0.39805692434310913,-0.8228559235294207,-0.6729659596334515,-2.426715664325803,-0.42393070459365845,0.7330912351608276,-0.5318458676338196,-0.4103532135486603,-1.9312033653259277,-2.3846964836120605
7.180850982666016,-0.6379299163818359,-0.3080027103424072,0.4241573214530945,-0.7952288147522757,-0.7597215343738051,-2.4940545616083902,-0.48218733072280884,0.7140238285064697,-0.5076075196266174,-0.6550521850585938,-1.7070213556289673,-2.9436607360839844
7.200850009918213,-0.7829834222793579,-0.2943723201751709,0.45809051394462585,-0.7630532173524798,-0.8427416649266946,-2.5750932396544712,-0.5394958853721619,0.6911312937736511,-0.4809175729751587,-1.3068825006484985,-0.9420117735862732,-3.353210926055908
7.220869064331055,-0.5967274904251099,-0.2991541028022766,0.4151678681373596,-0.7307250821954406,-0.9238072103761079,-2.6691839647208995,-0.5941905379295349,0.6674097776412964,-0.44888976216316223,-1.9325662851333618,-0.9417721629142761,-3.4958906173706055
7.24084997177124,-0.35157471895217896,-0.21230149269104004,0.3071522116661072,-0.6972488928630454,-1.011304132448964,-2.764903785050943,-0.6497222781181335,0.64211106300354,-0.4068836271762848,-2.0477957725524902,-1.544494390487671,-3.353789806365967
7.260848045349121,-0.3557128310203552,-0.11790049076080322,0.21792078018188477,-0.6598938000552845,-1.0981632367179175,-2.8500360203538295,-0.703445553779602,0.6130329370498657,-0.3596596419811249,-1.8908627033233643,-1.694623351097107,-3.2243106365203857
7.280850172042847,-0.5304769277572632,-0.09282189607620239,0.19521400332450867,-0.6166004473861714,-1.1738742879391793,-2.926168947325838,-0.7524210214614868,0.5782650113105774,-0.3153921365737915,-1.8941491842269897,-1.3297072649002075,-3.308199405670166
7.300886869430542,-0.6131120324134827,-0.021755635738372803,0.17667576670646667,-0.5683597122509666,-1.2398234237581673,-2.9991375156165434,-0.7970442175865173,0.5382503867149353,-0.2738741636276245,-2.056095838546753,-1.2243034839630127,-3.349980592727661
7.320881128311157,-0.6176222562789917,0.10545176267623901,0.13863396644592285,-0.517164009698747,-1.2999945077542934,-3.0683553498036944,-0.8375474810600281,0.4944170117378235,-0.23252123594284058,-2.0817041397094727,-1.22145414352417,-3.3082120418548584
7.340849161148071,-0.6777428388595581,0.18594983220100403,0.08802266418933868,-0.46351113496703117,-1.353089622001552,-3.132516314703958,-0.8733741044998169,0.4470915198326111,-0.19320142269134521,-2.1783645153045654,-1.0328959226608276,-3.299149990081787
7.360849142074585,-0.6738190650939941,0.22155258059501648,0.05724067986011505,-0.40847097032594587,-1.3987721240385715,3.084830034529732,-0.9041838645935059,0.39720654487609863,-0.15709416568279266,-2.8500349521636963,-0.7434863448143005,-3.17732572555542
7.379968881607056,-0.5243780612945557,0.25208166241645813,0.07821769267320633,-0.3626250914755506,-1.4377202448475894,2.997867985844048,-0.9267022609710693,0.3547298312187195,-0.12405507266521454,-3.8916923999786377,0.28722792863845825,-2.708798885345459
7.400882959365845,-0.5453256368637085,0.30191466212272644,-0.19926607608795166,-0.3085806901676988,-1.4645773846293304,2.917804987741734,-0.9473959803581238,0.30370667576789856,-0.10101157426834106,-3.286010503768921,-0.41276922821998596,-3.439937114715576
7.420932054519653,-0.266778826713562,0.6341707110404968,-0.11496800184249878,-0.25256977137329195,-1.4897319494539643,2.8496208161150354,-0.9650937914848328,0.24989302456378937,-0.07840654999017715,-2.6688475608825684,-0.38345083594322205,-2.7545340061187744
7.440848112106323,-0.1353735327720642,0.4208088517189026,-0.03570842370390892,-0.20058976339936035,-1.5156032527567647,2.7928485042830236,-0.9784570336341858,0.1992473006248474,-0.05405895411968231,-2.5526986122131348,-0.7155463099479675,-2.856229543685913
7.460906028747559,-0.22230708599090576,0.5833510160446167,-0.04920768737792969,-0.14635795687868028,-1.5354668893362104,2.7415410835088196,-0.988691508769989,0.1458359956741333,-0.034944456070661545,-2.1704890727996826,-0.37665268778800964,-2.768296957015991
7.480849981307983,-0.2115275263786316,0.6782306432723999,-0.12258625030517578,-0.09207148213447748,-1.546610332653389,2.702056993130706,-0.9954731464385986,0.0919414535164833,-0.02408120408654213,-1.6531107425689697,-0.32274356484413147,-2.7858080863952637
7.5005199909210205,-0.10297417640686035,0.7421277165412903,-0.1323750615119934,-0.03844508931153449,-1.556080557671694,2.670741235973308,-0.9991530776023865,0.038435619324445724,-0.014704367145895958,-1.415453314781189,-0.41108471155166626,-2.6162402629852295
7.520878076553345,-0.028523683547973633,0.755963921546936,-0.11822235584259033,0.011136874862502323,-1.564582894154281,2.641824312251283,-0.9999188780784607,-0.011136644519865513,-0.006213008426129818,-1.467611312866211,-0.3784472942352295,-2.3954529762268066
7.540880918502808,-0.003834366798400879,0.7720611691474915,-0.11315315961837769,0.056683197755959945,-1.5697204941123597,2.6107045477298563,-0.9983933568000793,-0.056652847677469254,-0.0010741045698523521,-1.6457175016403198,-0.23481608927249908,-2.1682543754577637
7.560848951339722,0.03783482313156128,0.8202508687973022,-0.123707115650177,0.09706029785572426,-1.5705245595958102,2.576272964827464,-0.9952933192253113,-0.09690797328948975,-0.00027048808988183737,-1.7751073837280273,-0.11911123991012573,-1.8769525289535522
7.580674886703491,0.09031301736831665,0.8919386267662048,-0.14448946714401245,0.13128336282161357,-1.5678144990209788,2.540462657913314,-0.9913903474807739,-0.13090656697750092,-0.0029561640694737434,-1.7722545862197876,-0.04869460314512253,-1.5565452575683594
7.600860834121704,0.15418416261672974,0.9478878974914551,-0.15525758266448975,0.15843460123100664,-1.563811257950942,2.5057878222315213,-0.9874514937400818,-0.15777260065078735,-0.006897529121488333,-1.6246111392974854,-0.05634612962603569,-1.1764618158340454
7.620851039886475,0.21436333656311035,0.9835275411605835,-0.17553484439849854,0.1775900813808613,-1.5600040353688542,2.4754617852401544,-0.9842150807380676,-0.17665807902812958,-0.010622347705066204,-1.3384193181991577,-0.08240276575088501,-0.766838014125824
7.640907049179077,0.2688162922859192,1.0105042457580566,-0.2058888077735901,0.1881877717942284,-1.5585735807052243,2.452516332915927,-0.9822715520858765,-0.18707896769046783,-0.012006653472781181,-0.8819577097892761,-0.2118644416332245,-0.32358482480049133
7.660892009735107,0.2976331114768982,1.0275132656097412,-0.2727956175804138,0.18998535171312708,-1.5626531530598047,2.440893614535497,-0.9819746017456055,-0.18884451687335968,-0.007996566593647003,-0.23968426883220673,-0.4158433973789215,0.12902767956256866
7.680847883224487,0.27372175455093384,1.0410881042480469,-0.34343481063842773,0.18333354274153874,-1.5723536716750113,2.4422496692794766,-0.9832403659820557,-0.18230825662612915,0.0015312456525862217,0.34159037470817566,-0.5069582462310791,0.5251296162605286
7.700160980224609,0.2200028896331787,0.9978400468826294,-0.37587833404541016,0.1691162509442471,-1.5843656325328628,2.453353028728751,-0.9856433272361755,-0.16831126809120178,0.013375316746532917,0.7183968424797058,-0.5030571222305298,0.896987795829773
7.72084903717041,0.1539812684059143,0.9266234040260315,-0.3833885192871094,0.14663073598019524,-1.5970939383564702,2.4687394744719473,-0.9889270067214966,-0.14610585570335388,0.026012415066361427,0.8234099745750427,-0.5303297638893127,1.3275388479232788
7.740851163864136,0.018714547157287598,0.874783992767334,-0.39059126377105713,0.1157804097803464,-1.609898479232922,2.4848085009127883,-0.9925457835197449,-0.11552190780639648,0.0388304702937603,0.9059107899665833,-0.5335729122161865,1.6825424432754517
7.760815858840942,-0.21069282293319702,0.8656338453292847,-0.4307727813720703,0.07953911247896404,-1.6192798262387167,2.5034209996226946,-0.9956670999526978,-0.07945527136325836,0.04831128567457199,1.1277272701263428,-0.13260912895202637,1.8538461923599243
7.7808568477630615,-0.3705795407295227,0.8401650190353394,-0.4481852054595947,0.03948558353769706,-1.616108762174666,2.52675734365284,-0.9981950521469116,-0.039475325495004654,0.045261628925800323,1.3674702644348145,0.5568614602088928,2.0904345512390137
7.80085015296936,-0.24906229972839355,0.690527081489563,-0.3309602737426758,-0.008737553452089136,-1.6035002152265212,2.551555172950933,-0.999427318572998,0.008737442083656788,0.03269681707024574,1.2639011144638062,0.6426013708114624,2.674729585647583
7.820876836776733,-0.17799675464630127,0.530515193939209,-0.23305773735046387,-0.06786448145074575,-1.59099602204059,2.5738551512204166,-0.9974945783615112,0.06781239807605743,0.020151827484369278,1.1695654392242432,0.5678138732910156,3.1235299110412598
7.840894937515259,-0.33128809928894043,0.4693302810192108,-0.22101759910583496,-0.13123526817964057,-1.5756077407873357,2.5980250404603513,-0.9913894534111023,0.1308588832616806,0.004770021885633469,1.3721613883972168,0.757091224193573,3.1586923599243164
7.860850095748901,-0.4537162184715271,0.4551845192909241,-0.23282432556152344,-0.19376121333906218,-1.5537276919499539,2.630704730132671,-0.9811441898345947,0.19255107641220093,-0.016748419031500816,1.8561636209487915,0.8524437546730042,3.1413044929504395
7.880853891372681,-0.5229816436767578,0.43534862995147705,-0.26476138830184937,-0.2554390149798205,-1.527420204806064,2.6770040890283453,-0.9666425585746765,0.25267019867897034,-0.04195552319288254,2.495572566986084,0.7454349994659424,3.172011137008667
7.900874853134155,-0.6336148381233215,0.3934552073478699,-0.21903640031814575,-0.3153753360155261,-1.494479284584894,2.7389498396529217,-0.9479129314422607,0.31017330288887024,-0.07248268276453018,3.0542685985565186,0.8310081958770752,3.167123317718506
7.920856952667236,-0.7407091856002808,0.2858749330043793,-0.06012582778930664,-0.37229347017354275,-1.449895745039527,2.8123911335353604,-0.924696147441864,0.3637527525424957,-0.11234421283006668,3.2234151363372803,1.1658605337142944,3.190659523010254
7.940865993499756,-0.7963998317718506,0.13627955317497253,0.0810568779706955,-0.42635593119299814,-1.3921146296856801,2.890687412213571,-0.8959831595420837,0.41355571150779724,-0.1618216335773468,3.1027708053588867,1.5789682865142822,3.2532432079315186
7.96085000038147,-0.8279281258583069,0.029788196086883545,0.14130404591560364,-0.47786181764930347,-1.3220746912367385,2.971491069933327,-0.8606551885604858,0.45988157391548157,-0.21858976781368256,2.94101619720459,1.9085800647735596,3.3173811435699463
7.9808509349823,-0.8486125469207764,-0.04023522138595581,0.21038702130317688,-0.5250415334226195,-1.2401266543980556,3.0542827612905787,-0.8184254765510559,0.5012489557266235,-0.2809436023235321,2.6230955123901367,2.321110963821411,3.282825231552124
8.00085186958313,-0.7854853868484497,-0.15270119905471802,0.3534393012523651,-0.5688965564696755,-1.1497451527173008,3.13196304246833,-0.768912136554718,0.5387027263641357,-0.34434497356414795,1.9129199981689453,2.6662373542785645,3.2455832958221436
8.020861864089966,-0.6878135800361633,-0.2831111550331116,0.462166428565979,-0.6135140841647077,-1.0570298881506308,-3.084174387683403,-0.712073564529419,0.5757442116737366,-0.4018331468105316,1.0733656883239746,2.8626506328582764,3.266298294067383
8.040881872177124,-0.6040443778038025,-0.3455325961112976,0.5073163509368896,-0.6607844122032768,-0.9641990889059076,-3.024386362402646,-0.6486564874649048,0.6137363314628601,-0.45008060336112976,0.5642997622489929,2.8418798446655273,3.2977635860443115
8.060848951339722,-0.5591639876365662,-0.34649693965911865,0.49964725971221924,-0.7067940919319866,-0.8710273313579484,-2.9638581291488446,-0.5817356705665588,0.6493991613388062,-0.48975953459739685,0.40741801261901855,2.6564979553222656,3.2064945697784424
