timestamp,acceleration_x,acceleration_y,acceleration_z,attitude_pitch,attitude_roll,attitude_yaw,gravity_x,gravity_y,gravity_z,rotation_x,rotation_y,rotation_z
0.0,0.20609796047210693,0.7174902558326721,-0.4195592403411865,-0.17622751583508062,-1.3234825690188499,-0.363747310539103,-0.954556941986084,0.17531678080558777,-0.241008922457695,-0.5036917328834534,-0.6515665054321289,-1.943658709526062
0.021102190017700195,0.27617859840393066,0.9181807637214661,-0.4883415699005127,-0.1423427469176211,-1.3358316799606091,-0.37109164669968153,-0.9626868963241577,0.14186255633831024,-0.23045408725738525,0.7844997048377991,-0.48852401971817017,-1.493162989616394
0.04029130935668945,0.3251311779022217,1.1391044855117798,-0.570780336856842,-0.11278241504145772,-1.343846797529065,-0.34694141467271344,-0.9681671857833862,0.11254347115755081,-0.2235768586397171,2.0279133319854736,-0.6187540292739868,-0.8211209774017334
0.05823802947998047,0.24374282360076904,1.0072191953659058,-0.6317002773284912,-0.09367156612287861,-1.3516335110758475,-0.30783796725416235,-0.9718009233474731,0.09353464096784592,-0.2164594531059265,2.05189847946167,-0.574059247970581,-0.21185480058193207
0.0814521312713623,0.032715678215026855,1.0013152360916138,-0.5818462371826172,-0.08513705531831227,-1.359841545287785,-0.26996063178765073,-0.9742898941040039,0.08503424376249313,-0.20863522589206696,1.90445876121521,-0.5415664315223694,0.14091463387012482
0.10436511039733887,-0.29059356451034546,1.136055827140808,-0.5893961787223816,-0.08217625446645305,-1.3632878531797386,-0.2288516676064318,-0.9752451777458191,0.0820837989449501,-0.20532725751399994,2.192948818206787,-0.12707021832466125,0.43895360827445984
0.12612009048461914,-0.2773035168647766,1.0936847925186157,-0.5975270867347717,-0.08652260649622098,-1.357962054116838,-0.18191204152146478,-0.9737799167633057,0.08641469478607178,-0.21044093370437622,2.2900240421295166,0.25103598833084106,0.975614607334137
0.14555597305297852,-0.1433645486831665,0.9737787842750549,-0.4441753029823303,-0.10070164581342024,-1.3434027915291578,-0.12934169082739308,-0.9693217277526855,0.10053153336048126,-0.22429685294628143,2.611372947692871,0.7356637120246887,1.5558884143829346
0.16306614875793457,-0.13609319925308228,0.9257099628448486,-0.309709370136261,-0.12383115546760134,-1.316395266782006,-0.0640978660848661,-0.9604035019874573,0.12351492047309875,-0.24973875284194946,3.150585412979126,1.1821736097335815,2.225499391555786
0.18389511108398438,-0.17028629779815674,0.7597667574882507,-0.2672484517097473,-0.15404984669023158,-1.2783402416158036,0.0145150596325356,-0.9461994171142578,0.15344126522541046,-0.2848907709121704,3.5231921672821045,1.5075392723083496,2.7163257598876953
0.20278215408325195,-0.27005326747894287,0.540924072265625,-0.1354570984840393,-0.18572782226689827,-1.2302835916867456,0.1017539164673965,-0.9263732433319092,0.1846618950366974,-0.32822689414024353,3.654733180999756,1.7716554403305054,2.9078915119171143
0.2253413200378418,-0.3389586806297302,0.3694413900375366,-0.005179613828659058,-0.21636453366965314,-1.172514685687471,0.1920533479660031,-0.9002381563186646,0.21468034386634827,-0.3787924647331238,3.507380485534668,2.0034046173095703,2.9818429946899414
0.24579715728759766,-0.3650733232498169,0.21841059625148773,0.11339175701141357,-0.24276833317822663,-1.1095535976445634,0.2813044152891718,-0.8692407011985779,0.24039070308208466,-0.4320104718208313,3.3119940757751465,2.1849396228790283,2.997816801071167
0.26432108879089355,-0.41865968704223633,0.1675838828086853,0.18370449542999268,-0.2654860666037595,-1.0424203012347488,0.3675411227341728,-0.8333699107170105,0.2623783349990845,-0.4864693582057953,2.9477992057800293,2.346808671951294,2.9382591247558594
0.28354406356811523,-0.4613216519355774,0.11300095915794373,0.2992900013923645,-0.28526135931688856,-0.9732359779634734,0.44680245735308927,-0.7933018803596497,0.28140825033187866,-0.5398905277252197,2.4556078910827637,2.3899245262145996,2.795358180999756
0.3037710189819336,-0.49711424112319946,0.040098488330841064,0.40915852785110474,-0.303434163776733,-0.9054008303442962,0.5166097740092901,-0.7507343888282776,0.2987992465496063,-0.5891664028167725,1.8632436990737915,2.3682610988616943,2.6130266189575195
0.3257901668548584,-0.5436483025550842,-0.07549735903739929,0.47423887252807617,-0.32217672880562676,-0.8406369937855617,0.5753982653962451,-0.7067332863807678,0.3166320323944092,-0.6326708197593689,1.2506132125854492,2.2928736209869385,2.414872169494629
0.3440251350402832,-0.5420371294021606,-0.1682550013065338,0.5143377184867859,-0.3422077528185795,-0.7802602823866722,0.6239250799270135,-0.6626748442649841,0.3355676531791687,-0.6695195436477661,0.6988081336021423,2.16904616355896,2.209165334701538
0.36375904083251953,-0.4818132519721985,-0.23674297332763672,0.6000651717185974,-0.36412067088162026,-0.7252388758845332,0.6631473854400672,-0.619825541973114,0.3561277687549591,-0.6992777585983276,0.21871519088745117,1.960841178894043,1.985805630683899
0.38308119773864746,-0.3952222466468811,-0.30865687131881714,0.69776451587677,-0.38871538529943084,-0.6784409618196383,0.6934754739924035,-0.5807604789733887,0.3789999485015869,-0.72046959400177,-0.263194739818573,1.6155940294265747,1.745727777481079
0.4030930995941162,-0.3641324043273926,-0.4123530387878418,0.7809301614761353,-0.41682683229845996,-0.6414044647749473,0.7144648721187622,-0.547092080116272,0.4048610329627991,-0.7326512932777405,-0.8095594644546509,1.2527849674224854,1.5140928030014038
0.424990177154541,-0.2677861452102661,-0.5204077959060669,0.8458378911018372,-0.4529599494873496,-0.6173267781869152,0.7241028265434267,-0.5204829573631287,0.4376288950443268,-0.7331974506378174,-1.6140373945236206,0.7410436868667603,1.291467308998108
0.44513797760009766,-0.21277838945388794,-0.603979766368866,0.8228680491447449,-0.49704285007823906,-0.609487605541439,0.7205965451096055,-0.5031792521476746,0.47682830691337585,-0.7207256555557251,-2.0984644889831543,0.21598124504089355,0.9754833579063416
0.45850324630737305,-0.17258220911026,-0.5871342420578003,0.7593737840652466,-0.5400002957140215,-0.6167296443680231,0.7071764808749837,-0.49607324600219727,0.5141362547874451,-0.6996966004371643,-2.0672287940979004,-0.2680860161781311,0.5389428734779358
0.4826490879058838,-0.12316080927848816,-0.5968466997146606,0.6969304084777832,-0.5762768058787991,-0.6380637908941293,0.6851853983935404,-0.4994436204433441,0.5449058413505554,-0.6735234260559082,-1.9692165851593018,-0.6941601634025574,0.05984731763601303
0.5004401206970215,-0.11635947227478027,-0.5901649594306946,0.6092256307601929,-0.6032138850155857,-0.6731161646087703,0.6539894064377142,-0.5134013295173645,0.5672920942306519,-0.6438935399055481,-1.7427034378051758,-1.0779008865356445,-0.4793471395969391
0.5266890525817871,-0.11099237203598022,-0.5411904454231262,0.5015100836753845,-0.6187582192282861,-0.7213803665726305,0.6142752569337251,-0.5379791855812073,0.5800240635871887,-0.6116784811019897,-1.5863369703292847,-1.4552758932113647,-1.020309329032898
0.5468802452087402,-0.1561272144317627,-0.522462010383606,0.4144611358642578,-0.6249085557766498,-0.7821511178709735,0.5640944963121008,-0.5716103315353394,0.5850231051445007,-0.5753344893455505,-1.695336937904358,-1.6801499128341675,-1.5448468923568726
0.5588092803955078,-0.1791190505027771,-0.49933111667633057,0.38469207286834717,-0.6235187745541466,-0.8540852994301027,0.5016962471854852,-0.6120949983596802,0.5838953852653503,-0.5332973599433899,-1.9103013277053833,-1.8719271421432495,-2.0154919624328613
0.5766961574554443,-0.22247856855392456,-0.41908013820648193,0.33503714203834534,-0.6136981886329609,-0.9343541770351546,0.4297624726828997,-0.6574652791023254,0.5758947730064392,-0.4858854413032532,-2.039801597595215,-1.9617177248001099,-2.420135974884033
0.5967249870300293,-0.3316114544868469,-0.2699512839317322,0.2609878182411194,-0.5938401975369701,-1.0164334703310944,0.3532198040622511,-0.7046740055084229,0.5595479011535645,-0.436280757188797,-2.068805456161499,-1.909964680671692,-2.759152889251709
0.6168990135192871,-0.38130617141723633,-0.1644521951675415,0.196252703666687,-0.563763497763004,-1.0962294364730498,0.27622402892101133,-0.7518421411514282,0.5343710780143738,-0.38623976707458496,-2.0762035846710205,-1.8525230884552002,-3.0443317890167236
0.6408700942993164,-0.4744304418563843,-0.10651347041130066,0.17986848950386047,-0.5229023945056062,-1.1718437966585475,0.20184280278964864,-0.7983356714248657,0.49939680099487305,-0.3365456461906433,-1.9803601503372192,-1.8883990049362183,-3.3744256496429443
0.6610431671142578,-0.6749669909477234,0.000941932201385498,0.24136027693748474,-0.4702210737987783,-1.24272928136703,0.13179623221296036,-0.8439234495162964,0.4530833661556244,-0.2872433066368103,-1.945841908454895,-1.8314846754074097,-3.7485556602478027
0.679807186126709,-0.7959829568862915,0.05870538949966431,0.27982595562934875,-0.4079616113871765,-1.3077620403495913,0.06390527352738529,-0.8863598108291626,0.39673906564712524,-0.23867292702198029,-2.200157642364502,-1.8269150257110596,-3.992532730102539
0.701026201248169,-0.7882837653160095,0.08662876486778259,0.22529952228069305,-0.3406845971390414,-1.3709526892484114,-0.008223305596050353,-0.9237678647041321,0.33413243293762207,-0.1871066391468048,-2.8694586753845215,-1.8473007678985596,-4.081427097320557
0.7210030555725098,-0.7462440729141235,0.13949504494667053,0.1534016728401184,-0.2721783000961938,-1.4309422560151979,-0.090232439393525,-0.9537835121154785,0.26883018016815186,-0.13426703214645386,-3.6571788787841797,-1.660025715827942,-3.983509063720703
0.7406151294708252,-0.5876949429512024,0.2215423285961151,0.03210622817277908,-0.20389396922626513,-1.4818626566298119,-0.17664099597834051,-0.9754154682159424,0.2024841606616974,-0.08697670698165894,-3.7650258541107178,-1.3821978569030762,-3.749802589416504
0.7604579925537109,-0.35392165184020996,0.3389296531677246,-0.14970552921295166,-0.13780921829886686,-1.5192305765242269,-0.25239496825962776,-0.9892028570175171,0.1373734325170517,-0.051054246723651886,-3.163287401199341,-1.072417974472046,-3.330188512802124
0.7803101539611816,-0.156047523021698,0.40610843896865845,-0.18146198987960815,-0.07879056845997043,-1.5451907551747255,-0.30963543623468337,-0.9965709447860718,0.07870907336473465,-0.025523347780108452,-2.295473098754883,-0.9181044101715088,-2.7733116149902344
0.8004093170166016,-0.09908223152160645,0.4650832414627075,-0.1295682191848755,-0.02924464798663676,-1.5641770896546474,-0.3479259387078738,-0.9995507001876831,0.029240479692816734,-0.006616360042244196,-1.4914556741714478,-0.7489149570465088,-2.264380931854248
0.8207311630249023,-0.11868917942047119,0.49251869320869446,-0.11715841293334961,0.012218090383867656,-1.577619140226466,-0.37124186850000046,-0.9999023079872131,-0.01221778616309166,0.0068222526460886,-0.873189389705658,-0.5744065046310425,-1.9001215696334839
0.8392519950866699,-0.10348695516586304,0.4879642426967621,-0.14133906364440918,0.04762888430102558,-1.5881020712874585,-0.38340830516711144,-0.9987165331840515,-0.04761087894439697,0.017285259440541267,-0.43052470684051514,-0.5058265924453735,-1.62196683883667
0.8601770401000977,-0.03404057025909424,0.47942355275154114,-0.18882369995117188,0.07812053813062199,-1.5973354065552507,-0.3896436656833627,-0.9965991377830505,-0.07804110646247864,0.02645503543317318,-0.3144461214542389,-0.47336795926094055,-1.3928990364074707
0.8800373077392578,0.09848815202713013,0.45249584317207336,-0.1774846315383911,0.10366716255307429,-1.6065432454609443,-0.39706025587844906,-0.9939960837364197,-0.10348157584667206,0.03554743900895119,-0.559483528137207,-0.5013074278831482,-1.1350103616714478
0.8995752334594727,0.16944599151611328,0.4491746425628662,-0.1494842767715454,0.12499119832400399,-1.6151418081870805,-0.41126406849250924,-0.9912235736846924,-0.1246659979224205,0.04398512467741966,-0.9516438245773315,-0.5191069841384888,-0.9335403442382812
0.9204671382904053,0.18087947368621826,0.4769950807094574,-0.15950381755828857,0.14304025577354826,-1.622467527421881,-0.43293105981371083,-0.9884662628173828,-0.14255297183990479,0.05112074315547943,-1.262280821800232,-0.5055519938468933,-0.7760317921638489
0.9402422904968262,0.16913163661956787,0.5222338438034058,-0.19651007652282715,0.15879512554746292,-1.6286466326543902,-0.45868375477970347,-0.9857668280601501,-0.15812860429286957,0.05709061399102211,-1.332023024559021,-0.5028377175331116,-0.6608661413192749
0.9600882530212402,0.16336345672607422,0.5505783557891846,-0.26333630084991455,0.1723254334678523,-1.6345426346658507,-0.48353594866312777,-0.9831878542900085,-0.17147380113601685,0.062759630382061,-1.1816651821136475,-0.49298295378685,-0.5388967990875244
0.980208158493042,0.16631841659545898,0.5805190801620483,-0.3667057752609253,0.18314955603770974,-1.6406303359976833,-0.5043353086240497,-0.9808785915374756,-0.18212735652923584,0.06861025094985962,-0.9265903830528259,-0.4843265414237976,-0.4045814275741577
0.9991261959075928,0.14671695232391357,0.6140873432159424,-0.3734029531478882,0.19102208604434112,-1.6474028185972687,-0.5198860357893447,-0.9789314866065979,-0.18986248970031738,0.07513955235481262,-0.6799827218055725,-0.48386403918266296,-0.26253679394721985
1.0211231708526611,0.10583698749542236,0.6109728217124939,-0.377177357673645,0.19549820725935244,-1.6542014964316962,-0.531532843353439,-0.9775412678718567,-0.1942552775144577,0.08172158151865005,-0.5089117884635925,-0.42097729444503784,-0.07756643742322922
1.0395491123199463,0.09346520900726318,0.6086301207542419,-0.408458948135376,0.1952566465757735,-1.660474887346808,-0.5408105001303329,-0.9770560264587402,-0.19401830434799194,0.08785662800073624,-0.40164780616760254,-0.38879725337028503,0.17917144298553467
1.0598430633544922,0.07212668657302856,0.618975818157196,-0.46404552459716797,0.1895982817575014,-1.6663665456454153,-0.548362258652497,-0.9775986671447754,-0.18846438825130463,0.09371481835842133,-0.27119094133377075,-0.35325887799263,0.4549972712993622
1.0768632888793945,-0.006829321384429932,0.6047775745391846,-0.5082464218139648,0.17819846633182992,-1.6713474346508108,-0.5536505713472645,-0.9791935682296753,-0.17725685238838196,0.098792165517807,-0.14623576402664185,-0.24067427217960358,0.740710973739624
1.0964040756225586,-0.10552090406417847,0.5632721185684204,-0.5110793113708496,0.16065733152694128,-1.67403865055275,-0.5578427765269601,-0.9818664193153381,-0.1599671095609665,0.10173188149929047,-0.10078274458646774,-0.09300084412097931,1.0647064447402954
1.1173851490020752,-0.19613325595855713,0.52509605884552,-0.5337231159210205,0.13618865752990678,-1.6743723129781694,-0.562318179445516,-0.9854311347007751,-0.13576805591583252,0.10243356227874756,-0.058715611696243286,-0.029991956427693367,1.4027209281921387
1.1393389701843262,-0.40884268283843994,0.5166321992874146,-0.5737749338150024,0.10586489151014859,-1.673292935379287,-0.5631645461901902,-0.9891830682754517,-0.10566725581884384,0.10174445062875748,0.3585220277309418,0.17110270261764526,1.6092263460159302
1.1584851741790771,-0.6586872935295105,0.49193304777145386,-0.608984112739563,0.07088033424487128,-1.6647274490215098,-0.5534674846928861,-0.9930921196937561,-0.07082100212574005,0.09355757385492325,0.9105274081230164,0.8256304860115051,1.8125344514846802
1.1836941242218018,-0.5412232279777527,0.3307805061340332,-0.5540701150894165,0.029438928967069056,-1.6441596576367261,-0.5369181871417301,-0.9968781471252441,-0.029434677213430405,0.07326579093933105,0.9966751337051392,1.2590702772140503,2.20737361907959
1.197195053100586,-0.3314635157585144,0.12191621959209442,-0.3461965322494507,-0.019961323088420187,-1.6155948103407964,-0.5243992525830181,-0.9987980127334595,0.01995999738574028,0.04477459192276001,0.46553289890289307,1.6055946350097656,2.641899824142456
1.2182350158691406,-0.30389559268951416,-0.10207879543304443,-0.17084217071533203,-0.07590657715594368,-1.5809777516744268,-0.5236599453723815,-0.9970690011978149,0.07583370804786682,0.010151933878660202,-0.1829245388507843,1.817603588104248,2.90529727935791
1.2397069931030273,-0.2905028462409973,-0.2373480349779129,-0.13409572839736938,-0.13423518079598665,-1.5448660068297275,-0.5279659824099295,-0.9906708598136902,0.1338324099779129,-0.025694170966744423,-0.18866263329982758,1.8100998401641846,2.889029026031494
1.2605609893798828,-0.3128551244735718,-0.31413352489471436,-0.20110785961151123,-0.19007769377930311,-1.5079760131540805,-0.5265876245866209,-0.9800527095794678,0.18893519043922424,-0.06164833530783653,0.04398317262530327,1.876542091369629,2.6775596141815186
1.2795863151550293,-0.335648775100708,-0.4302607774734497,-0.13706767559051514,-0.24047900791762902,-1.4682741401322474,-0.5211531537458164,-0.9661243557929993,0.2381678819656372,-0.099397674202919,0.022175362333655357,1.9150068759918213,2.3860039710998535
1.2993040084838867,-0.26408112049102783,-0.37738141417503357,-0.06663663685321808,-0.2858131969433958,-1.4294343666361744,-0.5169855355362174,-0.9498625993728638,0.28193774819374084,-0.13517606258392334,-0.22946186363697052,1.789832592010498,2.1666622161865234
1.3168611526489258,-0.3242412805557251,-0.3100384771823883,-0.06741046905517578,-0.3295839012056037,-1.3924877479462405,-0.5182439212598994,-0.931175708770752,0.3236493468284607,-0.16781894862651825,-0.6119332313537598,1.8648930788040161,2.1213502883911133
1.3387012481689453,-0.38521718978881836,-0.2964956760406494,-0.049285560846328735,-0.37585457045319604,-1.3563151979359105,-0.5255750478223401,-0.9088807702064514,0.3670675754547119,-0.1979829967021942,-1.0051205158233643,1.9471919536590576,2.2367711067199707
1.3588991165161133,-0.40228134393692017,-0.3293967545032501,0.05557042360305786,-0.4262480250147948,-1.320869865970248,-0.5392639893378648,-0.8822341561317444,0.413457453250885,-0.2252022624015808,-1.3824290037155151,2.07908296585083,2.382240056991577
1.378633975982666,-0.300725519657135,-0.35492339730262756,0.14362108707427979,-0.4814129544398784,-1.2873626364752306,-0.5572185687565974,-0.8509774804115295,0.4630320072174072,-0.24786899983882904,-1.6029771566390991,2.034357786178589,2.5027101039886475
1.3967480659484863,-0.2476171851158142,-0.3504098653793335,0.14348101615905762,-0.5389516074231988,-1.2566340392670348,-0.5748895296159601,-0.8162409663200378,0.5132365226745605,-0.2652154862880707,-1.5287889242172241,1.8598929643630981,2.5443129539489746
1.420152187347412,-0.2567046880722046,-0.36038070917129517,0.10909661650657654,-0.5957631887746444,-1.2275176011838376,-0.5864793932759181,-0.7794281244277954,0.5611405968666077,-0.278591126203537,-1.2350451946258545,1.7122619152069092,2.5181281566619873
1.4389772415161133,-0.2982742190361023,-0.4574880003929138,0.14123064279556274,-0.6494718710917682,-1.1959654001177935,-0.5898981816795056,-0.741108775138855,0.6047658920288086,-0.2915754020214081,-0.9096184968948364,1.6246023178100586,2.4096295833587646
1.4582850933074951,-0.2308904528617859,-0.4984470009803772,0.18551361560821533,-0.6969072639926052,-1.1613671592327426,-0.5838816845752322,-0.7034510374069214,0.641849160194397,-0.30526450276374817,-0.4786261022090912,1.463204264640808,2.1455814838409424
1.4781601428985596,-0.1783042550086975,-0.5184532403945923,0.22892481088638306,-0.7349538911911558,-1.1240289447588376,-0.5690624172793435,-0.669046938419342,0.6705529689788818,-0.320523202419281,-0.12295892834663391,1.2743135690689087,1.7784850597381592
1.4979381561279297,-0.15022945404052734,-0.5728409886360168,0.2588129937648773,-0.7627307895867381,-1.0878017002758158,-0.550439237524978,-0.6402521729469299,0.6908982396125793,-0.33576300740242004,0.035871345549821854,1.0572420358657837,1.3218834400177002
1.5196032524108887,-0.20617473125457764,-0.6047275066375732,0.2985828220844269,-0.7806291820354354,-1.057108893971837,-0.5349147439849926,-0.6187765002250671,0.703726589679718,-0.34911981225013733,0.06807461380958557,0.94013911485672,0.783767819404602
1.53839111328125,-0.22412842512130737,-0.6195499897003174,0.33935871720314026,-0.7888109531369398,-1.03414801578398,-0.5270533486906278,-0.6056292653083801,0.7095158696174622,-0.3602783977985382,-0.02633773721754551,0.7909320592880249,0.21116846799850464
1.558058261871338,-0.19020390510559082,-0.6437152028083801,0.3750615417957306,-0.7890424265137679,-1.0235471090301373,-0.5319385801759792,-0.6016356945037842,0.7096789479255676,-0.36659276485443115,-0.3076111376285553,0.6222192049026489,-0.3637875020503998
1.578071117401123,-0.1594560742378235,-0.6589218974113464,0.40265658497810364,-0.7834397946528477,-1.0282500342597392,-0.5531213837728844,-0.6067488193511963,0.7057206630706787,-0.365806519985199,-0.6926150321960449,0.39913278818130493,-0.8830780982971191
1.5970981121063232,-0.1584276556968689,-0.5670211315155029,0.3762814402580261,-0.7728815041607485,-1.0477807869862892,-0.5900225523075381,-0.6201979517936707,0.6982010006904602,-0.3575893044471741,-1.0105721950531006,0.26603516936302185,-1.3583112955093384
1.6178832054138184,-0.17552095651626587,-0.4844467043876648,0.26491376757621765,-0.7551177804361551,-1.07661579252737,-0.6368964464340051,-0.6410684585571289,0.6853744387626648,-0.3453885018825531,-1.0639803409576416,0.06591806560754776,-1.871800184249878
1.6379280090332031,-0.3109012842178345,-0.3887441158294678,0.17739596962928772,-0.7253158788847975,-1.111919485971683,-0.6887194583731427,-0.6708797812461853,0.6633718609809875,-0.33144861459732056,-0.9735140204429626,-0.07567937672138214,-2.5500664710998535
1.6576390266418457,-0.48132020235061646,-0.23133182525634766,0.2593691051006317,-0.6822388401240255,-1.1502879476028904,-0.7440454539816177,-0.7085449695587158,0.6305323243141174,-0.31684887409210205,-1.1058825254440308,-0.16440701484680176,-3.0851173400878906
1.6792871952056885,-0.33496183156967163,-0.1167193055152893,0.22459587454795837,-0.6360397243550809,-1.1955323433729514,-0.8100346765021601,-0.7484732866287231,0.5940142273902893,-0.29484719038009644,-2.0083200931549072,-0.3323952257633209,-3.1504950523376465
1.6975030899047852,-0.13008415699005127,0.012528181076049805,0.021790146827697754,-0.595856222681557,-1.2497028982338836,-0.8928677121588142,-0.7853670120239258,0.5612176060676575,-0.2612156867980957,-2.8462393283843994,-0.2632093131542206,-2.8920106887817383
1.7176389694213867,-0.02368485927581787,0.18340134620666504,-0.2423102855682373,-0.5616360180962175,-1.2986875776415074,-0.9748470314356656,-0.8152434825897217,0.5325716137886047,-0.22747716307640076,-2.5245203971862793,-0.1525132656097412,-2.3754537105560303
1.7379801273345947,0.02882075309753418,0.31643420457839966,-0.3259367346763611,-0.5308939717484017,-1.3298568054820101,-1.0306517459231652,-0.8374451398849487,0.5063044428825378,-0.20577090978622437,-1.2321889400482178,-0.05121903494000435,-1.8307081460952759
1.7573323249816895,-0.013689041137695312,0.4254690110683441,-0.24166584014892578,-0.501945553459868,-1.3409319967755196,-1.0530051857220624,-0.8535901308059692,0.48113200068473816,-0.19974030554294586,-0.1045856848359108,0.038301169872283936,-1.4738215208053589
1.7772021293640137,-0.0025388002395629883,0.347943514585495,-0.20470517873764038,-0.4748120289014096,-1.3433072364975458,-1.0586424035176958,-0.8664646148681641,0.4571712911128998,-0.20058339834213257,0.1082238107919693,-0.008853115141391754,-1.3187332153320312
1.7973933219909668,0.014852464199066162,0.29517099261283875,-0.2253400683403015,-0.45006397708447177,-1.3461678994405433,-1.065156154428134,-0.8777981400489807,0.43502312898635864,-0.20056314766407013,-0.15814515948295593,0.017919553443789482,-1.203608751296997
1.818068027496338,0.16480118036270142,0.2544964849948883,-0.2652837634086609,-0.4303572059354959,-1.3505459688813484,-1.0771668626365305,-0.8868625164031982,0.41719546914100647,-0.19855283200740814,-0.4514778256416321,0.05698661878705025,-0.9397006630897522
1.8371152877807617,0.2834460139274597,0.2854670286178589,-0.23829060792922974,-0.4173886888483795,-1.3538861501017705,-1.091284278366791,-0.8927295804023743,0.4053747057914734,-0.1967373490333557,-0.49914348125457764,0.20456817746162415,-0.6008638143539429
1.8569831848144531,0.30231624841690063,0.32308533787727356,-0.20546987652778625,-0.41128188869893256,-1.353063311997783,-1.1046869166277404,-0.8949678540229797,0.399784654378891,-0.19800293445587158,-0.6096491813659668,0.40865153074264526,-0.26278117299079895
1.8769903182983398,0.32625317573547363,0.3299534320831299,-0.18693691492080688,-0.4118960641650942,-1.3501111085034678,-1.1208229115348274,-0.8941396474838257,0.4003475308418274,-0.20059040188789368,-0.8495936989784241,0.5211349129676819,-0.008108931593596935
1.8971331119537354,0.35535311698913574,0.31188085675239563,-0.1436176747083664,-0.4175879962352049,-1.3469128824083805,-1.1394282451203854,-0.891257107257843,0.40555688738822937,-0.20293980836868286,-0.9033819437026978,0.5287286639213562,0.18303686380386353
1.9170961380004883,0.37739866971969604,0.26282423734664917,-0.1293666809797287,-0.42603359203891955,-1.343521439136603,-1.155750750505935,-0.8871949315071106,0.4132622182369232,-0.20518216490745544,-0.7026280164718628,0.46856164932250977,0.2945343554019928
1.936697006225586,0.38327544927597046,0.24020564556121826,-0.08137184381484985,-0.4344504322136085,-1.3385939672464198,-1.1644637510175935,-0.882756769657135,0.4209119379520416,-0.20874343812465668,-0.23761242628097534,0.39926397800445557,0.3419954180717468
1.956672191619873,0.39417338371276855,0.23050057888031006,-0.049040764570236206,-0.44151071921775126,-1.3309561507221206,-1.1635918924082038,-0.878227949142456,0.42730581760406494,-0.21476829051971436,0.11473898589611053,0.3216637372970581,0.3788098692893982
1.9767112731933594,0.4537275433540344,0.161176860332489,-0.05452084541320801,-0.44856376003070925,-1.3226996889002265,-1.157301269305234,-0.8734816908836365,0.43367183208465576,-0.22126640379428864,0.2082417905330658,0.21771559119224548,0.4464426338672638
1.996657133102417,0.48949939012527466,0.14025205373764038,0.016399621963500977,-0.45683274042930044,-1.3173632750559188,-1.1518391612740388,-0.8687872886657715,0.441107839345932,-0.22501766681671143,0.0412447527050972,0.07212961465120316,0.46153175830841064
2.016724109649658,0.47213858366012573,0.12568119168281555,0.08364009857177734,-0.4657089928207209,-1.316947127653103,-1.150568199414781,-0.8648693561553955,0.44905638694763184,-0.2243870198726654,-0.13828051090240479,-0.0963895320892334,0.4285108745098114
2.0366950035095215,0.4910286068916321,0.05932554602622986,0.10827852785587311,-0.4749298442278894,-1.321013462413562,-1.1517341759852489,-0.8617256879806519,0.45727604627609253,-0.21983538568019867,-0.14415036141872406,-0.28956708312034607,0.43986549973487854
2.056793212890625,0.4958864450454712,-0.010713160037994385,0.13778704404830933,-0.4824433488533012,-1.3290946127256065,-1.1488191056982786,-0.8601138591766357,0.46394503116607666,-0.21203619241714478,0.2813033163547516,-0.6477718949317932,0.31921249628067017
2.0767271518707275,0.0893288254737854,0.0647021234035492,0.12891651690006256,-0.4833837245335007,-1.337118074727409,-1.1351832608867725,-0.8613625168800354,0.4647778868675232,-0.20502722263336182,0.8252870440483093,-0.7113901376724243,0.06215936690568924
2.0966920852661133,-0.17887258529663086,0.12033706903457642,0.21877163648605347,-0.4796118281420454,-1.3402420956269419,-1.115895106852055,-0.8636995553970337,0.46143484115600586,-0.20273451507091522,0.8221427798271179,-0.5626010894775391,0.024339403957128525
2.116724967956543,0.10561156272888184,-0.09273913502693176,0.31773626804351807,-0.47930506205491336,-1.3465676978014107,-1.1039079711830517,-0.8651026487350464,0.46116265654563904,-0.1972985416650772,0.1731054186820984,-0.5712100863456726,0.17456437647342682
2.136667251586914,0.14075464010238647,-0.26562443375587463,0.4118136167526245,-0.48414709498260333,-1.3578148994535844,-1.1051731243566774,-0.8650743365287781,0.4654536545276642,-0.18708209693431854,-0.2835245430469513,-0.5546423196792603,0.26958897709846497
2.1566920280456543,0.15299540758132935,-0.23114818334579468,0.3063455820083618,-0.4896298054556937,-1.3713710652436883,-1.106295778779098,-0.8650164008140564,0.47029921412467957,-0.17482997477054596,0.22068846225738525,-0.7027216553688049,0.17544834315776825
2.1766932010650635,-0.09874242544174194,-0.2319473922252655,0.16682112216949463,-0.48669928444381655,-1.3772804088342943,-1.0906931393408494,-0.8673831224441528,0.4677110016345978,-0.16997958719730377,1.1612110137939453,-0.6225191354751587,-0.22017662227153778
2.196742057800293,-0.13489961624145508,-0.31588858366012573,0.2341458946466446,-0.47331825211164497,-1.375859645404876,-1.0629660393934968,-0.873202919960022,0.4558422267436981,-0.17240868508815765,1.3491380214691162,-0.5206577181816101,-0.5975715517997742
2.2166941165924072,0.013047337532043457,-0.36266207695007324,0.3856896758079529,-0.4562374102378004,-1.3765286358769417,-1.044110073112475,-0.8808300495147705,0.44057348370552063,-0.17330245673656464,0.5142602920532227,-0.392338365316391,-0.6993988752365112
2.236692190170288,0.22418099641799927,-0.43066126108169556,0.45727187395095825,-0.4450563869800235,-1.385831174146168,-1.0491689257150127,-0.8871908783912659,0.4305087625980377,-0.1659967601299286,-0.7799071073532104,-0.29077205061912537,-0.45137521624565125
2.257549285888672,0.30902695655822754,-0.47448042035102844,0.35548192262649536,-0.4441897687999604,-1.402009045055809,-1.079096687672118,-0.8901274800300598,0.42972642183303833,-0.15168540179729462,-1.7497649192810059,-0.08151444792747498,-0.11561639606952667
2.277677059173584,0.37403714656829834,-0.4460448622703552,0.20768876373767853,-0.44976439704539795,-1.4210450995338468,-1.1182054266159542,-0.8904709219932556,0.4347533881664276,-0.13435493409633636,-1.6452054977416992,-0.12872128188610077,0.0692656859755516
2.2968592643737793,0.21649116277694702,-0.33597761392593384,0.1155351847410202,-0.4546778411315732,-1.4354134813746118,-1.1440385768899695,-0.8901821970939636,0.4391728937625885,-0.12125712633132935,-0.6499696969985962,-0.21551300585269928,0.0692518949508667
2.3168721199035645,0.07689160108566284,-0.32873257994651794,0.061188407242298126,-0.4558872211959428,-1.4414305537819103,-1.146122589426135,-0.8903681635856628,0.44025909900665283,-0.11583004891872406,0.3638221025466919,-0.25064870715141296,0.02534770965576172
2.336775302886963,0.02110600471496582,-0.44188305735588074,0.10945206880569458,-0.4545014894758406,-1.4404396456225228,-1.1327276659086243,-0.8908571004867554,0.4390144646167755,-0.11679146438837051,0.7647137641906738,-0.25667136907577515,0.0022015711292624474
2.3566951751708984,0.039324402809143066,-0.4123804569244385,0.15716421604156494,-0.4522358001308803,-1.4389439862462705,-1.1162035907823524,-0.8916652202606201,0.43697765469551086,-0.11825422197580338,0.6613927483558655,-0.3054847717285156,-0.04856833070516586
2.3767480850219727,-0.03666508197784424,-0.38390830159187317,0.14524829387664795,-0.44867720152896556,-1.4398881255899973,-1.105856978244165,-0.893312394618988,0.43377405405044556,-0.11761454492807388,0.31530773639678955,-0.25126779079437256,-0.16598938405513763
2.396895170211792,0.006182730197906494,-0.38627180457115173,0.07123071700334549,-0.444023509013605,-1.441916058275811,-1.101191508631164,-0.8955413103103638,0.4295762777328491,-0.11606091260910034,0.22404992580413818,-0.13434180617332458,-0.218160018324852
2.41672420501709,-0.044616103172302246,-0.3231179416179657,0.0881965160369873,-0.4393169337079367,-1.4402340959231685,-1.0954896677336767,-0.8973395824432373,0.4253213703632355,-0.11782895028591156,0.3415849506855011,0.033935628831386566,-0.1731216162443161
2.436711311340332,-0.13380670547485352,-0.23646634817123413,0.12696129083633423,-0.4349917146548162,-1.4362642918165784,-1.087750334125908,-0.8986793160438538,0.4214029014110565,-0.12163586914539337,0.4152812063694,0.005666971206665039,-0.17891301214694977
2.456709146499634,-0.34348922967910767,-0.16428017616271973,0.06718713045120239,-0.4295841329512779,-1.4331857321503239,-1.0791962611925792,-0.9005447030067444,0.416492760181427,-0.12471270561218262,0.3811633288860321,-0.03406508266925812,-0.24691927433013916
2.4766831398010254,-0.4807661175727844,-0.17468604445457458,0.08208556473255157,-0.4236499863671478,-1.432944025802244,-1.0759163591258762,-0.9029467105865479,0.4110904932022095,-0.12526778876781464,-0.03586072474718094,-0.08669669181108475,-0.28267544507980347
2.4966959953308105,-0.4874432682991028,-0.19100522994995117,0.18413066864013672,-0.41835845472346883,-1.436143876555479,-1.0809828382858264,-0.9054859280586243,0.40626102685928345,-0.12266816943883896,-0.2768728733062744,-0.04545018821954727,-0.3071128726005554
2.5167500972747803,-0.47647738456726074,-0.11846756935119629,0.16405314207077026,-0.4120911971567324,-1.4385809998025636,-1.0853542680040267,-0.9082883596420288,0.40052634477615356,-0.12079433351755142,0.03801291435956955,-0.03751964867115021,-0.3656308948993683
2.5366930961608887,-0.4839358329772949,-0.03586706519126892,0.056043386459350586,-0.4039074142707629,-1.4374857962799013,-1.0794037104957017,-0.9113737344741821,0.3930143415927887,-0.12222059816122055,0.608609139919281,-0.08733522891998291,-0.3752239942550659
2.5567421913146973,-0.5252599716186523,-0.030986905097961426,0.02713853120803833,-0.39447058268890595,-1.4338704571995238,-1.0640791016220015,-0.9145594835281372,0.3843194842338562,-0.12601538002490997,0.8268806338310242,-0.15229754149913788,-0.38246282935142517
2.5766921043395996,-0.5100018382072449,-0.07817688584327698,0.0795888751745224,-0.38441993228479615,-1.4323375284447737,-1.0486582248539418,-0.918144702911377,0.37502145767211914,-0.12794385850429535,0.758563756942749,-0.2938309907913208,-0.4197447896003723
2.5967330932617188,-0.5360709428787231,-0.051510632038116455,0.02039562165737152,-0.3733568951173361,-1.43221018913336,-1.0308670797400001,-0.922181248664856,0.36474311351776123,-0.12862606346607208,1.1060190200805664,-0.33412328362464905,-0.4433552324771881
2.6166951656341553,-0.5531648993492126,-0.02464321255683899,-0.01766975224018097,-0.36118031737719275,-1.4287052434239902,-1.0033921045473029,-0.9260528683662415,0.35337865352630615,-0.13247661292552948,1.6007311344146729,-0.30400317907333374,-0.40425732731819153
2.636691093444824,-0.5247721672058105,-0.04227703809738159,0.036595046520233154,-0.34890409241112535,-1.4217522084558432,-0.9685010151094546,-0.9293295741081238,0.341868132352829,-0.13954593241214752,1.7305564880371094,-0.2339809536933899,-0.3348877429962158
2.6566929817199707,-0.4848789572715759,-0.0720784068107605,0.06375984847545624,-0.33798281093815613,-1.416623117552371,-0.9379384876799239,-0.9322355389595032,0.3315846920013428,-0.1448754370212555,1.2056803703308105,-0.28331297636032104,-0.32027196884155273
2.6766910552978516,-0.5185393691062927,-0.10526752471923828,0.01679520308971405,-0.32894103078490844,-1.4171886098949105,-0.9212643326940667,-0.9352419972419739,0.32304102182388306,-0.1448010504245758,0.5246613025665283,-0.30877378582954407,-0.3324865996837616
2.696693181991577,-0.4733157157897949,-0.09053215384483337,-0.036792173981666565,-0.3214741821355165,-1.420618707002171,-0.9144444634866699,-0.9380919933319092,0.31596556305885315,-0.14194917678833008,0.34030139446258545,-0.2537077069282532,-0.29379019141197205
2.716693162918091,-0.42015743255615234,0.022454053163528442,-0.10695873200893402,-0.3148286078120147,-1.4220276332416313,-0.905571476052104,-0.9403467774391174,0.30965352058410645,-0.14093543589115143,0.6040504574775696,-0.15420746803283691,-0.23665454983711243
2.7367382049560547,-0.3820767402648926,0.04656413197517395,-0.10528749227523804,-0.31085016327862103,-1.418321438697673,-0.8927163279164402,-0.9410282373428345,0.3058681786060333,-0.14460554718971252,0.3474467694759369,0.3164884150028229,0.2896132171154022
2.7567031383514404,-0.38538068532943726,0.2064429521560669,-0.23594295978546143,-0.3154240992355841,-1.4093610744432221,-0.8947973888461119,-0.9383041262626648,0.3102196753025055,-0.15280510485172272,-0.20437300205230713,0.517703115940094,0.1562967449426651
2.776693105697632,-0.22148078680038452,0.35653719305992126,-0.256009578704834,-0.3196390916787284,-1.403320093118062,-0.9000880523433004,-0.9360663294792175,0.3142239451408386,-0.15825119614601135,-0.5074144601821899,0.2479832023382187,0.08968300372362137
2.796689987182617,-0.16289305686950684,-0.002845555543899536,-0.16718272864818573,-0.3212227802280862,-1.4046605613381338,-0.9103517573656353,-0.9357855916023254,0.31572702527046204,-0.15691378712654114,-0.34291040897369385,0.015274768695235252,0.022275704890489578
2.8166921138763428,-0.19631165266036987,0.00041860342025756836,-0.13734827935695648,-0.321336630299995,-1.4042916423676763,-0.9110685809411889,-0.9356921911239624,0.31583505868911743,-0.15725304186344147,0.40716734528541565,0.026647798717021942,-0.024998685345053673
2.8366942405700684,-0.17098015546798706,0.14879384636878967,-0.18051409721374512,-0.31683836639378354,-1.4010217808339065,-0.8936501194923624,-0.9365638494491577,0.3115638494491577,-0.16055020689964294,1.1924796104431152,-0.2757158875465393,-0.12594787776470184
2.856694221496582,-0.09885591268539429,0.011520951986312866,-0.10417062044143677,-0.30996223295561204,-1.4013830767130588,-0.8693802562910107,-0.9387113451957703,0.305022656917572,-0.16056925058364868,1.1804550886154175,-0.454192578792572,-0.15332752466201782
2.8766911029815674,-0.14511066675186157,0.08006763458251953,-0.13070259988307953,-0.3020047281923623,-1.4034627990682498,-0.8429733324066983,-0.9414067268371582,0.29743480682373047,-0.15901586413383484,1.474287986755371,-0.5302890539169312,-0.20702992379665375
2.8967721462249756,-0.21637648344039917,0.10739746689796448,-0.12018369138240814,-0.2921095186728463,-1.4060032797408084,-0.8120153756637584,-0.9446647763252258,0.287973016500473,-0.15709887444972992,1.518092393875122,-0.6113787293434143,-0.23194672167301178
2.9166932106018066,-0.3751581907272339,0.033704906702041626,0.034568533301353455,-0.28452596506366473,-1.4108900343032407,-0.7889371878395692,-0.9475501775741577,0.28070250153541565,-0.1528240293264389,0.6962758302688599,-0.47894996404647827,-0.11415894329547882
2.936690092086792,-0.5096612572669983,0.15377336740493774,0.03661924600601196,-0.28222457291663816,-1.418196973682346,-0.7848823591138556,-0.9492775201797485,0.27849289774894714,-0.1459941267967224,-0.31052640080451965,-0.29865193367004395,0.055679503828287125
2.9566891193389893,-0.5318246483802795,0.15093636512756348,0.12418055534362793,-0.2889184947794466,-1.4271102624877237,-0.8044667612791777,-0.948674738407135,0.2849157154560089,-0.13725723326206207,-1.6911797523498535,-0.05057712644338608,0.34604474902153015
2.976689100265503,-0.5698915123939514,0.173077791929245,0.11090832948684692,-0.30415487390443824,-1.4392361128361473,-0.8488025952936857,-0.9458556771278381,0.2994869351387024,-0.12515990436077118,-2.551255941390991,0.11253820359706879,0.5936963558197021
2.9967470169067383,-0.5978060960769653,0.2952333092689514,0.06373381614685059,-0.3252314283767955,-1.45247207323748,-0.8995484936613501,-0.9409513473510742,0.31952810287475586,-0.11185989528894424,-2.4100780487060547,0.10880418866872787,0.9390825033187866
3.016757011413574,-0.5684378147125244,0.32235053181648254,-0.00903327763080597,-0.3529301230779988,-1.465784873039013,-0.9430441064428958,-0.9331951141357422,0.34564879536628723,-0.09835799038410187,-1.9890568256378174,-0.0062245759181678295,1.3546805381774902
3.036691188812256,-0.5258975028991699,0.3039853572845459,-0.011131055653095245,-0.3866531979594304,-1.4801666314197666,-0.9781942053758347,-0.9223753809928894,0.37709081172943115,-0.08382423222064972,-1.6297622919082642,-0.16494648158550262,1.686501145362854
3.0566883087158203,-0.5085410475730896,0.3287893235683441,0.054399847984313965,-0.42552950202234463,-1.4961411741500334,-1.007014730868224,-0.9082834124565125,0.41280311346054077,-0.06793428957462311,-1.3507331609725952,-0.3081570863723755,1.978129267692566
3.0766892433166504,-0.43197405338287354,0.23728808760643005,0.015688899904489517,-0.4685070397397512,-1.5144136348313113,-1.030445405211785,-0.8908256888389587,0.45155471563339233,-0.05028044432401657,-1.002415657043457,-0.5219427347183228,2.158439874649048
3.0967330932617188,-0.3568497896194458,0.19052347540855408,-0.03227132558822632,-0.5131091120430846,-1.5329205147359017,-1.0439284336659387,-0.8705978393554688,0.4908883571624756,-0.03299037739634514,-0.34974807500839233,-0.706387460231781,2.2313120365142822
3.1166911125183105,-0.269584059715271,0.15347164869308472,-0.035507917404174805,-0.557773207185425,-1.5463898134876093,-1.0414095391962708,-0.8481835126876831,0.5292982459068298,-0.020705314353108406,0.4043583869934082,-0.7814034819602966,2.2405271530151367
3.1367483139038086,-0.16013002395629883,0.10758572816848755,0.020196616649627686,-0.6021250286425264,-1.552824811728507,-1.0246558078280845,-0.8240009546279907,0.5663950443267822,-0.014810140244662762,0.8230010271072388,-0.7787259221076965,2.228893756866455
3.156691074371338,-0.062482237815856934,-0.00012034177780151367,0.034725308418273926,-0.6465809773285025,-1.556577024095665,-1.0045826385589067,-0.7980677485466003,0.602461040019989,-0.011348731815814972,0.6537085175514221,-0.7856526374816895,2.2564501762390137
3.176690101623535,0.013125956058502197,-0.11306363344192505,-0.010331809520721436,-0.6908042703873798,-1.5628595783978898,-0.989280998342956,-0.7707096338272095,0.6371572613716125,-0.006117056589573622,0.6188049912452698,-0.7936902046203613,2.1791529655456543
3.196737289428711,0.12111979722976685,-0.1461925506591797,-0.05910599231719971,-0.7330533675008563,-1.5632725314792515,-0.9652513118791582,-0.7431138753890991,0.6691418290138245,-0.005591141991317272,1.2275288105010986,-0.8313608765602112,2.0520262718200684
3.216696262359619,0.21126717329025269,-0.2349737286567688,-0.027216074988245964,-0.7715170319585444,-1.5500335289935996,-0.921573971411125,-0.7166993618011475,0.6972235441207886,-0.014882822521030903,1.9153151512145996,-0.8297232985496521,1.8268054723739624
3.236704111099243,0.3174546957015991,-0.430078387260437,0.04827070236206055,-0.8035100065414198,-1.5197023598808013,-0.8546093355550507,-0.6932787895202637,0.7197971343994141,-0.03545322269201279,2.708873987197876,-0.8674778938293457,1.5340304374694824
3.25669002532959,0.3810186982154846,-0.5920558571815491,-0.002620875835418701,-0.8257345742943564,-1.4689827271291205,-0.7615720846324655,-0.6745063662528992,0.7350460290908813,-0.06891220062971115,3.4039676189422607,-0.8202807903289795,1.1796596050262451
3.276689052581787,0.4396795630455017,-0.6743236184120178,0.07897602021694183,-0.8368860424768385,-1.4092141485944867,-0.6594011580530609,-0.661054253578186,0.7425610423088074,-0.10775399208068848,3.1089160442352295,-0.7678524851799011,0.8283160924911499
3.296689987182617,0.42032623291015625,-0.7551468014717102,0.20672869682312012,-0.8398714485982648,-1.3660700232438703,-0.5812157527415032,-0.6536179184913635,0.7445573210716248,-0.13571415841579437,1.905981421470642,-0.7329839468002319,0.42402246594429016
3.316716194152832,0.40529632568359375,-0.8037374019622803,0.301005482673645,-0.8400413844178096,-1.3539545001793467,-0.5446645728564291,-0.6518021821975708,0.7446707487106323,-0.14359569549560547,0.5164162516593933,-0.796999454498291,0.13207828998565674
3.336698055267334,0.3883286714553833,-0.7604028582572937,0.2661115825176239,-0.8387167974837227,-1.367182686463011,-0.5399633048367499,-0.6546097993850708,0.7437860369682312,-0.13516052067279816,0.10566353052854538,-0.8385039567947388,-0.21075430512428284
3.3566901683807373,0.23006802797317505,-0.45060789585113525,0.04950995743274689,-0.8287114570991351,-1.373504143064887,-0.5270997678985304,-0.6627157330513,0.7370611429214478,-0.13247190415859222,1.060589075088501,-0.7370997667312622,-0.5509357452392578
3.3767333030700684,0.14136344194412231,-0.2983754277229309,-0.03686398267745972,-0.8095454380259889,-1.3622908821140822,-0.49178234111073243,-0.6748870611190796,0.7239736914634705,-0.1427929401397705,1.516776204109192,-0.6797424554824829,-0.7441809773445129
3.3966879844665527,0.12286561727523804,-0.34069496393203735,0.060250163078308105,-0.7888750102952131,-1.3553694881314475,-0.46335806115290057,-0.6883564591407776,0.7095609903335571,-0.15062783658504486,0.7202256321907043,-0.6681340932846069,-0.8403353095054626
3.416691303253174,0.11176532506942749,-0.25497955083847046,0.10462884604930878,-0.7703279903217757,-1.3701730895343531,-0.46471377974014266,-0.7032877206802368,0.6963706612586975,-0.14301985502243042,-0.3547699749469757,-0.7101969122886658,-0.9931477308273315
3.4366891384124756,0.024829983711242676,-0.10971534252166748,0.01614619791507721,-0.7522426930649599,-1.3975407990759932,-0.48430134172438977,-0.7192270159721375,0.6832780241966248,-0.12587203085422516,-0.5145822167396545,-0.624271035194397,-1.0305379629135132
3.4566922187805176,-0.06476390361785889,0.06620651483535767,-0.11481839418411255,-0.7340438719614863,-1.4159766490828511,-0.49548317794723673,-0.7335913181304932,0.6698775887489319,-0.1144905835390091,0.013601275160908699,-0.5041549205780029,-0.8658586740493774
3.476691246032715,-0.043768346309661865,0.1541854739189148,-0.15747207403182983,-0.7187194530434323,-1.425597197391858,-0.49504594786813505,-0.7447296977043152,0.6584213972091675,-0.10890048742294312,0.15531699359416962,-0.48935428261756897,-0.6431988477706909
3.4966881275177,-0.04105937480926514,0.09799045324325562,-0.14356893301010132,-0.7068759079860287,-1.4352497268966142,-0.4945365559523129,-0.7534201145172119,0.6494613885879517,-0.10275360196828842,0.08877042680978775,-0.507878839969635,-0.5470884442329407
3.516688108444214,-0.05039799213409424,0.092426598072052,-0.13576006889343262,-0.696380164054634,-1.4442421627749955,-0.49289672850194477,-0.7610339522361755,0.6414448618888855,-0.09682950377464294,0.1689671277999878,-0.4802815616130829,-0.4802970588207245
3.5366880893707275,-0.09766006469726562,0.07913064956665039,-0.17324531078338623,-0.6855171693056523,-1.4497622521442597,-0.4869720840653114,-0.7684288620948792,0.6330734491348267,-0.09346291422843933,0.41884398460388184,-0.4518345296382904,-0.5016722083091736
3.556687116622925,-0.08131682872772217,0.052294909954071045,-0.1123359203338623,-0.675870741777073,-1.4542389897440462,-0.48134576905137366,-0.7748692035675049,0.6255768537521362,-0.09072793275117874,0.05178653076291084,-0.333071768283844,-0.3889319896697998
3.576691150665283,-0.086253821849823,0.08352106809616089,-0.13002121448516846,-0.668899179757665,-1.4630688019096454,-0.4862327750235801,-0.7799571752548218,0.6201227903366089,-0.08434940874576569,-0.31213873624801636,-0.26531916856765747,-0.3426268994808197
3.596689224243164,-0.05317443609237671,0.09704893827438354,-0.16127020120620728,-0.6637443851466177,-1.4767836643033316,-0.4995323936293546,-0.7842126488685608,0.616070568561554,-0.07394389808177948,-0.67479008436203,-0.27963560819625854,-0.25568583607673645
3.6166882514953613,-0.043533504009246826,0.05146294832229614,-0.1491292119026184,-0.6599247372026955,-1.4951745785648953,-0.5195041939700152,-0.7877806425094604,0.6130573749542236,-0.05968717113137245,-0.7757856249809265,-0.3361433744430542,-0.24239204823970795
3.6367580890655518,-0.031112492084503174,0.1436302661895752,-0.09245765209197998,-0.6564283390377438,-1.5145474251519424,-0.5383083833809563,-0.7909244298934937,0.6102913618087769,-0.04453561082482338,-0.6625863909721375,-0.4156420826911926,-0.14796625077724457
3.656702995300293,-0.11460709571838379,0.15175604820251465,-0.1432654857635498,-0.6546855541416273,-1.5302944375090488,-0.5514509696316278,-0.792589008808136,0.6089098453521729,-0.032118916511535645,-0.31937748193740845,-0.3402746319770813,0.005229604430496693
3.6766891479492188,-0.2132856249809265,0.2646715044975281,-0.25771158933639526,-0.6566486042358082,-1.5378353248105523,-0.5549672424847423,-0.7916125059127808,0.6104658246040344,-0.026101795956492424,0.017970789223909378,-0.1797468364238739,0.18242521584033966
3.696688175201416,-0.2814313769340515,0.30524206161499023,-0.2546364665031433,-0.66186402371428,-1.5368206333574665,-0.5508444952536374,-0.7883929014205933,0.6145883798599243,-0.026796508580446243,0.2813452482223511,0.03157162666320801,0.36178353428840637
3.716724157333374,-0.2660521864891052,0.24514776468276978,-0.21082258224487305,-0.6706632887875354,-1.5282151221215192,-0.5411224738271566,-0.7826998233795166,0.6215057373046875,-0.033348459750413895,0.436189204454422,0.21127045154571533,0.5557840466499329
3.7366881370544434,-0.29411792755126953,0.223713219165802,-0.19114965200424194,-0.683225512922958,-1.5142829908957138,-0.5283825161665684,-0.7743025422096252,0.6312978267669678,-0.043805062770843506,0.46217235922813416,0.38883423805236816,0.7538625001907349
3.756700038909912,-0.3433781862258911,0.1501442790031433,-0.17132359743118286,-0.6990366972507159,-1.497150561316439,-0.5171025023609415,-0.7633875608444214,0.6434805989265442,-0.0563221201300621,0.2883549928665161,0.6255627870559692,0.861218273639679
3.7766871452331543,-0.2980985641479492,0.08760941028594971,-0.12163012474775314,-0.7156445886143903,-1.477677205673507,-0.5088903361507316,-0.7514009475708008,0.6561040282249451,-0.0701727420091629,0.2125304788351059,0.8026026487350464,0.8494933247566223
3.796696186065674,-0.2340603470802307,0.026672065258026123,-0.03187143802642822,-0.7312919606619473,-1.4544753620913813,-0.5005089432713928,-0.7392826676368713,0.6678318381309509,-0.08638402819633484,0.24730688333511353,0.9566641449928284,0.7823823690414429
3.816688060760498,-0.1873394250869751,0.04879873991012573,-0.03598868101835251,-0.7459213089363504,-1.428389371078572,-0.4920311718821944,-0.7270282506942749,0.6786487698554993,-0.10423948615789413,0.1453416794538498,1.1082302331924438,0.7548078298568726
3.8367271423339844,-0.18853759765625,-0.0067255496978759766,-0.04065608233213425,-0.7607077955543575,-1.4023495734679616,-0.48786002190628996,-0.7140961289405823,0.689434289932251,-0.1214379221200943,-0.07466952502727509,1.2006168365478516,0.7600034475326538
3.8566880226135254,-0.13927298784255981,-0.028188347816467285,-0.030079960823059082,-0.775785526190228,-1.3776818483947,-0.48800322311156424,-0.7006013989448547,0.7002770304679871,-0.13700363039970398,-0.17249704897403717,1.2705928087234497,0.7145571708679199
3.8766870498657227,-0.09083855152130127,-0.05422693490982056,-0.03201413154602051,-0.789698900746329,-1.3525609185140475,-0.48822057885635406,-0.6873598098754883,0.7101413011550903,-0.15243393182754517,-0.15690667927265167,1.269451379776001,0.6479186415672302
3.8966941833496094,-0.0734184980392456,-0.08707469701766968,-0.03750479221343994,-0.8028708007470937,-1.3276777736063732,-0.4902989166244984,-0.6742165088653564,0.7193532586097717,-0.16722224652767181,-0.29396018385887146,1.3917694091796875,0.5971091389656067
3.9167301654815674,-0.059673309326171875,-0.0852929949760437,-0.017037630081176758,-0.8155016655423164,-1.3031175790419676,-0.49576667466402624,-0.6610909104347229,0.7280696034431458,-0.1813112497329712,-0.39204850792884827,1.4580633640289307,0.5361278653144836
3.9368762969970703,-0.022860825061798096,-0.08806300163269043,-0.038200318813323975,-0.8275440759393135,-1.2791654561318127,-0.5041151908409083,-0.6481139659881592,0.7362716794013977,-0.19455717504024506,-0.467923641204834,1.5283653736114502,0.46394795179367065
3.9567742347717285,0.0505257248878479,-0.09268993139266968,-0.07008227705955505,-0.837935731525716,-1.2549891335711374,-0.5123299536556656,-0.6359139084815979,0.7432637214660645,-0.2077801525592804,-0.32767197489738464,1.5052905082702637,0.36538076400756836
3.976701259613037,0.08419591188430786,-0.10338717699050903,-0.08707146346569061,-0.8448746764659727,-1.2265382758540109,-0.5145129858011671,-0.6248759031295776,0.747887909412384,-0.22403988242149353,-0.028163708746433258,1.5074313879013062,0.25139319896698
3.9967291355133057,0.1168256402015686,-0.10773396492004395,-0.09628318250179291,-0.8481649138070463,-1.1938702617037122,-0.5109083848264586,-0.6149336099624634,0.7500680088996887,-0.24342316389083862,0.0860661119222641,1.506338119506836,0.1487559825181961
4.016627311706543,0.15720129013061523,-0.13465219736099243,-0.036285728216171265,-0.8502233148206224,-1.1629780143616832,-0.510028592494822,-0.6057029366493225,0.7514277696609497,-0.2616877853870392,-0.15132154524326324,1.5238618850708008,0.061938121914863586
4.036622047424316,0.1992362141609192,-0.14831745624542236,0.008865177631378174,-0.8531783874699984,-1.1394292199210996,-0.5191360483717957,-0.5973533391952515,0.7533742785453796,-0.274947851896286,-0.5383874177932739,1.510560393333435,-0.02729695290327072
4.056686162948608,0.23421144485473633,-0.14783519506454468,-0.0005707144737243652,-0.8578641908841405,-1.1242090323513951,-0.5384283148565536,-0.5899091362953186,0.7564473748207092,-0.28247973322868347,-0.748971164226532,1.4838001728057861,-0.0886191725730896
4.076699256896973,0.21907895803451538,-0.1284332275390625,-0.043483078479766846,-0.8608431645691218,-1.1081955755310002,-0.555956385964595,-0.5832911133766174,0.7583923935890198,-0.2908826768398285,-0.323052316904068,1.446860909461975,-0.13105462491512299
4.095682144165039,0.20534157752990723,-0.06995242834091187,-0.043047577142715454,-0.8582112282795119,-1.0811942339544933,-0.5575732843343217,-0.576984703540802,0.7566742897033691,-0.3074619472026825,0.31045952439308167,1.369493007659912,-0.1356511414051056
4.116687297821045,0.1804736852645874,-0.04608035087585449,-0.00825965404510498,-0.8516433926186892,-1.047602861530191,-0.5474958586010296,-0.5706257224082947,0.7523639798164368,-0.32914263010025024,0.501527726650238,1.2180620431900024,-0.1187615916132927
4.136736154556274,0.1747186779975891,-0.07258015871047974,0.03363516926765442,-0.8444387800176117,-1.017183099920242,-0.537601009641208,-0.5649470090866089,0.7475984692573547,-0.34918680787086487,0.4389796853065491,1.0909337997436523,-0.17119751870632172
4.156708240509033,0.1588360071182251,-0.06318092346191406,0.09030655026435852,-0.8362517207024802,-0.99106520714927,-0.529632267868331,-0.5607372522354126,0.7421360611915588,-0.36716192960739136,0.43981149792671204,0.9358848333358765,-0.23621167242527008
4.1766581535339355,0.14578866958618164,-0.08644437789916992,0.12930920720100403,-0.8262803309816433,-0.9690321157597981,-0.5231671127441658,-0.5585847496986389,0.7354159355163574,-0.38359683752059937,0.4792232811450958,0.7829356789588928,-0.35267865657806396
4.196666240692139,0.13673371076583862,-0.09618383646011353,0.1493769884109497,-0.8134947150278653,-0.9510450944108049,-0.5180506551281432,-0.5592038631439209,0.7266923189163208,-0.39901068806648254,0.5199449062347412,0.6401583552360535,-0.48980197310447693
4.216755151748657,0.13966375589370728,-0.13057708740234375,0.17410016059875488,-0.7978529165323062,-0.9377792954448939,-0.5147215496652261,-0.5629578828811646,0.7158585786819458,-0.4130679965019226,0.5965518951416016,0.4397429823875427,-0.6324673295021057
4.236690044403076,0.1293032169342041,-0.17359298467636108,0.18289420008659363,-0.7785087944637408,-0.9278929548614001,-0.5108857669839868,-0.5698244571685791,0.7022185325622559,-0.42683637142181396,0.7498102784156799,0.27785542607307434,-0.7601710557937622
4.256688117980957,0.11615777015686035,-0.23539221286773682,0.23107057809829712,-0.7557460127406065,-0.9214446787832149,-0.5074167268834464,-0.5796435475349426,0.6858317852020264,-0.44005486369132996,0.7484719157218933,0.10960029810667038,-0.9063771963119507
4.276688098907471,0.11177772283554077,-0.29370999336242676,0.2991121709346771,-0.7316518466141512,-0.9217334550754241,-0.5088644686371253,-0.5927652716636658,0.6680996417999268,-0.44974687695503235,0.6011981964111328,-0.039730340242385864,-1.0846830606460571
4.296730041503906,0.10020488500595093,-0.2964532971382141,0.33374232053756714,-0.706720701766716,-0.9295446961666148,-0.516993124861965,-0.6094212532043457,0.6493433713912964,-0.454927533864975,0.4155662953853607,-0.19928431510925293,-1.290679693222046
4.316688060760498,0.05761849880218506,-0.2619212865829468,0.33085551857948303,-0.6796212545341263,-0.9438394923739498,-0.5313316877179077,-0.6298841834068298,0.6284984946250916,-0.45632845163345337,0.3203122615814209,-0.3386472463607788,-1.5434401035308838
4.3366851806640625,0.02098095417022705,-0.2056528925895691,0.295998752117157,-0.64981164128261,-0.9637495750976391,-0.5505861006612379,-0.6539461016654968,0.6050364375114441,-0.4541865289211273,0.18613354861736298,-0.4483507573604584,-1.7737125158309937
4.356691122055054,-0.055560946464538574,-0.17568039894104004,0.26593101024627686,-0.6175400395464183,-0.9872545541590269,-0.5740241175594637,-0.6803858280181885,0.5790312886238098,-0.4492194950580597,0.058168329298496246,-0.5297106504440308,-1.9466722011566162
4.376742124557495,-0.045108020305633545,-0.16957539319992065,0.2654733955860138,-0.5847686179543612,-1.0147100484404068,-0.6012054940168959,-0.708203136920929,0.5520064830780029,-0.44015589356422424,-0.18325121700763702,-0.6827309131622314,-2.0291900634765625
4.396724224090576,-0.09580773115158081,-0.17482954263687134,0.263857364654541,-0.55210987706115,-1.046269807577144,-0.6320368587531212,-0.736956000328064,0.5244848132133484,-0.42639386653900146,-0.3315693140029907,-0.8303676843643188,-2.130403518676758
4.41668701171875,-0.20994359254837036,-0.1108354926109314,0.25782400369644165,-0.5167884921101412,-1.079710499007042,-0.6636988779004124,-0.7666647434234619,0.49409058690071106,-0.409999817609787,-0.31530269980430603,-0.877639651298523,-2.3133366107940674
4.436688184738159,-0.2880449891090393,-0.06644219160079956,0.2721717357635498,-0.47623968636208064,-1.1126741278530303,-0.6953682664804088,-0.797083854675293,0.45844054222106934,-0.39305177330970764,-0.32388541102409363,-0.9506529569625854,-2.5783331394195557
4.456727027893066,-0.2945571541786194,-0.05074721574783325,0.2961653470993042,-0.43143957766656627,-1.1472748395917056,-0.7288323701511948,-0.8281083703041077,0.41817888617515564,-0.3733137249946594,-0.5300843715667725,-1.0507248640060425,-2.7692129611968994
4.476686000823975,-0.32011139392852783,-0.04425820708274841,0.27058762311935425,-0.3847343774416967,-1.1844671649155218,-0.7678755737810226,-0.8585844039916992,0.3753129541873932,-0.349246621131897,-0.9657905697822571,-1.1311039924621582,-2.928140878677368
4.496685028076172,-0.3550582528114319,-0.035548508167266846,0.263470858335495,-0.3371738041653694,-1.2239961028865296,-0.8151247072665314,-0.8875107765197754,0.33082136511802673,-0.32075223326683044,-1.4391549825668335,-1.1422808170318604,-3.1120169162750244
4.516686201095581,-0.3901270031929016,0.05295294523239136,0.31575286388397217,-0.28645904281803336,-1.26282458973943,-0.8673453007695241,-0.9141180515289307,0.28255733847618103,-0.2907741665840149,-1.6167925596237183,-1.1392059326171875,-3.283137321472168
4.536489009857178,-0.27161741256713867,0.20022933185100555,0.2966664135456085,-0.2325557777922134,-1.2997325106908797,-0.9190704093166049,-0.9375501871109009,0.23046524822711945,-0.26054874062538147,-1.6343083381652832,-1.256308674812317,-3.292646646499634
4.556718111038208,-0.10508352518081665,0.21917422115802765,0.16303135454654694,-0.17809758758924218,-1.337243912085716,-0.9672974666570592,-0.9574623703956604,0.17715758085250854,-0.2277742326259613,-1.56208074092865,-1.5213404893875122,-3.1708624362945557
4.5766870975494385,-0.12252050638198853,0.3008033335208893,-0.016836166381835938,-0.12361403419376674,-1.3762848166771162,-1.009364516234771,-0.9736557006835938,0.12329946458339691,-0.1918124258518219,-1.3365211486816406,-1.731545329093933,-3.0501556396484375
4.59669303894043,-0.18755269050598145,0.36278125643730164,-0.11136281490325928,-0.06892920005188873,-1.4154977642099842,-1.0435386463883491,-0.9856194257736206,0.06887462735176086,-0.1543077975511551,-1.06050443649292,-1.8400880098342896,-2.939927339553833
4.616753101348877,-0.21072250604629517,0.3722616136074066,-0.18511776626110077,-0.014305035766850634,-1.4532482928790746,-1.0695576053991414,-0.9929975867271423,0.01430454757064581,-0.11726552248001099,-0.7731426358222961,-1.8003029823303223,-2.841867208480835
4.6366941928863525,-0.23324590921401978,0.44798266887664795,-0.24328696727752686,0.04024819404004813,-1.4875190917048737,-1.0878485300037533,-0.9957275986671448,-0.04023732990026474,-0.0831136628985405,-0.5318235754966736,-1.6282480955123901,-2.756018877029419
4.655871152877808,-0.20963096618652344,0.5474728345870972,-0.2731271982192993,0.09298643470804191,-1.5173275630951175,-1.1016170824341043,-0.9942570328712463,-0.09285248816013336,-0.05321241542696953,-0.5234001874923706,-1.4032214879989624,-2.570504665374756
4.676681995391846,-0.14170098304748535,0.5794802904129028,-0.27012163400650024,0.14108986636994,-1.5412581817720552,-1.1163292890019418,-0.9896315336227417,-0.14062222838401794,-0.029240384697914124,-0.7871646881103516,-1.1338918209075928,-2.2670464515686035
4.696739196777344,-0.03803616762161255,0.5950157046318054,-0.2694894075393677,0.1823589868473346,-1.558263169198343,-1.1370352420447234,-0.983341634273529,-0.1813499480485916,-0.01232502143830061,-1.1547291278839111,-0.930525004863739,-1.910685658454895
4.716686248779297,0.04410743713378906,0.6496611833572388,-0.3159002661705017,0.21617555330408783,-1.5699816119806205,-1.1632866581568555,-0.9767247438430786,-0.21449576318264008,-0.0007957523339428008,-1.3862651586532593,-0.7469836473464966,-1.508396863937378
4.736688137054443,0.08585095405578613,0.6987783908843994,-0.33428680896759033,0.24237374485653693,-1.5767351940991667,-1.1919031298581342,-0.970754086971283,-0.2400076687335968,0.005765247158706188,-1.3418893814086914,-0.5834548473358154,-1.1208490133285522
4.756685256958008,0.1204538345336914,0.7096535563468933,-0.3559616804122925,0.2607236377784595,-1.58064013125,-1.2156644884415726,-0.966157078742981,-0.2577798068523407,0.009510968811810017,-0.9543709754943848,-0.4082689583301544,-0.7045396566390991
4.776723146438599,0.1515856385231018,0.7088370323181152,-0.38478803634643555,0.27048818482542486,-1.583170934237589,-1.2310599356447824,-0.9635669589042664,-0.26720190048217773,0.011924372054636478,-0.5445629358291626,-0.27333831787109375,-0.27715158462524414
4.796782970428467,0.1897134780883789,0.7289441823959351,-0.4383516311645508,0.27282846607888417,-1.5866548438664978,-1.2368104635528534,-0.9628916382789612,-0.2694563567638397,0.015271314419806004,0.030494797974824905,-0.2236626297235489,0.019044099375605583
4.81673526763916,0.19124603271484375,0.7537378072738647,-0.4893949031829834,0.27040297402699276,-1.5926966237380937,-1.2283354506911348,-0.9634323716163635,-0.26711979508399963,0.02110282890498638,0.7775681614875793,-0.14730766415596008,0.19887405633926392
4.836687088012695,0.18012672662734985,0.7162439823150635,-0.5119667053222656,0.2644037200354309,-1.6004133724857894,-1.206154889210698,-0.9648253321647644,-0.26133376359939575,0.02858363464474678,1.3551747798919678,-0.041140925139188766,0.34613871574401855
4.856704235076904,0.147169291973114,0.6689639091491699,-0.48746025562286377,0.25481175523282185,-1.608051926582469,-1.1736095576483867,-0.9670393466949463,-0.25206324458122253,0.03604431077837944,1.8038303852081299,0.12866781651973724,0.506321370601654
4.876705169677734,0.06982862949371338,0.6919623017311096,-0.4640923738479614,0.2417498142521298,-1.6131122072732373,-1.1347655694193026,-0.9700515270233154,-0.2394019216299057,0.04107310250401497,1.9710280895233154,0.3095254898071289,0.6352342367172241
4.896721124649048,-0.02878659963607788,0.668137788772583,-0.4682040214538574,0.22623021207672847,-1.6143736246011482,-1.096154657381475,-0.9735938310623169,-0.2243053913116455,0.04245346412062645,1.8266464471817017,0.47601318359375,0.7609321475028992
4.9166882038116455,-0.14229202270507812,0.5891795754432678,-0.44681107997894287,0.2080634326111346,-1.6102188158921793,-1.0617864827080594,-0.9776726961135864,-0.2065654844045639,0.03856227174401283,1.6400957107543945,0.6689075231552124,0.9268616437911987
4.936681270599365,-0.20878076553344727,0.5727319121360779,-0.4109663963317871,0.18635758776727376,-1.6017960159895237,-1.0299796845599245,-0.9822136759757996,-0.18528078496456146,0.030458075925707817,1.575722098350525,0.8060198426246643,1.1417163610458374
4.956684112548828,-0.26736414432525635,0.5733233690261841,-0.37775862216949463,0.16034378089909193,-1.5894973802670274,-0.9992927372813949,-0.987000048160553,-0.1596575826406479,0.018460093066096306,1.4980603456497192,0.9465755224227905,1.403771162033081
4.976759195327759,-0.3472292423248291,0.5365449786186218,-0.3557755947113037,0.12877380690599652,-1.5742446292489438,-0.971080752705205,-0.991714358329773,-0.1284181922674179,0.003419744549319148,1.335888147354126,0.9466235637664795,1.7384895086288452
4.996732234954834,-0.579900324344635,0.5087820887565613,-0.32534635066986084,0.09136767306476452,-1.5572492197939627,-0.9448155562903067,-0.9957376718521118,-0.09124059975147247,-0.013490189798176289,1.2927676439285278,1.0986343622207642,2.0018365383148193
5.016690254211426,-0.8678198456764221,0.47687384486198425,-0.22754758596420288,0.0504884366739445,-1.5321260740841933,-0.9166316739658972,-0.9979792237281799,-0.05046698823571205,-0.03861135616898537,1.4392231702804565,1.6509042978286743,2.158097505569458
5.036363124847412,-0.6644893288612366,0.390441358089447,-0.10953425616025925,0.006576045741241935,-1.4951219898561492,-0.8846686993058832,-0.9971165060997009,-0.00657599838450551,-0.07560049742460251,1.4757649898529053,2.0513265132904053,2.4365572929382324
5.056706190109253,-0.21102452278137207,0.27749842405319214,-0.02319573611021042,-0.04426284926897711,-1.4509646126811573,-0.8512553641553867,-0.9918563961982727,0.04424839839339256,-0.11942804604768753,1.3478056192398071,2.1341466903686523,2.8957149982452393
5.076712131500244,-0.07701557874679565,0.24969661235809326,0.06879198551177979,-0.1037916472886765,-1.405021306439169,-0.8172911295408163,-0.9809831976890564,0.10360539704561234,-0.16412876546382904,1.1461219787597656,2.0685842037200928,3.3781864643096924
5.096691131591797,-0.3027377128601074,0.16612562537193298,0.1592102348804474,-0.16992658871798821,-1.3581182472779483,-0.7838832412552451,-0.9633910655975342,0.1691100001335144,-0.2080383151769638,0.8998695611953735,2.1057891845703125,3.680387020111084
5.116734981536865,-0.5335307717323303,0.09168818593025208,0.22719722986221313,-0.2377706314708097,-1.30860944214744,-0.7475436380168651,-0.9386526346206665,0.23553656041622162,-0.2519010901451111,1.0359545946121216,2.08253812789917,3.7156238555908203
5.136711120605469,-0.6434295177459717,0.06382232904434204,0.3156961500644684,-0.2998903166256288,-1.2549644188673745,-0.7013694676718958,-0.9081149101257324,0.2954154312610626,-0.2967446446418762,1.4750051498413086,2.01340389251709,3.509571075439453
5.156731128692627,-0.7251610159873962,0.0037203431129455566,0.3579593598842621,-0.3526657959536275,-1.1967834071837808,-0.6462762643915205,-0.873578667640686,0.34540075063705444,-0.34286826848983765,1.585315227508545,2.1044909954071045,3.2156567573547363
5.176692008972168,-0.7158251404762268,-0.10434582829475403,0.485004186630249,-0.39860045825828244,-1.1338465234048989,-0.5923952196222011,-0.8350173830986023,0.3881289064884186,-0.39000290632247925,1.127224326133728,2.166395425796509,3.0159049034118652
5.196685314178467,-0.5365183353424072,-0.21285924315452576,0.5889682173728943,-0.4449063427099486,-1.0734593552742944,-0.5489785143852062,-0.7933005094528198,0.43037334084510803,-0.4306429326534271,0.3427666425704956,2.111499786376953,2.921638250350952
5.2166831493377686,-0.45380616188049316,-0.24780356884002686,0.6107796430587769,-0.4944344889458976,-1.0169146225110244,-0.5142964245441439,-0.7486322522163391,0.47453394532203674,-0.4629982113838196,-0.059668757021427155,1.9854792356491089,2.9308719635009766
5.23668098449707,-0.44072437286376953,-0.27266669273376465,0.5667417049407959,-0.5429214239780967,-0.959879188524276,-0.4775848475831435,-0.701335072517395,0.5166395306587219,-0.4911343455314636,0.11594957858324051,1.9087966680526733,2.875119686126709
5.256731986999512,-0.4147419333457947,-0.33932167291641235,0.5567045211791992,-0.584173916583516,-0.8985750417996109,-0.43159217064349154,-0.6526867747306824,0.5515104532241821,-0.5194577574729919,0.5468711256980896,1.755018711090088,2.760380983352661
5.276681184768677,-0.3701191544532776,-0.433899462223053,0.5773115158081055,-0.615289319375573,-0.8344659822558431,-0.3763134416362719,-0.6050548553466797,0.5771948099136353,-0.5484113097190857,0.8867127299308777,1.5192711353302002,2.5633132457733154
5.2966790199279785,-0.32933366298675537,-0.506238579750061,0.6351929903030396,-0.6365621582139522,-0.7729167361996078,-0.3176880757322727,-0.5614745616912842,0.5944344401359558,-0.575668454170227,1.0429006814956665,1.202139139175415,2.2431585788726807
5.316681146621704,-0.2960103154182434,-0.5770521759986877,0.6647664308547974,-0.648988336633695,-0.7194578508043254,-0.26260952759158773,-0.5250041484832764,0.60438072681427,-0.5992451310157776,0.9986972808837891,0.8578215837478638,1.839788794517517
5.33668327331543,-0.2756662666797638,-0.6453932523727417,0.6870853900909424,-0.6558205655927171,-0.6782721416184192,-0.21745022193857547,-0.4972829818725586,0.6098097562789917,-0.6171237230300903,0.7749904990196228,0.5133567452430725,1.3430379629135132
5.356729030609131,-0.21564635634422302,-0.6695144176483154,0.7206200361251831,-0.6587272954223787,-0.6526011104402181,-0.18605250733717765,-0.48020026087760925,0.6121109127998352,-0.6282737851142883,0.5599550008773804,0.11654786020517349,0.7769776582717896
5.376692295074463,-0.18509793281555176,-0.6784517168998718,0.697733998298645,-0.6575452979234951,-0.6439970512555637,-0.16975589365983948,-0.47521093487739563,0.6111758351325989,-0.6329603791236877,0.307102769613266,-0.23642155528068542,0.17551128566265106
5.396680116653442,-0.18820983171463013,-0.6711260676383972,0.6501970291137695,-0.6538088232192194,-0.6522054782902748,-0.17021357288746286,-0.48177313804626465,0.6082141399383545,-0.6308488845825195,-0.05198649689555168,-0.5760764479637146,-0.43331408500671387
5.416680097579956,-0.15774011611938477,-0.6568698287010193,0.6240825057029724,-0.6494084999041684,-0.6791162419491069,-0.18919854950476656,-0.5002495050430298,0.6047154068946838,-0.6197336912155151,-0.5387223958969116,-0.9501041769981384,-1.028727650642395
5.436726093292236,-0.19084465503692627,-0.6314676403999329,0.6123723387718201,-0.6437922936605539,-0.723471896916166,-0.226023899424661,-0.529477059841156,0.6002328991889954,-0.599478542804718,-0.8715929985046387,-1.2675706148147583,-1.5898489952087402
5.456692218780518,-0.23515981435775757,-0.5413350462913513,0.5210179686546326,-0.6312610018449327,-0.7813236429625336,-0.27485649557974856,-0.5685053467750549,0.5901632308959961,-0.5731571316719055,-0.8435146808624268,-1.6452620029449463,-2.154242992401123
5.476682186126709,-0.33628714084625244,-0.4130639433860779,0.3512188196182251,-0.6070081831320028,-0.8511481656901501,-0.33129882550842404,-0.6176924109458923,0.5704126358032227,-0.5413737893104553,-0.8781285285949707,-2.006803035736084,-2.797330141067505
5.4966840744018555,-0.6054720282554626,-0.33350521326065063,0.33126747608184814,-0.5702769106528739,-0.9284974480767548,-0.3961658853783501,-0.6740080118179321,0.5398651361465454,-0.5042410492897034,-1.020736813545227,-2.140441417694092,-3.441419839859009
5.516730308532715,-0.6442247629165649,-0.27136871218681335,0.3476409912109375,-0.5230953473343629,-1.0086261292402618,-0.4659540060421428,-0.7329573035240173,0.49956396222114563,-0.4617461562156677,-1.2658921480178833,-2.2618155479431152,-3.790074348449707
5.536198139190674,-0.5451861023902893,-0.232560932636261,0.24967145919799805,-0.4707490813506321,-1.089443473707216,-0.5387212492446292,-0.7899580001831055,0.4535540044307709,-0.41262000799179077,-1.6853466033935547,-2.3370115756988525,-3.9463438987731934
5.55668306350708,-0.5219482779502869,-0.1204470694065094,0.06747710704803467,-0.41411921346339764,-1.1675275851985418,-0.61382719793039,-0.8420349359512329,0.4023837447166443,-0.3592555522918701,-2.0070252418518066,-2.250990629196167,-4.095434188842773
5.5766801834106445,-0.5043359398841858,-0.012919604778289795,-0.05736583471298218,-0.35208892428331423,-1.2391162140308274,-0.687561968803947,-0.8874946236610413,0.3448593318462372,-0.30565595626831055,-2.148711919784546,-2.1661019325256348,-4.161106109619141
5.596713066101074,-0.5168015360832214,0.050750941038131714,-0.09762230515480042,-0.2856687660908453,-1.303548834404256,-0.7579111204450173,-0.9254136681556702,0.28179916739463806,-0.2533755302429199,-2.297218084335327,-2.0617222785949707,-4.164480686187744
5.6167120933532715,-0.5899341106414795,0.08166453242301941,-0.1212199330329895,-0.21661050064406182,-1.3600239426098726,-0.8259574488167637,-0.9550184011459351,0.21492056548595428,-0.20432622730731964,-2.48051381111145,-1.8927754163742065,-4.123928070068359
5.63682222366333,-0.6509258151054382,0.1861412078142166,-0.1912170648574829,-0.14505544111811475,-1.4071093794769731,-0.8910122132255499,-0.9762715697288513,0.14454728364944458,-0.16124559938907623,-2.4416189193725586,-1.6248146295547485,-4.115897178649902
5.65586519241333,-0.5812754034996033,0.3181062340736389,-0.25388604402542114,-0.07056317326482629,-1.4422500910664475,-0.9471065428725955,-0.9892814755439758,0.07050462812185287,-0.1278735250234604,-1.9199775457382202,-1.2718669176101685,-4.066415309906006
5.676849126815796,-0.3959820866584778,0.4846976101398468,-0.29255884885787964,0.005113894014958114,-1.4661906717636526,-0.9860317849314347,-0.9945209622383118,-0.005113871768116951,-0.10441363602876663,-1.0643635988235474,-0.9901426434516907,-3.8802828788757324
5.696670055389404,-0.19891482591629028,0.6088051199913025,-0.2941083312034607,0.07777085013357149,-1.4836414796794586,-1.0069073061680847,-0.9931934475898743,-0.07769247889518738,-0.08678146451711655,-0.3955410420894623,-0.8009006977081299,-3.498784303665161
5.716845989227295,-0.04882216453552246,0.6420626044273376,-0.3206959366798401,0.1422057686023285,-1.4973136208363034,-1.0183501554696721,-0.9872345924377441,-0.14172695577144623,-0.07267552614212036,-0.33189699053764343,-0.6422353982925415,-2.950369119644165
5.736802101135254,0.04750913381576538,0.6600604057312012,-0.32140040397644043,0.19484509503807876,-1.5068654799247707,-1.0309491749633122,-0.9790737628936768,-0.19361455738544464,-0.06267842650413513,-0.5602923631668091,-0.49738553166389465,-2.355250597000122
5.756799221038818,0.09529399871826172,0.727893054485321,-0.3301558494567871,0.23544880595968065,-1.5121243020737702,-1.0462259050353675,-0.9707366824150085,-0.23327943682670593,-0.057020530104637146,-0.6566181182861328,-0.35096925497055054,-1.7915964126586914
5.776698112487793,0.10133618116378784,0.7738453149795532,-0.32716459035873413,0.2652568085262688,-1.5143509276466414,-1.0606826904134858,-0.9634883403778076,-0.2621571123600006,-0.05444231629371643,-0.5518434047698975,-0.23621098697185516,-1.2829320430755615
5.80534815788269,0.05909639596939087,0.8559695482254028,-0.30590546131134033,0.30050493633656283,-1.5150611419342253,-1.0768754602261006,-0.9537041187286377,-0.2960025668144226,-0.05320998653769493,-0.1613887995481491,-0.048874035477638245,-0.5975751280784607
5.8240790367126465,0.06773018836975098,0.8621242046356201,-0.26295602321624756,0.31022190615765227,-1.5150546564021254,-1.0796356528297841,-0.950786828994751,-0.3052699565887451,-0.05305340513586998,-0.04738219827413559,-0.037597768008708954,-0.39143168926239014
5.84489631652832,0.06437128782272339,0.8685165643692017,-0.23915797472000122,0.3157378563471941,-1.515925564791151,-1.0790384183870267,-0.9491370916366577,-0.31051793694496155,-0.05213220417499542,0.16810637712478638,-0.03413015604019165,-0.15699349343776703
5.865000247955322,0.03338700532913208,0.8971922397613525,-0.23179662227630615,0.3163846692881636,-1.5188011203131384,-1.0712453607755057,-0.9490823149681091,-0.3111326992511749,-0.049392249435186386,0.6215462684631348,-0.015926649793982506,0.14208580553531647
5.884917259216309,-0.0031678080558776855,0.9307124614715576,-0.22209328413009644,0.3104462974406728,-1.5245180309449677,-1.0524870023761266,-0.9511780142784119,-0.3054836392402649,-0.044050347059965134,1.1180094480514526,0.038234058767557144,0.5571170449256897
5.904007196426392,-0.06278133392333984,0.8880022764205933,-0.22116070985794067,0.29559315220226795,-1.530414372620902,-1.0253801056959608,-0.9558497071266174,-0.29130733013153076,-0.03862007334828377,1.3951538801193237,0.19215713441371918,1.0528360605239868
5.924941062927246,-0.11359810829162598,0.8610931038856506,-0.2307223081588745,0.2702546804850871,-1.5347614096818931,-0.9935445412078597,-0.9630773067474365,-0.26697689294815063,-0.03471944108605385,1.5940799713134766,0.27291518449783325,1.5897204875946045
5.944868087768555,-0.3253667950630188,0.9057906270027161,-0.3001118302345276,0.23556957120780642,-1.5357035142390165,-0.956376973760352,-0.9717831015586853,-0.23339685797691345,-0.034116607159376144,1.9028675556182861,0.5911367535591125,1.9890180826187134
5.964583158493042,-0.4808276295661926,0.8810348510742188,-0.32388800382614136,0.19435951581795496,-1.5284729653813596,-0.9137214227849971,-0.9802931547164917,-0.19313815236091614,-0.041514091193675995,2.0694007873535156,1.0277273654937744,2.3156471252441406
5.985252141952515,-0.32678335905075073,0.6743815541267395,-0.29423367977142334,0.1449663348665291,-1.5131672562681084,-0.8710217215346742,-0.9878682494163513,-0.14445911347866058,-0.0569930374622345,1.832334280014038,1.2135422229766846,2.871757984161377
6.005091190338135,-0.2516985535621643,0.49708443880081177,-0.21686184406280518,0.0836841758802233,-1.491352839360574,-0.8340739594947508,-0.9933575987815857,-0.08358653634786606,-0.07908223569393158,1.4557957649230957,1.4028222560882568,3.4966893196105957
6.023243188858032,-0.3787761926651001,0.43595945835113525,-0.1502862572669983,0.011246573488686665,-1.4631471742969597,-0.7995435714943224,-0.9941487908363342,-0.011246336624026299,-0.10743459314107895,1.3570412397384644,1.5735307931900024,4.014993190765381
6.041574001312256,-0.5533144474029541,0.35961851477622986,-0.06459112465381622,-0.06795453269671889,-1.429483975358961,-0.7612443571531767,-0.9877471923828125,0.06790224462747574,-0.140517458319664,1.4915930032730103,1.6826070547103882,4.29971170425415
6.064282178878784,-0.7487320899963379,0.23593460023403168,0.0315365195274353,-0.14824426330578436,-1.3895169772592977,-0.7150622792640109,-0.9728256464004517,0.14770187437534332,-0.17831072211265564,1.7530468702316284,1.8024344444274902,4.3383331298828125
6.084222316741943,-0.808466911315918,0.12892264127731323,0.08378225564956665,-0.22638442864830927,-1.342400450398935,-0.661985262021288,-0.9491778612136841,0.22445568442344666,-0.2206382155418396,1.7260419130325317,1.8498766422271729,4.314002513885498
6.104428291320801,-0.8597797155380249,-0.010369569063186646,0.15073132514953613,-0.30048511129374744,-1.2899221906073761,-0.608173580039342,-0.9177625179290771,0.29598361253738403,-0.2647753953933716,1.4257042407989502,1.9833229780197144,4.159158706665039
6.125699996948242,-0.7770850658416748,-0.08787477016448975,0.24993929266929626,-0.37062417153205257,-1.2327481915001979,-0.5576670135680656,-0.87934809923172,0.36219727993011475,-0.3091280460357666,0.9834080934524536,2.062349557876587,3.9819228649139404
6.1442999839782715,-0.6759207844734192,-0.1799570620059967,0.35788777470588684,-0.43769584401535266,-1.1729455540001759,-0.5110923353212616,-0.8349894881248474,0.42385363578796387,-0.35091444849967957,0.6563723683357239,2.0999088287353516,3.8386316299438477
6.1639580726623535,-0.5943929553031921,-0.24286556243896484,0.38448667526245117,-0.5014577125739275,-1.1100937568219609,-0.4635584381237487,-0.7854592800140381,0.48070427775382996,-0.3898423910140991,0.5557263493537903,2.009767770767212,3.757948637008667
6.184057235717773,-0.5873438119888306,-0.2998170256614685,0.34757566452026367,-0.5617658264669361,-1.0447676544659692,-0.41210295063999136,-0.731900691986084,0.5326814651489258,-0.4249376356601715,0.5069341063499451,1.9334149360656738,3.664760112762451
6.2041401863098145,-0.6770310997962952,-0.3729854226112366,0.32888737320899963,-0.616222708927276,-0.9741711460737695,-0.3546850619808593,-0.6750807166099548,0.5779567956924438,-0.4585106670856476,0.6720358729362488,1.9499173164367676,3.4908251762390137
6.2240400314331055,-0.6588089466094971,-0.4054359197616577,0.39520618319511414,-0.6607230558941019,-0.8962758669567034,-0.28888486862192686,-0.6166427731513977,0.6136878728866577,-0.49309128522872925,0.9513002634048462,1.909727692604065,3.2267091274261475
6.243882179260254,-0.5883269309997559,-0.4730595350265503,0.5098567605018616,-0.6926209092931461,-0.8135746596357931,-0.2167967249667011,-0.5592865943908691,0.6385563611984253,-0.528624951839447,1.2046713829040527,1.8387982845306396,2.8828866481781006
6.263658046722412,-0.48828864097595215,-0.5782006978988647,0.6015154719352722,-0.7117998357592088,-0.7303900466043487,-0.14258170453926036,-0.5051653981208801,0.6531976461410522,-0.5640397667884827,1.3461048603057861,1.662216067314148,2.53041672706604
6.283769130706787,-0.4228757619857788,-0.6115137338638306,0.6104854345321655,-0.7208067442705298,-0.6537757875088769,-0.07276023897451117,-0.4569155275821686,0.6599909663200378,-0.5963557958602905,1.3210725784301758,1.4179407358169556,2.090712547302246
6.303791046142578,-0.3757578432559967,-0.6230176687240601,0.6161642670631409,-0.7211302076849987,-0.5889105958282437,-0.013348454927912074,-0.41718044877052307,0.6602339744567871,-0.6245412826538086,1.2596173286437988,1.1453611850738525,1.5534104108810425
6.323490142822266,-0.3290516138076782,-0.6590941548347473,0.6250920295715332,-0.7146131399669805,-0.5391594717224582,0.03181724507314339,-0.3878062963485718,0.6553252339363098,-0.6481937170028687,1.0760494470596313,0.877324104309082,0.9729322791099548
6.343571186065674,-0.3014995753765106,-0.6772822141647339,0.691223680973053,-0.7062192733785049,-0.506415137612752,0.05924191316425629,-0.36903271079063416,0.6489619612693787,-0.6653294563293457,0.6761048436164856,0.5816514492034912,0.40932467579841614
6.363426208496094,-0.24048197269439697,-0.6893201470375061,0.7296991944313049,-0.700236167345112,-0.4929306668114861,0.06782167972779209,-0.3618587553501129,0.6443982720375061,-0.6736536026000977,0.1599302440881729,0.22033017873764038,-0.11384803056716919
6.383386135101318,-0.22663551568984985,-0.672354519367218,0.7053354382514954,-0.6976875871441973,-0.49801385722516,0.05880670407120698,-0.36606165766716003,0.6424473524093628,-0.6732460856437683,-0.21560171246528625,-0.1700756549835205,-0.6243159174919128
6.403672218322754,-0.26361608505249023,-0.6102240681648254,0.6242579221725464,-0.6942720744499246,-0.523067081918507,0.03306889255303629,-0.38390591740608215,0.6398261785507202,-0.6657617688179016,-0.4492979943752289,-0.6872236132621765,-1.3151410818099976
6.423192024230957,-0.46050047874450684,-0.5410189628601074,0.6116757988929749,-0.6858941131431509,-0.5712201635867764,-0.012964629926374338,-0.41839054226875305,0.6333651542663574,-0.6509976387023926,-0.689766526222229,-1.2183442115783691,-2.157134532928467
6.443420171737671,-0.5220208168029785,-0.5163788199424744,0.6009700298309326,-0.6723863218180619,-0.6422602135581821,-0.07857947124190706,-0.46862557530403137,0.6228546500205994,-0.6264520883560181,-1.187265396118164,-1.7640571594238281,-2.774216890335083
6.462363243103027,-0.4852551817893982,-0.5175666213035583,0.5370862483978271,-0.656663262095733,-0.731301322885652,-0.1610993700848352,-0.5289508104324341,0.6104774475097656,-0.5895153880119324,-1.6268861293792725,-1.999870777130127,-3.2387967109680176
6.483034133911133,-0.4674060344696045,-0.3858417272567749,0.3670138120651245,-0.6321230589003975,-0.8253757737615554,-0.24977916260514532,-0.5928204655647278,0.5908589363098145,-0.5472201108932495,-1.5881189107894897,-2.070596694946289,-3.519230842590332
6.503252029418945,-0.4418789744377136,-0.29281556606292725,0.22230219841003418,-0.5966308904051987,-0.9159800961203955,-0.3347619922501886,-0.6561282873153687,0.5618586540222168,-0.5037962794303894,-1.4230464696884155,-2.1014888286590576,-3.680304765701294
6.5230302810668945,-0.47715187072753906,-0.22282475233078003,0.1598469614982605,-0.5490376648988835,-0.9991990452428761,-0.41007660309901034,-0.7174282670021057,0.5218665599822998,-0.46146735548973083,-0.9891994595527649,-2.131715774536133,-3.877509593963623
6.543210983276367,-0.5731779932975769,-0.1340671181678772,0.13193130493164062,-0.48931336786766577,-1.0732467736910145,-0.4724130345723763,-0.7756380438804626,0.4700199365615845,-0.42126840353012085,-0.7130997180938721,-2.1970582008361816,-4.027133464813232
6.563544273376465,-0.6280614137649536,-0.1658708155155182,0.09557491540908813,-0.4235376220712471,-1.1424433323502625,-0.5278241643871386,-0.8292750716209412,0.41098806262016296,-0.37867113947868347,-0.8369280099868774,-2.2884304523468018,-4.099503040313721
6.582877159118652,-0.6249042749404907,-0.09631475806236267,0.053117066621780396,-0.35458352413630445,-1.2091334348903473,-0.5811255778957483,-0.8771253824234009,0.34719982743263245,-0.33181875944137573,-1.0741267204284668,-2.371654748916626,-4.182748794555664
6.603001117706299,-0.5213983058929443,0.010637789964675903,0.013645380735397339,-0.28296399497793534,-1.273851537315599,-0.6343398539603312,-0.9182076454162598,0.27920299768447876,-0.28096404671669006,-1.428744912147522,-2.427708625793457,-4.241106986999512
6.622794151306152,-0.4378315806388855,0.06664274632930756,-0.007722958922386169,-0.20979521128330597,-1.334996566004102,-0.6892145706542621,-0.9510082006454468,0.20825961232185364,-0.22849823534488678,-1.7155808210372925,-2.323474645614624,-4.230527400970459
6.642686128616333,-0.4073699116706848,0.1678498089313507,-0.09020297229290009,-0.13480420639863525,-1.3881817041426778,-0.7391577222710036,-0.9744507670402527,0.13439629971981049,-0.17995378375053406,-1.4983251094818115,-2.119687795639038,-4.134839057922363
6.662537097930908,-0.37861961126327515,0.3060998320579529,-0.1934986114501953,-0.05941361827406526,-1.4321715805438988,-0.7781670286554783,-0.9886595606803894,0.059378668665885925,-0.13793739676475525,-1.1541545391082764,-1.9035992622375488,-3.9308199882507324
6.682502269744873,-0.3283401131629944,0.4415471851825714,-0.2273290902376175,0.01340123140676102,-1.4688536045442289,-0.8075016091986567,-0.9947192072868347,-0.013400830328464508,-0.10175712406635284,-0.9275314211845398,-1.697258472442627,-3.656688690185547
6.702812194824219,-0.2811141014099121,0.5603508353233337,-0.24087268114089966,0.08136037275695336,-1.499636855171175,-0.8319054417230116,-0.9941698908805847,-0.08127064257860184,-0.07086426019668579,-0.9603495597839355,-1.503828763961792,-3.32122540473938
6.7224531173706055,-0.24444109201431274,0.6399012207984924,-0.23371833562850952,0.14258109161072463,-1.5247807107554319,-0.8570573619813643,-0.988804817199707,-0.14209848642349243,-0.04553260654211044,-1.2159680128097534,-1.2737033367156982,-2.9283955097198486
6.742176055908203,-0.23284918069839478,0.6908295750617981,-0.2704400420188904,0.19591034213395045,-1.5427066501565772,-0.8863145588490222,-0.9804840683937073,-0.1946595460176468,-0.02754872664809227,-1.4613306522369385,-1.0067391395568848,-2.5032267570495605
6.762223243713379,-0.16577833890914917,0.7900573015213013,-0.3418385982513428,0.24114876511134126,-1.5538680435636065,-0.9182462606992864,-0.9709252119064331,-0.23881830275058746,-0.016437668353319168,-1.5503325462341309,-0.8074113130569458,-2.071086883544922
6.78210711479187,-0.06346958875656128,0.836512565612793,-0.4215959906578064,0.27776906180306477,-1.5602243355970187,-0.9506412772058801,-0.9616159200668335,-0.2742109000682831,-0.010166574269533157,-1.5091437101364136,-0.6708090305328369,-1.6319785118103027
6.802297115325928,0.013753116130828857,0.9027714729309082,-0.48389166593551636,0.30549627397597934,-1.5645457210428493,-0.9795919084275598,-0.9536793231964111,-0.3007664978504181,-0.005961151327937841,-1.220792531967163,-0.5917074680328369,-1.1642730236053467
6.821059226989746,0.012555241584777832,0.962608814239502,-0.5015813112258911,0.3240069167241999,-1.56844048243363,-1.0013076505476544,-0.9479650259017944,-0.31836754083633423,-0.002233262173831463,-0.819762110710144,-0.4599173963069916,-0.704966127872467
6.841943264007568,-0.03179633617401123,1.0167276859283447,-0.5176750421524048,0.3337731409840659,-1.5722717266556736,-1.0133171432707089,-0.9448120594024658,-0.3276102542877197,0.0013939766213297844,-0.3173016309738159,-0.3126407861709595,-0.2811310887336731
6.860774993896484,-0.08939826488494873,1.0174542665481567,-0.5266292095184326,0.3352693084956509,-1.5761315583568518,-1.0153376980780993,-0.9443085193634033,-0.3290235102176666,0.005038152448832989,0.10256904363632202,-0.13666531443595886,0.13803744316101074
6.881813049316406,-0.12522393465042114,0.9901853799819946,-0.5392905473709106,0.32805397072446285,-1.5801604820215764,-1.0092621690522114,-0.9466297626495361,-0.3222014009952545,0.008864647708833218,0.497739315032959,-0.0941004604101181,0.5795867443084717
6.900595188140869,-0.2801581025123596,0.9922442436218262,-0.5712766647338867,0.31205793844364177,-1.5860956760272993,-0.9937002732917921,-0.9515923857688904,-0.30701783299446106,0.014559880830347538,1.0239862203598022,0.04043400660157204,0.9937164783477783
6.9221720695495605,-0.5207921862602234,0.9741442203521729,-0.537131667137146,0.2876974456343531,-1.5887226154660075,-0.9668024493582001,-0.9587459564208984,-0.28374505043029785,0.017188597470521927,1.5489684343338013,0.5297808051109314,1.4307035207748413
6.940851211547852,-0.43665724992752075,0.8726317286491394,-0.4353903532028198,0.2531025957855496,-1.5817464267802819,-0.9341994369941982,-0.9680824279785156,-0.25040891766548157,0.010601023212075233,1.5482677221298218,0.9989977478981018,2.008054494857788
6.961554050445557,-0.1470506191253662,0.6661829352378845,-0.33122342824935913,0.20648063795416383,-1.5651382067905035,-0.9071533287067325,-0.9787429571151733,-0.20501656830310822,-0.00553790433332324,1.0889486074447632,1.2638678550720215,2.651731491088867
6.982396125793457,-0.02828007936477661,0.5429001450538635,-0.27423954010009766,0.14793131198972126,-1.5421527427617912,-0.8879851573121835,-0.98867267370224,-0.1473923623561859,-0.02832687646150589,0.7570351362228394,1.3686296939849854,3.222597599029541
6.9992780685424805,-0.1411791443824768,0.45083868503570557,-0.2538759112358093,0.07972256827679064,-1.5159686363618365,-0.8700121055872645,-0.9953261017799377,-0.07963814586400986,-0.05462618172168732,0.8036431670188904,1.4500247240066528,3.6564016342163086
7.021583080291748,-0.34425127506256104,0.36438363790512085,-0.22280871868133545,0.005466447692769911,-1.4866504366717408,-0.8453621897181365,-0.9964470267295837,-0.005466420669108629,-0.08404538035392761,1.1854532957077026,1.578293800354004,3.9062061309814453
7.041678190231323,-0.5589260458946228,0.28949156403541565,-0.1175646185874939,-0.07026167226888447,-1.452087789116443,-0.8091151638384141,-0.9905125498771667,0.07020387798547745,-0.11813773959875107,1.6316171884536743,1.778847336769104,3.977630615234375
7.06136417388916,-0.7346177101135254,0.17642396688461304,0.0145338773727417,-0.1436650895824785,-1.4079850879870686,-0.7626567704846522,-0.9766098260879517,0.14317139983177185,-0.16042304039001465,1.9042015075683594,2.0945541858673096,3.908043146133423
7.08137321472168,-0.764906108379364,0.07449640333652496,0.14451070129871368,-0.2126089324300204,-1.3528629476867435,-0.7092233221149862,-0.9543627500534058,0.21101079881191254,-0.21134407818317413,1.9370924234390259,2.3404295444488525,3.7794058322906494
7.101546287536621,-0.7076227068901062,-0.039972394704818726,0.24714955687522888,-0.27527802614557667,-1.2905020777006975,-0.6527125308357532,-0.9247933030128479,0.2718144953250885,-0.2662229537963867,1.8850995302200317,2.5166826248168945,3.666787624359131
7.121013164520264,-0.6170116662979126,-0.10984140634536743,0.2904975414276123,-0.33187295574047904,-1.2206569888374872,-0.590914411243811,-0.8880695700645447,0.3258143663406372,-0.32431095838546753,2.0144131183624268,2.6291518211364746,3.559661865234375
7.140289306640625,-0.5508360266685486,-0.15088379383087158,0.29982829093933105,-0.3813917420904288,-1.143552716710479,-0.5226198614943373,-0.8447176814079285,0.37221255898475647,-0.384590744972229,2.0091021060943604,2.6979687213897705,3.458395481109619
7.161020278930664,-0.6028435826301575,-0.22919386625289917,0.34440040588378906,-0.4247922815221759,-1.0614899330648853,-0.4535904971525843,-0.7954871654510498,0.41213154792785645,-0.4442385733127594,1.679431438446045,2.8169355392456055,3.281454563140869
7.18097710609436,-0.6314001679420471,-0.3099498152732849,0.48196953535079956,-0.4640790044927481,-0.9772380474151424,-0.38987349763514534,-0.7412806153297424,0.4475994110107422,-0.5001579523086548,1.152885913848877,2.855193614959717,3.0999953746795654
7.201229095458984,-0.5534449219703674,-0.39501670002937317,0.5753844976425171,-0.5023345919445389,-0.8954294650017454,-0.33348197060642876,-0.6840581893920898,0.48147302865982056,-0.5479490756988525,0.6619312167167664,2.701711654663086,2.9454967975616455
7.2209882736206055,-0.4765605330467224,-0.3852131962776184,0.5925045013427734,-0.5371545195768602,-0.8170345424305594,-0.2797643475724845,-0.6264362931251526,0.5116932988166809,-0.5880030393600464,0.626724362373352,2.4614033699035645,2.7542295455932617
7.240936279296875,-0.4134334325790405,-0.4332556128501892,0.5848585367202759,-0.5651054026603408,-0.7427005329037415,-0.22517811764168102,-0.5711400508880615,0.5355048179626465,-0.6221204400062561,0.6513036489486694,2.1141765117645264,2.5078277587890625
7.2597291469573975,-0.40597063302993774,-0.4991512894630432,0.5924849510192871,-0.5848800053394735,-0.6750787331735111,-0.17188302276988765,-0.5210771560668945,0.552099347114563,-0.6508955359458923,0.8103269338607788,1.7694107294082642,2.1572141647338867
7.2807722091674805,-0.3830435574054718,-0.4939956068992615,0.647050678730011,-0.5935082447754554,-0.6149931258303988,-0.12156923672553026,-0.4782845675945282,0.5592727661132812,-0.6770951747894287,0.9691752195358276,1.436397910118103,1.7169628143310547
7.300685167312622,-0.29961758852005005,-0.5419772863388062,0.7123270034790039,-0.5944754780150519,-0.5666155107470506,-0.07980753550870104,-0.4446909427642822,0.5600742697715759,-0.6989755034446716,0.8203532695770264,1.0547022819519043,1.2230638265609741
7.320273160934448,-0.23262688517570496,-0.5973207354545593,0.7720210552215576,-0.5941253122408778,-0.5342149616186239,-0.05185829370524252,-0.42191416025161743,0.5597841739654541,-0.7131831645965576,0.42542511224746704,0.6320421099662781,0.724977970123291
7.3401923179626465,-0.20043721795082092,-0.6390557885169983,0.7856627702713013,-0.5956019617496979,-0.5193776603234078,-0.03977770892561864,-0.41087567806243896,0.5610071420669556,-0.7186461091041565,-0.039270661771297455,0.1774330586194992,0.2070077657699585
7.361130237579346,-0.20983850955963135,-0.6351812481880188,0.7583065032958984,-0.599220623165463,-0.5226818933543429,-0.0440089053447098,-0.4122318625450134,0.5639990568161011,-0.7155207991600037,-0.444916695356369,-0.2563532888889313,-0.3290995955467224
7.377212047576904,-0.2511979639530182,-0.6313269734382629,0.7105820178985596,-0.6048192640523394,-0.5440122567956098,-0.06503586152587769,-0.4257582724094391,0.5686134099960327,-0.7038528323173523,-0.9479762315750122,-0.7115715146064758,-0.8931571245193481
7.3966779708862305,-0.38658589124679565,-0.6313717365264893,0.6788808107376099,-0.6127978290096123,-0.5867603139401619,-0.107030354663558,-0.45292219519615173,0.5751584768295288,-0.6812153458595276,-1.5702714920043945,-1.1408069133758545,-1.6318467855453491
7.416624069213867,-0.5467996597290039,-0.5462226867675781,0.7055444717407227,-0.6189605011783731,-0.652340378776494,-0.173410975909271,-0.4944296181201935,0.5801888108253479,-0.6472406387329102,-2.0277693271636963,-1.6192988157272339,-2.428454637527466
7.437913179397583,-0.4975539445877075,-0.476085364818573,0.5747331380844116,-0.6155826713259624,-0.7397176356434619,-0.25855930195974275,-0.5503434538841248,0.5774343609809875,-0.6030686497688293,-2.1372194290161133,-2.15181827545166,-3.0854315757751465
7.461721181869507,-0.47872138023376465,-0.43693840503692627,0.38433992862701416,-0.5966536426586785,-0.8359022989711143,-0.34933978570825913,-0.6137164235115051,0.561877429485321,-0.5546584725379944,-1.7349138259887695,-2.2596771717071533,-3.5135879516601562
7.480874061584473,-0.4585167169570923,-0.3292784094810486,0.193711519241333,-0.5586098126131012,-0.9254802526643428,-0.4301025877910591,-0.6774697303771973,0.5300078392028809,-0.5100261569023132,-1.1126019954681396,-2.321244239807129,-3.721285581588745
7.501753091812134,-0.3751472234725952,-0.2680567502975464,0.13744282722473145,-0.5087099288628717,-1.0091101725603069,-0.49973473169800464,-0.7391869425773621,0.48705095052719116,-0.46517103910446167,-1.100709319114685,-2.5086143016815186,-3.801658868789673
7.521470069885254,-0.4039101004600525,-0.27877822518348694,0.1471208930015564,-0.45487108986186425,-1.0921980627523213,-0.567183934444681,-0.7973839640617371,0.4393465220928192,-0.41370710730552673,-1.4292703866958618,-2.671416759490967,-3.8513197898864746
7.536618232727051,-0.5491483807563782,-0.18884482979774475,0.11795035004615784,-0.39839717162073846,-1.174285015028002,-0.6355791583885381,-0.8501741886138916,0.38794153928756714,-0.3559568226337433,-1.825895071029663,-2.7006564140319824,-3.933807849884033
7.5615739822387695,-0.7031164765357971,-0.11162516474723816,0.05297502875328064,-0.3374448492393829,-1.2519722000710136,-0.7048241177843667,-0.8960506319999695,0.33107712864875793,-0.2957727909088135,-2.063133478164673,-2.5557074546813965,-4.049560546875
7.580344200134277,-0.7502655982971191,-0.025831937789916992,-0.038019925355911255,-0.270069842286928,-1.319878410527572,-0.769061997051211,-0.9335722923278809,0.266798734664917,-0.239293172955513,-1.8596866130828857,-2.3161461353302,-4.158151149749756
7.599940299987793,-0.639400839805603,0.1386868953704834,-0.09793111681938171,-0.19584511391339526,-1.3759858478147118,-0.820110744128856,-0.9623295068740845,0.1945955604314804,-0.18988002836704254,-1.3574271202087402,-2.119229555130005,-4.186866760253906
7.621350288391113,-0.4969097375869751,0.2568778395652771,-0.12922751903533936,-0.11852153486222812,-1.4223492159034916,-0.8576264712567896,-0.9820638298988342,0.1182442456483841,-0.14686492085456848,-1.0234366655349731,-1.9255424737930298,-4.062410354614258
7.639663219451904,-0.35392487049102783,0.3229847848415375,-0.1639472097158432,-0.04336182553520958,-1.4617047272825383,-0.8867277832827106,-0.9931210875511169,0.04334823787212372,-0.10877300798892975,-0.9320366978645325,-1.7789885997772217,-3.746086359024048
7.659557104110718,-0.2556488513946533,0.40184587240219116,-0.2211938500404358,0.0251395457434338,-1.4965495374772892,-0.9128525939408566,-0.9969298839569092,-0.025136897340416908,-0.07415515184402466,-1.0789512395858765,-1.6759895086288452,-3.3245625495910645
7.67940616607666,-0.26562052965164185,0.48970499634742737,-0.237146258354187,0.08578796543130425,-1.526622738185498,-0.939869325880268,-0.9953506588935852,-0.08568277955055237,-0.04399682953953743,-1.2503985166549683,-1.4426186084747314,-2.912721633911133
7.699791193008423,-0.31127506494522095,0.5780948996543884,-0.2543531060218811,0.14021467611398228,-1.5489014744302254,-0.9672474796457815,-0.9899488091468811,-0.13975568115711212,-0.021678246557712555,-1.2639940977096558,-1.0764203071594238,-2.6291327476501465
7.719518184661865,-0.2287248969078064,0.7222200632095337,-0.2583099603652954,0.19040960643097674,-1.5645122075980948,-0.9909184231308157,-0.9819075465202332,-0.18926110863685608,-0.006170505192130804,-0.9509475231170654,-0.8910965919494629,-2.3990724086761475
7.739218235015869,-0.07906800508499146,0.8031263947486877,-0.3383275270462036,0.23523684972042608,-1.5784949488276734,-1.0067703204297918,-0.972430408000946,-0.23307332396507263,0.007486522197723389,-0.6820346713066101,-0.8246724009513855,-2.0522260665893555
7.759289264678955,-0.04174244403839111,0.7725269794464111,-0.334308385848999,0.2733868687215494,-1.5901034439194799,-1.0207612883299355,-0.9626826643943787,-0.2699940800666809,0.01858893781900406,-0.7596890330314636,-0.6694464087486267,-1.7498570680618286
7.778431177139282,-0.038279175758361816,0.9175699949264526,-0.3539731502532959,0.3065338572857447,-1.5977676923807957,-1.0368113367017173,-0.9530388116836548,-0.3017558753490448,0.025710992515087128,-0.8605483770370483,-0.5731393098831177,-1.5179438591003418
7.79933500289917,-0.006751060485839844,1.0392241477966309,-0.47967982292175293,0.33410151687459316,-1.6032723789541958,-1.0540976456618818,-0.9442072510719299,-0.32792049646377563,0.030674908310174942,-0.8108561038970947,-0.5125351548194885,-1.1578307151794434
7.819115161895752,-0.02588796615600586,1.190704584121704,-0.5609748363494873,0.3516227556600151,-1.6076516779771395,-1.0666625052150225,-0.9381777048110962,-0.34442171454429626,0.034592531621456146,-0.3917335569858551,-0.32634904980659485,-0.5158287286758423
7.839297294616699,-0.04776734113693237,1.1983579397201538,-0.6244088411331177,0.35387590222397164,-1.610990356768938,-1.0693268066596597,-0.9372791647911072,-0.34653612971305847,0.0376933254301548,0.1350715458393097,-0.11139973253011703,0.29925793409347534
7.858824253082275,-0.06897944211959839,1.1428526639938354,-0.6337742805480957,0.3395239600728511,-1.6142771543353702,-1.0617802480110765,-0.9420222043991089,-0.3330382704734802,0.04098573699593544,0.6431193351745605,0.0068701873533427715,1.0886753797531128
7.878910064697266,-0.2211790680885315,1.0975364446640015,-0.6425814628601074,0.3104939793249911,-1.619647737198273,-1.0431012525370027,-0.9510470032691956,-0.30552902817726135,0.046496979892253876,1.2807937860488892,0.08667588979005814,1.7020503282546997
7.898988246917725,-0.5527573227882385,0.9854318499565125,-0.6232569217681885,0.27028104954336557,-1.6218466435952117,-1.0129211498888087,-0.9624404907226562,-0.26700228452682495,0.04917562007904053,1.7749662399291992,0.644006609916687,2.1706154346466064
7.9187171459198,-0.5899236798286438,0.7885556221008301,-0.5062603950500488,0.2202953379934476,-1.6109040398048096,-0.9779495655802138,-0.9750483632087708,-0.21851783990859985,0.03912794217467308,1.7308753728866577,1.2282134294509888,2.689467668533325
7.938672065734863,-0.27665019035339355,0.5660697817802429,-0.33127737045288086,0.16029169926284745,-1.5887520799434216,-0.9510170585623712,-0.987021803855896,-0.1596061736345291,0.017724623903632164,1.0569570064544678,1.4838839769363403,3.23474383354187
7.95879602432251,-0.1644842028617859,0.41205108165740967,-0.2369210124015808,0.09105566162197642,-1.5595321098103765,-0.9357006311693913,-0.9957942962646484,-0.09092988818883896,-0.011217317543923855,0.5846490263938904,1.5911048650741577,3.6600775718688965
7.9788360595703125,-0.2840240001678467,0.36153990030288696,-0.20473819971084595,0.015562742050796032,-1.5280494029776421,-0.9223089320947769,-0.9989656209945679,-0.015562114305794239,-0.042728736996650696,0.6088629364967346,1.6242684125900269,3.904306650161743
7.99662709236145,-0.491812527179718,0.2936851680278778,-0.13730597496032715,-0.062189885061641206,-1.4944102294698527,-0.90190754463837,-0.9951565861701965,0.06214980408549309,-0.07616432011127472,1.052492618560791,1.681626796722412,3.9628026485443115
8.018927097320557,-0.6936203241348267,0.20995019376277924,-0.03793758153915405,-0.13740561655866987,-1.4554465592254333,-0.866765507990411,-0.9839920997619629,0.13697364926338196,-0.11400935798883438,1.7163243293762207,1.8625394105911255,3.844334125518799
8.038747310638428,-0.7780665159225464,0.10819688439369202,0.09154123067855835,-0.2064688637317538,-1.4065323767041706,-0.816637550116694,-0.9655859470367432,0.20500504970550537,-0.1600531041622162,2.1371142864227295,2.058661937713623,3.634531259536743
8.058300971984863,-0.7093876004219055,0.015133917331695557,0.20891208946704865,-0.2666715343506028,-1.3507820417654055,-0.7587952459626549,-0.9413998126983643,0.26352208852767944,-0.2105294018983841,2.2149431705474854,2.139904022216797,3.343858242034912
8.078224182128906,-0.6340864300727844,-0.07581987977027893,0.31254690885543823,-0.3202170031945816,-1.2907048742131642,-0.7010365330450581,-0.9121783375740051,0.3147725462913513,-0.2623911499977112,1.6881229877471924,2.209188222885132,3.2659261226654053
8.098503112792969,-0.5746302008628845,-0.21463105082511902,0.41764649748802185,-0.3735086129221172,-1.2293995582098267,-0.6534885061148707,-0.8773199319839478,0.3648843765258789,-0.3117198348045349,1.0209013223648071,2.3102328777313232,3.2013752460479736
8.117133140563965,-0.49192875623703003,-0.21229684352874756,0.47698986530303955,-0.4275344613472099,-1.1671306775265762,-0.6118736105009466,-0.836852490901947,0.41462844610214233,-0.3574371635913849,0.606817364692688,2.2895004749298096,3.2284419536590576
8.138092041015625,-0.41911083459854126,-0.2797676622867584,0.4929928183555603,-0.4792724216414914,-1.1032543820917027,-0.5679919846514452,-0.7921014428138733,0.4611336886882782,-0.3999141454696655,0.929449737071991,2.200127124786377,3.1244208812713623
8.158015251159668,-0.4340134859085083,-0.20634132623672485,0.4849728047847748,-0.5191782080136701,-1.030411851636717,-0.507664244169093,-0.7445143461227417,0.49616679549217224,-0.4466731548309326,1.7605913877487183,2.1859138011932373,2.9381535053253174
8.177974224090576,-0.4150565266609192,-0.2812296152114868,0.5203037261962891,-0.5449217646240172,-0.9501402053350652,-0.43340104194913437,-0.6956765651702881,0.5183511972427368,-0.4973391592502594,2.0781633853912354,2.048570156097412,2.7468340396881104
8.1984121799469,-0.3878432512283325,-0.4055984616279602,0.5934581160545349,-0.5630372548528304,-0.8719164240597344,-0.35918620954603453,-0.6473893523216248,0.5337570905685425,-0.5440500974655151,1.736633539199829,1.880637288093567,2.5647366046905518
8.217779159545898,-0.37267398834228516,-0.48572540283203125,0.6689273118972778,-0.5803869346689556,-0.8014961732225178,-0.29503515614337167,-0.6007605195045471,0.548347532749176,-0.5817232728004456,1.1047170162200928,1.6885747909545898,2.3319852352142334
8.238583087921143,-0.3254236578941345,-0.497860312461853,0.6965010762214661,-0.59707009386982,-0.7409347867391112,-0.24227447020924225,-0.5581976175308228,0.562221884727478,-0.6101819276809692,0.882686197757721,1.4486207962036133,1.9585307836532593
8.257904052734375,-0.29800641536712646,-0.436038613319397,0.673550546169281,-0.6048114929508078,-0.6873285097403165,-0.1945379405819304,-0.5219247341156006,0.5686070322990417,-0.6358307600021362,1.129987359046936,1.2049217224121094,1.5387718677520752
8.277665138244629,-0.25456640124320984,-0.44847559928894043,0.6874704957008362,-0.6030146151838705,-0.641517936005179,-0.15144184211342762,-0.49287015199661255,0.5671280026435852,-0.6598825454711914,1.1555451154708862,0.9314702749252319,1.1556793451309204
8.297844171524048,-0.20903146266937256,-0.5049868822097778,0.7058913111686707,-0.5979199672644124,-0.6074109354352439,-0.11774503151794866,-0.4717242121696472,0.5629245042800903,-0.6786695122718811,0.8582024574279785,0.5770443081855774,0.808268129825592
8.317605972290039,-0.1987854242324829,-0.5295487642288208,0.7217420339584351,-0.5947054261758088,-0.5882429557332631,-0.09702678887659998,-0.45963138341903687,0.5602647662162781,-0.6890881657600403,0.3742043375968933,0.17092828452587128,0.4243873059749603
8.33664608001709,-0.21972981095314026,-0.5071929693222046,0.720244288444519,-0.5938194189281699,-0.5849568999316671,-0.09052572539092137,-0.4576384425163269,0.5595306754112244,-0.6910083889961243,0.026186496019363403,-0.20132020115852356,-0.025189369916915894
8.35737919807434,-0.178626149892807,-0.5009528398513794,0.6942263245582581,-0.5937834805165221,-0.59784237591662,-0.09760427045527639,-0.46651551127433777,0.5595008730888367,-0.6850709915161133,-0.38864466547966003,-0.7269875407218933,-0.4713714122772217
