timestamp,acceleration_x,acceleration_y,acceleration_z,attitude_pitch,attitude_roll,attitude_yaw,gravity_x,gravity_y,gravity_z,rotation_x,rotation_y,rotation_z
0.0,-0.038682639598846436,0.7198084592819214,-0.3520641326904297,0.12434928232492067,-1.5723169439882199,2.4979918184737957,-0.9922775626182556,-0.12402907013893127,0.0015088755171746016,1.7053492069244385,-0.06053439527750015,1.0340825319290161
0.02156805992126465,-0.15436965227127075,0.6681542992591858,-0.31741225719451904,0.10181705284870796,-1.5741544499949702,2.5312706530711893,-0.9948155879974365,-0.1016412228345871,0.003340725786983967,1.5379366874694824,0.2293189913034439,1.1917016506195068
0.03552603721618652,-0.22988182306289673,0.5447223782539368,-0.23531901836395264,0.075265259915569,-1.5707791378714449,2.5573084401040664,-0.9971689581871033,-0.07519421726465225,-1.7140260752057657e-05,1.0817437171936035,0.33116137981414795,1.5131306648254395
0.05447101593017578,-0.4055374264717102,0.4729161858558655,-0.2570986747741699,0.04154691220574982,-1.5634844520293933,2.577868286769497,-0.9991104602813721,-0.04153496026992798,-0.007305500563234091,1.0580496788024902,0.5395544767379761,1.8127390146255493
0.07746005058288574,-0.5239738821983337,0.5168074369430542,-0.27056777477264404,0.006294161624054934,-1.550987787423545,2.6023065043155533,-0.9997842907905579,-0.006294120103120804,-0.01980685628950596,1.3606101274490356,0.7612796425819397,1.7194932699203491
0.10286903381347656,-0.3857245445251465,0.4994005858898163,-0.19590407609939575,-0.02762626145429085,-1.5342107632822857,2.632691557921935,-0.9989496469497681,0.027622748166322708,-0.0365634523332119,1.5569250583648682,0.8539122343063354,1.8351566791534424
0.11308097839355469,-0.3857245445251465,0.4994005858898163,-0.19590407609939575,-0.02762626145429085,-1.5342107632822857,2.632691557921935,-0.9989496469497681,0.027622748166322708,-0.0365634523332119,1.5569250583648682,0.8539122343063354,1.8351566791534424
0.30138301849365234,-0.27681607007980347,0.3619071841239929,-0.053911447525024414,-0.06627244324443365,-1.5147839756134653,2.665301995405017,-0.9962400794029236,0.06622394174337387,-0.05586018040776253,1.5272146463394165,0.9506058096885681,2.149035692214966
0.3123490810394287,-0.4504753351211548,0.18462735414505005,0.03442929685115814,-0.15053529124013004,-1.4634156844283215,2.741887293883385,-0.9829965829849243,0.14996738731861115,-0.10596238821744919,2.020043134689331,1.115335464477539,2.2175405025482178
0.3330681324005127,-0.26843011379241943,-0.1343143880367279,0.3190995454788208,-0.285214556199194,-1.327754281911194,2.933661445825168,-0.9313990473747253,0.2813633382320404,-0.23093418776988983,1.709391474723816,1.3297967910766602,2.050231456756592
0.3536982536315918,-0.15627378225326538,-0.3659761846065521,0.44370466470718384,-0.41275282100588206,-1.1741046633145225,3.066036496417673,-0.8448860049247742,0.4011324942111969,-0.3539218604564667,0.621566653251648,1.228556752204895,1.810341238975525
0.3725130558013916,-0.12318962812423706,-0.4619913697242737,0.4957587718963623,-0.4766468326503519,-1.0792405038631274,-3.139366975742415,-0.7833351492881775,0.45880234241485596,-0.41938844323158264,0.5945900678634644,0.7516529560089111,1.0561280250549316
0.3942289352416992,-0.15508168935775757,-0.44322097301483154,0.514275848865509,-0.48587122728609206,-1.0552315204513116,-3.117421584017458,-0.769326388835907,0.46697893738746643,-0.43596768379211426,0.6336560249328613,0.6411872506141663,0.7060418725013733
0.41349124908447266,-0.15635669231414795,-0.5085922479629517,0.5582882761955261,-0.49033146550077666,-1.0350552568398381,-3.100816178686508,-0.7585756182670593,0.47091832756996155,-0.45033228397369385,0.37620043754577637,0.5989782810211182,0.4289691746234894
0.43392205238342285,-0.09498411417007446,-0.542434811592102,0.5732397437095642,-0.4940004208861663,-1.0206254343194419,-3.0929445783137877,-0.7505207061767578,0.4741518199443817,-0.4603246748447418,0.04022657498717308,0.4364531934261322,0.2296776920557022
0.45679807662963867,-0.03455066680908203,-0.5098223686218262,0.5372366905212402,-0.49651005228651374,-1.0140287118790678,-3.0923730480744993,-0.7464552521705627,0.47635990381240845,-0.46463534235954285,-0.0747344046831131,0.19776488840579987,0.005049516446888447
0.4784269332885742,-0.020138561725616455,-0.4554555416107178,0.4811590909957886,-0.49510517110896696,-1.0136456662311675,-3.093959330463649,-0.7468445301055908,0.47512421011924744,-0.4652746617794037,0.054061830043792725,-0.0930788442492485,-0.19293545186519623
0.49706220626831055,-0.07806694507598877,-0.40006744861602783,0.4433969259262085,-0.4885459173056316,-1.0184457413505015,-3.0948972290390344,-0.7517061233520508,0.4693424105644226,-0.4633096158504486,0.21336960792541504,-0.3125331699848175,-0.4171687066555023
0.517158031463623,-0.19523346424102783,-0.3808305263519287,0.45809197425842285,-0.4773517831374856,-1.0265320730347467,-3.097375089460543,-0.7598752975463867,0.459428608417511,-0.4599076807498932,0.10631132125854492,-0.3543001711368561,-0.6495012044906616
0.5367300510406494,-0.2628268003463745,-0.42170780897140503,0.5361573696136475,-0.46601102394078664,-1.0373927683124782,-3.108241274016837,-0.7692625522613525,0.4493262469768524,-0.4542481303215027,-0.41142159700393677,-0.25068187713623047,-0.8108813762664795
0.555941104888916,-0.23072028160095215,-0.4703272581100464,0.539846658706665,-0.45832823957375196,-1.0536052787160237,-3.1322292942225642,-0.7795032262802124,0.44244951009750366,-0.44341105222702026,-1.0225929021835327,-0.3536810576915741,-0.9350441098213196
0.5772981643676758,-0.16174465417861938,-0.4036319851875305,0.41058218479156494,-0.451568558471704,-1.0789781383939785,3.11862865598895,-0.7931199073791504,0.4363774061203003,-0.42489486932754517,-1.0769424438476562,-0.8006436228752136,-1.062915325164795
0.5983462333679199,-0.24850457906723022,-0.23697751760482788,0.2807498574256897,-0.4390927401467237,-1.1116312993161404,3.0897332810935523,-0.811386227607727,0.42511844635009766,-0.40115687251091003,-0.6629544496536255,-1.1754677295684814,-1.2768992185592651
0.6169910430908203,-0.48697429895401,-0.113351970911026,0.30852895975112915,-0.41717175421919533,-1.1450390983785275,3.0652069672286912,-0.832621157169342,0.4051763713359833,-0.3775901794433594,-0.5066510438919067,-1.0499897003173828,-1.701774001121521
0.6367311477661133,-0.5626670122146606,-0.11932536959648132,0.4040689766407013,-0.38826965829016924,-1.17421663861238,3.0343685142817556,-0.8537301421165466,0.37858742475509644,-0.35751429200172424,-1.0439317226409912,-0.7186989784240723,-2.0162577629089355
0.6562199592590332,-0.2903217673301697,-0.14199382066726685,0.35204869508743286,-0.3629537466262643,-1.206620389374308,2.991135557178694,-0.8735424876213074,0.3550370931625366,-0.3329751491546631,-1.6834102869033813,-1.0125555992126465,-1.7758878469467163
0.6761760711669922,-0.21461212635040283,-0.06868913769721985,0.21961060166358948,-0.34364736320254524,-1.245801723572173,2.9445075292961316,-0.8922451734542847,0.33692342042922974,-0.3006346523761749,-1.696520447731018,-1.219748854637146,-1.5927295684814453
0.6962831020355225,-0.3022027015686035,0.021781116724014282,0.0998159646987915,-0.3213847029679736,-1.2833819031788098,2.9032556191048373,-0.9098793268203735,0.3158806562423706,-0.26895955204963684,-1.337205410003662,-1.2052371501922607,-1.731058120727539
0.7163500785827637,-0.17437154054641724,0.0808451771736145,0.0251428484916687,-0.2937213503055774,-1.3188827386823387,2.8699154580273984,-0.9269621968269348,0.2895162105560303,-0.23858271539211273,-1.0074716806411743,-1.367424488067627,-1.7629364728927612
0.7377140522003174,-0.07505601644515991,0.1124413013458252,-0.02742108702659607,-0.263854922085565,-1.3549731685909714,2.845190844344135,-0.9429953694343567,0.2608039975166321,-0.20674020051956177,-0.5782238245010376,-1.5175868272781372,-1.6956162452697754
0.7561969757080078,-0.14347517490386963,0.11618657410144806,-0.04193836450576782,-0.23296082341642624,-1.3869602187398185,2.8303318530305988,-0.9565920829772949,0.23085936903953552,-0.17786437273025513,-0.2959749102592468,-1.29246187210083,-1.668253779411316
0.7741432189941406,-0.1878616213798523,0.122849240899086,-0.03545324504375458,-0.1997502980621304,-1.4138382305283603,2.8172035022501225,-0.96806800365448,0.19842460751533508,-0.15320630371570587,-0.48063939809799194,-1.187184453010559,-1.8096843957901
0.7993700504302979,-0.10413360595703125,0.13608132302761078,-0.08019597828388214,-0.16610359284287712,-1.4422239584212933,2.797840075356983,-0.9780962467193604,0.1653408408164978,-0.1264537125825882,-0.91664719581604,-1.2958296537399292,-1.7932229042053223
0.81302809715271,-0.06670939922332764,0.18645747005939484,-0.16583985090255737,-0.13324188138722468,-1.4729031722050154,2.7737319029651633,-0.9863913059234619,0.13284797966480255,-0.09687059372663498,-1.0537687540054321,-1.405051350593567,-1.7425917387008667
0.83154296875,-0.05241471529006958,0.30229341983795166,-0.21613436937332153,-0.10077013103666065,-1.5032731192589963,2.7503567496681374,-0.9926599860191345,0.10059966892004013,-0.06712964177131653,-0.9203665256500244,-1.363892912864685,-1.6900041103363037
0.8520901203155518,0.0023949742317199707,0.36152541637420654,-0.2650585174560547,-0.06946915582742887,-1.5313061056695547,2.7329861314127912,-0.9968103170394897,0.06941329687833786,-0.03938473388552666,-0.6727630496025085,-1.2923955917358398,-1.5058835744857788
0.8755900859832764,0.011888086795806885,0.4315255582332611,-0.34272265434265137,-0.04164626030860238,-1.5571683327857904,2.721030938525862,-0.9990401268005371,0.041634224355220795,-0.013615756295621395,-0.4449239671230316,-1.2310504913330078,-1.3409826755523682
0.8956789970397949,-0.0014188289642333984,0.47960755228996277,-0.43609118461608887,-0.015998587401717286,-1.581275773187614,2.714374438735539,-0.9998172521591187,0.015997905284166336,0.010477915406227112,-0.19464054703712463,-1.1658854484558105,-1.214789628982544
0.915816068649292,0.008324861526489258,0.5042115449905396,-0.5171043872833252,0.005691676914440914,-1.6031811135253662,2.7146810127262233,-0.9994596242904663,-0.005691646132618189,0.032378606498241425,0.16927209496498108,-1.0166648626327515,-0.9452072381973267
0.937143087387085,0.023862898349761963,0.5236114859580994,-0.5722525119781494,0.021995830044850232,-1.622118349649123,2.720721331754266,-0.9984419941902161,-0.021994056180119514,0.051287099719047546,0.33366385102272034,-0.871340811252594,-0.7318763732910156
0.955510139465332,0.03624445199966431,0.5058216452598572,-0.6185075044631958,0.03410280132660856,-1.6377112695881864,2.728978388200417,-0.9971819519996643,-0.03409619256854057,0.06682614237070084,0.42810049653053284,-0.6633892059326172,-0.5086830258369446
0.9754371643066406,0.06144857406616211,0.48538604378700256,-0.662139892578125,0.04100055266995727,-1.6487454100440069,2.7385807742274846,-0.9961258769035339,-0.040989067405462265,0.07780474424362183,0.44715583324432373,-0.394301176071167,-0.26581886410713196
0.9954590797424316,0.1013408899307251,0.46162131428718567,-0.6525981426239014,0.04349846184395808,-1.6545561719577377,2.7463656123987192,-0.9955517649650574,-0.04348474740982056,0.0835828185081482,0.2948755621910095,-0.16736389696598053,-0.044657446444034576
1.0143561363220215,0.1299978494644165,0.4390054941177368,-0.6510376930236816,0.04175503961722486,-1.6563237009361629,2.7519262727739577,-0.9954763054847717,-0.04174290597438812,0.08534868061542511,0.3179701864719391,0.021017365157604218,0.17537200450897217
1.0341870784759521,0.11811995506286621,0.44824883341789246,-0.6492056846618652,0.03564346668874541,-1.6543105608645226,2.7597557319774224,-0.9958819150924683,-0.035635918378829956,0.08336421847343445,0.5346587300300598,0.1916857808828354,0.346038818359375
1.055243968963623,0.06163311004638672,0.4558704197406769,-0.623977541923523,0.026628574324052946,-1.6494575057926995,2.772745671499865,-0.996554434299469,-0.02662542834877968,0.0785522311925888,0.8231605887413025,0.3381751477718353,0.44367530941963196
1.075510025024414,-0.037928760051727295,0.45086705684661865,-0.5682700872421265,0.015610725166922102,-1.6414991368519483,2.7896253752627205,-0.9973803758621216,-0.015610091388225555,0.07063533365726471,0.9160072803497314,0.5002183318138123,0.5233786702156067
1.0953490734100342,-0.1754472851753235,0.4173183739185333,-0.4797956943511963,0.0031948554336399073,-1.6289485928079275,2.8058534153923627,-0.9983047246932983,-0.0031948499381542206,0.05811920762062073,0.7122780084609985,0.794517993927002,0.6250405311584473
1.1150941848754883,-0.27996325492858887,0.3602270483970642,-0.3437570333480835,-0.011919840284964447,-1.6106422732763506,2.8139417469263583,-0.9991352558135986,0.011919558048248291,0.039832573384046555,0.1618770956993103,1.0123355388641357,0.8725791573524475
1.1353192329406738,-0.4098713994026184,0.33548861742019653,-0.2996366024017334,-0.03184158047399297,-1.5883689233074092,2.8141181439255556,-0.9993388652801514,0.03183620050549507,0.017562786117196083,0.022517859935760498,1.2307344675064087,1.0852912664413452
1.1537952423095703,-0.45456141233444214,0.4114215672016144,-0.30505967140197754,-0.0537685229975597,-1.5621838798725756,2.8172498718994623,-0.9985180497169495,0.05374261736869812,-0.008599895983934402,0.32774850726127625,1.3541603088378906,1.0860047340393066
1.1754131317138672,-0.3578847050666809,0.42990025877952576,-0.24287688732147217,-0.07600176302998807,-1.5336197138517131,2.8264580793878413,-0.9964244961738586,0.07592861354351044,-0.03706076368689537,0.47970646619796753,1.443387508392334,1.1946214437484741
1.1947600841522217,-0.3159456253051758,0.3164215087890625,-0.08532708883285522,-0.10227477327606642,-1.5017469892723023,2.8350174263710572,-0.9924041032791138,0.1020965650677681,-0.06863395869731903,0.18071246147155762,1.6412816047668457,1.44576895236969
1.2143640518188477,-0.33557045459747314,0.17571380734443665,0.02973175048828125,-0.1337514060316176,-1.4671400733408955,2.8377031451998693,-0.9857492446899414,0.13335298001766205,-0.10254660993814468,-0.157404363155365,1.7629473209381104,1.707918643951416
1.234571933746338,-0.3119469881057739,0.12972721457481384,0.051978543400764465,-0.1701031766140333,-1.4325886994501742,2.838473377728505,-0.9761695265769958,0.16928403079509735,-0.1357797086238861,-0.1439356505870819,1.6664167642593384,1.8873884677886963
1.2545900344848633,-0.29698485136032104,0.1456281691789627,0.05727668106555939,-0.20757432114713695,-1.399607219616797,2.8452028756516072,-0.9642304182052612,0.2060869038105011,-0.16669732332229614,0.2643885314464569,1.5153930187225342,1.90706205368042
1.2734999656677246,-0.295437216758728,0.11535592377185822,0.0966838002204895,-0.2424035286311345,-1.3659035350545772,2.8629032814311746,-0.950458288192749,0.24003657698631287,-0.19751375913619995,0.7786480784416199,1.4867818355560303,1.8532832860946655
1.2943940162658691,-0.24374020099639893,0.03167298436164856,0.17245382070541382,-0.27424195266544193,-1.3290337103301721,2.89112933767507,-0.9346351623535156,0.2708173096179962,-0.23046766221523285,1.1571217775344849,1.471549391746521,1.8701378107070923
1.314249038696289,-0.19694900512695312,-0.0430072546005249,0.23784294724464417,-0.30368066866718374,-1.2894691540585292,2.9273470242440376,-0.9167290329933167,0.2990344762802124,-0.2649271786212921,1.4118322134017944,1.4566900730133057,1.8763210773468018
1.3341960906982422,-0.17294079065322876,-0.10583961009979248,0.3034500479698181,-0.3306584993199955,-1.248242112806413,2.9677514247347108,-0.8970513343811035,0.32466593384742737,-0.29981836676597595,1.430859923362732,1.415334701538086,1.8380118608474731
1.3546099662780762,-0.15827322006225586,-0.19554674625396729,0.34923505783081055,-0.3556456671798607,-1.2067837739430658,3.0080588682884764,-0.8759981393814087,0.3481957018375397,-0.3337472677230835,1.2698038816452026,1.3782709836959839,1.7999783754348755
1.3740510940551758,-0.14448976516723633,-0.26725342869758606,0.3982524871826172,-0.38014920182874234,-1.1664052725066536,3.044212655861598,-0.8537097573280334,0.37105903029441833,-0.3653697371482849,0.9280430674552917,1.3624078035354614,1.7307462692260742
1.394021987915039,-0.1276254653930664,-0.3038290739059448,0.4346330761909485,-0.4046569127883348,-1.1285353411878742,3.0733711074077186,-0.8307944536209106,0.3937034010887146,-0.3934190273284912,0.5162680149078369,1.3228678703308105,1.6118687391281128
1.4140782356262207,-0.11307841539382935,-0.320468544960022,0.48281681537628174,-0.4292478289669793,-1.0937413529149256,3.0944666296660857,-0.8077591061592102,0.41618698835372925,-0.41750913858413696,0.14431340992450714,1.3257732391357422,1.45163094997406
1.433894157409668,-0.09123092889785767,-0.3640629053115845,0.5208104848861694,-0.45351630390857767,-1.061170325165265,3.1098207920107614,-0.7846847176551819,0.43812909722328186,-0.43853503465652466,-0.050209034234285355,1.2705817222595215,1.3450549840927124
1.4536471366882324,-0.061983585357666016,-0.38003966212272644,0.550302267074585,-0.47653024596530486,-1.0307759670775958,3.1225492284056102,-0.7621436715126038,0.45869874954223633,-0.4568725824356079,-0.12196706980466843,1.1734211444854736,1.2055814266204834
1.4730350971221924,-0.03998410701751709,-0.38397371768951416,0.5751034617424011,-0.49670757194067094,-1.004968998142593,3.1321557820576036,-0.742135763168335,0.47653356194496155,-0.47132837772369385,-0.2011725753545761,0.9654808044433594,0.9526328444480896
1.492746114730835,-0.031645894050598145,-0.41944393515586853,0.583906352519989,-0.513176052096059,-0.9848411483891336,3.1385261632776595,-0.7258615493774414,0.4909466505050659,-0.48176395893096924,-0.22753788530826569,0.725854218006134,0.7411759495735168
1.513714075088501,-0.016011595726013184,-0.45685726404190063,0.587357223033905,-0.5263778179555959,-0.9711209512178014,-3.140956105474711,-0.7137705683708191,0.5024048089981079,-0.48797664046287537,-0.22149625420570374,0.47033533453941345,0.5153192281723022
1.532444953918457,0.009087026119232178,-0.4642018675804138,0.5617732405662537,-0.5349466806895768,-0.9642566460009939,-3.139583923501399,-0.706840991973877,0.5097951889038086,-0.4903925955295563,-0.1481781154870987,0.12431072443723679,0.2513025403022766
1.5537941455841064,0.02035844326019287,-0.4298957586288452,0.5248923301696777,-0.5370003056202808,-0.9650096047090655,-3.139340733664632,-0.7063478827476501,0.5115607976913452,-0.48926302790641785,0.06537067890167236,-0.20507951080799103,-0.07422026991844177
1.5736122131347656,0.006743490695953369,-0.417205274105072,0.5028802752494812,-0.5315098369508022,-0.9720746874776977,-3.139084571476929,-0.7120963931083679,0.5068354606628418,-0.48583611845970154,0.2451726198196411,-0.5186929702758789,-0.3526584208011627
1.5950779914855957,-0.04002797603607178,-0.4352383017539978,0.48444581031799316,-0.5208484731335499,-0.9855969629339308,-3.13982269425315,-0.7230641841888428,0.4976162910461426,-0.4791204631328583,0.2792375683784485,-0.7894624471664429,-0.5608378052711487
1.61246919631958,-0.15199130773544312,-0.4120807349681854,0.4572954773902893,-0.5069245084619499,-1.0047207892609635,3.13973728077098,-0.7378708720207214,0.4854908287525177,-0.46887680888175964,0.20395033061504364,-0.9315837621688843,-0.7904000282287598
1.6335339546203613,-0.2612755298614502,-0.39697784185409546,0.4498695731163025,-0.49066431616260003,-1.0285460390049272,3.130536606444928,-0.7554939985275269,0.4712119400501251,-0.4551795423030853,-0.1046590507030487,-0.9606335759162903,-1.0379585027694702
1.653162956237793,-0.30463939905166626,-0.4221947193145752,0.4641312062740326,-0.474053496342719,-1.056780096071626,3.1103884129404444,-0.774752140045166,0.45649653673171997,-0.43745872378349304,-0.6056740283966064,-0.9980531334877014,-1.2626615762710571
1.6724109649658203,-0.2985875606536865,-0.3921625018119812,0.3789617121219635,-0.45836894245458143,-1.0942390859481537,3.0818254323539023,-0.7968562245368958,0.4424860179424286,-0.41137129068374634,-0.818317174911499,-1.481918454170227,-1.3202366828918457
1.6931419372558594,-0.5850790739059448,-0.24314641952514648,0.2920501232147217,-0.440024891450219,-1.1387316677967942,3.0524361171894876,-0.8215981721878052,0.425961971282959,-0.37885725498199463,-0.7594681978225708,-1.6074097156524658,-1.5902814865112305
1.7130632400512695,-0.9225254654884338,-0.14547115564346313,0.4031312167644501,-0.41002228545340874,-1.1809616062922246,3.017368978295463,-0.8483028411865234,0.398629754781723,-0.3485351502895355,-1.077019453048706,-1.10594642162323,-2.4621002674102783
1.7329401969909668,-0.564739465713501,-0.15867257118225098,0.3541753888130188,-0.37194730085317496,-1.2191796668951231,2.969298229761787,-0.8746222257614136,0.3634302616119385,-0.32086536288261414,-1.6180757284164429,-1.0485255718231201,-2.4997968673706055
1.7532861232757568,-0.15270870923995972,-0.0722862184047699,0.09914344549179077,-0.34011233574345123,-1.261385178466357,2.9236912695227923,-0.8979505896568298,0.3335929811000824,-0.2870553731918335,-1.225234866142273,-1.6032896041870117,-1.940997838973999
1.7728850841522217,-0.22329121828079224,0.10501667857170105,-0.11075156927108765,-0.3087393965858801,-1.3045535738067682,2.8960325498071087,-0.9191497564315796,0.3038578927516937,-0.2506680190563202,-0.4094493091106415,-1.766966462135315,-1.9571374654769897
1.7919559478759766,-0.33505332469940186,0.1431531310081482,-0.11176246404647827,-0.2698386055131843,-1.3425936915875998,2.8806142090111293,-0.9388267993927002,0.2665758728981018,-0.21804088354110718,-0.1986510008573532,-1.5968561172485352,-2.089418888092041
1.8128020763397217,-0.2653600573539734,0.08206692337989807,-0.09201890230178833,-0.23388721039081867,-1.3774188305871122,2.865461428865558,-0.9546412825584412,0.231760635972023,-0.1869421899318695,-0.5181974172592163,-1.5279171466827393,-1.7180863618850708
1.8319730758666992,-0.24336063861846924,0.06075187027454376,-0.09105892479419708,-0.20558592246806415,-1.4112518356635888,2.8451871676875973,-0.9665089845657349,0.2041407823562622,-0.15552301704883575,-0.9665930271148682,-1.3632475137710571,-1.455356478691101
1.852510929107666,-0.26960158348083496,0.1274854838848114,-0.09715397655963898,-0.18043788395027424,-1.4408411886459833,2.8173278401314352,-0.9754700660705566,0.17946036159992218,-0.12748582661151886,-1.3032716512680054,-1.1305876970291138,-1.476255178451538
1.8742620944976807,-0.1802414059638977,0.21947380900382996,-0.17741751670837402,-0.15435313623041397,-1.4673524672547156,2.7835931574752077,-0.9828293919563293,0.15374095737934113,-0.10203185677528381,-1.7213751077651978,-1.0253589153289795,-1.4945504665374756
1.8945770263671875,-0.03752988576889038,0.23555342853069305,-0.29867929220199585,-0.1272161829499961,-1.4957526042532543,2.7496332330781637,-0.9891272783279419,0.12687331438064575,-0.0743674486875534,-1.225713849067688,-1.3293590545654297,-1.4824247360229492
1.9121060371398926,0.10943537950515747,0.3948051333427429,-0.2933809757232666,-0.09959162636337837,-1.523701536305714,2.7291380016902447,-0.9939418435096741,0.09942707419395447,-0.04684412106871605,-0.6304804086685181,-1.167372703552246,-1.4013636112213135
1.9312450885772705,0.15545260906219482,0.43275341391563416,-0.4318235516548157,-0.0711059457405838,-1.5475573344164604,2.725796815488477,-0.9972037076950073,0.07104603946208954,-0.023178182542324066,0.39743855595588684,-1.1925873756408691,-1.4692970514297485
1.9529740810394287,0.19587105512619019,0.520687460899353,-0.5213477611541748,-0.04148871641734015,-1.5709345977129767,2.739957323168272,-0.9991394877433777,0.041476815938949585,0.000138151939609088,0.9429717659950256,-1.2253682613372803,-1.4958174228668213
1.9721369743347168,0.17848771810531616,0.49354976415634155,-0.5325337648391724,-0.011028111806032475,-1.5946517038888097,2.758159862716777,-0.9996549487113953,0.011027888394892216,0.0238516703248024,0.760445237159729,-1.171758770942688,-1.5555027723312378
1.9923651218414307,0.14204132556915283,0.42417585849761963,-0.5586130619049072,0.01847623816268072,-1.6160202051117791,2.771227472337217,-0.9988071322441101,-0.018475186079740524,0.04520075023174286,0.49827703833580017,-0.9572984576225281,-1.3953791856765747
2.0120761394500732,0.15604573488235474,0.49713343381881714,-0.5848405361175537,0.04312154858109347,-1.6322188918939684,2.781218638199684,-0.9971866011619568,-0.04310818761587143,0.061326902359724045,0.37718525528907776,-0.6572532057762146,-1.153287410736084
2.0321381092071533,0.1908665895462036,0.5709831714630127,-0.5977568626403809,0.06420660579970479,-1.6434064711536491,2.7901318172431524,-0.9953099489212036,-0.06416250020265579,0.07239687442779541,0.38802486658096313,-0.41862985491752625,-0.976616382598877
2.0510261058807373,0.2596951127052307,0.5734192132949829,-0.5785331726074219,0.07933124141473868,-1.650135100359856,2.8001561748802906,-0.993719220161438,-0.07924805581569672,0.07900630682706833,0.5309187173843384,-0.19315777719020844,-0.6029965281486511
2.071986198425293,0.2961346507072449,0.5387783050537109,-0.5135518312454224,0.08678453878045882,-1.6532636953662163,2.8126554550994447,-0.9928510785102844,-0.08667564392089844,0.0820639356970787,0.634364664554596,-0.053678978234529495,-0.26528340578079224
2.0920910835266113,0.2777367830276489,0.4665648341178894,-0.4558457136154175,0.08941036944106666,-1.655760748605759,2.824997809434856,-0.9924127459526062,-0.0892912894487381,0.0845232605934143,0.5744321942329407,-0.09810245782136917,-0.13771508634090424
2.1118581295013428,0.20599383115768433,0.39958226680755615,-0.4105405807495117,0.09076213462725465,-1.6585683697977172,2.8377285732064825,-0.9920503497123718,-0.09063757210969925,0.08729858696460724,0.7306702733039856,-0.035493940114974976,-0.12468050420284271
2.130970001220703,0.14889204502105713,0.4007488787174225,-0.38225674629211426,0.09202557868729905,-1.6593844140926473,2.8564436944202547,-0.9918640851974487,-0.09189574420452118,0.08809792250394821,1.145575761795044,0.10353469848632812,-0.148604154586792
2.1508989334106445,0.15030699968338013,0.4028846025466919,-0.34000682830810547,0.09289856537666441,-1.659039479005915,2.88123116301656,-0.9918140172958374,-0.09276500344276428,0.08774867653846741,1.262139916419983,0.16452844440937042,-0.18845237791538239
2.1709489822387695,0.14797967672348022,0.3446149528026581,-0.24894845485687256,0.09518590006864995,-1.6573720559060623,2.9067979145942915,-0.9917450547218323,-0.09504222869873047,0.08607621490955353,1.2097522020339966,0.2563689053058624,-0.23860545456409454
2.1915531158447266,0.11152279376983643,0.3243218660354614,-0.1800537109375,0.09780845144121675,-1.6533306451861276,2.929105345417201,-0.9918328523635864,-0.09765257686376572,0.08204662799835205,0.950423002243042,0.34775421023368835,-0.21063615381717682
2.2116012573242188,0.024833321571350098,0.28772419691085815,-0.03883790969848633,0.10039277226089091,-1.647863733709834,2.9440372510903083,-0.9920117855072021,-0.10022421926259995,0.0766034945845604,0.46359193325042725,0.42442312836647034,-0.17701959609985352
2.2318601608276367,-0.18891644477844238,0.23234696686267853,0.0920335128903389,0.10482278500304942,-1.6330140020326254,2.9495735985769724,-0.9925870895385742,-0.10463092476129532,0.06183627247810364,0.15779921412467957,1.129446268081665,-0.3314245939254761
2.2515950202941895,-0.0163915753364563,0.16030773520469666,0.14620375633239746,0.11045284465063272,-1.6066578623743761,2.9520244632738293,-0.9932673573493958,-0.11022839695215225,0.03563537076115608,0.10108374804258347,1.4272198677062988,-0.14771495759487152
2.271219253540039,0.4405698776245117,0.10286527127027512,0.21082735061645508,0.10731306502450083,-1.5816197449884666,2.957797165538137,-0.9941893219947815,-0.10710721462965012,0.01076094713062048,0.5055617094039917,1.0466639995574951,0.4678211808204651
2.291476249694824,0.5120447874069214,0.013036109507083893,0.2719966173171997,0.09372442923684836,-1.57087970607977,2.9721826124053723,-0.995611310005188,-0.09358727186918259,8.301335765281692e-05,0.9285017848014832,0.2113012969493866,0.8338441848754883
2.3122260570526123,0.12840163707733154,0.01637566089630127,0.3954882025718689,0.07435124235441405,-1.5702500103751287,2.991563834960773,-0.9972371459007263,-0.07428275793790817,-0.0005448070587590337,0.8378301858901978,0.22494786977767944,1.0411571264266968
2.332714080810547,-0.38728225231170654,0.049538757652044296,0.6680181622505188,0.058651357164843446,-1.559405153595791,3.0033960021100734,-0.998215913772583,-0.058617737144231796,-0.011371342465281487,0.3880334496498108,0.8715876936912537,0.5148546695709229
2.351231098175049,-0.007867991924285889,-0.20896825194358826,0.663779079914093,0.045961245651013914,-1.5434750164237239,3.010630099355174,-0.9985713362693787,-0.04594506695866585,-0.027289068326354027,0.40994593501091003,0.5716171264648438,0.8965873718261719
2.372704029083252,0.3424391746520996,-0.3520829677581787,0.47992342710494995,0.026368559016511903,-1.5399693694097456,3.0255191622299757,-0.9991774559020996,-0.026365503668785095,-0.030811360105872154,1.0864113569259644,-0.09604471921920776,0.9852073788642883
2.3909051418304443,0.25278252363204956,-0.14876750111579895,0.1941789984703064,0.010671786492628921,-1.5443527379749913,3.057245365276662,-0.9995935559272766,-0.0106715839356184,-0.02643900364637375,2.030611276626587,-0.24338090419769287,0.6576864719390869
2.410950183868408,0.22776269912719727,0.028938250616192818,0.1616719365119934,0.00295254828517397,-1.550083644682132,3.098146854661893,-0.9997813105583191,-0.002952544018626213,-0.02071111463010311,1.7381542921066284,-0.2789291441440582,0.2319863885641098
2.4313180446624756,0.26412200927734375,-0.25904616713523865,0.37190306186676025,-0.0013252005924099376,-1.5529421271369928,3.116872229776448,-0.9998399019241333,0.0013252001954242587,-0.017853237688541412,0.1272377222776413,0.004453744739294052,0.32597818970680237
2.4509129524230957,0.24888861179351807,-0.49540311098098755,0.34378236532211304,-0.010280588121817638,-1.5521615364558197,3.1088939559316557,-0.9997737407684326,0.010280407033860683,-0.018632730469107628,-0.8012799024581909,0.049818649888038635,0.542372465133667
2.4714531898498535,0.22842460870742798,-0.17835578322410583,0.27176374197006226,-0.02383228886899119,-1.5491469062631118,3.0942295546128022,-0.9994819760322571,0.023830031976103783,-0.02164158783853054,-0.5829137563705444,0.2713589370250702,0.7712143063545227
2.4908809661865234,0.19761532545089722,-0.02425200492143631,0.1806020736694336,-0.03779555021968279,-1.5465314842424258,3.088689285083696,-0.9989917874336243,0.03778655081987381,-0.024245137348771095,0.05414241924881935,-0.04783697798848152,0.566238284111023
2.5108871459960938,0.19971966743469238,-0.06722356379032135,0.16134071350097656,-0.04806178502640137,-1.54974972015878,3.0928827122484885,-0.9986240863800049,0.04804328456521034,-0.02102075144648552,0.20826564729213715,-0.28978782892227173,0.48417630791664124
2.530959129333496,0.06395745277404785,-0.13121002912521362,0.13540613651275635,-0.056854060265286506,-1.5555586129728478,3.094942461059464,-0.9982684254646301,0.05682343617081642,-0.01521250605583191,-0.09162533283233643,-0.23512999713420868,0.4123443365097046
2.55086612701416,-0.07581353187561035,-0.10978066176176071,0.17463231086730957,-0.06554657360144774,-1.5574968903928479,3.0892277508909562,-0.9977644681930542,0.06549964845180511,-0.013270487077534199,-0.45510125160217285,0.12866881489753723,0.4574800729751587
2.5708842277526855,-0.18760758638381958,-0.126807302236557,0.22409218549728394,-0.07625253062381664,-1.5511442162843663,3.0796146080811746,-0.9969016909599304,0.0761786550283432,-0.019593743607401848,-0.464794784784317,0.4883172810077667,0.6426961421966553
2.5919411182403564,-0.2137419581413269,-0.12018636614084244,0.22898399829864502,-0.09132156541192155,-1.541132120760436,3.0718722928820292,-0.9953950047492981,0.09119468927383423,-0.02953626587986946,-0.2978553771972656,0.5865544080734253,0.7728612422943115
2.610887050628662,-0.20107096433639526,-0.15969541668891907,0.2556416988372803,-0.1054780851802846,-1.5285457470733526,3.0677442956861523,-0.9935550093650818,0.10528261214494705,-0.042003270238637924,-0.25765156745910645,0.7207707762718201,0.6280707120895386
2.630918025970459,-0.12170553207397461,-0.23746749758720398,0.26055800914764404,-0.11610034716971064,-1.5156653423557096,3.061955505220273,-0.9917589426040649,0.11583969742059708,-0.05473210662603378,-0.30192750692367554,0.5276983976364136,0.3827648162841797
2.650883197784424,-0.06452357769012451,-0.32747089862823486,0.1532142162322998,-0.12243907208390076,-1.5113252661242538,3.059326222506645,-0.9907592535018921,0.12213338166475296,-0.05899106711149216,0.08392491936683655,-0.030047684907913208,0.27955514192581177
2.670880079269409,-0.18272918462753296,-0.3073561489582062,0.0900161936879158,-0.12671043338147983,-1.5150643417832437,3.064531585249228,-0.9904428124427795,0.12637163698673248,-0.05525656417012215,0.3755921423435211,-0.3447761535644531,0.14190040528774261
2.6908791065216064,-0.35650235414505005,-0.2201714664697647,0.12302077561616898,-0.1270068055472007,-1.5199918725317207,3.0737554757295174,-0.9906656742095947,0.1266656219959259,-0.05037357658147812,0.48192164301872253,-0.2406618297100067,-0.051657386124134064
2.71087908744812,-0.4056059718132019,-0.18698370456695557,0.14017969369888306,-0.12496129991363768,-1.5215675755275666,3.08359337075791,-0.9910005927085876,0.12463633716106415,-0.04882517084479332,0.5084299445152283,-0.10014660656452179,-0.06250161677598953
2.7308781147003174,-0.3949357867240906,-0.2241169810295105,0.14270669221878052,-0.12447789484432405,-1.5210530755542293,3.093452559527557,-0.9910354018211365,0.12415668368339539,-0.049338024109601974,0.47315695881843567,0.024893950670957565,0.0621369294822216
2.7508981227874756,-0.43614375591278076,-0.25448107719421387,0.15717118978500366,-0.12576882223281433,-1.5192132355919463,3.1011306397644494,-0.9907822012901306,0.12543751299381256,-0.05115298554301262,0.26268863677978516,0.06291288137435913,0.09112264215946198
2.7709121704101562,-0.445354700088501,-0.2560381293296814,0.18710964918136597,-0.12739999599533613,-1.5168294289968793,3.105058580297119,-0.9904518127441406,0.12705564498901367,-0.05350356176495552,0.13093934953212738,0.1273345798254013,0.1088373139500618
2.790950059890747,-0.3677713871002197,-0.256989985704422,0.19995343685150146,-0.12977522970036495,-1.514166124212877,3.1074412381283856,-0.9900014400482178,0.1294112652540207,-0.056123990565538406,0.0985972061753273,0.10924398899078369,0.14417506754398346
2.8109989166259766,-0.293792188167572,-0.257379949092865,0.19359779357910156,-0.13230788663482299,-1.5130760121666755,3.1081049001651633,-0.9896093606948853,0.13192221522331238,-0.05718408152461052,-0.01692093349993229,0.019807932898402214,0.07919041067361832
2.8309340476989746,-0.2764146327972412,-0.22999970614910126,0.16356045007705688,-0.13216330577484325,-1.5132394109227287,3.1085679269441573,-0.9896376132965088,0.13177889585494995,-0.05702347308397293,0.06866737455129623,-0.06620684266090393,-0.10458634048700333
2.850879192352295,-0.23673474788665771,-0.16447216272354126,0.09737487137317657,-0.12840196779691138,-1.5166816098983908,3.109461136937342,-0.9903159737586975,0.12804943323135376,-0.05364304035902023,-0.0014942656271159649,-0.3307582437992096,-0.27190569043159485
2.8709490299224854,-0.228624165058136,-0.20016580820083618,0.09334248304367065,-0.12197687486411998,-1.5246719063138916,3.1048638601070024,-0.9915144443511963,0.12167462706565857,-0.04576548933982849,-0.48294153809547424,-0.3157428205013275,-0.3947528898715973
2.890876054763794,-0.285683274269104,-0.22841939330101013,0.1357572078704834,-0.11359705450052576,-1.5300104854806633,3.0900748361658312,-0.9927287101745605,0.11335289478302002,-0.04051174223423004,-0.8542201519012451,-0.04729928821325302,-0.48469749093055725
2.910949230194092,-0.22821617126464844,-0.17825567722320557,0.08250981569290161,-0.10588261719775574,-1.5314829327923838,3.073713234972196,-0.9936314821243286,0.10568488389253616,-0.03908316418528557,-0.7018968462944031,0.011810638010501862,-0.32714152336120605
2.9308741092681885,-0.15727394819259644,-0.06687287986278534,0.03565627709031105,-0.10133273840895754,-1.5340891570763289,3.0615762421344637,-0.9942001104354858,0.10115940868854523,-0.03651067242026329,-0.4861588478088379,-0.1364876627922058,-0.20172558724880219
2.950982093811035,-0.13942664861679077,-0.04506804794073105,0.017134249210357666,-0.09748371458914946,-1.5393169144228662,3.053861764805903,-0.9947592616081238,0.09732938557863235,-0.03132478520274162,-0.23576578497886658,-0.35393449664115906,-0.19801367819309235
2.9708619117736816,-0.13666343688964844,0.014398530125617981,0.012340128421783447,-0.09424616535391613,-1.5489735822240944,3.0526468514733214,-0.9953252077102661,0.09410670399665833,-0.02172417752444744,0.0946054756641388,-0.5673096776008606,-0.13413110375404358
2.9908699989318848,-0.2210032343864441,0.042265884578228,0.06764745712280273,-0.09120705683528178,-1.5607854498386171,3.055400934258943,-0.9957935810089111,0.09108065813779831,-0.00996910035610199,0.15933959186077118,-0.5986091494560242,-0.13410380482673645
3.010869026184082,-0.32867342233657837,-0.030878767371177673,0.09687316417694092,-0.08960763059193752,-1.571291560231032,3.0591879074504695,-0.9959878325462341,0.08948776125907898,0.0004932465380989015,0.23558564484119415,-0.4969976544380188,-0.013720442540943623
3.0308690071105957,-0.43610966205596924,-0.008857809007167816,0.10161185264587402,-0.09034050589096543,-1.5797712854336416,3.0626885184716066,-0.9958822131156921,0.09021767228841782,0.008938241750001907,0.13827404379844666,-0.3822117745876312,0.07572942972183228
3.050868034362793,-0.5047578811645508,-0.0025023818016052246,0.09719300270080566,-0.09201818611551679,-1.5869844260022326,3.0659300674570047,-0.9956390857696533,0.09188838303089142,0.016118912026286125,0.17951257526874542,-0.34148579835891724,0.14665654301643372
3.070868968963623,-0.4668794870376587,-0.004545815289020538,0.08888101577758789,-0.09718221989944091,-1.5944099707633936,3.0698607316789066,-0.9950041770935059,0.09702932089567184,0.023500042036175728,0.21912209689617157,-0.47223469614982605,0.33815231919288635
3.090865135192871,-0.44187450408935547,-0.002463124692440033,0.1087784692645073,-0.10518074182887122,-1.6038078869316732,3.0726342423036743,-0.9939317107200623,0.10498691350221634,0.03282316029071808,0.08785582333803177,-0.44609832763671875,0.449251264333725
3.110898971557617,-0.4812237620353699,0.04544346034526825,0.13991737365722656,-0.11424402768288809,-1.6108689899578879,3.0741516028803724,-0.9926839470863342,0.11399567872285843,0.039800796657800674,0.1319270133972168,-0.29117000102996826,0.4499477744102478
3.1308822631835938,-0.482618510723114,0.11615349352359772,0.09011220932006836,-0.12337132292051776,-1.6164534723256094,3.0793751690192033,-0.9913654923439026,0.12305860221385956,0.045294396579265594,0.4404887557029724,-0.39410996437072754,0.49389177560806274
3.1508660316467285,-0.42029672861099243,0.045328184962272644,0.0689002275466919,-0.1362453056853992,-1.6263714240779579,3.0864366960585,-0.9892035722732544,0.13582418859004974,0.05503175035119057,0.24395491182804108,-0.6757532954216003,0.7515129446983337
3.170896053314209,-0.4596366882324219,-0.01957675814628601,0.0936904028058052,-0.15239866579741748,-1.6417908772300864,3.085126114829338,-0.9859201908111572,0.1518094390630722,0.07011279463768005,-0.24783892929553986,-0.8324253559112549,0.8850696086883545
3.1908650398254395,-0.41206634044647217,-0.04212823510169983,0.12639808654785156,-0.17290178957067606,-1.6575918210431757,3.0774080520714167,-0.9813817143440247,0.17204159498214722,0.08539405465126038,-0.3115469515323639,-0.564099907875061,1.191352128982544
3.2108612060546875,-0.46224159002304077,0.08457361161708832,0.08449757099151611,-0.19400005506979667,-1.667599610920383,3.071080699941975,-0.9766470789909363,0.19278544187545776,0.09483907371759415,-0.05170092359185219,-0.3950146436691284,0.9048624634742737
3.2308621406555176,-0.4217836856842041,0.16269522905349731,-0.007182717323303223,-0.20957842898503237,-1.6766809300364254,3.0715048676451175,-0.972640872001648,0.20804756879806519,0.10337430983781815,0.16837158799171448,-0.5229102969169617,0.7276788949966431
3.2508621215820312,-0.295864999294281,-0.014737546443939209,0.013928152620792389,-0.22524014118058056,-1.687752516361708,3.0694261191558696,-0.9680814743041992,0.22334043681621552,0.11374220997095108,-0.27446871995925903,-0.5035296678543091,0.8350436091423035
3.2708592414855957,-0.29549235105514526,-0.05977395176887512,0.014910921454429626,-0.24080540670739306,-1.699992005590761,3.055158128762867,-0.9630525708198547,0.23848487436771393,0.125119149684906,-0.8552381992340088,-0.4172168970108032,0.8753923177719116
3.290860176086426,-0.239371657371521,0.0075713396072387695,-0.003970995545387268,-0.25592490848762167,-1.712214250538702,3.034004118627647,-0.9577719569206238,0.25314030051231384,0.13635633885860443,-0.9062348008155823,-0.27010616660118103,0.8885575532913208
3.3108582496643066,-0.16379231214523315,0.10789567232131958,-0.029406920075416565,-0.269737753540229,-1.7218815011700803,3.0155584417660957,-0.9528611302375793,0.26647868752479553,0.1450686901807785,-0.6174414753913879,-0.23068243265151978,0.7613871693611145
3.3308560848236084,-0.0333324670791626,0.05488651990890503,-0.04911099374294281,-0.28420550607670625,-1.7295937784726794,3.0029455715507747,-0.9478079080581665,0.28039491176605225,0.15178748965263367,-0.42258915305137634,-0.1988244503736496,0.8729732036590576
3.3508920669555664,0.0357208251953125,-0.015874147415161133,-0.0534052699804306,-0.30046513069758424,-1.7375097905077708,2.990991701029446,-0.9419558048248291,0.2959645390510559,0.15850794315338135,-0.4793904721736908,-0.2170608937740326,0.8605099320411682
3.3708720207214355,0.0046860575675964355,0.05548277497291565,-0.07705153524875641,-0.31403326229098477,-1.7452313949838045,2.977989630210616,-0.9366624355316162,0.3088971674442291,0.16506434977054596,-0.4918663203716278,-0.1512308269739151,0.7318597435951233
3.390867233276367,0.05839425325393677,0.011609107255935669,-0.11028264462947845,-0.32812488914071974,-1.7508221325997768,2.964634138418161,-0.9313497543334961,0.3222685158252716,0.1695021092891693,-0.5229829549789429,-0.014475205913186073,0.8836737275123596
3.4108829498291016,0.08025044202804565,0.024219155311584473,-0.13580501079559326,-0.34390931764509525,-1.7555640076931514,2.949960074126637,-0.9254196286201477,0.3371700644493103,0.17296037077903748,-0.5207606554031372,0.03722482919692993,0.9201277494430542
3.4308762550354004,0.09584629535675049,0.029289662837982178,-0.13850460946559906,-0.3608452528532276,-1.75824081035721,2.9376835389924714,-0.9192107319831848,0.35306516289711,0.17434771358966827,-0.31784239411354065,0.11569700390100479,0.9455288052558899
3.4508891105651855,0.13352727890014648,0.058264702558517456,-0.11390817165374756,-0.37742039772249103,-1.7588101735522348,2.9287369238288656,-0.9132362604141235,0.36852365732192993,0.17375324666500092,-0.21563732624053955,0.16296091675758362,0.8622370362281799
3.470853090286255,0.16264408826828003,-0.02435317635536194,-0.11370979249477386,-0.3940781683030848,-1.7585707881107673,2.9211512901328596,-0.9071206450462341,0.383957177400589,0.17236468195915222,-0.17551161348819733,0.12846596539020538,0.9342485070228577
3.4904260635375977,0.20429766178131104,-0.03730273246765137,-0.10183300077915192,-0.41195426822966974,-1.7597983545859113,2.91346399216941,-0.9000221490859985,0.40040087699890137,0.17216086387634277,-0.1527116894721985,0.04754786565899849,0.9367103576660156
3.5108699798583984,0.16751766204833984,-0.0012898743152618408,-0.09066629409790039,-0.4295886359918024,-1.7615564890028055,2.906380061642511,-0.8926459550857544,0.4164968430995941,0.17237728834152222,-0.17779237031936646,0.10109755396842957,0.917033314704895
3.5309319496154785,0.1436905860900879,-0.0061418116092681885,-0.08527477085590363,-0.44701321205814887,-1.7616176684948879,2.899504226030373,-0.885374903678894,0.4322741627693176,0.17102937400341034,-0.11704105883836746,0.18381506204605103,0.898395299911499
3.5508570671081543,0.18171554803848267,0.009802311658859253,-0.12909220159053802,-0.46318728568962875,-1.7617563552188569,2.893986833373082,-0.8783710598945618,0.4468018114566803,0.16980279982089996,-0.08042191714048386,0.08308091014623642,0.8430423140525818
3.5701260566711426,0.23303890228271484,-0.06843599677085876,-0.09278583526611328,-0.48108177182475004,-1.7611052486874559,2.8899804342407958,-0.8704901933670044,0.46273842453956604,0.1676914095878601,0.0866202563047409,0.2002042531967163,0.98311448097229
3.590823173522949,0.2222881317138672,-0.07683518528938293,-0.07216466963291168,-0.5010233796207506,-1.7547865891568837,2.890397861358264,-0.8622875809669495,0.4803233742713928,0.16046735644340515,0.32009607553482056,0.38367608189582825,0.9579525589942932
3.610880136489868,0.21834242343902588,-0.07008090615272522,-0.12090946733951569,-0.519811657306659,-1.7446313764047903,2.8964371682354924,-0.8548322916030884,0.4967166781425476,0.15011495351791382,0.520502507686615,0.32808294892311096,0.8335615396499634
3.6308491230010986,0.23524689674377441,-0.12869322299957275,-0.08776246011257172,-0.5363149290725692,-1.7343122800202277,2.904907439558771,-0.8481316566467285,0.5109717845916748,0.13993242383003235,0.4728586971759796,0.28534576296806335,0.6556902527809143
3.650887966156006,0.24039125442504883,-0.18789899349212646,-0.04203975200653076,-0.548806957338332,-1.7251346723921113,2.9119609774501343,-0.8430067300796509,0.5216697454452515,0.13115127384662628,0.26382023096084595,0.2586842477321625,0.491201788187027
3.6708500385284424,0.284087598323822,-0.21772199869155884,-0.009177565574645996,-0.557854973344917,-1.7201900194974256,2.914341532379523,-0.8389430642127991,0.5293675661087036,0.12627361714839935,0.17065197229385376,0.14313624799251556,0.41729122400283813
3.6908481121063232,0.2649872303009033,-0.18915098905563354,-0.02398204803466797,-0.565943245723329,-1.7150598889092077,2.9195878777464745,-0.8353151082992554,0.5362122058868408,0.121348537504673,0.4110751152038574,0.06937184929847717,0.2640584111213684
3.710844039916992,0.21460676193237305,-0.1004418134689331,0.0008437484502792358,-0.5696960863726611,-1.707666708096869,2.930739129370774,-0.8341898918151855,0.5393761396408081,0.11489424109458923,0.534884512424469,0.09982944279909134,-0.017200501635670662
3.7308521270751953,0.19134128093719482,-0.12842434644699097,0.012274973094463348,-0.5690957295656082,-1.6987117379867787,2.944037942477512,-0.8355063796043396,0.5388705134391785,0.1074608862400055,0.5477030277252197,0.04359493404626846,-0.1432572454214096
3.750843048095703,0.19317835569381714,-0.14927458763122559,-0.0055174678564071655,-0.5685967392717284,-1.691718682339047,2.956812802436143,-0.8365043997764587,0.5384501218795776,0.1016480103135109,0.4256661534309387,-0.024913908913731575,-0.06868299096822739
3.770923137664795,0.08506947755813599,-0.07288569211959839,-0.01863144338130951,-0.5674342573548429,-1.687864239876293,2.9661530609103,-0.8375111222267151,0.5374701619148254,0.09849604964256287,0.3217555582523346,-0.01057047862559557,-0.06706666201353073
3.7908430099487305,0.00589907169342041,-0.052524685859680176,-0.005005478858947754,-0.5666132189162688,-1.6839616519603255,2.9729035624219344,-0.838327169418335,0.5367776155471802,0.09527663141489029,0.23173917829990387,0.045820094645023346,-0.07038567215204239
3.8108761310577393,0.0025183558464050293,-0.011218369007110596,0.002758495509624481,-0.566178285806185,-1.6795128900839096,2.9794620984052655,-0.8389747142791748,0.5364106297492981,0.09157150238752365,0.34988245368003845,0.03330456465482712,-0.018028011545538902
3.8308510780334473,-0.020279347896575928,-0.007333934307098389,-0.010681390762329102,-0.5671808392731086,-1.6738660601978814,2.989267743137747,-0.8389431834220886,0.5372564792633057,0.08677715808153152,0.450456440448761,-0.011455890722572803,0.03283653408288956
3.850877046585083,-0.0962638258934021,-0.00860673189163208,-0.03738497942686081,-0.5687994129367951,-1.66787620841439,3.001417873843362,-0.838581383228302,0.5386208891868591,0.08166609704494476,0.6066307425498962,-0.028924541547894478,0.016176974400877953
3.870840072631836,-0.12087476253509521,0.0018561482429504395,-0.07592105865478516,-0.5700912085579509,-1.6597741094590088,3.017193208604854,-0.8385217189788818,0.5397088527679443,0.07480732351541519,0.7198473215103149,0.009258797392249107,0.0227776188403368
3.8908400535583496,-0.060569584369659424,-0.04682350158691406,-0.05465424805879593,-0.5713109450298645,-1.6481625827031634,3.0336360986432243,-0.8386766314506531,0.5407352447509766,0.0650150403380394,0.7023316621780396,0.26815250515937805,-0.04305887222290039
3.910862922668457,-0.05393195152282715,-0.06543761491775513,-0.09968829154968262,-0.5712909326406882,-1.6303132363757313,3.052900050221844,-0.8397144079208374,0.5407184362411499,0.05003629997372627,0.8855885863304138,0.441089928150177,-0.022860053926706314
3.930875062942505,0.019681692123413086,-0.11664938926696777,-0.12170875072479248,-0.5725106829243677,-1.6107685069697635,3.073070646704766,-0.8398723602294922,0.5417441129684448,0.03358941897749901,0.7935172319412231,0.4361036717891693,0.05371391400694847
3.9508631229400635,0.008262455463409424,-0.20518720149993896,-0.14300894737243652,-0.574552716926417,-1.5931608965637511,3.088581884507518,-0.8392258286476135,0.5434593558311462,0.018772054463624954,0.4942006766796112,0.48296433687210083,0.11052407324314117
3.970842123031616,0.04992634057998657,-0.3139023780822754,-0.1373128890991211,-0.5779694610529243,-1.5798679829178501,3.096239723887057,-0.8375394940376282,0.5463243126869202,0.0075980788096785545,0.1346513032913208,0.48081299662590027,0.20297250151634216
3.990878105163574,0.0846022367477417,-0.24641919136047363,-0.039340317249298096,-0.5778678998734478,-1.5670658557853876,3.096410176447488,-0.8376237154006958,0.5462392568588257,-0.0031247453298419714,-0.018656261265277863,0.8194204568862915,-0.29575681686401367
4.010836124420166,0.03298991918563843,-0.22341632843017578,-0.1836303472518921,-0.569465273982823,-1.5447651641587428,3.1063276355027494,-0.8419042229652405,0.5391817688941956,-0.021920695900917053,0.7658747434616089,0.9402556419372559,-0.3656764030456543
4.030835151672363,0.16456472873687744,-0.29257094860076904,-0.07177811861038208,-0.5597139703874778,-1.5158681329262722,3.125415833628155,-0.846129298210144,0.5309438109397888,-0.04652315378189087,0.9450081586837769,0.8907275199890137,-0.6129888892173767
4.050869941711426,0.1147223711013794,-0.29206597805023193,-0.07829701155424118,-0.5438189443159481,-1.4845880955421413,-3.13363924060017,-0.8525611758232117,0.5174077749252319,-0.07368040829896927,1.2170675992965698,1.0127710103988647,-0.8047053217887878
4.06993293762207,0.07822877168655396,-0.2826104760169983,-0.05387943238019943,-0.5230026605255531,-1.4507564799344719,-3.1076810353176625,-0.8600891828536987,0.4994836747646332,-0.10374375432729721,1.0908313989639282,1.1060307025909424,-1.0037379264831543
4.090837001800537,0.0945175290107727,-0.2413788139820099,0.08051460981369019,-0.4968447430711419,-1.4196525005479144,-3.094791046512547,-0.8690690398216248,0.47665417194366455,-0.13236388564109802,0.404197096824646,1.3955411911010742,-1.4661883115768433
4.110832214355469,0.0867038369178772,-0.21039658784866333,0.07812297344207764,-0.4639370492088418,-1.3907414139073266,-3.096832633284543,-0.8798405528068542,0.4474724531173706,-0.1601540893316269,-0.045478448271751404,1.5591129064559937,-1.722354769706726
4.130832195281982,0.13857269287109375,-0.2417949140071869,0.07436341047286987,-0.4314144203252424,-1.3665192826435886,-3.1112727701205243,-0.8894883394241333,0.41815605759620667,-0.1842723786830902,-0.6403800845146179,1.4752376079559326,-1.7550698518753052
4.15090012550354,0.11782610416412354,-0.22844913601875305,0.05640357732772827,-0.39934945425586377,-1.35071290162381,-3.139892963050382,-0.8990914821624756,0.3888190686702728,-0.20113307237625122,-1.240446925163269,1.255238652229309,-1.9415082931518555
4.170831203460693,0.07855850458145142,-0.12180998921394348,0.08096009492874146,-0.3652926240370761,-1.3414027005842852,3.10250557519017,-0.909552276134491,0.35722261667251587,-0.2123839408159256,-1.6147691011428833,1.2013781070709229,-2.254748821258545
4.190854072570801,0.08664435148239136,-0.01974889636039734,0.1215299516916275,-0.32769087549940934,-1.3344210588650978,3.0556630915898455,-0.9204609394073486,0.32185763120651245,-0.22171905636787415,-1.7718560695648193,1.0641944408416748,-2.377286195755005
4.210830211639404,0.11645501852035522,-0.04303738474845886,0.15864618122577667,-0.2935103986242538,-1.3306460569786478,3.002297671642132,-0.9297637939453125,0.28931427001953125,-0.22767682373523712,-2.8677797317504883,1.2574021816253662,-2.0432755947113037
4.230829238891602,-0.004313647747039795,-0.11582192778587341,0.07344932854175568,-0.2645892952750621,-1.328149031091875,2.932723137447016,-0.9369248151779175,0.2615128755569458,-0.23191171884536743,-2.673043727874756,0.9591408967971802,-2.3835697174072266
4.250854969024658,0.044146597385406494,0.21347248554229736,0.14267082512378693,-0.2397924412029926,-1.3238248306289309,2.8665470200995364,-0.941912829875946,0.23750101029872894,-0.23747359216213226,-2.9091005325317383,1.0992686748504639,-1.3640602827072144
4.270940065383911,0.04969215393066406,0.24478228390216827,-0.0363040566444397,-0.21760920586940197,-1.3219044513159732,2.8174307607813573,-0.9463291764259338,0.21589583158493042,-0.24052080512046814,-1.0971732139587402,0.30886876583099365,-2.7646141052246094
4.290826082229614,-0.08691740036010742,0.7869986891746521,0.009736478328704834,-0.15711309228609144,-1.3291278976789604,2.7914666841903424,-0.9589811563491821,0.1564675122499466,-0.23637521266937256,-0.36344748735427856,-0.21701987087726593,-2.9406425952911377
4.3108649253845215,0.20548522472381592,-0.12058718502521515,0.34874284267425537,-0.118376304631809,-1.3359954490927417,2.7655101944432063,-0.9657544493675232,0.11810003221035004,-0.2310211956501007,-1.1993211507797241,-0.41724494099617004,-1.9029732942581177
4.330826044082642,-0.06533509492874146,0.033744677901268005,0.200382262468338,-0.08686320245761696,-1.3497404025049375,2.725432635846154,-0.9719881415367126,0.08675400912761688,-0.21843335032463074,-1.7496963739395142,-0.41799408197402954,-1.966178059577942
4.350825071334839,-0.16849374771118164,0.5817256569862366,0.0019953250885009766,-0.05356915227703051,-1.3618472973333011,2.6909055404874342,-0.9768463373184204,0.05354353412985802,-0.20713438093662262,-0.9165860414505005,-0.6604394316673279,-2.1219277381896973
4.370858192443848,-0.09723889827728271,0.5120762586593628,-0.06992864608764648,-0.014062524789687293,-1.3795947394465093,2.6691694825744716,-0.9816796779632568,0.014062060974538326,-0.19001996517181396,-0.4800061881542206,-0.9771414399147034,-2.0634307861328125
4.390825033187866,-0.12198132276535034,0.469911128282547,-0.04371665418148041,0.021243285877762235,-1.3989231463724345,2.6540918489349825,-0.9850438833236694,-0.0212416872382164,-0.17098964750766754,-0.4421995282173157,-0.9412456750869751,-1.7229297161102295
4.410851001739502,-0.17514687776565552,0.4609600305557251,-0.056779325008392334,0.05107010962920565,-1.4163586064779048,2.6385685604570988,-0.986810028553009,-0.0510479137301445,-0.15362399816513062,-0.6022031903266907,-0.8662165403366089,-1.4692591428756714
4.430820941925049,-0.12585312128067017,0.5447593331336975,-0.12182623147964478,0.07582255470242201,-1.4327561802530524,2.6226592357643974,-0.9876418709754944,-0.07574992626905441,-0.13720683753490448,-0.5473523736000061,-0.8631119132041931,-1.2443830966949463
4.4508209228515625,-0.09312283992767334,0.5924179553985596,-0.1842668652534485,0.09720965557507902,-1.448333538567176,2.61161171823105,-0.9878251552581787,-0.09705662727355957,-0.12158021330833435,-0.2561649680137634,-0.7978585362434387,-0.9959845542907715
4.470821142196655,-0.06864678859710693,0.574373722076416,-0.24614860117435455,0.11351198521228316,-1.4631250510425857,2.607865392601635,-0.9878109693527222,-0.11326837539672852,-0.1067717969417572,0.04021142050623894,-0.7346386313438416,-0.6722932457923889
4.490866184234619,-0.05749189853668213,0.5570839047431946,-0.2690712809562683,0.1241291106043504,-1.4768866920069765,2.6081492399075072,-0.9879335761070251,-0.12381058931350708,-0.09305017441511154,0.0361003652215004,-0.6393951773643494,-0.402510404586792
4.510821104049683,-0.03376901149749756,0.5263558626174927,-0.2815369963645935,0.12973152862382956,-1.488420198887903,2.6063249861042235,-0.9882342219352722,-0.12936793267726898,-0.08159154653549194,-0.16117820143699646,-0.5285175442695618,-0.1597173660993576
4.530822038650513,0.025939643383026123,0.48873353004455566,-0.29666972160339355,0.12944509242592575,-1.4970317257288341,2.6008513253106162,-0.9889371991157532,-0.12908390164375305,-0.07308115810155869,-0.39267197251319885,-0.4192383885383606,0.13629010319709778
4.550817966461182,0.07979243993759155,0.4564048647880554,-0.304343581199646,0.12294360715585001,-1.5056296159766585,2.591850538250496,-0.9903455376625061,-0.12263412028551102,-0.06462907046079636,-0.47152018547058105,-0.6084850430488586,0.4616071283817291
4.5703630447387695,-0.10241937637329102,0.45850276947021484,-0.3706696033477783,0.11211886262802279,-1.5165845455336178,2.5879180251559073,-0.9922614097595215,-0.11188410967588425,-0.05384501814842224,0.12454574555158615,-0.44358909130096436,0.4996265470981598
4.590839147567749,-0.28610366582870483,0.5439285039901733,-0.44146114587783813,0.10635427297067834,-1.5232012957772623,2.599013269895172,-0.9932239651679993,-0.10615388303995132,-0.04730825126171112,0.9129694104194641,-0.14157359302043915,0.16268156468868256
4.610816955566406,-0.09193509817123413,0.5163030028343201,-0.4090859293937683,0.10323250049175224,-1.5271213761717841,2.621545521142511,-0.9937278628349304,-0.10304924100637436,-0.043428633362054825,1.2233760356903076,-0.022788528352975845,0.33252671360969543
4.63081693649292,-0.049041807651519775,0.3464359641075134,-0.298470675945282,0.09421018518907204,-1.5277697920728617,2.6450356881409407,-0.9946442246437073,-0.09407088905572891,-0.04282252490520477,1.0586934089660645,0.20868811011314392,0.6454022526741028
4.650813102722168,-0.2231314778327942,0.28755682706832886,-0.2536070942878723,0.08013830252918086,-1.5235753382177148,2.666440769960169,-0.9956797361373901,-0.08005255460739136,-0.04705195873975754,1.0768508911132812,0.36834070086479187,0.8428801894187927
4.670814037322998,-0.34371280670166016,0.37314897775650024,-0.259071409702301,0.06345340108270367,-1.5175560858920543,2.6917079070050898,-0.9965734481811523,-0.06341082602739334,-0.05310799926519394,1.387365460395813,0.4090956747531891,0.9118690490722656
4.690813064575195,-0.3832361102104187,0.38087326288223267,-0.17060017585754395,0.04635616032466502,-1.5086544424596284,2.7231725562342564,-0.9969976544380188,-0.04633956030011177,-0.06203518807888031,1.645613431930542,0.6496634483337402,0.9540934562683105
4.710811138153076,-0.3102878928184509,0.308406263589859,-0.05822169780731201,0.02812127273864969,-1.4935960742670822,2.758043207782026,-0.9966275095939636,-0.02811756730079651,-0.07709310948848724,1.6840972900390625,0.9455879330635071,1.118105173110962
4.730987071990967,-0.15930509567260742,0.24984607100486755,-0.01924741268157959,0.006346360349174484,-1.4746135392818405,2.7936509434317167,-0.9953581094741821,-0.0063463179394602776,-0.09603264182806015,1.693968415260315,0.9950711131095886,1.376652479171753
4.750816106796265,-0.06467491388320923,0.20342130959033966,-0.004023134708404541,-0.019785557786131138,-1.4546168650176245,2.8305157377037955,-0.9930644631385803,0.019784266129136086,-0.11589560657739639,1.6858882904052734,1.010983943939209,1.5920815467834473
4.77085018157959,-0.008428096771240234,0.13741962611675262,0.06625385582447052,-0.048298618490876535,-1.43217586534844,2.867620267543078,-0.9892525672912598,0.04827984422445297,-0.13801580667495728,1.663438081741333,1.112281322479248,1.709891438484192
4.79087495803833,0.06429827213287354,0.08319149166345596,0.10889427363872528,-0.07792865268682313,-1.407212501254691,2.9059179548084924,-0.9836558103561401,0.07784979790449142,-0.1623610109090805,1.681392788887024,1.1397713422775269,1.7819573879241943
4.810831069946289,0.10715711116790771,0.074208103120327,0.12999548017978668,-0.10708776615439794,-1.3813398538794064,2.9457158371487053,-0.9764809012413025,0.106883205473423,-0.18724632263183594,1.7088491916656494,1.0669373273849487,1.7894834280014038
4.830817222595215,0.08536458015441895,0.030309423804283142,0.17725569009780884,-0.134786444358279,-1.3544327595086354,2.9858194184820763,-0.967826247215271,0.13437870144844055,-0.21273230016231537,1.5952142477035522,1.1531693935394287,1.7360577583312988
4.850808143615723,0.07202112674713135,-0.06833426654338837,0.23334282636642456,-0.1611172679860194,-1.3260823303662448,3.0225015080078914,-0.9576413631439209,0.16042110323905945,-0.2391410619020462,1.3700217008590698,1.148134708404541,1.6478188037872314
4.870848178863525,0.06877928972244263,-0.11199457943439484,0.23709991574287415,-0.1850862951693468,-1.2978213450544616,3.057084255820123,-0.9465259313583374,0.18403135240077972,-0.2649928331375122,1.339323878288269,1.0525463819503784,1.5341845750808716
4.890827178955078,0.054239511489868164,-0.0709463357925415,0.25884339213371277,-0.20489967955736882,-1.2708701506122808,3.091529701138198,-0.9353736042976379,0.2034689337015152,-0.2892692983150482,1.3647288084030151,0.9778411984443665,1.2903149127960205
4.91080904006958,0.0044522881507873535,-0.0862385630607605,0.28958597779273987,-0.21848099785041428,-1.2438404678414448,3.1265435762599814,-0.9245114922523499,0.216746985912323,-0.3135269284248352,1.4555073976516724,0.9728842973709106,1.0763734579086304
4.930775165557861,-0.00889289379119873,-0.15046493709087372,0.31523096561431885,-0.22816897014546514,-1.217070954224373,-3.1220780642388037,-0.9137756824493408,0.2261943370103836,-0.3374171853065491,1.3919299840927124,0.9040215611457825,0.9223412871360779
4.950809955596924,-0.015369176864624023,-0.19154855608940125,0.34181174635887146,-0.23507424029652685,-1.1926899218695388,-3.090855987604065,-0.9038052558898926,0.23291517794132233,-0.3590083420276642,1.1897480487823486,0.7890039682388306,0.7856244444847107
4.9708051681518555,-0.045673668384552,-0.20041674375534058,0.36197710037231445,-0.2399282633299421,-1.1718935349260133,-3.0649134234057067,-0.8950917720794678,0.23763294517993927,-0.3772816061973572,0.97771817445755,0.6612675786018372,0.6069931387901306
4.990816116333008,-0.07458698749542236,-0.18271952867507935,0.36944955587387085,-0.24274417180720573,-1.1548262150462996,-3.0440304124004167,-0.8879070281982422,0.24036724865436554,-0.3922308385372162,0.8013516068458557,0.5486602783203125,0.4529460668563843
5.010807991027832,-0.1136741042137146,-0.18455229699611664,0.35589706897735596,-0.24381500577053758,-1.1409514074296432,-3.026170525111726,-0.88214510679245,0.24140654504299164,-0.4044046998023987,0.7147817015647888,0.4320608377456665,0.3645464777946472
5.03080415725708,-0.1546427607536316,-0.21282470226287842,0.403868168592453,-0.24475637439469602,-1.128979379960283,-3.0126967689015602,-0.8770344853401184,0.2423199713230133,-0.41483914852142334,0.40890806913375854,0.4351723790168762,0.2652701735496521
5.050804138183594,-0.1935964822769165,-0.26078152656555176,0.4164341688156128,-0.24727198501131228,-1.1197725669895788,-3.0073450626534726,-0.872626781463623,0.24475982785224915,-0.42262914776802063,-0.060244008898735046,0.3568883240222931,0.18225903809070587
5.070887088775635,-0.2407403588294983,-0.2757120132446289,0.42690831422805786,-0.2526182366238798,-1.1139999852386033,-3.01197317158943,-0.8689858317375183,0.2499399483203888,-0.427076131105423,-0.5852742791175842,0.31345951557159424,0.10521039366722107
5.090841054916382,-0.2391359806060791,-0.3265658915042877,0.446117103099823,-0.261086378004343,-1.112379409556301,-3.02669009104582,-0.8663634061813354,0.2581302523612976,-0.4275318384170532,-1.020616888999939,0.22236157953739166,0.016944628208875656
5.11084508895874,-0.1876189112663269,-0.33985933661460876,0.42207062244415283,-0.27035646777886635,-1.1152608584134927,-3.0475365019043927,-0.8654056191444397,0.26707497239112854,-0.42396268248558044,-1.1551681756973267,-0.022191980853676796,-0.0795026421546936
5.130918025970459,-0.19312816858291626,-0.287020742893219,0.3629811704158783,-0.2766348310561329,-1.124717045071553,-3.0687718197213143,-0.8678460121154785,0.2731199860572815,-0.41502878069877625,-0.9304024577140808,-0.3083679974079132,-0.2545569837093353
5.149986267089844,-0.3206371068954468,-0.23639681935310364,0.32722604274749756,-0.27754405050029035,-1.1383069560812065,-3.0877913715767873,-0.873180091381073,0.273994505405426,-0.403092622756958,-0.8290606737136841,-0.5078532099723816,-0.4603252410888672
5.170770168304443,-0.46263015270233154,-0.2394348680973053,0.37216272950172424,-0.2743104499282101,-1.154158670757848,-3.110938851726526,-0.8802654147148132,0.2708832323551178,-0.3895576596260071,-1.133870005607605,-0.38815104961395264,-0.7653188109397888
5.190830230712891,-0.36325305700302124,-0.268675833940506,0.40298911929130554,-0.26916775622502326,-1.1678676847038667,3.1391528899441097,-0.886792778968811,0.265929251909256,-0.3779951333999634,-1.5530797243118286,-0.17433065176010132,-0.9188231825828552
5.210812091827393,-0.010685980319976807,-0.2202015221118927,0.2723535895347595,-0.2657059511023421,-1.1844302851734028,3.1027133553985577,-0.8937788605690002,0.2625904977321625,-0.36360108852386475,-1.4668523073196411,-0.5769526362419128,-0.7308200597763062
5.230803966522217,0.073769211769104,-0.1255296766757965,0.1537386178970337,-0.262648582199656,-1.2074936280641195,3.073984705054762,-0.902672529220581,0.2596392035484314,-0.34317639470100403,-0.9937132000923157,-0.8741571307182312,-0.6165822148323059
5.250734090805054,-0.0941154956817627,-0.12590038776397705,0.14200344681739807,-0.2561805390840767,-1.2282993362236432,3.053238453845423,-0.9111793637275696,0.25338760018348694,-0.324879914522171,-0.7457901835441589,-0.6699474453926086,-0.6962746381759644
5.270734071731567,-0.14801537990570068,-0.19153812527656555,0.15624722838401794,-0.24810718460348966,-1.245557603725445,3.032467549469722,-0.9185589551925659,0.24556954205036163,-0.3097505569458008,-0.9637682437896729,-0.5631707310676575,-0.7140012979507446
5.290795087814331,-0.1049799919128418,-0.21234340965747833,0.18322241306304932,-0.24176076507211114,-1.263225371800968,3.0040708405601007,-0.9253545999526978,0.2394125610589981,-0.29394006729125977,-1.4942572116851807,-0.519005537033081,-0.7645317912101746
5.310742139816284,-0.10433125495910645,-0.19925037026405334,0.1990283727645874,-0.23590189305638842,-1.2822473947093542,2.964963626490976,-0.9321068525314331,0.23371998965740204,-0.27668026089668274,-1.9144341945648193,-0.4676252007484436,-0.9156537652015686
5.3308000564575195,-0.05817854404449463,-0.12354598939418793,0.15817442536354065,-0.22827606533150152,-1.3027450034700658,2.919837094170392,-0.9392732381820679,0.22629864513874054,-0.2579820454120636,-2.0829343795776367,-0.5639446377754211,-1.0398708581924438
5.350881099700928,0.0007098913192749023,-0.030767187476158142,0.10550543665885925,-0.21684999497713736,-1.325707515801195,2.8734938862086925,-0.947395920753479,0.2151544690132141,-0.23695985972881317,-1.97055184841156,-0.7006983757019043,-1.2013201713562012
5.369858264923096,0.04988908767700195,0.03725831210613251,0.06536324322223663,-0.20104706323333266,-1.3495385584646025,2.8309559888520517,-0.9559713006019592,0.1996954083442688,-0.21503661572933197,-1.7115589380264282,-0.7901973128318787,-1.3067865371704102
5.39079213142395,0.08435624837875366,0.09453456103801727,0.05075986683368683,-0.1813293513039084,-1.37250453887861,2.7950779075741106,-0.9643306136131287,0.18033729493618011,-0.19376511871814728,-1.3193572759628296,-0.8200463652610779,-1.3463294506072998
5.410820960998535,0.09109950065612793,0.16042599081993103,0.009039536118507385,-0.15890651650797852,-1.3938843306480082,2.7680745424944484,-0.9719893932342529,0.15823858976364136,-0.17377328872680664,-0.876201868057251,-0.8838241696357727,-1.3614625930786133
5.430789947509766,0.07753175497055054,0.21647807955741882,-0.03447157144546509,-0.13426679377919212,-1.4150565391740402,2.749878445148787,-0.9790058135986328,0.13386374711990356,-0.15371495485305786,-0.5256614685058594,-0.9704670906066895,-1.3721795082092285
5.450428009033203,0.04777717590332031,0.24042749404907227,-0.05740678310394287,-0.10867855504676155,-1.4366589553435873,2.7370882170789645,-0.9851705431938171,0.10846474766731262,-0.13294650614261627,-0.3962275981903076,-1.0321033000946045,-1.3445965051651
5.470790147781372,0.018465816974639893,0.26020875573158264,-0.0899854451417923,-0.0833784300237318,-1.4585273458459882,2.7267962154187892,-0.9902525544166565,0.08328185975551605,-0.11164410412311554,-0.28964611887931824,-1.0366196632385254,-1.279981017112732
5.49078893661499,0.0065174102783203125,0.3079395890235901,-0.15542268753051758,-0.05948134004772642,-1.4797472817731034,2.71982956004779,-0.9940968155860901,0.059446271508932114,-0.09076251089572906,-0.17904840409755707,-1.0435733795166016,-1.187011957168579
5.510808944702148,0.023421943187713623,0.348884642124176,-0.21759086847305298,-0.036514694935799216,-1.5008080208318864,2.714064966953242,-0.9968870282173157,0.03650658205151558,-0.06988457590341568,-0.21447384357452393,-1.0448791980743408,-1.149635672569275
5.530786991119385,0.046319007873535156,0.3695198893547058,-0.29283303022384644,-0.014925852157286354,-1.5213339197252198,2.7084999170086728,-0.9986659288406372,0.014925298281013966,-0.049436744302511215,-0.20700830221176147,-0.9805906414985657,-1.0256489515304565
5.550815105438232,0.07589554786682129,0.399252712726593,-0.3339608907699585,0.0034854912591987834,-1.539685605415214,2.7022635059961586,-0.9995101094245911,-0.003485484281554818,-0.031105516478419304,-0.38265740871429443,-0.8707848191261292,-0.8491643071174622
5.570788145065308,0.08091384172439575,0.4182129204273224,-0.35615605115890503,0.018815250691464707,-1.5555349947347337,2.692613111923321,-0.9997066855430603,-0.018814140930771828,-0.01525804027915001,-0.4803540110588074,-0.7252022624015808,-0.7134262919425964
5.590793132781982,0.07100623846054077,0.4731934666633606,-0.42030537128448486,0.03139564617884176,-1.568096353962635,2.6848620857847494,-0.9995037913322449,-0.031390488147735596,-0.002698639640584588,-0.228361114859581,-0.5542508959770203,-0.5535159707069397
5.610788106918335,0.07905924320220947,0.5358795523643494,-0.4772672653198242,0.040941648336211035,-1.5783282157311769,2.6852270551994546,-0.999133825302124,-0.040930211544036865,0.007525507360696793,0.27867642045021057,-0.4730061888694763,-0.42580747604370117
5.630820035934448,0.039147138595581055,0.5689195990562439,-0.5296609401702881,0.048140461686677925,-1.5878589944619956,2.6962959297909865,-0.9986962080001831,-0.048121869564056396,0.017042076215147972,0.792547345161438,-0.4218546152114868,-0.30458056926727295
5.650856018066406,-0.0622326135635376,0.5557110905647278,-0.5270097255706787,0.05306568425445763,-1.5950350812885985,2.7141450480144766,-0.9982991218566895,-0.05304078385233879,0.024202266708016396,0.9285206198692322,-0.1766100376844406,-0.22385919094085693
5.670783042907715,-0.13277477025985718,0.540225625038147,-0.4679199457168579,0.05528370334855394,-1.5963753778082779,2.7306887861212634,-0.9981458783149719,-0.055255547165870667,0.025537194684147835,0.6620131731033325,0.11842016875743866,-0.026913849636912346
5.6907830238342285,-0.16844022274017334,0.503799557685852,-0.4101506471633911,0.05288122779713927,-1.5924139074270396,2.738798557978563,-0.9983689785003662,-0.05285658314824104,0.021585684269666672,0.17150872945785522,0.3134441673755646,0.26996910572052
5.710821151733398,-0.23569965362548828,0.49690303206443787,-0.41609835624694824,0.04360876883409633,-1.584900673167264,2.7411510795516154,-0.9989501237869263,-0.04359494894742966,0.01409047283232212,0.1920594871044159,0.45537111163139343,0.6257414817810059
5.73077917098999,-0.2871650457382202,0.6063767671585083,-0.4699207544326782,0.02970573392025088,-1.575539920665864,2.749596109761452,-0.9995477199554443,-0.029701365157961845,0.004741483833640814,0.6967083215713501,0.495595246553421,0.7462010979652405
5.750779151916504,-0.29562175273895264,0.6272792816162109,-0.4306275248527527,0.01309815140025687,-1.5646253306936542,2.769345359025871,-0.999895453453064,-0.013097777031362057,-0.006170429289340973,1.2479254007339478,0.6735205054283142,0.9311014413833618
5.769808053970337,-0.35331422090530396,0.5417173504829407,-0.2972692847251892,-0.007202409340278037,-1.5479490198183414,2.7972605686200027,-0.9997133612632751,0.00720234727486968,-0.02284473367035389,1.460094928741455,1.009572148323059,1.1349247694015503
5.790832042694092,-0.393879234790802,0.4350767731666565,-0.18498235940933228,-0.031664367371103994,-1.5240947412889747,2.8275401429101024,-0.9984090924263,0.0316590778529644,-0.046661216765642166,1.4870645999908447,1.2666044235229492,1.3822317123413086
5.8107781410217285,-0.3989906907081604,0.36045029759407043,-0.14268428087234497,-0.05923154408609358,-1.4965312384139098,2.859467475585329,-0.9954949021339417,0.05919691547751427,-0.07406673580408096,1.5554498434066772,1.3311599493026733,1.540911078453064
5.830780029296875,-0.39999842643737793,0.29829469323158264,-0.09108199179172516,-0.08801886123808761,-1.466816078584863,2.8943893904821003,-0.990748941898346,0.08790525048971176,-0.10339120775461197,1.665895700454712,1.3874491453170776,1.626346230506897
5.850779056549072,-0.38412368297576904,0.2230822741985321,-0.009823128581047058,-0.11659826266163341,-1.4341278234097092,2.9326071846814363,-0.9839488863945007,0.11633424460887909,-0.13531838357448578,1.7828096151351929,1.5036060810089111,1.670619010925293
5.870798110961914,-0.3151874542236328,0.15754228830337524,0.06218118965625763,-0.14418047099927125,-1.3974379793642884,2.974382148773072,-0.974790632724762,0.14368145167827606,-0.17070156335830688,1.8800874948501587,1.6235281229019165,1.6873109340667725
5.890818119049072,-0.21444916725158691,0.10169948637485504,0.12386007606983185,-0.16996113188573783,-1.357272886854703,3.0183619909401864,-0.9632089734077454,0.16914403438568115,-0.2088513821363449,1.8740788698196411,1.6975191831588745,1.6956602334976196
5.910775184631348,-0.11885994672775269,0.027320310473442078,0.16787117719650269,-0.1953399147360087,-1.3160240036824848,3.062345622026721,-0.9493164420127869,0.19409999251365662,-0.24723203480243683,1.751904845237732,1.636786699295044,1.7832605838775635
5.930803060531616,-0.07836699485778809,-0.0501246303319931,0.22920167446136475,-0.2214085624966296,-1.2743387038705893,3.1050552915593554,-0.933031439781189,0.2196040153503418,-0.2850029766559601,1.5487056970596313,1.6602532863616943,1.8569490909576416
5.950775146484375,-0.057989418506622314,-0.11163577437400818,0.3115178346633911,-0.24758016107697833,-1.231370141321573,-3.1381290128368504,-0.9141939282417297,0.24505862593650818,-0.32279402017593384,1.3440860509872437,1.7047191858291626,1.850019097328186
5.970807075500488,-0.05169355869293213,-0.1586066484451294,0.36090409755706787,-0.27281823976384206,-1.1878667132343108,-3.1005515812962314,-0.8932681083679199,0.2694465219974518,-0.3598206341266632,1.1850553750991821,1.6763817071914673,1.7895011901855469
5.990774154663086,-0.07904982566833496,-0.1801159381866455,0.4003596603870392,-0.29554465918810746,-1.1454167879133768,-3.0647930517727455,-0.8713896870613098,0.2912609279155731,-0.39477482438087463,1.0846716165542603,1.5665727853775024,1.6432225704193115
6.010772228240967,-0.13806653022766113,-0.19813063740730286,0.4501996636390686,-0.3142387147309198,-1.1047458516886952,-3.0310391349472403,-0.8496044874191284,0.30909255146980286,-0.42735716700553894,1.0162043571472168,1.4866738319396973,1.4341477155685425
6.030811071395874,-0.18717491626739502,-0.24928796291351318,0.504196047782898,-0.32878819968845635,-1.0656015179038587,-3.000377650804654,-0.8282060623168945,0.32289639115333557,-0.4580533802509308,0.8464518785476685,1.4598917961120605,1.2191914319992065
6.050770044326782,-0.16566592454910278,-0.31089457869529724,0.572888970375061,-0.34086405528493835,-1.0290400023778998,-2.975827989499654,-0.807509183883667,0.33430156111717224,-0.48597481846809387,0.5783935189247131,1.3940740823745728,0.9834357500076294
6.070791244506836,-0.1257687211036682,-0.3681131601333618,0.5945287346839905,-0.3507231928551198,-0.9962238007564694,-2.956864821140932,-0.7883243560791016,0.3435770571231842,-0.5103916525840759,0.4433630406856537,1.2103618383407593,0.8099836111068726
6.090213060379028,-0.12225580215454102,-0.36605292558670044,0.5629082918167114,-0.3571809824407484,-0.9690225757360634,-2.9403023380812225,-0.7723060846328735,0.3496345281600952,-0.5303764939308167,0.523030698299408,0.9429608583450317,0.5769091248512268
6.110788106918335,-0.1432361602783203,-0.31033575534820557,0.550520122051239,-0.3570754642088171,-0.946185312262404,-2.924825568584334,-0.7600233554840088,0.34953567385673523,-0.547895610332489,0.6624002456665039,0.7896687984466553,0.2539530396461487
6.130730152130127,-0.0865180492401123,-0.3463144898414612,0.5799407958984375,-0.351721019506851,-0.927668654147535,-2.9118137297669335,-0.75123530626297,0.34451398253440857,-0.56298828125,0.6176981925964355,0.6181650757789612,0.07558511942625046
6.1510701179504395,-0.04467540979385376,-0.42688119411468506,0.5990086197853088,-0.3462654651298868,-0.9149112717686012,-2.902431046823694,-0.7454705834388733,0.33938729763031006,-0.5736637115478516,0.39307937026023865,0.33389776945114136,-0.001402745838277042
6.171047210693359,-0.10504686832427979,-0.4310755431652069,0.6028914451599121,-0.3424703036065493,-0.9100114163837268,-2.8998201255142604,-0.7436622977256775,0.3358149528503418,-0.5780958533287048,0.017586950212717056,0.0906747356057167,-0.15803222358226776
6.190870046615601,-0.19793999195098877,-0.42800846695899963,0.6381868720054626,-0.34138504408046144,-0.9111290419448435,-2.9069618148787337,-0.744595468044281,0.33479252457618713,-0.5774873495101929,-0.5046089887619019,0.0570242777466774,-0.35467782616615295
6.21081018447876,-0.1552775502204895,-0.45736658573150635,0.6550478935241699,-0.34289164957707674,-0.9181162253214953,-2.9252341261906136,-0.7482107281684875,0.33621180057525635,-0.5719637274742126,-0.8718043565750122,-0.2103099524974823,-0.569189190864563
6.230878114700317,-0.11415356397628784,-0.3930871784687042,0.5539771318435669,-0.3429465413283554,-0.9344331893178639,-2.9477376401350446,-0.7574285864830017,0.336263507604599,-0.5596686005592346,-0.7867301106452942,-0.6357405185699463,-0.7232036590576172
6.250922203063965,-0.1995689868927002,-0.27330338954925537,0.4926358461380005,-0.3372628296716665,-0.956568697396815,-2.9701735690340594,-0.7711800336837769,0.33090537786483765,-0.5438595414161682,-0.6316995024681091,-0.8517462611198425,-0.9925791621208191
6.270884990692139,-0.27601075172424316,-0.2308867871761322,0.4803655743598938,-0.32709678602498377,-0.9846351111997032,-2.9954070562272896,-0.7889001965522766,0.3212951123714447,-0.5238377451896667,-0.8227618336677551,-1.125169277191162,-1.1597322225570679
6.290791034698486,-0.4154285192489624,-0.24935701489448547,0.5143430233001709,-0.3184961892214888,-1.0172510834605963,-3.0277310486795077,-0.8078839182853699,0.3131387233734131,-0.49926722049713135,-1.3604085445404053,-1.0138185024261475,-1.2370665073394775
6.310770034790039,-0.40437090396881104,-0.2834343910217285,0.5540744066238403,-0.31416602514087555,-1.0491664615110508,-3.073440831788048,-0.8245720267295837,0.3090234100818634,-0.47390466928482056,-2.1279489994049072,-0.8593143820762634,-1.3362468481063843
6.330758094787598,-0.15252327919006348,-0.2733738124370575,0.43698081374168396,-0.3140965264084436,-1.0878203443845966,-3.1283730794208173,-0.8422887921333313,0.3089573383331299,-0.4416956603527069,-2.3531436920166016,-1.3348321914672852,-1.1761574745178223
6.359185218811035,-0.30076730251312256,-0.016690939664840698,0.2108202874660492,-0.2987487552381605,-1.175993959068653,3.0628564358721597,-0.8821855783462524,0.2943246066570282,-0.36758896708488464,-1.1050420999526978,-1.593611240386963,-1.5672781467437744
6.379421234130859,-0.24451470375061035,0.009761333465576172,0.17134436964988708,-0.2753358736455831,-1.2173253411140572,3.0344260493768633,-0.9028394818305969,0.2718701660633087,-0.3331179618835449,-0.6544935703277588,-1.7512218952178955,-1.5813539028167725
6.399241924285889,-0.21619254350662231,-0.016664355993270874,0.15767481923103333,-0.2497677478463534,-1.259052788155765,3.0125880677885726,-0.9222659468650818,0.24717892706394196,-0.29720115661621094,-0.5297092199325562,-1.8172557353973389,-1.5300636291503906
6.418879985809326,-0.26625388860702515,0.0013834387063980103,0.1103162169456482,-0.22371408789087174,-1.2990459590696564,2.993827285467462,-0.9392973780632019,0.22185267508029938,-0.26172909140586853,-0.4934990406036377,-1.7455642223358154,-1.509209156036377
6.438783168792725,-0.20031750202178955,0.06469474732875824,0.06385922431945801,-0.19707656231355025,-1.3372704809663287,2.974769760400155,-0.9540252685546875,0.19580332934856415,-0.22692978382110596,-0.6835076212882996,-1.7097556591033936,-1.5356776714324951
6.458872079849243,-0.0969133973121643,0.0764123946428299,-0.0037271976470947266,-0.17140443033762573,-1.3762678741189012,2.950824056101621,-0.9667616486549377,0.1705663651227951,-0.19047129154205322,-1.0782890319824219,-1.759714961051941,-1.4575790166854858
6.477869033813477,-0.040035784244537354,0.09645000100135803,-0.06636285781860352,-0.14810945821154337,-1.4160750876491335,2.9218945857960463,-0.9772372841835022,0.14756855368614197,-0.15241754055023193,-1.2841660976409912,-1.7601017951965332,-1.3300511837005615
6.498661041259766,-0.028528034687042236,0.18228264153003693,-0.14928603172302246,-0.12628024669002288,-1.4548173491489647,2.8934735889646537,-0.9853728413581848,0.12594488263130188,-0.11479771882295609,-1.214316964149475,-1.7242231369018555,-1.2302212715148926
6.517824172973633,-0.033421456813812256,0.24365030229091644,-0.23123037815093994,-0.10413300213657149,-1.4923790549645721,2.8667745397862356,-0.99152672290802,0.10394490510225296,-0.0779125913977623,-1.2386683225631714,-1.7000584602355957,-1.2422492504119873
6.538939952850342,-0.051935672760009766,0.23348703980445862,-0.28460389375686646,-0.08123850205113725,-1.527040817053122,2.839602199372936,-0.9957481026649475,0.08114917576313019,-0.04359729215502739,-1.3535606861114502,-1.5230306386947632,-1.1889560222625732
6.558720111846924,-0.08123785257339478,0.25198736786842346,-0.3229473829269409,-0.05848604111922941,-1.557309827333055,2.809469332544384,-0.9981996417045593,0.058452703058719635,-0.013463035225868225,-1.553908109664917,-1.298504114151001,-1.2031534910202026
6.579015254974365,-0.10901719331741333,0.34652817249298096,-0.4145841598510742,-0.03413947833584316,-1.5823419839458115,2.7797531594588665,-0.9993508458137512,0.03413284569978714,0.011538675054907799,-1.3688210248947144,-1.0966191291809082,-1.2169208526611328
6.599975109100342,-0.08116990327835083,0.4539274275302887,-0.5291690826416016,-0.009451629372876677,-1.6037724187311875,2.756234810374192,-0.9994118809700012,0.009451488964259624,0.03296864777803421,-1.0621613264083862,-0.9964464902877808,-1.201923131942749
6.618483066558838,-0.041181981563568115,0.4995487928390503,-0.5713380575180054,0.014426612272801632,-1.6223567992000278,2.738122449068103,-0.9985674023628235,-0.014426112174987793,0.05153227970004082,-0.862011194229126,-0.8359858989715576,-1.086224913597107
6.638264179229736,-0.011518001556396484,0.5227084755897522,-0.5991095304489136,0.03460200504416566,-1.6361016582346801,2.723588653562455,-0.9972712993621826,-0.034595102071762085,0.06521987169981003,-0.7353308200836182,-0.5906641483306885,-0.8384910225868225
6.658152103424072,0.030516862869262695,0.546949028968811,-0.6301741600036621,0.05006746592671285,-1.645576672844792,2.710849762052027,-0.995955765247345,-0.05004655197262764,0.07461705803871155,-0.6207249760627747,-0.4192989468574524,-0.6041756868362427
6.678255081176758,0.058771729469299316,0.5819084048271179,-0.6614855527877808,0.06007866607710758,-1.6522882984884484,2.7019102028765074,-0.9948832988739014,-0.06004253029823303,0.08125495165586472,-0.3220613896846771,-0.28793346881866455,-0.3321034908294678
6.697170257568359,0.03311514854431152,0.6196177005767822,-0.662708044052124,0.06485359206293571,-1.6561351938646942,2.6999391898073832,-0.9942665100097656,-0.06480813771486282,0.08505615592002869,0.08521806448698044,-0.10833042114973068,-0.14363370835781097
6.716231107711792,-0.023681223392486572,0.6247877478599548,-0.6604756116867065,0.0654778403808009,-1.6569474486537559,2.7057178087205505,-0.994156539440155,-0.06543106585741043,0.0858602300286293,0.46612057089805603,0.057028185576200485,0.040258169174194336
6.738120079040527,-0.09371030330657959,0.6119460463523865,-0.6194798946380615,0.06192151446772797,-1.6544623136472152,2.7158696580499884,-0.9945924282073975,-0.06188195198774338,0.08340826630592346,0.5288670659065247,0.2789319157600403,0.21399973332881927
6.7579920291900635,-0.17438584566116333,0.5547344088554382,-0.5136302709579468,0.05436445908992397,-1.646561697511212,2.7240947748957,-0.9956582188606262,-0.05433768406510353,0.07558109611272812,0.31321948766708374,0.538885235786438,0.5157206058502197
6.7782301902771,-0.2958306670188904,0.5173476934432983,-0.45315027236938477,0.04039943933477415,-1.6335972786845885,2.7270527091418595,-0.9972143769264221,-0.040388450026512146,0.06270847469568253,0.12556098401546478,0.7872785329818726,0.8228156566619873
6.798243045806885,-0.40781766176223755,0.5457256436347961,-0.414247989654541,0.02239681721789654,-1.6151054256279505,2.729207955043411,-0.9987680912017822,-0.022394943982362747,0.04428349807858467,0.22127464413642883,1.0741950273513794,0.9658646583557129
6.8169920444488525,-0.3728053569793701,0.5525017380714417,-0.36363017559051514,0.00039298871210565167,-1.5923109063328549,2.7349621824099106,-0.9997687339782715,-0.0003929887025151402,0.021512921899557114,0.40582963824272156,1.199346899986267,1.2300002574920654
6.837759971618652,-0.3450888395309448,0.48911646008491516,-0.25674134492874146,-0.027152770755530752,-1.5665651291943488,2.7433240278159583,-0.9996225237846375,0.027149435132741928,-0.004229625687003136,0.4308691620826721,1.3627132177352905,1.502634048461914
6.85781717300415,-0.3781953454017639,0.4042450189590454,-0.12149262428283691,-0.0596269893336142,-1.5367349004154505,2.7518237447051064,-0.9976440668106079,0.059591662138700485,-0.03399432823061943,0.36962300539016724,1.5566906929016113,1.7265074253082275
6.879395008087158,-0.36183685064315796,0.33607953786849976,-0.04736907035112381,-0.09552319134107823,-1.5046722043847944,2.761876391883166,-0.9932659268379211,0.09537798911333084,-0.06577473133802414,0.5095609426498413,1.5425523519515991,1.9153579473495483
6.899206161499023,-0.3246394991874695,0.30061936378479004,-0.03226423263549805,-0.13375437364558873,-1.4730200048650375,2.7798966603053548,-0.9863348007202148,0.13335591554641724,-0.09674869477748871,1.0119341611862183,1.4180266857147217,2.037184476852417
6.916161060333252,-0.3110778331756592,0.27398914098739624,-0.020954251289367676,-0.17098033463495219,-1.441125670135016,2.811636305684386,-0.9771455526351929,0.17014847695827484,-0.12742207944393158,1.698743462562561,1.3061953783035278,2.007380723953247
6.936715126037598,-0.2504732608795166,0.205269455909729,0.039118409156799316,-0.20454000167963265,-1.4072873865960411,2.8574873844806143,-0.9660948514938354,0.203116774559021,-0.15938811004161835,2.2327332496643066,1.2242008447647095,1.982724905014038
6.95708703994751,-0.21047502756118774,0.11284813284873962,0.1262650489807129,-0.23435344094548718,-1.3705912491471588,2.912612245353093,-0.9532366394996643,0.23221415281295776,-0.19343416392803192,2.496913194656372,1.2564677000045776,1.917140007019043
6.97756814956665,-0.18543291091918945,0.033381491899490356,0.2007240355014801,-0.2596097947196929,-1.3302666860374794,2.972111581400787,-0.9386670589447021,0.2567034363746643,-0.23023450374603271,2.574652910232544,1.3201007843017578,1.8280106782913208
6.997385025024414,-0.1420390009880066,-0.02212098240852356,0.2603798508644104,-0.2809444851094211,-1.2874223872248072,3.0331595521833203,-0.922475278377533,0.27726322412490845,-0.26863476634025574,2.555912733078003,1.3639702796936035,1.7599117755889893
7.017134189605713,-0.13144540786743164,-0.07870751619338989,0.3173940181732178,-0.29899337659502706,-1.2427968512334364,3.092830687207973,-0.9046875238418579,0.29455840587615967,-0.3078571557998657,2.341384172439575,1.391857624053955,1.6824111938476562
7.03712010383606,-0.1521916389465332,-0.1366560459136963,0.36898279190063477,-0.3148196129641546,-1.1974797008433307,-3.1359341970621397,-0.8853603005409241,0.3096449673175812,-0.3467811644077301,1.9740302562713623,1.5008883476257324,1.5941619873046875
7.056071043014526,-0.1529860496520996,-0.1836625337600708,0.43689319491386414,-0.33061335484002724,-1.1522011696129613,-3.0899878905899336,-0.8641801476478577,0.3246232271194458,-0.3844638764858246,1.422554612159729,1.5742436647415161,1.5491939783096313
7.076973915100098,-0.14239948987960815,-0.24476733803749084,0.5012269616127014,-0.34837489061051113,-1.108447583094285,-3.054530761452275,-0.8412432074546814,0.34137076139450073,-0.41925665736198425,0.867787778377533,1.6232361793518066,1.491316795349121
7.097218036651611,-0.13306701183319092,-0.28776460886001587,0.5352643132209778,-0.36797324091926853,-1.0669587112326169,-3.0273819902434007,-0.8171131610870361,0.35972508788108826,-0.4504711329936981,0.5178103446960449,1.5666486024856567,1.4228479862213135
7.115580081939697,-0.13312983512878418,-0.2701091468334198,0.5386654734611511,-0.3868484442445293,-1.0288841400375326,-3.004834774903766,-0.7934144139289856,0.3772716224193573,-0.47766077518463135,0.3837927579879761,1.410873532295227,1.2478042840957642
7.135176181793213,-0.12766021490097046,-0.27337396144866943,0.5676708817481995,-0.40205374615462575,-0.9947263742010466,-2.985132986547173,-0.7717386484146118,0.39130914211273193,-0.5012950301170349,0.3691268265247345,1.259887933731079,1.0147258043289185
7.156772136688232,-0.1061355471611023,-0.3211902379989624,0.5991697311401367,-0.41330105086986124,-0.9644933438674179,-2.9676095372704876,-0.7525681257247925,0.4016346037387848,-0.5218533873558044,0.3531445264816284,1.0654734373092651,0.8200498819351196
7.177227020263672,-0.09534680843353271,-0.35360175371170044,0.6113058924674988,-0.4207965875413174,-0.9389838220792732,-2.952668261660045,-0.7365624904632568,0.4084876775741577,-0.5390859842300415,0.32636016607284546,0.873001754283905,0.5715426206588745
7.196195125579834,-0.08488494157791138,-0.350129634141922,0.603344738483429,-0.4243007012890684,-0.919002989795546,-2.941603680018396,-0.7245023250579834,0.411683589220047,-0.5528228282928467,0.27074888348579407,0.6620094180107117,0.3176560401916504
7.215624094009399,-0.055049896240234375,-0.3543756604194641,0.5930869579315186,-0.42487458943703726,-0.9049571155099214,-2.934511106601781,-0.7164803147315979,0.4122065305709839,-0.5627981424331665,0.21366511285305023,0.4502624571323395,0.13602736592292786
7.23662805557251,-0.030317246913909912,-0.3713935911655426,0.5803631544113159,-0.4237408225602408,-0.8967302835650146,-2.929806298988092,-0.7121908068656921,0.4111732840538025,-0.5689647793769836,0.22037705779075623,0.17645151913166046,0.042280685156583786
7.255442142486572,-0.07539010047912598,-0.36873215436935425,0.5692459940910339,-0.4210905857457883,-0.8939885447230641,-2.92665620895052,-0.7114751935005188,0.4087560176849365,-0.5715957880020142,0.08765526115894318,-0.007698259316384792,-0.08973388373851776
7.275475025177002,-0.15536201000213623,-0.36511731147766113,0.6303754448890686,-0.4190032596202435,-0.8976633626786718,-2.931296267351541,-0.7142363786697388,0.406850129365921,-0.5695080161094666,-0.2691679298877716,-0.16882367432117462,-0.3365311324596405
7.296473026275635,-0.2065299153327942,-0.39585912227630615,0.6008275747299194,-0.41772909636240846,-0.9081799185874477,-2.9433087723198588,-0.7205941677093506,0.4056858718395233,-0.5622838735580444,-0.48249518871307373,-0.4032557010650635,-0.43505966663360596
7.316314220428467,-0.17981094121932983,-0.3707762062549591,0.5486165285110474,-0.41559598774197,-0.9254647009288691,-2.959166971533415,-0.7308947443962097,0.4037352502346039,-0.5502644181251526,-0.522757351398468,-0.7058693170547485,-0.6403105854988098
7.336573123931885,-0.16682565212249756,-0.3141742944717407,0.4681452512741089,-0.4087104337238508,-0.9505913947879016,-2.977303540709886,-0.7467334270477295,0.3974263072013855,-0.5333307385444641,-0.34011539816856384,-1.0844086408615112,-0.8955501317977905
7.355917930603027,-0.2800154685974121,-0.23188471794128418,0.35689663887023926,-0.3941737469291203,-0.9814328530707149,-2.9923108909541,-0.7675462365150452,0.38404542207717896,-0.5132076144218445,-0.011120726354420185,-1.3898800611495972,-1.0927646160125732
7.37633204460144,-0.4997912645339966,-0.16270431876182556,0.4207533597946167,-0.3743434377384736,-1.0143631577085441,-3.0081324184853155,-0.7903392910957336,0.36566150188446045,-0.49158453941345215,-0.2942776083946228,-1.2479877471923828,-1.4147093296051025
7.396204948425293,-0.6639964580535889,-0.19535207748413086,0.5098466277122498,-0.35421756860606035,-1.046904531072515,-3.0408288253807143,-0.8121235966682434,0.34685662388801575,-0.469197154045105,-1.3831911087036133,-0.8519359827041626,-1.8481329679489136
7.41619610786438,-0.3312320113182068,-0.24946030974388123,0.43848198652267456,-0.34137967725396,-1.0823696012327237,-3.0970161684090804,-0.8321134448051453,0.3347874581813812,-0.4421592652797699,-2.545910358428955,-0.9201613664627075,-1.774854302406311
7.43812108039856,-0.007975578308105469,-0.17849409580230713,0.25422489643096924,-0.33681944329096136,-1.1284184101932173,3.1204471932141344,-0.8529559373855591,0.330486923456192,-0.4040355980396271,-2.577780246734619,-1.528196096420288,-1.4303245544433594
7.4575371742248535,-0.09220457077026367,-0.01541978120803833,0.06817218661308289,-0.3291141522198221,-1.1791751068631822,3.0664546509090713,-0.8746839165687561,0.3232048451900482,-0.3612018823623657,-1.7645766735076904,-1.6684885025024414,-1.4396212100982666
7.476647138595581,-0.3206639885902405,0.0899844765663147,0.07972517609596252,-0.3093504742943114,-1.222459681300782,3.0247495260675525,-0.895324170589447,0.3044400215148926,-0.32513219118118286,-1.3306242227554321,-1.3324592113494873,-1.8435262441635132
7.495276927947998,-0.341630756855011,0.03182992339134216,0.08105140924453735,-0.28206072083451306,-1.2581015397412134,2.9863301207802118,-0.9139083027839661,0.2783355414867401,-0.2954678237438202,-1.3032541275024414,-1.1694854497909546,-1.8271679878234863
7.517286062240601,-0.23176562786102295,0.022720009088516235,0.03249749541282654,-0.2581845276845171,-1.2923921815515127,2.948019083149765,-0.9296266436576843,0.25532567501068115,-0.2657126784324646,-1.5852832794189453,-1.2541934251785278,-1.583888292312622
7.53590202331543,-0.2611495852470398,0.05871140956878662,0.017229080200195312,-0.23628197207378016,-1.328131435233995,2.904602984836515,-0.9437302947044373,0.23408952355384827,-0.23361386358737946,-1.8832969665527344,-1.2429884672164917,-1.6341686248779297
7.560043096542358,-0.2706701159477234,0.1276521235704422,-0.03565576672554016,-0.21300531245800314,-1.3631839609869787,2.859055106332185,-0.9564114212989807,0.21139824390411377,-0.20146577060222626,-1.9139405488967896,-1.28438138961792,-1.6360442638397217
7.577280044555664,-0.1746181845664978,0.2078438550233841,-0.09618592262268066,-0.18710583490722646,-1.3989945737837997,2.8158243146817687,-0.9680821299552917,0.1860160231590271,-0.1679740995168686,-1.7156590223312378,-1.425148367881775,-1.7101298570632935
7.597185134887695,-0.11624079942703247,0.2874254286289215,-0.16076123714447021,-0.15774702522037476,-1.434044306344448,2.7810554371590426,-0.9783638119697571,0.1570935994386673,-0.13463354110717773,-1.1685646772384644,-1.4527106285095215,-1.7047210931777954
7.614944934844971,-0.05909144878387451,0.3695085048675537,-0.23238897323608398,-0.12584903348322526,-1.465907307143516,2.760892448570383,-0.9866392612457275,0.1255171000957489,-0.10386881977319717,-0.40869608521461487,-1.4536340236663818,-1.709213137626648
7.635328054428101,0.009226977825164795,0.4178452491760254,-0.28739506006240845,-0.09257134537556976,-1.495539672222312,2.756116159850503,-0.9929001927375793,0.0924391895532608,-0.0748637318611145,0.15572510659694672,-1.466699481010437,-1.6522704362869263
7.653365135192871,0.05446171760559082,0.41902396082878113,-0.3353062868118286,-0.059847815791337654,-1.5253753725148929,2.7579393547193085,-0.9971803426742554,0.059812095016241074,-0.04532405734062195,0.1610921025276184,-1.5680047273635864,-1.5983136892318726
7.675171136856079,0.08060872554779053,0.3978463411331177,-0.38438236713409424,-0.029800870665332862,-1.5571162769289626,2.759700115527454,-0.9994625449180603,0.029796460643410683,-0.013673550449311733,0.15088017284870148,-1.5840054750442505,-1.3534942865371704
7.693987131118774,0.08139127492904663,0.4239102900028229,-0.46896207332611084,-0.0057924919457581405,-1.5881300713425912,2.7634035626683664,-0.9998331665992737,0.005792459473013878,0.017332589253783226,0.18539825081825256,-1.4768210649490356,-1.0953925848007202
7.7152910232543945,0.048062264919281006,0.4798855781555176,-0.4878673553466797,0.015240806345007435,-1.614850753940065,2.7669959567968805,-0.9989140629768372,-0.015240216627717018,0.04403507709503174,0.0995682030916214,-1.1954714059829712,-1.0236080884933472
7.735188961029053,0.0587155818939209,0.4902777671813965,-0.524174690246582,0.033954925519335176,-1.6348314786996252,2.769955959347226,-0.99737548828125,-0.03394840285181999,0.06395453214645386,0.12704426050186157,-0.7828829288482666,-0.8312992453575134
7.755054950714111,0.11353766918182373,0.51543128490448,-0.5626121759414673,0.04755368445129271,-1.6470267535542922,2.774215233886692,-0.9959688186645508,-0.04753576219081879,0.07607053220272064,0.1808215081691742,-0.4492407739162445,-0.5786556601524353
7.77462911605835,0.16100531816482544,0.5189512968063354,-0.5834399461746216,0.05696126669773479,-1.6543161510250912,2.7783214477448683,-0.99489825963974,-0.05693046748638153,0.08328747749328613,0.14379248023033142,-0.2788153290748596,-0.38181716203689575
7.796633243560791,0.18826931715011597,0.4924843907356262,-0.585564136505127,0.061370546658826804,-1.6591593128933877,2.781117031743585,-0.994223415851593,-0.06133202835917473,0.08808191865682602,0.11776752024888992,-0.1945168823003769,-0.08180377632379532
7.814871072769165,0.15357691049575806,0.4981585741043091,-0.5984978675842285,0.06049710299724119,-1.6625717330731702,2.784841843151585,-0.9939700961112976,-0.060460206121206284,0.09147898852825165,0.29403412342071533,-0.11720007658004761,0.1093418225646019
7.83486008644104,0.08635866641998291,0.5303537845611572,-0.5766643285751343,0.056277672903569685,-1.6637786478313459,2.793781271814557,-0.9941041469573975,-0.05624797195196152,0.09270142018795013,0.6602200865745544,0.06216542050242424,0.24155427515506744
7.855057239532471,-0.0020554065704345703,0.5423961281776428,-0.5543385744094849,0.04833539986204769,-1.6611757485710597,2.809995267851803,-0.9947556257247925,-0.048316579312086105,0.09015103429555893,1.0045742988586426,0.29412975907325745,0.3929482698440552
7.875246047973633,-0.11227887868881226,0.5128048062324524,-0.5172889232635498,0.03759395718751377,-1.6540821166292128,2.829894990332745,-0.9958297610282898,-0.03758510202169418,0.08313076943159103,1.0078071355819702,0.4885728359222412,0.5051926374435425
7.894618988037109,-0.23701608180999756,0.4406147003173828,-0.419162392616272,0.02345680518533622,-1.6439137488204436,2.84570516803596,-0.9970538020133972,-0.023454654961824417,0.0730321928858757,0.6788725852966309,0.575505793094635,0.8111715316772461
7.91442608833313,-0.5608415007591248,0.42390477657318115,-0.4100450277328491,0.00410498453350073,-1.6292059100427767,2.857066277022893,-0.9982864260673523,-0.004104972817003727,0.05837589502334595,0.6094958186149597,0.9927308559417725,0.9614714980125427
7.934524059295654,-0.7236315608024597,0.45067691802978516,-0.31577372550964355,-0.01390787672414698,-1.6032843712086853,2.866019290561797,-0.9993757605552673,0.01390742789953947,0.032479193061590195,0.31445813179016113,1.555528998374939,0.8319019675254822
7.954154968261719,-0.3907867670059204,0.3807760179042816,-0.20832479000091553,-0.034300282452348556,-1.5694951906134385,2.8661178342974716,-0.9994110465049744,0.034293558448553085,-0.001300370553508401,-0.2864063084125519,1.7607617378234863,1.3135902881622314
7.974337100982666,-0.17953091859817505,0.2718891501426697,-0.09307438135147095,-0.06900114482836725,-1.5350397344789157,2.855910460053888,-0.9969828724861145,0.06894640624523163,-0.0356639102101326,-0.7525628805160522,1.7132195234298706,2.0787346363067627
7.994175910949707,-0.3724103569984436,0.22132113575935364,-0.02685409039258957,-0.11563684734473004,-1.5011979309798433,2.8422177267587374,-0.9909167289733887,0.11537930369377136,-0.06907778978347778,-0.7893613576889038,1.8063932657241821,2.4112343788146973
8.01316499710083,-0.5443964004516602,0.2324083298444748,0.04333937168121338,-0.1641252881236179,-1.4658283599630595,2.83424154726034,-0.9811317324638367,0.1633894294500351,-0.10336732119321823,-0.36994555592536926,1.8093223571777344,2.3428356647491455
8.034289121627808,-0.47128158807754517,0.21233461797237396,0.06959287822246552,-0.20999711473699448,-1.430565676348,2.839271598472003,-0.9684311747550964,0.2084570825099945,-0.13670097291469574,0.3363988697528839,1.5963454246520996,2.289243459701538
8.054028987884521,-0.376778244972229,0.15870904922485352,0.08264006674289703,-0.25185840374227575,-1.3961078980829913,2.8622322566366467,-0.9537118673324585,0.24920415878295898,-0.16831804811954498,1.2264268398284912,1.3608760833740234,2.2034997940063477
8.074037075042725,-0.3254796266555786,0.10332134366035461,0.11181522905826569,-0.2875099520962971,-1.359282108824668,2.9040725559651905,-0.9375819563865662,0.2835652530193329,-0.20132319629192352,2.0228395462036133,1.20560884475708,2.086613416671753
8.094247102737427,-0.2555128335952759,0.021325141191482544,0.16198968887329102,-0.3167225522172918,-1.3196569540935175,2.959593668334312,-0.9204516410827637,0.31145381927490234,-0.23614732921123505,2.396822690963745,1.127325177192688,1.9819387197494507
8.114042043685913,-0.21513724327087402,-0.09778207540512085,0.257284015417099,-0.3412277085296827,-1.27725151733303,3.0193604298561363,-0.9020349979400635,0.33464425802230835,-0.27266475558280945,2.375380039215088,1.212611198425293,1.9249887466430664
8.13403606414795,-0.19700080156326294,-0.1928483545780182,0.3121587932109833,-0.36344028274552065,-1.2314226115671856,3.078410472161491,-0.8813685774803162,0.35549190640449524,-0.3111516535282135,2.1892683506011963,1.325368046760559,1.9042292833328247
8.153704166412354,-0.16767245531082153,-0.2293458878993988,0.355298787355423,-0.38389336677848607,-1.1845587446044945,3.1328286061564827,-0.8589084148406982,0.3745332956314087,-0.3492867350578308,1.81569504737854,1.3805307149887085,1.7987133264541626
8.173622131347656,-0.1502717137336731,-0.27196720242500305,0.40385690331459045,-0.40296268402174007,-1.138580531722348,-3.1039730828621486,-0.8353087902069092,0.39214545488357544,-0.3853326439857483,1.3486559391021729,1.4468530416488647,1.6708985567092896
8.192706108093262,-0.11591410636901855,-0.3384387791156769,0.45384925603866577,-0.4226409098356747,-1.0948440246008482,-3.0672914590346787,-0.8106454014778137,0.41017040610313416,-0.417868971824646,0.8328198790550232,1.447763442993164,1.579033613204956
8.213558197021484,-0.07600146532058716,-0.3782951533794403,0.47885245084762573,-0.4433349336819209,-1.0547515183093952,-3.0383047765988254,-0.7856929898262024,0.4289543628692627,-0.44574078917503357,0.5367582440376282,1.3532437086105347,1.4957391023635864
8.233642101287842,-0.059808552265167236,-0.3516177833080292,0.5004092454910278,-0.4628294730121934,-1.0179767374204804,-3.0134038960525507,-0.7615110874176025,0.4464816749095917,-0.46984580159187317,0.41308870911598206,1.2391961812973022,1.3055826425552368
8.25345516204834,-0.05067723989486694,-0.3619624972343445,0.539745032787323,-0.4789237016483611,-0.9849227110149883,-2.9920742799242452,-0.7394839525222778,0.46082425117492676,-0.4907184839248657,0.3294495940208435,1.1051304340362549,1.0912106037139893
8.272330045700073,-0.028126180171966553,-0.4010179340839386,0.569854199886322,-0.49187171145846514,-0.9556279061486894,-2.973394374839049,-0.7198597192764282,0.4722765386104584,-0.50868159532547,0.32790783047676086,0.9466577172279358,0.9176967144012451
8.29235315322876,-0.002551555633544922,-0.43104320764541626,0.5695717334747314,-0.5009429710126899,-0.9305468441630207,-2.955772977624334,-0.7034116983413696,0.48025286197662354,-0.5239936113357544,0.39981499314308167,0.7226340174674988,0.7228997349739075
8.31235122680664,0.021019279956817627,-0.4421643614768982,0.5671590566635132,-0.5054338860606195,-0.911167491628497,-2.9396020504730496,-0.6914142966270447,0.48418712615966797,-0.5361989140510559,0.4519326090812683,0.43028804659843445,0.47918397188186646
8.330801963806152,0.022691786289215088,-0.4374368190765381,0.5572704672813416,-0.5053148880311996,-0.8996043954661105,-2.9268480878424668,-0.6852131485939026,0.48408299684524536,-0.5441935658454895,0.4470570981502533,0.10559608042240143,0.19850032031536102
8.35329294204712,-0.011493504047393799,-0.4479561746120453,0.548359751701355,-0.5012980343200837,-0.8965107068575876,-2.9186225305734403,-0.685039758682251,0.48056426644325256,-0.5475204586982727,0.355861097574234,-0.17875033617019653,-0.04654873535037041
