timestamp,acceleration_x,acceleration_y,acceleration_z,attitude_pitch,attitude_roll,attitude_yaw,gravity_x,gravity_y,gravity_z,rotation_x,rotation_y,rotation_z
0.0,-0.06957390904426575,0.13364547491073608,-0.22596263885498047,-0.6076743062888651,-0.32451826888755914,-0.6320268137705739,-0.26177072525024414,0.5709596872329712,-0.7781267166137695,-0.03760477527976036,-0.7355568408966064,0.8294640779495239
0.0200042724609375,-0.07983154058456421,0.19828331470489502,-0.23976969718933105,-0.613426979723057,-0.3276637567559064,-0.6131595708931267,-0.2631555497646332,0.57567298412323,-0.7741767764091492,0.0007518669590353966,-0.6318615674972534,0.826349675655365
0.039913177490234375,-0.060876667499542236,0.14018696546554565,-0.1322597861289978,-0.6191188935969152,-0.326152478950624,-0.5926059301308768,-0.26093119382858276,0.5803177952766418,-0.7714571952819824,-0.05044525861740112,-0.41824871301651,0.9673848152160645
0.059934139251708984,0.028952568769454956,0.012846112251281738,0.005619645118713379,-0.6289226755700487,-0.3201097848920836,-0.569598989665799,-0.25446221232414246,0.5882738828659058,-0.7675824165344238,-0.2879522740840912,-0.3632403016090393,1.108196496963501
0.0809030532836914,0.08229188621044159,-0.0716429352760315,0.09400105476379395,-0.6425781726682189,-0.3134675970540462,-0.5449964794624548,-0.24685794115066528,0.5992614030838013,-0.7615424990653992,-0.3738081455230713,-0.4611542522907257,1.189635992050171
0.09994721412658691,0.09010687470436096,-0.11509615182876587,0.12649869918823242,-0.6555404881829098,-0.3089281257241374,-0.518818531996179,-0.24101631343364716,0.6095877885818481,-0.7551912665367126,-0.17403823137283325,-0.6745830774307251,1.1853656768798828
0.11971020698547363,0.07843886315822601,-0.09957283735275269,0.13110101222991943,-0.6612055040398899,-0.30650165809559765,-0.4898202885784429,-0.2381373792886734,0.6140687465667725,-0.7524694204330444,0.37208274006843567,-0.8519431948661804,1.181400179862976
0.13997602462768555,0.030006766319274902,-0.0667424201965332,0.13137555122375488,-0.6549071514559863,-0.30417751614261973,-0.4569816093677956,-0.2375415861606598,0.6090856194496155,-0.7566959261894226,0.9622883796691895,-0.9194362163543701,1.0810773372650146
0.16690731048583984,-0.024770021438598633,-0.010290324687957764,0.160699725151062,-0.6404297208157161,-0.3030548095262788,-0.4256626710952984,-0.23929859697818756,0.5975400805473328,-0.7652986645698547,1.0963618755340576,-0.853678822517395,0.8531498908996582
0.18008899688720703,-0.04254017770290375,-0.009595215320587158,0.18369662761688232,-0.6255250094682643,-0.3043364234875719,-0.4009168243170898,-0.24292126297950745,0.5855229496955872,-0.773402988910675,0.8869102001190186,-0.7308539152145386,0.631774365901947
0.20008111000061035,-0.02709636092185974,0.018715620040893555,0.17367231845855713,-0.6157830272426937,-0.3070190233977508,-0.38274699346831215,-0.24670735001564026,0.5775979161262512,-0.7781491875648499,0.49898698925971985,-0.612450361251831,0.4820302724838257
0.21930408477783203,-0.020280808210372925,0.06873798370361328,0.15971875190734863,-0.6112245122370992,-0.31090491975711754,-0.3706152974904398,-0.25053220987319946,0.5738707184791565,-0.7796833515167236,0.2677258253097534,-0.46844393014907837,0.34544098377227783
0.23992514610290527,-0.001967012882232666,0.09966719150543213,0.16104692220687866,-0.6095117972208001,-0.31400527345479295,-0.3618948066537004,-0.25325149297714233,0.5724672079086304,-0.7798365354537964,0.12117903679609299,-0.36098673939704895,0.27841946482658386
0.26055312156677246,0.03354045748710632,0.10727733373641968,0.15462958812713623,-0.6094795224312519,-0.31740472064454606,-0.3558977870432769,-0.2559067904949188,0.5724408030509949,-0.7789886593818665,0.042174793779850006,-0.3210429549217224,0.2050570249557495
0.28118419647216797,0.06055489182472229,0.1025540828704834,0.1676226258277893,-0.6099734463517451,-0.321133964691722,-0.3510267733434879,-0.2587207555770874,0.5728456974029541,-0.7777605056762695,0.02610165812075138,-0.33264973759651184,0.18458738923072815
0.2999541759490967,0.07532352209091187,0.09252434968948364,0.16989809274673462,-0.6110034580622983,-0.32583175744671966,-0.3470775933228478,-0.26218265295028687,0.5736896395683289,-0.7759771347045898,-0.015378832817077637,-0.36182910203933716,0.16346445679664612
0.31997203826904297,0.07060912251472473,0.09610390663146973,0.15185266733169556,-0.6126328278882347,-0.3316385152164468,-0.3440118797381008,-0.2663794159889221,0.5750234723091125,-0.7735567688941956,-0.06959331035614014,-0.395391583442688,0.11946789175271988
0.34023618698120117,0.06229114532470703,0.1040007472038269,0.13638848066329956,-0.6152551234570591,-0.3388429967226861,-0.34275815361599443,-0.2714433968067169,0.5771668553352356,-0.7701928019523621,-0.15437304973602295,-0.40565842390060425,0.0704333707690239
0.36008119583129883,0.06369125843048096,0.0898207426071167,0.12160640954971313,-0.6196961534238984,-0.34713820421680297,-0.34308169959039947,-0.27694812417030334,0.5807878375053406,-0.7654967308044434,-0.26851439476013184,-0.4150509536266327,0.05819442868232727
0.3803272247314453,0.06025305390357971,0.07692426443099976,0.08855819702148438,-0.6259553718881137,-0.3565266637096352,-0.3445406196245567,-0.2828482985496521,0.5858717560768127,-0.7594413757324219,-0.35170918703079224,-0.4439760446548462,0.044039368629455566
0.3999500274658203,0.045938849449157715,0.08373147249221802,0.06114321947097778,-0.6323888046369746,-0.36632506761460343,-0.34645986647306865,-0.2889198362827301,0.5910732746124268,-0.753098726272583,-0.2844676673412323,-0.4159739017486572,0.04473927244544029
0.4200320243835449,0.030785799026489258,0.0832982063293457,0.03697669506072998,-0.6366212625289248,-0.37446409672397823,-0.34715948196193164,-0.29412201046943665,0.5944819450378418,-0.7483872175216675,-0.12223082035779953,-0.34821394085884094,0.04923596605658531
0.43993711471557617,0.023587524890899658,0.06368428468704224,0.018580913543701172,-0.6383762291631966,-0.3804384232558504,-0.34716921188219435,-0.29819998145103455,0.5958922505378723,-0.7456468939781189,-0.06238056346774101,-0.26065266132354736,0.005046752281486988
0.4599599838256836,0.017996549606323242,0.036544978618621826,0.012428045272827148,-0.6396802772846897,-0.38547260846116693,-0.3484435449377911,-0.301657497882843,0.596938967704773,-0.7434155941009521,-0.11678658425807953,-0.1623212993144989,-0.04786616563796997
0.4806060791015625,0.01103547215461731,0.013395845890045166,-0.006013751029968262,-0.6423856461291982,-0.390076949694413,-0.3520429428654403,-0.3044620156288147,0.5991072654724121,-0.7405224442481995,-0.24531559646129608,-0.08378619700670242,-0.12996721267700195
0.49999213218688965,0.003360450267791748,0.023528456687927246,-0.0186728835105896,-0.6464692145233168,-0.39492126846770254,-0.3587428708181529,-0.30710190534591675,0.6023718118667603,-0.7367744445800781,-0.3341427743434906,0.0029184259474277496,-0.2093690037727356
0.5190861225128174,0.006876051425933838,0.026014864444732666,-0.01477658748626709,-0.6512771016781564,-0.39982464187561456,-0.3684147792932614,-0.3095799684524536,0.6062026023864746,-0.7325835824012756,-0.3903891444206238,0.07739869505167007,-0.3104633092880249
0.5399580001831055,0.03172972798347473,0.01761317253112793,-0.02125227451324463,-0.6557668156740246,-0.40491823242370245,-0.3797032453900662,-0.31223204731941223,0.6097671985626221,-0.7284882664680481,-0.3817065954208374,0.09756077826023102,-0.33261632919311523
0.559962272644043,0.03499573469161987,0.03095102310180664,-0.03561633825302124,-0.6595436673440427,-0.41000000956083366,-0.39130407883115337,-0.3150097727775574,0.6127563118934631,-0.7247748374938965,-0.30118077993392944,0.08982384949922562,-0.36880311369895935
0.5801310539245605,0.020894140005111694,0.047072529792785645,-0.07906186580657959,-0.6603445286340934,-0.4160046571726405,-0.40253270169826066,-0.3191576898097992,0.6133890151977539,-0.7224212288856506,-0.1346723586320877,-0.015307094901800156,-0.42321351170539856
0.599851131439209,-0.02957051992416382,0.09554451704025269,-0.14241266250610352,-0.6574370030793149,-0.4244842041219701,-0.41452813483166673,-0.32600507140159607,0.6110900640487671,-0.7213110327720642,0.004714304115623236,-0.09569753706455231,-0.5775663256645203
0.6190342903137207,-0.08814281225204468,0.13356316089630127,-0.16296637058258057,-0.6513100219911656,-0.4361534013685868,-0.43005559591142684,-0.3359752595424652,0.606228768825531,-0.7208379507064819,0.0022523319348692894,-0.10884183645248413,-0.7874078154563904
0.6399493217468262,-0.1256333887577057,0.17262405157089233,-0.16533374786376953,-0.6459315830095554,-0.44905390424073915,-0.4500683898439592,-0.3466566801071167,0.6019425988197327,-0.7193707823753357,-0.24027226865291595,0.048213206231594086,-0.8620374798774719
0.6599559783935547,-0.1199428141117096,0.14153873920440674,-0.12681829929351807,-0.6474842606088121,-0.4592844887763675,-0.47366936169177637,-0.3535832166671753,0.603181779384613,-0.7149480581283569,-0.7423840165138245,0.3570093810558319,-0.7453256845474243
0.6810770034790039,-0.05175536870956421,0.04841578006744385,-0.08221346139907837,-0.6592817425658075,-0.46433193964676067,-0.4987071759836844,-0.3539758622646332,0.6125493049621582,-0.7067422270774841,-1.2009841203689575,0.6398447751998901,-0.495148628950119
0.6999351978302002,0.011886894702911377,-0.06002861261367798,0.013315439224243164,-0.6802641075698304,-0.4653452800445873,-0.5234294131804962,-0.34884679317474365,0.628998339176178,-0.6947424411773682,-1.4890345335006714,0.7645866274833679,-0.3117094933986664
0.7200422286987305,0.02077344059944153,-0.18014883995056152,0.0671919584274292,-0.7038124187811684,-0.46517219543738,-0.5468663570123895,-0.3419862389564514,0.6471288800239563,-0.6813734173774719,-1.3600932359695435,0.722406804561615,-0.27651312947273254
0.7433390617370605,0.005334228277206421,-0.20929616689682007,0.05331915616989136,-0.7203857821779557,-0.46607055927358326,-0.5674531644588747,-0.3377317190170288,0.6596746444702148,-0.6713916659355164,-0.769967257976532,0.5121134519577026,-0.38470059633255005
0.7599892616271973,-0.023216336965560913,-0.1657254695892334,0.016847968101501465,-0.7236297657851369,-0.4690368611061083,-0.5831997950450294,-0.3387526869773865,0.6621091961860657,-0.6684744954109192,-0.10322672128677368,0.2365536391735077,-0.5318366289138794
0.7800202369689941,-0.0778108537197113,-0.11232173442840576,-0.012621819972991943,-0.7174392130574722,-0.476203464140036,-0.5979550610503094,-0.3454069495201111,0.6574572920799255,-0.6696596145629883,0.07383546233177185,0.03978785127401352,-0.7620663046836853
0.7999961376190186,-0.10618996620178223,-0.09336799383163452,0.00030040740966796875,-0.7095854438354683,-0.48729592191844084,-0.6158666308058525,-0.35522058606147766,0.6515193581581116,-0.6703290343284607,-0.04527696967124939,0.08084411919116974,-0.7476908564567566
0.819939136505127,-0.11414259672164917,-0.08486312627792358,0.0020693540573120117,-0.7064443709301175,-0.4955579741192753,-0.6340864736569308,-0.3617180287837982,0.6491332054138184,-0.6691682934761047,-0.3647453486919403,0.2802952826023102,-0.65463787317276
0.8399410247802734,-0.0935778021812439,-0.07692700624465942,0.0032123327255249023,-0.7100586048027391,-0.5031447324266084,-0.6562594055660046,-0.3656507730484009,0.6518782377243042,-0.6643450856208801,-0.7185019850730896,0.3805963099002838,-0.6649798154830933
0.8599410057067871,-0.004346400499343872,-0.13670480251312256,0.009371399879455566,-0.717337298574596,-0.5114717681349977,-0.6802557297179922,-0.368837833404541,0.6573805212974548,-0.6571222543716431,-0.7818058133125305,0.33984488248825073,-0.5586498975753784
0.8800220489501953,0.05656060576438904,-0.1789526343345642,0.030649781227111816,-0.7250733675255066,-0.5212820119425446,-0.702873338650365,-0.3727227747440338,0.6631903648376465,-0.6490427255630493,-0.7060227990150452,0.15735407173633575,-0.5558581948280334
0.90000319480896,0.06967177987098694,-0.17655909061431885,0.025009989738464355,-0.7293452594954363,-0.5336910754581351,-0.7234704410675165,-0.3793031573295593,0.6663815975189209,-0.6419227719306946,-0.4223030209541321,-0.021806182339787483,-0.5515042543411255
0.9200162887573242,0.07546615600585938,-0.15816229581832886,0.018865764141082764,-0.7287589994093565,-0.5468024615609582,-0.7399251980297255,-0.38788989186286926,0.6659443378448486,-0.6372281312942505,-0.1983710527420044,-0.19748108088970184,-0.545433521270752
0.9399142265319824,0.09112673997879028,-0.15332287549972534,0.02353823184967041,-0.7266305486938907,-0.5621974160070126,-0.7545182307410703,-0.39840829372406006,0.6643550395965576,-0.6323791742324829,-0.2250102460384369,-0.360086053609848,-0.48837438225746155
0.959996223449707,0.10916364192962646,-0.16116291284561157,0.007744550704956055,-0.7261775225933261,-0.5798203032828593,-0.768126135152577,-0.40965500473976135,0.6640163660049438,-0.625511884689331,-0.2577803432941437,-0.5070579051971436,-0.39744794368743896
0.9793972969055176,0.12895601987838745,-0.09675395488739014,-0.05640602111816406,-0.7247885304766664,-0.5980822659448913,-0.7779873217309716,-0.4215281009674072,0.6629771590232849,-0.6186885833740234,-0.03331601992249489,-0.6481742262840271,-0.2744539976119995
0.9999141693115234,0.10803383588790894,-0.039112091064453125,-0.06981021165847778,-0.7212554361297684,-0.6146637917096142,-0.7819759313806499,-0.4330765902996063,0.6603279709815979,-0.6135240793228149,0.16115783154964447,-0.7197322845458984,-0.18593232333660126
1.0199451446533203,0.05576819181442261,-0.008964836597442627,-0.12087339162826538,-0.7149794758447439,-0.628150916677846,-0.7810492851354794,-0.44373825192451477,0.6556019186973572,-0.6109686493873596,0.348003089427948,-0.69450843334198,-0.12318433076143265
1.0399131774902344,0.026852905750274658,0.019915759563446045,-0.09150576591491699,-0.7073316043163045,-0.6392055081193534,-0.7784623772646333,-0.45344290137290955,0.649807870388031,-0.610032320022583,0.4108802378177643,-0.5740944743156433,-0.19767270982265472
1.0599942207336426,0.03520628809928894,-0.059852659702301025,-0.06616926193237305,-0.700120843719264,-0.6484115691920461,-0.7764610440515873,-0.4618573486804962,0.6443101167678833,-0.6095508933067322,0.20961710810661316,-0.49207401275634766,-0.08117568492889404
1.0798892974853516,0.07813069224357605,-0.13642162084579468,-0.07122886180877686,-0.6982472551679244,-0.6576759931101421,-0.7752059989757414,-0.4682216942310333,0.642876148223877,-0.6062002778053284,0.029064064845442772,-0.5391724705696106,0.049685247242450714
1.0998992919921875,0.0964275598526001,-0.12684816122055054,-0.07473742961883545,-0.6995546685309418,-0.6676377832000929,-0.7727476059084532,-0.4737164080142975,0.6438770294189453,-0.600845456123352,0.01050642691552639,-0.6113244891166687,0.15740245580673218
1.1199541091918945,0.09611585736274719,-0.10394489765167236,-0.03973674774169922,-0.7009317851651259,-0.6776845805505933,-0.7688902295001626,-0.47917255759239197,0.6449300646781921,-0.595364511013031,0.07009440660476685,-0.639135479927063,0.15934279561042786
1.139916181564331,0.10926049947738647,-0.08176755905151367,-0.014667630195617676,-0.7017424733681809,-0.6871055731895236,-0.7641586805150793,-0.48442840576171875,0.6455494165420532,-0.590419590473175,0.0664467141032219,-0.6052069067955017,0.16786369681358337
1.1599071025848389,0.14789190888404846,-0.07438778877258301,0.011191308498382568,-0.7039093117930019,-0.6975582404752683,-0.7618571180079915,-0.48967358469963074,0.6472027897834778,-0.5842503309249878,-0.1360442042350769,-0.5987194776535034,0.10243133455514908
1.1801011562347412,0.17174193263053894,-0.06743258237838745,0.019261598587036133,-0.7090885701592432,-0.7109487911163356,-0.7635529178834193,-0.49525880813598633,0.6511422991752625,-0.5750933885574341,-0.346241295337677,-0.6426429748535156,0.14400142431259155
1.1999571323394775,0.17134469747543335,-0.05569732189178467,0.019374370574951172,-0.7170355040976066,-0.7270988601452356,-0.7673342833814304,-0.5010261535644531,0.6571530699729919,-0.5631365180015564,-0.38119611144065857,-0.718980610370636,0.17207194864749908
1.2199482917785645,0.1721792221069336,-0.06128561496734619,0.043511271476745605,-0.7231092530620683,-0.7418287193883982,-0.7671830122456544,-0.5065603852272034,0.661719024181366,-0.5527428388595581,-0.03147456422448158,-0.7710873484611511,0.22295185923576355
1.2399420738220215,0.16956400871276855,-0.021164417266845703,0.12452566623687744,-0.7233253265524867,-0.75424007935869,-0.7608102273840369,-0.5132835507392883,0.6618810296058655,-0.5463091135025024,0.3548603653907776,-0.8766561150550842,0.13107600808143616
1.2599501609802246,0.17756766080856323,-0.045201003551483154,0.12837934494018555,-0.7171188124408301,-0.7653496116764376,-0.748503780056937,-0.5221569538116455,0.6572158336639404,-0.5435251593589783,0.7044280767440796,-1.0409148931503296,0.15128961205482483
1.2808890342712402,0.23580390214920044,-0.12011855840682983,0.12592482566833496,-0.707638582626582,-0.7739117133580969,-0.7288353790113894,-0.5311225056648254,0.6500411629676819,-0.5434662699699402,1.0014814138412476,-1.1031297445297241,0.21985051035881042
1.299370288848877,0.2833561301231384,-0.11103129386901855,0.19941836595535278,-0.6946276402193982,-0.7810720698125325,-0.7057764672443865,-0.5409093499183655,0.6400994062423706,-0.5456097722053528,1.1327224969863892,-1.1044784784317017,0.10899525880813599
1.3195490837097168,0.3167029023170471,-0.11040771007537842,0.23148202896118164,-0.6782175641988138,-0.7902068222826273,-0.6849268426985177,-0.5532599687576294,0.6274060606956482,-0.5479645133018494,1.1956002712249756,-1.1547898054122925,-0.1389320194721222
1.3399810791015625,0.3347381353378296,-0.13727521896362305,0.23354953527450562,-0.6588656666651872,-0.8028043604181947,-0.6673853579472665,-0.5687469840049744,0.6122203469276428,-0.5492843985557556,1.1176278591156006,-1.2121280431747437,-0.273766428232193
1.359943151473999,0.3010079860687256,-0.0812990665435791,0.15257114171981812,-0.6398709940465032,-0.8206317055780212,-0.6541297934716638,-0.5868509411811829,0.5970919728279114,-0.5468887090682983,0.9615223407745361,-1.376717209815979,-0.3234427571296692
1.3799409866333008,0.18732315301895142,0.14011919498443604,-0.0916069746017456,-0.6224663003918872,-0.8427741254450906,-0.6436740925862586,-0.6064820885658264,0.5830406546592712,-0.5405951142311096,0.9040610790252686,-1.3851385116577148,-0.3971165716648102
1.4000132083892822,0.15593504905700684,0.21370553970336914,-0.034790873527526855,-0.6062658765890758,-0.8600223429596193,-0.6330705542305094,-0.6227930188179016,0.5698028206825256,-0.5361471772193909,0.7509971261024475,-0.9184908270835876,-0.282255083322525
1.419950008392334,0.1903144121170044,0.17112141847610474,0.04995149374008179,-0.5937455605139317,-0.8696408784278941,-0.6261565819953302,-0.6333228945732117,0.55946946144104,-0.534692645072937,0.49417644739151,-0.4692237079143524,-0.29051893949508667
1.4399480819702148,0.19516372680664062,0.15021568536758423,0.08635711669921875,-0.5847900785737308,-0.8760072538340479,-0.6254678010193397,-0.6405373811721802,0.5520243644714355,-0.533836305141449,0.13595424592494965,-0.26329463720321655,-0.3852548599243164
1.4599401950836182,0.25114911794662476,0.08775919675827026,0.07661253213882446,-0.5783830848879914,-0.885795276461719,-0.6323325787969832,-0.6484574675559998,0.5466707348823547,-0.5297679901123047,-0.1436522752046585,-0.36304694414138794,-0.4672245681285858
1.4799401760101318,0.30487489700317383,0.033822059631347656,0.1050792932510376,-0.5719425487027371,-0.8997447484590854,-0.6420503552293944,-0.6585279107093811,0.5412664413452148,-0.5228495597839355,0.0055403634905815125,-0.48948293924331665,-0.5386227369308472
1.4999570846557617,0.3066391944885254,0.059549570083618164,0.1676257848739624,-0.5607843480702905,-0.9116965441118077,-0.6453376153357502,-0.6694627404212952,0.5318505764007568,-0.5186083316802979,0.48110175132751465,-0.5306187272071838,-0.5009472370147705
1.5200562477111816,0.256255567073822,0.03719985485076904,0.2204766869544983,-0.5450718941868349,-0.9199441565065883,-0.6405202190180572,-0.6802821755409241,0.518479585647583,-0.5180688500404358,0.7300742268562317,-0.5573010444641113,-0.5495949983596802
1.5399432182312012,0.19428139925003052,-0.005529046058654785,0.31765782833099365,-0.5259852951435047,-0.9293990681491274,-0.6371888932445752,-0.6929539442062378,0.5020653605461121,-0.5174411535263062,0.6078275442123413,-0.5527878999710083,-0.7966119647026062
1.559941291809082,0.21204924583435059,-0.058624714612960815,0.4363037943840027,-0.5069403984728358,-0.939904898027752,-0.6395094428498159,-0.7059458494186401,0.48550471663475037,-0.5156800150871277,0.3818197548389435,-0.33029717206954956,-0.7861764430999756
1.5799612998962402,0.25846052169799805,-0.10255292057991028,0.41367483139038086,-0.4917989437201236,-0.9463275380494934,-0.6428235049058341,-0.715125560760498,0.47221240401268005,-0.5153745412826538,0.3221680223941803,-0.2065996527671814,-0.6227378845214844
1.6000142097473145,0.26622945070266724,-0.10080987215042114,0.3022143244743347,-0.47887382377223126,-0.9506801327029214,-0.6412530120687044,-0.7222689390182495,0.46077996492385864,-0.5157610177993774,0.5779842734336853,-0.34948524832725525,-0.36206215620040894
1.619950294494629,0.13211208581924438,-0.026140451431274414,0.23003792762756348,-0.46389592965250803,-0.9554145345369587,-0.632269354817706,-0.7302567362785339,0.4474356770515442,-0.5162622332572937,0.9305502772331238,-0.5148758292198181,-0.4322476387023926
1.6397690773010254,0.049029648303985596,0.008775830268859863,0.23907428979873657,-0.44438100508376316,-0.9612939721851546,-0.620142835914315,-0.7402985692024231,0.42989909648895264,-0.5168604850769043,1.0161751508712769,-0.5873247981071472,-0.5187711119651794
1.6599671840667725,0.060472846031188965,-0.04589226841926575,0.25304651260375977,-0.4254814667296636,-0.9692417157681906,-0.6090740807643046,-0.750948429107666,0.41275936365127563,-0.51546710729599,0.9080214500427246,-0.6640596985816956,-0.4398193657398224
1.679941177368164,-0.03798729181289673,-0.04207149147987366,0.2287401556968689,-0.40910066323674066,-0.9780740611025354,-0.5984589554002369,-0.7609781622886658,0.39778435230255127,-0.5125229954719543,0.835457980632782,-0.6551433205604553,-0.4145839512348175
1.699972152709961,-0.14470833539962769,-0.01708844304084778,0.16520941257476807,-0.39199509572708724,-0.9886613826516707,-0.590038639885387,-0.7719329595565796,0.38203293085098267,-0.5081048607826233,0.7447196245193481,-0.763617992401123,-0.5941805243492126
1.7199430465698242,-0.14115160703659058,0.021279633045196533,0.10763347148895264,-0.37325229461336185,-1.0044403340766141,-0.5852811761389773,-0.785758912563324,0.36464571952819824,-0.49961647391319275,0.7062361836433411,-1.0580660104751587,-0.7074784636497498
1.7399420738220215,-0.17072653770446777,0.03782042860984802,0.03800344467163086,-0.3525880155249111,-1.0257086288439379,-0.5779783858254741,-0.8024790287017822,0.345327764749527,-0.4865964949131012,0.9819205403327942,-1.2875142097473145,-0.7005858421325684
1.7601242065429688,-0.31114012002944946,0.07294762134552002,0.00645872950553894,-0.3274176021063861,-1.0495026558324294,-0.5658408414553101,-0.8211078643798828,0.3215988874435425,-0.4715465307235718,1.2740942239761353,-1.5021882057189941,-0.8985286355018616
1.7799463272094727,-0.46050459146499634,0.033898741006851196,0.08728095889091492,-0.2985181000788784,-1.0737593893297281,-0.5529893520599353,-0.8401241302490234,0.2941041588783264,-0.45573484897613525,1.1434334516525269,-1.3310918807983398,-1.0590018033981323
1.8000330924987793,-0.5593153238296509,-0.01925787329673767,0.1206020712852478,-0.26723946336859783,-1.0987375418024086,-0.5480419215258928,-0.8590197563171387,0.26406988501548767,-0.4385799467563629,0.761478841304779,-1.2679184675216675,-1.4833728075027466
1.8199462890625,-0.5023038983345032,-0.07348527014255524,0.15449762344360352,-0.23155486075705395,-1.122431401894278,-0.5471530692795056,-0.8771060109138489,0.22949115931987762,-0.42192313075065613,0.9724490642547607,-1.2453057765960693,-1.648341417312622
1.8399500846862793,-0.4363301396369934,0.012469500303268433,0.013017714023590088,-0.19113046326173774,-1.151259966444807,-0.5411346936025399,-0.8966473340988159,0.18996889889240265,-0.3999195694923401,1.2539037466049194,-1.8147916793823242,-1.7639210224151611
1.859943151473999,-0.44566380977630615,-0.019215136766433716,-0.008609116077423096,-0.1495016756639944,-1.1901267095837973,-0.5315976153002056,-0.9180600643157959,0.1489453911781311,-0.36739787459373474,1.166684865951538,-2.1388514041900635,-1.6699788570404053
1.8799540996551514,-0.5585956573486328,-0.10996231436729431,0.08289620280265808,-0.11153619440876016,-1.2303553701019871,-0.5250306251979084,-0.9367504715919495,0.11130508035421371,-0.3318279981613159,0.7834296822547913,-1.913952350616455,-1.6772221326828003
1.899960994720459,-0.6489627957344055,-0.0004775002598762512,0.08474269509315491,-0.07589823782104468,-1.2642825206602146,-0.5234632464307726,-0.9506466388702393,0.07582539319992065,-0.30086812376976013,0.4993705451488495,-1.4116791486740112,-1.6356865167617798
1.9199931621551514,-0.6585953831672668,0.03443262726068497,0.15372756123542786,-0.04417975660918859,-1.283969876620269,-0.5253763090149529,-0.9582106471061707,0.044165387749671936,-0.2826337218284607,0.2201089859008789,-0.6580758690834045,-1.4438798427581787
1.9390692710876465,-0.629977285861969,0.027800733223557472,0.17522478103637695,-0.02038793075362434,-1.2911926494597186,-0.5304438870630241,-0.9609652161598206,0.02038651891052723,-0.2759174108505249,-0.057884521782398224,-0.1274096667766571,-0.9589589834213257
1.959984302520752,-0.5598612427711487,0.10817322880029678,0.10402622818946838,-0.00754949313520502,-1.2935147076715114,-0.5378724523898835,-0.9617757797241211,0.0075494213961064816,-0.27373433113098145,-0.24231185019016266,-0.11169080436229706,-0.4813203811645508
1.9799752235412598,-0.4547085762023926,0.16051208972930908,0.04816514253616333,-0.00957776820227345,-1.3040433212850144,-0.5389907146621595,-0.9645877480506897,0.009577621705830097,-0.2635886073112488,0.04233642295002937,-0.688039243221283,0.45174333453178406
1.9999442100524902,-0.5591003894805908,0.14452660083770752,0.06171834468841553,-0.02014762011016499,-1.3180989140882386,-0.5287445459536797,-0.9680451154708862,0.020146256312727928,-0.24996589124202728,0.6483388543128967,-0.5707077980041504,0.9340652227401733
2.020031213760376,-0.7490913271903992,-0.007358621805906296,0.16587014496326447,-0.039274846541430736,-1.3221500216682762,-0.5137160501721778,-0.9684990644454956,0.039264749735593796,-0.24590237438678741,0.30004367232322693,0.08338264375925064,1.1971187591552734
2.0399422645568848,-0.7746198773384094,-0.07471358776092529,0.04929840564727783,-0.06355641399639134,-1.3179124623158818,-0.505295340903926,-0.9662402272224426,0.06351363658905029,-0.24969202280044556,-0.07816105335950851,0.22107215225696564,1.4612760543823242
2.059998035430908,-0.7260262966156006,-0.13950252532958984,-0.09731289744377136,-0.0971902464486532,-1.314380366490203,-0.5033416069584435,-0.9627402424812317,0.09703730791807175,-0.2524184584617615,-0.5959185361862183,0.16453377902507782,1.8299267292022705
2.079989194869995,-0.8367099761962891,-0.0506419837474823,-0.03770294785499573,-0.13950345967789246,-1.309141951361437,-0.5097812275026784,-0.9565792679786682,0.1390514224767685,-0.2561659514904022,-1.0365259647369385,0.4415684938430786,2.124324083328247
2.0999550819396973,-0.8558262586593628,0.018549233675003052,-0.014307856559753418,-0.1896939400890172,-1.2962251142661885,-0.5191633716191545,-0.9452755451202393,0.18855834007263184,-0.26627063751220703,-1.0886366367340088,0.882276713848114,2.415663719177246
2.1199681758880615,-0.8794810175895691,-0.006891012191772461,0.022577375173568726,-0.24356013709233476,-1.2772081857390545,-0.5243634518771078,-0.9289602041244507,0.24115921556949615,-0.28084757924079895,-0.9230798482894897,1.1485947370529175,2.6284091472625732
2.1399712562561035,-0.872130274772644,-0.00555071234703064,0.011207401752471924,-0.29785342720709973,-1.254682025434202,-0.5255549024332656,-0.9086011052131653,0.2934688329696655,-0.2971875071525574,-0.7648353576660156,1.0827243328094482,2.51678204536438
2.1599392890930176,-0.791041910648346,-0.02999401092529297,-0.0045802295207977295,-0.3487095334554757,-1.232917350045159,-0.5222395640480588,-0.8866772055625916,0.34168529510498047,-0.3115360140800476,-0.6162443161010742,0.9960647225379944,2.3889732360839844
2.1799402236938477,-0.7292312383651733,-0.030974537134170532,0.003188014030456543,-0.3954821295236033,-1.2119035966651803,-0.5182553336761029,-0.8640153408050537,0.3852531611919403,-0.3241260349750519,-0.6449221968650818,0.9344033002853394,2.1434855461120605
2.199985980987549,-0.6502853631973267,-0.049478769302368164,-0.020707756280899048,-0.43825142485778645,-1.1938333055740928,-0.5158668816457698,-0.8419175744056702,0.4243567883968353,-0.33331137895584106,-0.7591755986213684,0.8466700315475464,1.968872308731079
2.2199912071228027,-0.5146715044975281,-0.10132569074630737,0.02055606245994568,-0.4802807732256334,-1.1777436804605872,-0.5180859478912406,-0.8192366361618042,0.4620282053947449,-0.3396783173084259,-0.9289712905883789,0.7888637185096741,1.8016012907028198
2.23994517326355,-0.3657635450363159,-0.013785183429718018,-0.03500252962112427,-0.5170993046394957,-1.165629077167341,-0.5203282643539369,-0.7988789081573486,0.4943607747554779,-0.34263718128204346,-0.6712449193000793,0.5511688590049744,1.560336947441101
2.2599520683288574,-0.26201462745666504,-0.08084625005722046,-0.03292408585548401,-0.550331456474708,-1.1555965020213093,-0.5206717013098126,-0.7799319624900818,0.5229697823524475,-0.3438153564929962,-0.7864591479301453,0.511454164981842,1.4522358179092407
2.2799463272094727,-0.19973301887512207,-0.08312332630157471,0.007937312126159668,-0.5814468793173538,-1.1486835425454367,-0.5263291241337295,-0.7623184323310852,0.549233615398407,-0.3423641324043274,-0.8297606110572815,0.47719839215278625,1.2002837657928467
2.299943208694458,-0.06802314519882202,-0.06242799758911133,0.005514055490493774,-0.6089362733799348,-1.1421077042563805,-0.5313464364751321,-0.7460333108901978,0.5719952583312988,-0.3409631550312042,-0.6886263489723206,0.47368088364601135,1.1745237112045288
2.319477081298828,0.018898487091064453,-0.045499205589294434,-0.014539361000061035,-0.6345330418468821,-1.1365403173573798,-0.535300652773828,-0.7305989861488342,0.5928015112876892,-0.3388389050960541,-0.6783629059791565,0.288628488779068,0.9813512563705444
2.339992046356201,0.11284083127975464,-0.06213223934173584,0.011118113994598389,-0.6565602684993169,-1.1362878052661427,-0.5423513706552598,-0.7184927463531494,0.6103958487510681,-0.3334447145462036,-0.7989757657051086,0.18035320937633514,0.820261538028717
2.359950065612793,0.2430732250213623,-0.12336808443069458,0.0329744815826416,-0.6780289201244866,-1.1406698661062213,-0.5534862342038619,-0.7078712582588196,0.6272591352462769,-0.3247529864311218,-0.8444209694862366,0.09578525274991989,0.7724172472953796
2.379940986633301,0.31610798835754395,-0.1071740984916687,0.0520060658454895,-0.6979531265263308,-1.1465346881193181,-0.5647395721502305,-0.698233962059021,0.6426507830619812,-0.3153879940509796,-0.7914775013923645,0.03516646847128868,0.6524890065193176
2.400034189224243,0.357871949672699,-0.1620650291442871,0.08971595764160156,-0.7147485088088624,-1.152966702149371,-0.5776894723767583,-0.6902847290039062,0.6554275155067444,-0.3064669966697693,-0.789806067943573,0.16066385805606842,0.47381189465522766
2.4200141429901123,0.5164292454719543,-0.1761108636856079,0.08096590638160706,-0.7281716618913485,-1.1591692066094792,-0.5907825746354445,-0.6840471625328064,0.6655060648918152,-0.2986324727535248,-0.7616323828697205,-0.07925784587860107,0.5731300711631775
2.439969062805176,0.6146394610404968,-0.2772977948188782,0.0799347460269928,-0.7397490377956284,-1.162958373740873,-0.5998133280988045,-0.6780550479888916,0.6741025447845459,-0.29296261072158813,-0.460254967212677,0.12725485861301422,0.19402438402175903
2.4600942134857178,0.7135903835296631,-0.2786967158317566,0.09721788763999939,-0.7468929124792913,-1.1679516435886432,-0.6094438512735807,-0.6750619411468506,0.6793620586395264,-0.28767794370651245,-0.43450257182121277,0.05932319909334183,0.2183053195476532
2.4799442291259766,0.735807478427887,-0.28669434785842896,0.07217651605606079,-0.7543659224940632,-1.1724801835567107,-0.6184797019628229,-0.6716596484184265,0.6848267316818237,-0.2826409339904785,-0.48956289887428284,0.08275608718395233,0.21066950261592865
2.499969005584717,0.7702061533927917,-0.2833191156387329,0.025337398052215576,-0.7609362007846558,-1.176634220500081,-0.6276903746387902,-0.668658971786499,0.6895997524261475,-0.2781144380569458,-0.38711872696876526,0.11925080418586731,0.09811476618051529
2.5198922157287598,0.8354354500770569,-0.28641510009765625,0.035942256450653076,-0.7655797504950181,-1.1807385550275102,-0.6367774009495352,-0.6668259501457214,0.6929550766944885,-0.2741471230983734,-0.35578060150146484,0.08695624768733978,0.0856168121099472
2.5399632453918457,0.888491690158844,-0.3206135034561157,0.06000089645385742,-0.7695922622063273,-1.183765699791917,-0.6430445499615317,-0.6650725603103638,0.695842444896698,-0.27107563614845276,-0.22731490433216095,0.07350773364305496,0.120554618537426
2.559943199157715,0.8926510810852051,-0.36046069860458374,0.0815657377243042,-0.7733261205899441,-1.1845331762044449,-0.6466742313904896,-0.6628690958023071,0.698519229888916,-0.26958444714546204,-0.16493439674377441,0.09412743151187897,0.12275408953428268
2.5799403190612793,0.8450279235839844,-0.32337623834609985,0.07157459855079651,-0.775559618632709,-1.1836151280547313,-0.6486216640247999,-0.6611747741699219,0.7001157402992249,-0.26960304379463196,-0.0036664637736976147,0.14530761539936066,0.020978573709726334
2.5999813079833984,0.809650182723999,-0.31458020210266113,0.08763518929481506,-0.7731593729628561,-1.179213257126154,-0.6448468207035702,-0.6615332365036011,0.6983999013900757,-0.2731514871120453,0.3322254419326782,-0.0019545373506844044,-0.16389672458171844
2.6199393272399902,0.7966533899307251,-0.3973456621170044,0.19515585899353027,-0.7660231109956583,-1.1771903310956013,-0.6391718969683401,-0.6655652523040771,0.6932746767997742,-0.2763935923576355,0.30510184168815613,-0.24487291276454926,-0.3663296401500702
2.6399431228637695,0.7393350005149841,-0.4349779486656189,0.22142034769058228,-0.7548877345005465,-1.1840231865996658,-0.636810681067564,-0.6745462417602539,0.6852068901062012,-0.2747344672679901,0.2886933386325836,-0.5772449374198914,-0.6112810373306274
2.659940242767334,0.6340941786766052,-0.4001579284667969,0.221909761428833,-0.7381341047866892,-1.1960917737704742,-0.6344993575826237,-0.6884002685546875,0.6729088425636292,-0.27073776721954346,0.5553964972496033,-0.7733440399169922,-0.8635757565498352
2.679995059967041,0.49375438690185547,-0.2947371006011963,0.16817736625671387,-0.7143808636685371,-1.2079520844040124,-0.6268106389992298,-0.7063093781471252,0.6551497578620911,-0.2681528627872467,0.7311302423477173,-0.9283549785614014,-1.1717957258224487
2.6999411582946777,0.3860422372817993,-0.289026141166687,0.22326818108558655,-0.686197733522244,-1.2276476635750668,-0.6271105472487142,-0.7285562753677368,0.633600115776062,-0.2603011429309845,0.13984110951423645,-1.0175527334213257,-1.4403557777404785
2.719942092895508,0.2532745599746704,-0.2349390983581543,0.22544018924236298,-0.658991041467559,-1.2584587338408506,-0.6425363582837432,-0.7523590326309204,0.6123194694519043,-0.24294191598892212,-0.3349996507167816,-1.1585160493850708,-1.5490800142288208
2.7400331497192383,0.11198985576629639,-0.06144052743911743,0.1083717942237854,-0.6318401635813369,-1.2982940690814089,-0.6624682715793769,-0.7771663069725037,0.5906306505203247,-0.21718217432498932,-0.42963606119155884,-1.6301305294036865,-1.3903393745422363
2.759942054748535,-0.26914459466934204,0.07910758256912231,0.1300569325685501,-0.6085889053583279,-1.349856056538624,-0.6896887172785905,-0.8005118370056152,0.5717102885246277,-0.17980049550533295,-1.1342049837112427,-1.9327988624572754,-1.569473385810852
2.779961109161377,-0.6819043159484863,0.3354261517524719,0.16047996282577515,-0.5842421162714123,-1.4045303448676902,-0.725120351840492,-0.822627604007721,0.5515673756599426,-0.1380494385957718,-1.2399412393569946,-1.701981544494629,-1.358042597770691
2.7999401092529297,-0.635577917098999,0.5333912968635559,-0.03334057331085205,-0.5634590073803071,-1.4520445810648515,-0.7499577345200764,-0.8394588232040405,0.5341137051582336,-0.1001584529876709,-0.4225030243396759,-1.6463570594787598,-1.0444133281707764
2.819941997528076,-0.6367177367210388,0.42133569717407227,-0.1321689486503601,-0.5448982378748042,-1.4791852851834724,-0.7476742333306541,-0.8515941500663757,0.5183310508728027,-0.07823441177606583,0.6570910811424255,-1.1713443994522095,-0.8796384334564209
2.839980125427246,-0.5479138493537903,-0.018237709999084473,-0.14327174425125122,-0.5273597805846948,-1.4916503082437256,-0.7362002852753159,-0.8614336848258972,0.5032535791397095,-0.06832176446914673,0.2246817797422409,-0.6939072608947754,-0.9087244272232056
2.859985113143921,-0.6046330332756042,-0.20464089512825012,-0.27350205183029175,-0.5029358274271403,-1.5042771767065228,-0.7439035497503512,-0.874233603477478,0.4819999039173126,-0.058239202946424484,-0.6671590209007263,-0.0422886423766613,-1.5589462518692017
2.87998628616333,-0.5589428544044495,-0.22186318039894104,-0.49655336141586304,-0.47079893528371464,-1.5080412363876121,-0.7671864283473662,-0.8894519805908203,0.4535984396934509,-0.05589102953672409,-1.1904692649841309,0.5650743246078491,-1.619353175163269
2.8999481201171875,-0.32110595703125,-0.2918713092803955,-0.7473435997962952,-0.4472257984873426,-1.5107323214879111,-0.7963304921942661,-0.9000244736671448,0.4324658513069153,-0.05412417650222778,-1.1453452110290527,0.42322179675102234,-0.8515046834945679
2.9199411869049072,-0.4424588084220886,-0.1723669469356537,-0.471668541431427,-0.43733481172500327,-1.5142252042679558,-0.8208627548327833,-0.9044345617294312,0.4235266149044037,-0.051219530403614044,-1.1000617742538452,0.35022491216659546,-0.2981649339199066
2.9400651454925537,-0.46655070781707764,-0.27282118797302246,-0.16570419073104858,-0.4371726171788733,-1.5156182055411913,-0.8469851151094715,-0.9045736193656921,0.42337968945503235,-0.049963388592004776,-1.1223385334014893,0.5845353007316589,0.17499761283397675
2.9600319862365723,-0.3705103397369385,-0.3076210916042328,-0.18340301513671875,-0.4466872674685276,-1.5127407905691483,-0.8690009105803135,-0.9003636837005615,0.4319802224636078,-0.0523299016058445,-0.9912012219429016,0.6261916160583496,0.5735602974891663
2.979959011077881,-0.41109973192214966,-0.1903955042362213,-0.18994289636611938,-0.458726262997688,-1.5091703832205725,-0.8901958994595159,-0.8949154019355774,0.4428064227104187,-0.055219925940036774,-0.9841033816337585,0.666290819644928,0.507299542427063
2.999941110610962,-0.4849018454551697,-0.1886444389820099,-0.09353507310152054,-0.47067873611789973,-1.5029974494528069,-0.9094764723829114,-0.8892133235931396,0.45349133014678955,-0.06038020923733711,-0.8197843432426453,0.8571932911872864,0.5954424142837524
3.01997709274292,-0.535468339920044,-0.26279711723327637,-0.01786726713180542,-0.48507320529462017,-1.4934621857007468,-0.9260652687531953,-0.8819969892501831,0.46627312898635864,-0.06834478676319122,-0.7773406505584717,0.8903905749320984,0.703193724155426
3.0399413108825684,-0.5085573792457581,-0.2662455439567566,0.07260400801897049,-0.49927052084844514,-1.481356449960251,-0.9413119709039874,-0.8744229674339294,0.4787852466106415,-0.07841749489307404,-0.7328975200653076,0.9818019270896912,0.6558674573898315
3.0599381923675537,-0.47321540117263794,-0.1998932659626007,0.12374962121248245,-0.5129576025461627,-1.4698031228699613,-0.9572096720193918,-0.8668572902679443,0.4907563328742981,-0.0878455638885498,-0.8715904951095581,0.9220109581947327,0.46556007862091064
3.0799801349639893,-0.421275794506073,-0.16222387552261353,0.1502346396446228,-0.5210019873694245,-1.4638952129161142,-0.9794941550123538,-0.8623698949813843,0.4977494180202484,-0.09254109114408493,-1.1124448776245117,0.7966573238372803,0.16119477152824402
3.099940299987793,-0.3956407904624939,-0.1350034475326538,0.11481191217899323,-0.5246665607955544,-1.4621337932452785,-1.0057855182698228,-0.8603863716125488,0.5009244680404663,-0.09386147558689117,-1.156915545463562,0.7171756029129028,-0.00943120289593935
3.119941234588623,-0.34102344512939453,-0.04505360126495361,0.05965227633714676,-0.5265549117235506,-1.4621552319090896,-1.0322356662207153,-0.8594465255737305,0.5025578737258911,-0.0937403067946434,-1.128687858581543,0.6288910508155823,-0.05371686816215515
3.1399641036987305,-0.3060797452926636,-0.037803053855895996,0.1042003482580185,-0.5282648558338557,-1.461042311641197,-1.0569151081274035,-0.8584864735603333,0.504035472869873,-0.09460250288248062,-1.0791469812393188,0.7531437873840332,0.026752933859825134
3.1599812507629395,-0.27107763290405273,-0.061292946338653564,0.1732930988073349,-0.5318804060024834,-1.4566027944264814,-1.0824499185258987,-0.8562419414520264,0.5071548819541931,-0.09820453077554703,-1.126729965209961,0.9328176975250244,0.06748341023921967
3.1799402236938477,-0.21545732021331787,-0.07234454154968262,0.18590235710144043,-0.535518594124269,-1.451222359623964,-1.1078196922184422,-0.8538634777069092,0.5102871060371399,-0.10258924961090088,-1.139755129814148,0.8891212940216064,0.05697013810276985
3.199942111968994,-0.1701226830482483,-0.11986309289932251,0.2352646440267563,-0.5400878945236449,-1.4468792941974153,-1.1353977443850092,-0.851087212562561,0.5142113566398621,-0.10600735992193222,-1.278718113899231,0.9935897588729858,0.11275344341993332
3.2199740409851074,-0.16581887006759644,-0.1563112735748291,0.233867347240448,-0.5453563154433778,-1.4406813949553066,-1.1649037655397925,-0.8477157354354858,0.5187227725982666,-0.11092717200517654,-1.2899900674819946,1.114720344543457,0.09522044658660889
3.240082263946533,-0.10688525438308716,-0.13781321048736572,0.24535459280014038,-0.5500697780978484,-1.4330109093592622,-1.1948492902896868,-0.8444088101387024,0.522746741771698,-0.11708912998437881,-1.2910263538360596,1.1986057758331299,0.026741264387965202
3.260284185409546,-0.02997034788131714,-0.2039332389831543,0.29110395908355713,-0.5532453894492769,-1.4238759037588644,-1.224190229739531,-0.8416575789451599,0.5254512429237366,-0.12455417215824127,-1.289340853691101,1.3130700588226318,-0.062068406492471695
3.2800111770629883,0.024622321128845215,-0.40907222032546997,0.5363974571228027,-0.5557758667912001,-1.4098368077438186,-1.2564438309607666,-0.8385109305381775,0.5276025533676147,-0.13614408671855927,-1.4203026294708252,1.8543070554733276,-0.18462882936000824
3.300011157989502,-0.043867409229278564,-0.5127091407775879,0.40185874700546265,-0.5506997311140591,-1.3875570312911223,-1.285288745170403,-0.837892472743988,0.5232836604118347,-0.1552766114473343,-0.8430581092834473,1.7175776958465576,-0.7130618095397949
3.3201491832733154,0.1472398042678833,-0.325988233089447,0.251545250415802,-0.535603584511811,-1.3690656448416192,-1.301278202146429,-0.8425219058990479,0.5103601813316345,-0.17230623960494995,-0.25924116373062134,0.9309197068214417,-0.9850214719772339
3.3400301933288574,0.08204472064971924,-0.2964945435523987,0.21274976432323456,-0.5144444511600474,-1.3653745898162182,-1.3167581763387104,-0.8522628545761108,0.49205127358436584,-0.1775781810283661,-0.8569395542144775,0.2634592056274414,-1.4292023181915283
3.3599841594696045,-0.08896857500076294,-0.25685372948646545,0.33692264556884766,-0.4878089661037874,-1.3828339858271426,-1.3596479424453807,-0.8678033351898193,0.46869152784347534,-0.1650628298521042,-2.3062031269073486,0.19664208590984344,-1.8300068378448486
3.379976272583008,-0.1338634490966797,-0.1625824272632599,0.34591996669769287,-0.4628530055319492,-1.4055997190563254,-1.4276359531087968,-0.8826009035110474,0.4465027451515198,-0.14714361727237701,-3.0804407596588135,0.6421114802360535,-1.670536756515503
3.3999361991882324,-0.11529499292373657,0.09462156891822815,0.20431602001190186,-0.44061592663002846,-1.4211398510806375,-1.4985866313801484,-0.8943791389465332,0.4264966547489166,-0.13485795259475708,-2.7035000324249268,0.8420190811157227,-1.5076484680175781
3.4199953079223633,-0.03340250253677368,0.2983248233795166,0.01080504059791565,-0.41944853364045076,-1.4272055153667007,-1.5505308377496083,-0.9039143323898315,0.4072568416595459,-0.130693256855011,-1.6658726930618286,0.7009589076042175,-1.2580630779266357
3.448371171951294,0.01759260892868042,0.14458918571472168,0.040352046489715576,-0.3877602714338077,-1.426727778082076,-1.6198194200685572,-0.9161674976348877,0.3781159222126007,-0.13291175663471222,-1.7614187002182007,0.7667649984359741,-0.8463113307952881
3.4684371948242188,0.06808030605316162,0.15573033690452576,0.02019655704498291,-0.37762548816021446,-1.4275656981227918,-1.6638429121917144,-0.9200243949890137,0.368714302778244,-0.13268424570560455,-2.080444812774658,0.779598593711853,-0.741344690322876
3.487183094024658,0.11788737773895264,0.21077629923820496,-0.033431217074394226,-0.3701265918474591,-1.4292384998873537,-1.7104587393864468,-0.9229564070701599,0.36173346638679504,-0.13153144717216492,-2.1078438758850098,0.7803531289100647,-0.6155053377151489
3.509654998779297,0.15770524740219116,0.19940969347953796,-0.04583054780960083,-0.3658080835335741,-1.429204918068591,-1.7553309773084853,-0.9244899749755859,0.3577040135860443,-0.1317816823720932,-1.9803329706192017,0.8468272686004639,-0.38130366802215576
3.522979259490967,0.1678447723388672,0.18425270915031433,-0.02328638732433319,-0.3666959024256381,-1.4261267157522055,-1.7962583346616479,-0.9237651824951172,0.35853296518325806,-0.13458095490932465,-1.8199503421783447,0.9350841641426086,-0.08582165837287903
3.5472450256347656,0.15759742259979248,0.18342354893684387,-0.0027072876691818237,-0.3716261463921863,-1.4198767085992925,-1.8329172424120637,-0.9211472272872925,0.363131046295166,-0.14008435606956482,-1.6680221557617188,0.9928144812583923,0.06545491516590118
3.5672361850738525,0.20426130294799805,0.1820739209651947,-0.0054160356521606445,-0.3789315943726739,-1.4128978942523343,-1.8668448430691986,-0.9175029397010803,0.3699280619621277,-0.1460883915424347,-1.5828120708465576,0.9329851865768433,0.17058956623077393
3.586869239807129,0.24598002433776855,0.17669668793678284,-0.02691429853439331,-0.3878559388005147,-1.4083648176029175,-1.8997506094478809,-0.9135368466377258,0.37820449471473694,-0.14970611035823822,-1.5746569633483887,0.7365615963935852,0.21210290491580963
3.607922077178955,0.27898550033569336,0.17382332682609558,-0.013089537620544434,-0.39800284982988016,-1.4082944624242373,-1.931860925434248,-0.9096924066543579,0.3875780701637268,-0.1491418182849884,-1.5237998962402344,0.4951748847961426,0.3284388780593872
3.627873182296753,0.26504069566726685,0.18475809693336487,-0.03221927583217621,-0.40954143453148256,-1.412702888607802,-1.961090408973641,-0.9058641195297241,0.3981887400150299,-0.14441633224487305,-1.2757164239883423,0.21811063587665558,0.3941456377506256
3.6477091312408447,0.2593860626220703,0.16858375072479248,-0.11344242095947266,-0.42193448715951687,-1.4177040427474448,-1.9805087058455477,-0.9016286134719849,0.4095260500907898,-0.13912096619606018,-0.7072398066520691,0.10199813544750214,0.5839831233024597
3.665908098220825,0.24913722276687622,0.17079588770866394,-0.107979416847229,-0.4354908928084381,-1.4185155511890584,-1.9892924225857538,-0.8961710333824158,0.42185553908348083,-0.13753437995910645,-0.32919058203697205,0.1970943808555603,0.6404262781143188
3.687565326690674,0.2699759006500244,0.1131359338760376,-0.09193496406078339,-0.44835054161243343,-1.4147600264853017,-1.9929789588765656,-0.8902151584625244,0.4334796965122223,-0.14004430174827576,-0.21763695776462555,0.3356243968009949,0.5933711528778076
3.707803249359131,0.32626205682754517,0.07702985405921936,-0.10734564065933228,-0.4606334162638064,-1.4087224498013,-1.9960475302662224,-0.8840319514274597,0.444515585899353,-0.14454635977745056,-0.27357062697410583,0.3891596794128418,0.5768252015113831
3.7273383140563965,0.30273252725601196,0.08800286054611206,-0.10259044170379639,-0.4720426907673593,-1.4029581908330544,-2.0018309742030245,-0.8781262636184692,0.4547065496444702,-0.14878275990486145,-0.4187314510345459,0.4557286202907562,0.4540015459060669
3.746709108352661,0.30303359031677246,0.08163031935691833,-0.04487508535385132,-0.4816714505899441,-1.3959194815934914,-2.009867008995096,-0.8727052807807922,0.46326109766960144,-0.15419098734855652,-0.4508512020111084,0.6282244324684143,0.3996761739253998
3.7661852836608887,0.34827154874801636,0.07573240995407104,0.002434253692626953,-0.49072416890970955,-1.3860250240302225,-2.0188381596783502,-0.8669788837432861,0.47126471996307373,-0.1620410829782486,-0.47646456956863403,0.7563517689704895,0.3456546366214752
3.786166191101074,0.3930503726005554,0.07533767819404602,0.009891033172607422,-0.49857556164824657,-1.3744430432286816,-2.026779923783049,-0.8613885045051575,0.47817498445510864,-0.17134417593479156,-0.35817572474479675,0.7691609263420105,0.2830978333950043
3.807199001312256,0.4262241721153259,0.0388815701007843,0.038802385330200195,-0.5045651933307472,-1.3624042583718319,-2.0321909318898315,-0.856445848941803,0.48342686891555786,-0.18110579252243042,-0.24348846077919006,0.7098591327667236,0.21523034572601318
3.826127052307129,0.4440646171569824,-0.005252212285995483,0.08945798873901367,-0.5083403070444026,-1.349986547846962,-2.035747720208954,-0.8523440957069397,0.48672810196876526,-0.19132556021213531,-0.15469303727149963,0.7093101739883423,0.0774051621556282
3.8450822830200195,0.4510366916656494,-0.0016879439353942871,0.09089751541614532,-0.508801705046141,-1.337890505169931,-2.0392287816242,-0.8497489094734192,0.4871310889720917,-0.20156943798065186,-0.15488040447235107,0.6579517722129822,-0.08875750005245209
3.866342067718506,0.34367579221725464,-0.0009239614009857178,0.1193065196275711,-0.5063211917695533,-1.328994351168859,-2.0457450522749907,-0.8490927219390869,0.4849632978439331,-0.20940956473350525,-0.39950376749038696,0.5732139945030212,-0.32388824224472046
3.8870460987091064,0.26762402057647705,-0.031042367219924927,0.15507984161376953,-0.5006393472045568,-1.3262807949334798,-2.0626237749341327,-0.8511812686920166,0.4799865186214447,-0.21237652003765106,-0.9521815776824951,0.5249361991882324,-0.5359700918197632
3.907072067260742,0.2978290915489197,-0.04643842577934265,0.17683595418930054,-0.49558475850321854,-1.330542376773073,-2.0940968580512895,-0.8544240593910217,0.4755461513996124,-0.20932182669639587,-1.5873937606811523,0.5624635219573975,-0.6300672888755798
3.925945281982422,0.2883450388908386,-0.05450165271759033,0.20437419414520264,-0.4905342005280077,-1.3374208389630873,-2.1349376428930578,-0.8581693172454834,0.4710971713066101,-0.20399263501167297,-1.6283531188964844,0.6840258836746216,-0.706823468208313
3.946845054626465,0.3326035737991333,-0.028968989849090576,0.1425360143184662,-0.4825537541524354,-1.3365740690794237,-2.16360419699104,-0.8616257905960083,0.4640428423881531,-0.20558522641658783,-0.5356576442718506,0.7183737754821777,-0.5938729643821716
3.9668691158294678,0.4024389982223511,-0.012556076049804688,0.09795078635215759,-0.4724407971210326,-1.323527945962258,-2.1652136801258806,-0.8633767366409302,0.45506107807159424,-0.21794582903385162,0.5327950119972229,0.6730309724807739,-0.48233562707901
3.9856581687927246,0.3538011908531189,-0.10312676429748535,0.16282770037651062,-0.45889240600367365,-1.3051374856452127,-2.153724316346924,-0.865092933177948,0.4429553747177124,-0.23538316786289215,0.6434345245361328,0.6655310392379761,-0.5889851450920105
4.006787300109863,0.323638916015625,-0.17962238192558289,0.2020133137702942,-0.4435171030034422,-1.2906171488733467,-2.149717380442295,-0.8680267930030823,0.42911893129348755,-0.24977326393127441,0.062377214431762695,0.5875242948532104,-0.8123606443405151
4.027467250823975,0.25406980514526367,-0.11010614037513733,0.13319310545921326,-0.42634134875811197,-1.2847937984537254,-2.159181897473985,-0.8735003471374512,0.41354241967201233,-0.2568654417991638,-0.3426154553890228,0.3987802565097809,-1.0628772974014282
4.046604156494141,0.18153786659240723,-0.023925453424453735,0.059648871421813965,-0.4063379337892625,-1.2844363956290628,-2.173944915657511,-0.8811687231063843,0.3952481150627136,-0.2594626545906067,-0.3481370508670807,0.25729885697364807,-1.217091679573059
4.06550407409668,0.12431102991104126,-0.008429646492004395,0.07394447922706604,-0.3848815069604273,-1.284714196122477,-2.1885746776665562,-0.889173150062561,0.3754493296146393,-0.261551171541214,-0.3410537540912628,0.3094410002231598,-1.2187995910644531
4.086643218994141,0.079151451587677,0.01780673861503601,0.11264654994010925,-0.3634648193392235,-1.2816222391796643,-2.2010300140247043,-0.8958629369735718,0.3555148243904114,-0.2665313482284546,-0.08769326657056808,0.42267486453056335,-1.1597073078155518
4.1064231395721436,0.09227347373962402,0.13589704036712646,0.03570336103439331,-0.3413346875606709,-1.2755057784803336,-2.2034343998019725,-0.9015234708786011,0.3347450792789459,-0.27422866225242615,0.5479397177696228,0.2535647451877594,-1.0368582010269165
4.126303195953369,0.03012239933013916,0.17148485779762268,-0.009796559810638428,-0.31730282035734936,-1.270013571096059,-2.1936784698053597,-0.9074265956878662,0.3120051622390747,-0.2814783751964569,0.9664813280105591,-0.01752275601029396,-1.0208055973052979
4.146115303039551,-0.09932518005371094,0.08162957429885864,0.04025253653526306,-0.2917068885374645,-1.2686284497674727,-2.1807900160244142,-0.9143621325492859,0.287587434053421,-0.2850187122821808,0.8801077008247375,-0.23616987466812134,-1.0839284658432007
4.166110038757324,-0.21202516555786133,0.045651644468307495,0.07653871178627014,-0.26553272425265423,-1.270852811063202,-2.1717971796566298,-0.9218709468841553,0.2624233663082123,-0.28511103987693787,0.710699200630188,-0.25720885396003723,-1.1785855293273926
4.186350107192993,-0.35012704133987427,0.19272637367248535,0.038752466440200806,-0.2356415964379961,-1.2764964704350197,-2.1674667819514464,-0.930558443069458,0.23346689343452454,-0.28205373883247375,0.6470945477485657,-0.42899811267852783,-1.556961178779602
4.206169128417969,-0.3366524577140808,0.19519533216953278,-0.01623666286468506,-0.2011162478839485,-1.2847679908770286,-2.1613530341607663,-0.9400352835655212,0.1997632086277008,-0.27645736932754517,0.9388929009437561,-0.5596387982368469,-1.5265651941299438
4.225341320037842,-0.3409249782562256,0.15920193493366241,-0.0457877516746521,-0.16704383472065526,-1.2942386725994446,-2.1487346770134548,-0.9486106634140015,0.16626806557178497,-0.26924511790275574,1.170900583267212,-0.6218661665916443,-1.3825770616531372
4.244266033172607,-0.3449922800064087,0.13904565572738647,-0.06103739142417908,-0.13546188449787108,-1.3040788798742013,-2.132456515072117,-0.9558042287826538,0.13504797220230103,-0.26115185022354126,1.1755095720291138,-0.6230891942977905,-1.2417376041412354
4.265743255615234,-0.31144773960113525,0.05967339873313904,0.036371052265167236,-0.10658973488885257,-1.311158495820492,-2.117488413587379,-0.9609980583190918,0.10638801753520966,-0.2552735507488251,0.9273034930229187,-0.30081748962402344,-1.195070743560791
4.285796165466309,-0.3666319251060486,0.09426430612802505,0.0209730863571167,-0.07794902476355715,-1.3162940642047294,-2.109599002271714,-0.964850127696991,0.07787010818719864,-0.2509992718696594,0.6143702268600464,-0.29115724563598633,-1.3102856874465942
4.305920124053955,-0.26370251178741455,0.08325175940990448,-0.022882938385009766,-0.05294240684129085,-1.3231739891862044,-2.1063230822817682,-0.9681396484375,0.05291767790913582,-0.24475613236427307,0.3525298535823822,-0.4240456819534302,-1.0483036041259766
4.325504302978516,-0.2688765525817871,0.08871060609817505,0.0006719231605529785,-0.03319796425129784,-1.3314637394923372,-2.103291296860669,-0.9709612131118774,0.03319186717271805,-0.2369236946105957,0.4255368411540985,-0.3454212546348572,-0.7819445133209229
4.34574031829834,-0.2937546372413635,0.11059878766536713,0.03134644031524658,-0.017942211934222067,-1.3367194175741166,-2.095125415167425,-0.9725723266601562,0.017941249534487724,-0.23190784454345703,0.745256781578064,-0.20031139254570007,-0.47079402208328247
4.365433216094971,-0.27744942903518677,0.10487350821495056,0.08963307738304138,-0.008453640030502717,-1.3393387986892054,-2.079484012063998,-0.9732984304428101,0.008453539572656155,-0.2293882668018341,0.9955156445503235,-0.06798344105482101,-0.14416736364364624
4.3852972984313965,-0.3275362253189087,0.03872430697083473,0.09974634647369385,-0.003679873272196591,-1.3406500454758952,-2.059219699997271,-0.9736266136169434,0.003679865039885044,-0.22811844944953918,1.0230838060379028,-0.14483313262462616,0.11728017032146454
4.405681133270264,-0.36739230155944824,-0.0974603146314621,0.18396329879760742,-0.0034967029080062452,-1.3453767828131638,-2.040580612338056,-0.9746946096420288,0.003496695775538683,-0.22351397573947906,0.8165329694747925,-0.32853132486343384,0.33007141947746277
4.425324201583862,-0.4608898162841797,-0.11758113652467728,0.2916473150253296,-0.009076028533664683,-1.351170239288496,-2.0265147949073423,-0.9759388566017151,0.00907590426504612,-0.21785575151443481,0.4552692472934723,-0.21264857053756714,0.5098041892051697
4.446028232574463,-0.5485002398490906,-0.012515386566519737,0.22172047197818756,-0.017338023831668433,-1.35773549479773,-2.013264435186524,-0.9772413372993469,0.01733715459704399,-0.2114207148551941,0.7149887084960938,-0.519255518913269,0.5620099306106567
4.466850280761719,-0.45840364694595337,-0.049961429089307785,0.1883883774280548,-0.02967160817542694,-1.3701584420503137,-1.9941160244371974,-0.9795083403587341,0.02966725453734398,-0.19920675456523895,0.811882734298706,-0.7146506905555725,0.986028254032135
4.48533821105957,-0.5516502857208252,-0.14578455686569214,0.24832814931869507,-0.04779555311798354,-1.382250565528108,-1.975078275178559,-0.9811562299728394,0.04777735844254494,-0.1872166097164154,0.6827784776687622,-0.49183982610702515,1.13884437084198
4.504969120025635,-0.6127630472183228,-0.06759832799434662,0.24018914997577667,-0.07014299570652148,-1.3867680312001631,-1.9611876446179,-0.9806970357894897,0.07008549571037292,-0.18254134058952332,0.26474201679229736,-0.05265970528125763,1.3114049434661865
4.526515007019043,-0.5485360026359558,-0.08924871683120728,0.15473507344722748,-0.09853285155186661,-1.384375616169632,-1.9542867444649563,-0.9779077172279358,0.09837348759174347,-0.184443861246109,-0.07496609538793564,0.1990741640329361,1.646105170249939
4.545060157775879,-0.518774151802063,-0.04619123041629791,0.08450944721698761,-0.13510281869100724,-1.379774832464723,-1.9502751562022214,-0.9728640913963318,0.13469219207763672,-0.18813179433345795,-0.2099098414182663,0.20737196505069733,1.996411681175232
4.5649800300598145,-0.5785786509513855,-0.028468891978263855,0.10275736451148987,-0.17733080302007972,-1.3746465357609128,-1.9471260518263085,-0.9654431939125061,0.17640286684036255,-0.1918381154537201,-0.28422117233276367,0.28616398572921753,2.1933746337890625
4.583796977996826,-0.5791704654693604,-0.04428505897521973,0.13654662668704987,-0.2224925336655622,-1.3672887651931536,-1.9443699502943181,-0.9552229046821594,0.22066140174865723,-0.1971239447593689,-0.35120218992233276,0.39530280232429504,2.2721288204193115
4.60407829284668,-0.5282739400863647,-0.10174170136451721,0.16511589288711548,-0.26884814779491895,-1.3576531854059148,-1.9419367724915042,-0.9422614574432373,0.2656211256980896,-0.2039341926574707,-0.3461805284023285,0.4851594567298889,2.309220790863037
4.6248040199279785,-0.490917444229126,-0.09126076102256775,0.13457173109054565,-0.3134234268275276,-1.3474070919530219,-1.9364426845053555,-0.9276465177536011,0.308317095041275,-0.2107435166835785,-0.0798594206571579,0.35953736305236816,2.148847818374634
4.645088195800781,-0.4428529143333435,-0.08438876271247864,0.13575071096420288,-0.3525734464765287,-1.3383933208540189,-1.9254633703079862,-0.9132567644119263,0.345314085483551,-0.2161491960287094,0.20170873403549194,0.19074398279190063,1.9144017696380615
4.665058135986328,-0.3671039938926697,-0.13800007104873657,0.1476709544658661,-0.38711370419015506,-1.330891086774182,-1.9107825976310127,-0.8994823098182678,0.3775172829627991,-0.22002801299095154,0.24103766679763794,0.04456271603703499,1.7647713422775269
4.684835195541382,-0.3033227324485779,-0.17750284075737,0.14157511293888092,-0.41819322402917664,-1.3266576174772582,-1.899945961334656,-0.8867255449295044,0.4061100482940674,-0.22089019417762756,-0.048599038273096085,-0.04839083552360535,1.4950592517852783
4.704806327819824,-0.231400728225708,-0.20554319024085999,0.07846206426620483,-0.44567620061503804,-1.3280676791088935,-1.8974748248774937,-0.8758686780929565,0.4310681223869324,-0.21687446534633636,-0.393268346786499,-0.20871765911579132,1.2479828596115112
4.724421977996826,-0.1895766258239746,-0.18269005417823792,0.04265296459197998,-0.471291293158693,-1.3354571847449748,-1.9029844742467248,-0.8664232492446899,0.4540371894836426,-0.20775297284126282,-0.7145988345146179,-0.28265634179115295,1.1356627941131592
4.744261264801025,-0.16360783576965332,-0.13316196203231812,-0.0003793090581893921,-0.4958712045975111,-1.3493413344471492,-1.9176344642043859,-0.8580749034881592,0.475798100233078,-0.19319356977939606,-1.0831419229507446,-0.43251657485961914,0.9572696685791016
4.7640910148620605,-0.12916362285614014,-0.06875684857368469,-0.02050262689590454,-0.5176194040532206,-1.3681267771220411,-1.9367072564344554,-0.8512136340141296,0.49481281638145447,-0.1749165654182434,-0.9030409455299377,-0.49221426248550415,0.8758653402328491
4.7842772006988525,-0.10356897115707397,0.025468826293945312,-0.062154218554496765,-0.5367912406798858,-1.3841515483259728,-1.9475825349605893,-0.844429075717926,0.5113811492919922,-0.1594642996788025,-0.3953508138656616,-0.5494378805160522,0.8224855065345764
4.803170204162598,-0.08999079465866089,0.022262632846832275,-0.06807446479797363,-0.5542325661220505,-1.3967185014642467,-1.9510426589292336,-0.8374537229537964,0.5262908935546875,-0.1472727507352829,-0.27863749861717224,-0.545275092124939,0.7997769713401794
4.826432228088379,-0.10827142000198364,-0.002738773822784424,-0.10811100900173187,-0.5700210337013956,-1.4105651478510828,-1.9564375470447457,-0.8311054706573486,0.5396497845649719,-0.13432049751281738,-0.47460728883743286,-0.5371204614639282,0.7003132104873657
4.841576099395752,-0.09138154983520508,-0.02234596014022827,-0.1217690259218216,-0.584991472548781,-1.4265750917123625,-1.9677837613779567,-0.825061559677124,0.5521922707557678,-0.11982331424951553,-0.6664906740188599,-0.4348784387111664,0.638454794883728
4.863888263702393,-0.04539752006530762,0.026669740676879883,-0.139290452003479,-0.5987020782496806,-1.4417197326336908,-1.9812219370081696,-0.8191960453987122,0.5635707974433899,-0.10633020102977753,-0.6212062835693359,-0.3428007960319519,0.601933479309082
4.884087085723877,0.021729469299316406,0.04424506425857544,-0.14782196283340454,-0.6121222515492947,-1.455745559941244,-1.9939056196072806,-0.8130198121070862,0.5746056437492371,-0.0939534604549408,-0.5800963640213013,-0.32608315348625183,0.6051705479621887
4.904091119766235,0.0419156551361084,0.05120110511779785,-0.13492047786712646,-0.6250668809817393,-1.468333291631312,-2.005204468122774,-0.8066709637641907,0.5851514935493469,-0.08294443041086197,-0.4428864121437073,-0.277468740940094,0.5973168611526489
4.924102306365967,0.07102566957473755,0.1041632890701294,-0.16504818201065063,-0.6369360516983803,-1.4779168942039005,-2.0116090119370122,-0.8004568815231323,0.5947350859642029,-0.0745605081319809,-0.22660967707633972,-0.30521464347839355,0.5291458368301392
4.943547248840332,0.15250420570373535,0.0673862099647522,-0.16934508085250854,-0.6488176408665415,-1.486939438213924,-2.01616491454442,-0.7939990758895874,0.6042447090148926,-0.0667387992143631,-0.2374257594347,-0.3197133243083954,0.6198946237564087
4.962530136108398,0.1750470995903015,0.05599421262741089,-0.17111098766326904,-0.6619743999204999,-1.495977059051495,-2.0210169747186213,-0.7865736484527588,0.6146754026412964,-0.0589609257876873,-0.25035956501960754,-0.27916333079338074,0.6208553910255432
4.9828221797943115,0.22189706563949585,0.06748366355895996,-0.15175682306289673,-0.6738303925090547,-1.5034675308436036,-2.0242041706140954,-0.7796670198440552,0.6239837408065796,-0.05257350578904152,-0.044378578662872314,-0.2755018174648285,0.5693055987358093
5.0037431716918945,0.297397255897522,0.0281064510345459,-0.13628363609313965,-0.685693011339042,-1.505721306975648,-2.0201338006595457,-0.7723424434661865,0.6332095265388489,-0.05033126473426819,0.27834877371788025,-0.19957946240901947,0.6170308589935303
5.02360200881958,0.35342085361480713,-0.0053141117095947266,-0.16030645370483398,-0.6963710191904383,-1.5020405852448178,-2.007843765641881,-0.765362560749054,0.641437828540802,-0.05270615220069885,0.6010004281997681,-0.2406928986310959,0.5645819306373596
5.0435872077941895,0.44335824251174927,-0.04010772705078125,-0.17262279987335205,-0.7070846578602064,-1.495702514947096,-1.9900285297398677,-0.7581166625022888,0.6496201157569885,-0.057037122547626495,0.607426106929779,-0.30643877387046814,0.5861238241195679
5.063590049743652,0.4336291551589966,-0.09151124954223633,-0.13229143619537354,-0.718050298007907,-1.491731461193585,-1.9756238336498526,-0.7507374882698059,0.6579176187515259,-0.059480953961610794,0.38095998764038086,-0.23377907276153564,0.5716614127159119
5.083437204360962,0.48136788606643677,-0.09605526924133301,-0.14023059606552124,-0.7283450403893494,-1.4891066071970747,-1.9647081184532602,-0.7437886595726013,0.6656354665756226,-0.0608954057097435,0.4159954786300659,-0.21002642810344696,0.560474693775177
5.103771209716797,0.5360634922981262,-0.08385175466537476,-0.14711999893188477,-0.7386201127138359,-1.4820379430132251,-1.9470131778492712,-0.7364876866340637,0.6732682585716248,-0.06554166227579117,0.8513805866241455,-0.267699658870697,0.5768445730209351
5.1233930587768555,0.5517107844352722,-0.0534282922744751,-0.11814295500516891,-0.7477002116677706,-1.4665933119108454,-1.9156663057891936,-0.7292773127555847,0.6799542307853699,-0.07626914978027344,1.3340544700622559,-0.326139360666275,0.5401269793510437
5.143304109573364,0.6022339463233948,-0.10621905326843262,-0.08055579662322998,-0.7553583386890398,-1.4463620226620306,-1.8748188164324908,-0.722396969795227,0.6855496168136597,-0.09035781025886536,1.478084921836853,-0.4405796527862549,0.5702613592147827
5.163244247436523,0.6360735297203064,-0.18323802947998047,-0.01455533504486084,-0.7623506421887991,-1.4271897260027988,-1.8338091797940868,-0.7157702445983887,0.6906233429908752,-0.1035018190741539,1.3947144746780396,-0.47336262464523315,0.5191348195075989
5.18165397644043,0.626218855381012,-0.22087526321411133,-0.012107670307159424,-0.7683725303242404,-1.4087556025101255,-1.7930177321955858,-0.7096234560012817,0.6949659585952759,-0.11600500345230103,1.4436131715774536,-0.4888160526752472,0.5162152051925659
5.202385187149048,0.581454336643219,-0.20847535133361816,0.004065275192260742,-0.7728462634632846,-1.3890514221547419,-1.7507831637147424,-0.7041350603103638,0.6981757879257202,-0.12940086424350739,1.4370907545089722,-0.4683379530906677,0.39060109853744507
5.223151206970215,0.5461206436157227,-0.22307580709457397,0.03659193217754364,-0.7724170025214758,-1.367668968541068,-1.70712882637323,-0.7015010118484497,0.6978684067726135,-0.14448675513267517,1.712792992591858,-0.44902434945106506,0.17719705402851105
5.2434983253479,0.5896072387695312,-0.16505610942840576,0.0574188232421875,-0.7653811973373634,-1.340406089380004,-1.6524033731192378,-0.702064573764801,0.6928119659423828,-0.16467277705669403,2.3325183391571045,-0.6410285830497742,-0.017996903508901596
5.263077259063721,0.5812336206436157,-0.22535943984985352,0.1472170054912567,-0.7512371223413746,-1.309246855713058,-1.587432904384161,-0.7059895992279053,0.6825434565544128,-0.18898025155067444,2.469836711883545,-0.718748927116394,-0.22320500016212463
5.282081127166748,0.5819714665412903,-0.3084832429885864,0.2349187135696411,-0.7319222486841761,-1.2851393764437742,-1.5296848611652758,-0.7137464284896851,0.6683008074760437,-0.20961952209472656,2.1271352767944336,-0.8005813360214233,-0.5099955201148987
5.303098201751709,0.5042962431907654,-0.26695191860198975,0.20968830585479736,-0.706933328466182,-1.2726627402011808,-1.482760213821219,-0.7268152236938477,0.649505078792572,-0.2233448177576065,2.0873312950134277,-1.0923739671707153,-0.8253490924835205
5.322709083557129,0.38510018587112427,-0.18306368589401245,0.19377392530441284,-0.6749022075512989,-1.268875640732471,-1.4373201111369256,-0.745451807975769,0.6248209476470947,-0.23216499388217926,2.15914249420166,-1.4204623699188232,-1.2612942457199097
5.342550277709961,0.29723578691482544,-0.17119818925857544,0.27141278982162476,-0.6354960229078802,-1.2759324387882047,-1.399729479050372,-0.7700446248054504,0.5935767889022827,-0.2338760644197464,1.8442785739898682,-1.5911675691604614,-1.5722156763076782
5.361758232116699,0.17053329944610596,-0.17237979173660278,0.2484133243560791,-0.5943291902043534,-1.293374661977095,-1.3702985869317315,-0.7968456149101257,0.5599530935287476,-0.22691363096237183,1.7125812768936157,-1.928483486175537,-1.7357419729232788
5.382660150527954,-0.14732134342193604,-0.052602410316467285,0.13478177785873413,-0.5509225119853182,-1.3225858595209223,-1.3399127399913668,-0.8259300589561462,0.5234734416007996,-0.20932090282440186,1.829431176185608,-2.6140522956848145,-1.8198598623275757
5.402746200561523,-0.6853561401367188,-0.03483590483665466,0.18459750711917877,-0.5112561713339772,-1.3588092929654074,-1.3211943049110375,-0.8526077270507812,0.48927319049835205,-0.18349876999855042,0.5293546915054321,-1.7000735998153687,-1.805424690246582
5.42243218421936,-1.2343270778656006,0.04930609464645386,-0.16306567192077637,-0.4799573207617642,-1.387174319704106,-1.3271942943369988,-0.8721030354499817,0.4617413282394409,-0.16196170449256897,-0.035563692450523376,-1.6555793285369873,-1.595616102218628
5.442668199539185,-0.621938943862915,0.6512577533721924,-0.5169692635536194,-0.4507842971326682,-1.419516516129476,-1.3174734796411127,-0.889825701713562,0.4356716275215149,-0.13564905524253845,1.2984287738800049,-1.9651583433151245,-0.9669539928436279
5.462247133255005,-0.6538369059562683,0.47566062211990356,-0.313837468624115,-0.4289773574911474,-1.4429041899175332,-1.2789751985446338,-0.9019646644592285,0.4159410297870636,-0.11598726361989975,2.4791886806488037,-1.9864498376846313,-0.6799421906471252
5.4820942878723145,-0.6138956546783447,0.013046175241470337,0.06548850238323212,-0.4190981457276655,-1.4502349655589328,-1.2189062235907804,-0.9068260192871094,0.4069368243217468,-0.10986097902059555,2.6388659477233887,-1.0775271654129028,0.4241187870502472
5.501875162124634,-0.6083402633666992,-0.373500257730484,0.3949708342552185,-0.426170363084602,-1.4427735150994094,-1.1749481861613242,-0.9031038284301758,0.413386732339859,-0.11625371128320694,1.214651346206665,0.00723443366587162,0.6574816107749939
5.519885063171387,-0.4356544613838196,-0.47690504789352417,0.31146252155303955,-0.4403555915217219,-1.4306882653136703,-1.1565043069912972,-0.8957359790802002,0.42626115679740906,-0.1263275295495987,0.5347532033920288,0.21050499379634857,0.968735933303833
5.54207706451416,-0.29922282695770264,-0.3081001341342926,0.11934365332126617,-0.45381208959325836,-1.4206760854848954,-1.1431648933391272,-0.8886739015579224,0.4383949637413025,-0.13441921770572662,0.44482484459877014,0.027959419414401054,0.5808397531509399
5.562012195587158,-0.194685697555542,-0.42481279373168945,0.20842786133289337,-0.46571188565551064,-1.4164089762157048,-1.1398223575133475,-0.8828747272491455,0.44905897974967957,-0.13739807903766632,-0.39828458428382874,0.18648213148117065,0.5401739478111267
5.581895112991333,-0.24840688705444336,-0.4121141731739044,0.16331791877746582,-0.4747973126377715,-1.4179686605195327,-1.1498476328145555,-0.8790193796157837,0.4571581780910492,-0.13539423048496246,-0.6498718857765198,0.11477802693843842,0.32476601004600525
5.6021223068237305,-0.1695634126663208,-0.22300985455513,0.17594122886657715,-0.48272026167200177,-1.4221559104612578,-1.164155716772319,-0.875968873500824,0.4641903340816498,-0.1311718374490738,-0.5853589773178101,0.1028844341635704,0.22206026315689087
5.6217942237854,-0.1800820231437683,-0.16667193174362183,0.15727496147155762,-0.4877544920725012,-1.4244875528901846,-1.1742789316809763,-0.8739494681358337,0.4686434268951416,-0.12878674268722534,-0.4788302481174469,0.1362438201904297,0.18624050915241241
5.64170503616333,-0.16184788942337036,-0.11380675435066223,0.17180795967578888,-0.492258250115179,-1.4263305076737913,-1.1837078910355128,-0.8720877170562744,0.4726172089576721,-0.12687070667743683,-0.41667309403419495,0.18064482510089874,0.14041459560394287
5.661741256713867,-0.17858844995498657,-0.09845227003097534,0.16486865282058716,-0.4959452538127453,-1.4246871730239443,-1.1911192325867601,-0.8701481819152832,0.4758632183074951,-0.1280491054058075,-0.30104461312294006,0.3234501779079437,0.1288837343454361
5.680702209472656,-0.13536924123764038,-0.1027667224407196,0.13646596670150757,-0.49891002474950463,-1.4198887199867094,-1.1967898739526148,-0.8681250810623169,0.47846871614456177,-0.1320102959871292,-0.21917399764060974,0.4003700315952301,0.09647201001644135
5.702365159988403,-0.11340874433517456,-0.11302193999290466,0.12794363498687744,-0.5019202019165037,-1.4139580386923203,-1.2016502036066816,-0.8659003973007202,0.4811097979545593,-0.1369309425354004,-0.28852084279060364,0.4508320391178131,0.12895774841308594
5.721617221832275,-0.15413182973861694,-0.09174147248268127,0.13921266794204712,-0.5048530204628601,-1.4073707699682563,-1.208830643333209,-0.8635836839675903,0.48367878794670105,-0.14240166544914246,-0.37119942903518677,0.572553813457489,0.0757809653878212
5.739951133728027,-0.12642234563827515,-0.09036380052566528,0.14083392918109894,-0.5082158438187124,-1.398838477478056,-1.2174375483756956,-0.8607298135757446,0.48661935329437256,-0.14948557317256927,-0.4158576428890228,0.6918826103210449,0.13528859615325928
5.760488033294678,-0.10938161611557007,-0.10121333599090576,0.14183998107910156,-0.5127283928885361,-1.388420266146388,-1.2267268601617325,-0.8569576144218445,0.49055662751197815,-0.158044695854187,-0.481768935918808,0.7990310788154602,0.16029882431030273
5.781067132949829,-0.11679625511169434,-0.10723116993904114,0.16550453007221222,-0.5176624395211517,-1.377306481141673,-1.2382108301571635,-0.8527625203132629,0.49485018849372864,-0.16709131002426147,-0.6184500455856323,0.8726219534873962,0.13530665636062622
5.8013529777526855,-0.07951951026916504,-0.1285715401172638,0.1987665295600891,-0.5230890793869205,-1.3676071160678727,-1.2543787480002218,-0.8484590649604797,0.49955853819847107,-0.17481011152267456,-0.8738411068916321,0.920982837677002,0.12299841642379761
5.820547103881836,-0.030322253704071045,-0.1580466628074646,0.2154327630996704,-0.5294009145586007,-1.358914083818842,-1.2758292286773476,-0.8438080549240112,0.5050163269042969,-0.18151238560676575,-1.04280424118042,1.0280563831329346,0.12158174067735672
5.841516017913818,0.05572742223739624,-0.17315882444381714,0.2090306282043457,-0.5361035974346497,-1.3501850495418393,-1.2986624084702483,-0.838869571685791,0.5107901096343994,-0.18812602758407593,-0.984514057636261,0.9960635900497437,0.10588408261537552
5.862926006317139,0.13442003726959229,-0.17206239700317383,0.2265295386314392,-0.5417063770383937,-1.3414883280595993,-1.3178223397459568,-0.8344018459320068,0.5155988335609436,-0.19476068019866943,-0.7338528037071228,0.847610592842102,0.06416404247283936
5.880190134048462,0.17268097400665283,-0.18618518114089966,0.28443485498428345,-0.5456208378002337,-1.3338919279816013,-1.3321139416353946,-0.8309299349784851,0.5189489126205444,-0.2006182223558426,-0.5960538387298584,0.682778000831604,0.06399502605199814
5.900724172592163,0.1894194483757019,-0.2332579493522644,0.33753007650375366,-0.5501783921385918,-1.3278813387389423,-1.3459811700122049,-0.8274047374725342,0.5228393077850342,-0.2050379067659378,-0.6807795166969299,0.6582257747650146,0.1116165965795517
5.919987201690674,0.14456486701965332,-0.19490885734558105,0.30882978439331055,-0.5557684479472569,-1.3238936326020727,-1.3620418874594882,-0.8237336277961731,0.5275962352752686,-0.20761816203594208,-0.7527087330818176,0.5809165239334106,0.09719795733690262
5.939907073974609,0.12058019638061523,-0.1157146692276001,0.2498435080051422,-0.5617057892909819,-1.3227279359700241,-1.378346126424787,-0.8204399943351746,0.5326306819915771,-0.20780546963214874,-0.757310152053833,0.3838091194629669,0.14412721991539001
5.959969997406006,0.07308834791183472,-0.0843854546546936,0.20377154648303986,-0.5685137670966329,-1.3264564489387778,-1.3955911641594567,-0.8176714777946472,0.5383802056312561,-0.2038629949092865,-0.8331656455993652,0.19919542968273163,0.1717270165681839
5.979878187179565,0.0045868754386901855,-0.07128053903579712,0.18394678831100464,-0.5774145100242205,-1.3329028073423623,-1.4144730821361138,-0.8142793774604797,0.5458594560623169,-0.19745071232318878,-0.9053780436515808,0.21214479207992554,0.3163479268550873
5.999882221221924,-0.06133162975311279,-0.030372798442840576,0.15262466669082642,-0.5889140814029992,-1.3371664967458117,-1.4322399854172847,-0.8089534640312195,0.5554583668708801,-0.19251108169555664,-0.7630717754364014,0.3321858048439026,0.44335678219795227
6.020026206970215,-0.09549188613891602,0.027976036071777344,0.11164751648902893,-0.6010756474699623,-1.3357219656439943,-1.4432086709001537,-0.8020455241203308,0.5655299425125122,-0.19209177792072296,-0.4135514795780182,0.40370163321495056,0.5318381190299988
6.039144992828369,-0.11569148302078247,0.030080139636993408,0.10594625771045685,-0.612836707490142,-1.3302372905033468,-1.4478222778788117,-0.7944648265838623,0.5751902461051941,-0.1948896050453186,-0.29581698775291443,0.40848270058631897,0.5043603777885437
6.059902191162109,-0.17303502559661865,0.009750723838806152,0.08543241024017334,-0.6232520760470138,-1.3266399739183115,-1.4546671756783969,-0.7879025936126709,0.5836789011955261,-0.1962873935699463,-0.5346859693527222,0.3318679928779602,0.3579901158809662
6.079890251159668,-0.21485763788223267,0.057977259159088135,0.025947630405426025,-0.6312698971165104,-1.3305307744804888,-1.4691626534121673,-0.7840896248817444,0.5901703834533691,-0.19210052490234375,-0.7665768265724182,0.1417897641658783,0.15591613948345184
6.099908113479614,-0.20401102304458618,0.11837756633758545,-0.0005721449851989746,-0.6374193141662845,-1.3387949084001765,-1.4871570090080442,-0.7821035981178284,0.5951234698295593,-0.18477627635002136,-0.7356696724891663,0.13737235963344574,0.1266251653432846
6.119923114776611,-0.1527072787284851,0.18802714347839355,-0.0331801176071167,-0.6425640760788817,-1.343838894818265,-1.5000484940151515,-0.7800320982933044,0.5992501378059387,-0.18013769388198853,-0.3407915532588959,0.1216149851679802,0.14673452079296112
6.139912128448486,-0.07192444801330566,0.2566685676574707,-0.11630183458328247,-0.645416990002731,-1.343039123687152,-1.5004426477919925,-0.7782190442085266,0.6015316247940063,-0.18037471175193787,0.24756567180156708,-0.02006571926176548,0.12609165906906128
6.160037040710449,0.007313191890716553,0.25908994674682617,-0.15482556819915771,-0.6453656015368977,-1.3385105437278344,-1.4886116461992425,-0.7774243354797363,0.6014905571937561,-0.18390420079231262,0.5812652707099915,-0.19808436930179596,0.10547926276922226
6.181991100311279,-0.05343663692474365,0.21344208717346191,-0.10161405801773071,-0.6440403174614088,-1.335210141233119,-1.4760598863447785,-0.7775876522064209,0.6004312634468079,-0.1866549253463745,0.36888065934181213,-0.16641831398010254,-0.019242610782384872
6.200770139694214,-0.1752837896347046,0.18379873037338257,-0.03787432610988617,-0.641213617224447,-1.3346945008516118,-1.473444436695337,-0.7791382074356079,0.5981684327125549,-0.18745207786560059,-0.09450273215770721,0.060486823320388794,-0.20214396715164185
6.220458030700684,-0.10761278867721558,0.19974905252456665,-0.04760442674160004,-0.6378225192333014,-1.336973462120462,-1.48104503018531,-0.7815321683883667,0.5954474806785583,-0.1861448884010315,-0.36900025606155396,0.13353298604488373,-0.24926002323627472
6.24041223526001,-0.005628347396850586,0.2604396939277649,-0.10587257146835327,-0.6346465235820494,-1.341126529151639,-1.4908290108134918,-0.7841361165046692,0.5928928852081299,-0.18332716822624207,-0.2957172691822052,-0.0014477376826107502,-0.24484163522720337
6.260039329528809,0.000253140926361084,0.316312313079834,-0.11929440498352051,-0.6304527641843317,-1.3461791930479756,-1.497067680126625,-0.7874694466590881,0.5895105600357056,-0.17991510033607483,-0.10368449985980988,-0.1159520372748375,-0.26771023869514465
6.280034065246582,0.03163963556289673,0.2583630084991455,-0.07057695090770721,-0.6267884332748352,-1.349612053460735,-1.5002189449632022,-0.7901845574378967,0.5865467190742493,-0.17768347263336182,-0.11052899807691574,-0.015587880276143551,-0.1138671413064003
6.300061225891113,0.11354786157608032,0.17779088020324707,-0.034996405243873596,-0.62724783470381,-1.35048745390979,-1.503713419055873,-0.7900770306587219,0.5869187116622925,-0.17693282663822174,-0.13848528265953064,0.12147871404886246,0.0933755487203598
6.319976329803467,0.18120521306991577,0.13585352897644043,-0.03860832750797272,-0.6312567043891472,-1.3478120593953171,-1.5040299203388947,-0.7872998118400574,0.5901597738265991,-0.1785241812467575,0.03366512805223465,0.1364852786064148,0.2926107943058014
6.339941024780273,0.20259863138198853,0.08735305070877075,-0.03613090515136719,-0.6371766860050353,-1.3428221314836453,-1.4981804478195007,-0.7829819917678833,0.594928503036499,-0.18165770173072815,0.2786121070384979,0.04014480113983154,0.3686060607433319
6.359934329986572,0.17817586660385132,0.026515483856201172,0.019831478595733643,-0.6426942870189625,-1.3358236671557144,-1.48814431835475,-0.7784872651100159,0.5993543267250061,-0.18636579811573029,0.38752326369285583,0.07537984102964401,0.34081265330314636
6.379940986633301,0.19987285137176514,-0.03352707624435425,0.05730408430099487,-0.6474099381628903,-1.327079522407271,-1.4765790452950294,-0.7740764021873474,0.6031224727630615,-0.1924816071987152,0.36198872327804565,0.08323962986469269,0.3395691215991974
6.39994215965271,0.18722021579742432,-0.026406407356262207,0.06390893459320068,-0.6516509085787999,-1.3204804446758605,-1.4671917240155803,-0.7703043818473816,0.6064998507499695,-0.19695021212100983,0.2751980125904083,0.02948363497853279,0.23481126129627228
6.419997215270996,0.15534228086471558,-0.0019373297691345215,0.048987388610839844,-0.6536751554475592,-1.3164696026976925,-1.4605891083828806,-0.7683184742927551,0.6081080436706543,-0.19972889125347137,0.18757657706737518,-0.048265933990478516,0.08691300451755524
6.440018177032471,0.16878509521484375,0.010319530963897705,0.03633171319961548,-0.6530743649026338,-1.315465491297206,-1.4566178712055404,-0.768470823764801,0.6076309680938721,-0.20059248805046082,0.14335863292217255,-0.06325730681419373,-0.04338274151086807
6.459941148757935,0.18148887157440186,0.014774620532989502,0.03762771189212799,-0.650963201954298,-1.314201920934851,-1.4539687179016956,-0.7694558501243591,0.6059529185295105,-0.20188845694065094,0.11849834024906158,0.018577368929982185,-0.11135024577379227
6.479938983917236,0.17657959461212158,0.036954402923583984,0.024228036403656006,-0.6470451188148811,-1.3120371836937395,-1.4520215974241237,-0.7713062167167664,0.6028314232826233,-0.20415960252285004,0.13032208383083344,0.09378468245267868,-0.21993562579154968
6.500030040740967,0.21726149320602417,0.03600984811782837,0.02712179720401764,-0.6418324433812875,-1.3087620176832895,-1.4509303140477405,-0.773658037185669,0.5986642241477966,-0.20749585330486298,0.09952828288078308,0.14591047167778015,-0.25522589683532715
6.520052194595337,0.22481298446655273,0.017468631267547607,0.034198179841041565,-0.6357336519058812,-1.305540173064369,-1.4503345217403278,-0.776494562625885,0.5937680006027222,-0.2109406441450119,0.09243165701627731,0.16660021245479584,-0.327877402305603
6.541406154632568,0.20677578449249268,0.0028167366981506348,0.06665325164794922,-0.6284375683469717,-1.3024131067720044,-1.4513052168089982,-0.7799875140190125,0.5878815650939941,-0.21451084315776825,0.026986707001924515,0.18860457837581635,-0.399517297744751
6.560934066772461,0.17723631858825684,-0.00031280517578125,0.10241067409515381,-0.619695969423677,-1.299133440751603,-1.4543295475093485,-0.7842004895210266,0.580787718296051,-0.21843843162059784,-0.04785291478037834,0.3432178795337677,-0.4870580732822418
6.579977035522461,0.18126100301742554,-0.014740526676177979,0.10768315196037292,-0.6111471128648838,-1.294532366089032,-1.459651871054287,-0.787935197353363,0.5738072991371155,-0.22339041531085968,-0.11294202506542206,0.4149916470050812,-0.4677513837814331
6.600191116333008,0.18425476551055908,0.029497146606445312,0.07084834575653076,-0.602710479394744,-1.2891379239509737,-1.464709580061866,-0.7913410067558289,0.5668774247169495,-0.2289750874042511,-0.011838812381029129,0.4052927792072296,-0.44402191042900085
6.620011329650879,0.12840139865875244,0.08194148540496826,0.01825350522994995,-0.5933313693816278,-1.2824071984050511,-1.465919114177324,-0.794844388961792,0.559126079082489,-0.23579798638820648,0.15659576654434204,0.3510313928127289,-0.5111972689628601
6.639947175979614,0.037636518478393555,0.07710850238800049,0.023349761962890625,-0.5817946959448522,-1.2756032929508738,-1.4671269106486706,-0.7993401288986206,0.5495242476463318,-0.24306102097034454,0.01637040078639984,0.4067761301994324,-0.6204603910446167
6.659943103790283,-0.007531225681304932,0.016087710857391357,-6.857514381408691e-05,-0.5700427282930637,-1.2711250638086609,-1.4756219843384624,-0.8043586611747742,0.5396680235862732,-0.24852758646011353,-0.39446187019348145,0.5212758779525757,-0.6962060332298279
6.6800761222839355,0.06033879518508911,-0.030589938163757324,-0.0037902891635894775,-0.5610076102954584,-1.2701361298830223,-1.494604138224194,-0.8087368607521057,0.5320396423339844,-0.25075677037239075,-0.7955242395401001,0.5762450695037842,-0.6386370658874512
6.6999711990356445,0.15648865699768066,-0.06242281198501587,-0.03571256995201111,-0.5542854931266971,-1.2704761334073502,-1.5164719114141534,-0.81222003698349,0.5263358950614929,-0.2515340745449066,-0.7031470537185669,0.5102847218513489,-0.5660222768783569
6.719935178756714,0.18312400579452515,-0.04458928108215332,-0.030969858169555664,-0.5456632341441708,-1.2691781152109065,-1.5308798333565083,-0.8161959648132324,0.5189851522445679,-0.2539269030094147,-0.19376994669437408,0.39430901408195496,-0.6282560229301453
6.7400102615356445,0.17698031663894653,-0.05033034086227417,-0.04696375131607056,-0.5333957190480252,-1.2657962665838314,-1.5350092719503319,-0.8213438391685486,0.508460283279419,-0.2585781514644623,0.18164938688278198,0.1492203325033188,-0.6414794325828552
6.759957313537598,0.13134658336639404,-0.07321691513061523,-0.08560729026794434,-0.5207177163114645,-1.2650776868063045,-1.5342568174200022,-0.8272389769554138,0.497502863407135,-0.2610875964164734,0.20346859097480774,-0.10536126792430878,-0.554208517074585
6.779941082000732,0.049559056758880615,-0.08257317543029785,-0.11415129899978638,-0.5091318848286253,-1.2667302396465487,-1.5333210330844076,-0.8331132531166077,0.4874194264411926,-0.26142847537994385,0.207193985581398,-0.03944438695907593,-0.5416502952575684
6.799933195114136,0.010856151580810547,-0.0687420666217804,-0.11181837320327759,-0.49653367435764556,-1.265915973648825,-1.5327641795724427,-0.8386913537979126,0.47638067603111267,-0.26392921805381775,0.30539947748184204,0.08014379441738129,-0.6576603651046753
6.820037126541138,0.03160655498504639,-0.040187299251556396,-0.1655055284500122,-0.4809560092108263,-1.2624194385864653,-1.5287283556284232,-0.8447322845458984,0.46262693405151367,-0.2690799832344055,0.4542847275733948,0.06993260979652405,-0.715857744216919
6.83996319770813,0.026354849338531494,-0.032224416732788086,-0.12071317434310913,-0.4649834239863236,-1.257312948626773,-1.525139999665229,-0.8502684831619263,0.44840797781944275,-0.2756337821483612,0.26816725730895996,0.3546968102455139,-0.7002658247947693
6.859944105148315,-0.017947077751159668,0.04084166884422302,-0.0828978419303894,-0.45077123852907675,-1.247722838291892,-1.5278739855028292,-0.8535434603691101,0.43565985560417175,-0.2857697010040283,0.0019198099616914988,0.6959071159362793,-0.7243790626525879
6.879942178726196,0.15548193454742432,0.0526808500289917,-0.08341526985168457,-0.4385693650975015,-1.236274492493758,-1.534055507910934,-0.8551737666130066,0.4246446490287781,-0.29724565148353577,-0.058589037507772446,0.6479960083961487,-0.6169341802597046
6.899940013885498,0.3520466685295105,-0.031044840812683105,-0.09679156541824341,-0.42878354658361606,-1.2269715558947007,-1.5371519338946178,-0.8562428951263428,0.41576477885246277,-0.30657443404197693,0.14805369079113007,0.41516947746276855,-0.3925338089466095
6.919949054718018,0.4275769591331482,-0.03625890612602234,-0.023279964923858643,-0.42025530305734493,-1.2197181950899212,-1.5335838297941373,-0.8572950959205627,0.4079935550689697,-0.3139849901199341,0.40025994181632996,0.1655595302581787,-0.3379414975643158
6.939929008483887,0.4811474084854126,-0.10939985513687134,-0.00925716757774353,-0.41105455360780574,-1.2172661689622377,-1.5279042713918052,-0.8600079417228699,0.39957624673843384,-0.3173723518848419,0.38976091146469116,-0.16860902309417725,-0.324452668428421
6.9599621295928955,0.5208848118782043,-0.13716542720794678,-0.045958638191223145,-0.4026746207770261,-1.2201198857452877,-1.5219127668823769,-0.8640245795249939,0.39188042283058167,-0.31605610251426697,0.4233246147632599,-0.2997855842113495,-0.23651418089866638
6.980048179626465,0.5437507629394531,-0.12689617276191711,-0.02153894305229187,-0.39647981401492094,-1.2231282770972853,-1.5143036058463928,-0.8672372698783875,0.38617363572120667,-0.31427642703056335,0.4035733938217163,-0.2967778146266937,-0.12482768297195435
6.999946117401123,0.5950157046318054,-0.12943285703659058,-0.0216217041015625,-0.39258301031634113,-1.2269001188133826,-1.5084028136357785,-0.8698265552520752,0.38257619738578796,-0.3115081191062927,0.25120317935943604,-0.3326316177845001,-0.04591650888323784
7.019942283630371,0.6624606251716614,-0.15839138627052307,-0.0070320069789886475,-0.3910612286245439,-1.2319392126510311,-1.5030822365159424,-0.8719333410263062,0.38116973638534546,-0.3073142170906067,0.28729313611984253,-0.3871714472770691,0.06731749325990677
7.039999008178711,0.7056066393852234,-0.1572270393371582,0.0031520426273345947,-0.3908580568908415,-1.2374854603610075,-1.4962790345460006,-0.8736974596977234,0.3809818923473358,-0.30249884724617004,0.3130992352962494,-0.4176129102706909,0.1022244542837143
7.059972286224365,0.6846769452095032,-0.1540510058403015,0.045248597860336304,-0.3906081804752862,-1.2428973832646928,-1.4890279825901498,-0.875411868095398,0.3807508647441864,-0.29779672622680664,0.33840304613113403,-0.4266981780529022,0.12054410576820374
7.080039024353027,0.6666507720947266,-0.0949057936668396,-0.012178570032119751,-0.39090292486744915,-1.2489781934775386,-1.4805250441866173,-0.8771000504493713,0.3810233771800995,-0.2924325466156006,0.4437010586261749,-0.5100780725479126,0.12916111946105957
7.099963188171387,0.6300008296966553,-0.0441322922706604,-0.019013166427612305,-0.38993781321788556,-1.2552585618704664,-1.46842409147746,-0.8792684674263,0.3801308870315552,-0.28703227639198303,0.6582809090614319,-0.5457479953765869,0.1049169972538948
7.119955062866211,0.6132106184959412,-0.07391932606697083,0.05645376443862915,-0.3865602057778438,-1.2587262016879197,-1.4527600413071837,-0.8814755082130432,0.3770046830177307,-0.2843741774559021,0.7833995819091797,-0.41487088799476624,0.021367790177464485
7.139224052429199,0.6271094083786011,-0.0991673469543457,0.08929798007011414,-0.3813047838641795,-1.2610422193880364,-1.4378601719034112,-0.8840065598487854,0.3721318542957306,-0.28293195366859436,0.6605298519134521,-0.4396786093711853,-0.08840338885784149
7.159942150115967,0.6036349534988403,0.036242514848709106,-0.05051356554031372,-0.3774244424983049,-1.2710463606880313,-1.4305954377334205,-0.8881657123565674,0.3685274124145508,-0.2744985520839691,0.08884887397289276,-0.9173772931098938,-0.10571376234292984
7.179941177368164,0.4288859963417053,0.29333385825157166,-0.1988767683506012,-0.37377107824735223,-1.293257878454073,-1.430950859047963,-0.8953320980072021,0.3651287257671356,-0.2550721764564514,0.16606062650680542,-1.151427149772644,-0.16279025375843048
7.199951171875,0.32368290424346924,0.3970421552658081,-0.11043316125869751,-0.37019021496526383,-1.307747710338803,-1.4192509293897726,-0.900190532207489,0.36179277300834656,-0.24241101741790771,1.046716332435608,-0.6732884049415588,0.10581748187541962
7.2199530601501465,0.2669636607170105,0.3572455644607544,-0.14538592100143433,-0.3657111153871961,-1.3063619740338863,-1.389397327466481,-0.9014089703559875,0.3576134741306305,-0.2440793216228485,1.6196376085281372,-0.32071858644485474,0.08883248269557953
7.239979267120361,0.16357678174972534,0.23847949504852295,-0.1703786551952362,-0.3568937190965519,-1.3000349882933848,-1.3561576674003495,-0.9028499126434326,0.34936538338661194,-0.25061124563217163,1.570315957069397,-0.32004380226135254,-0.1034974753856659
7.2599711418151855,0.0808337926864624,0.22350111603736877,-0.3185780644416809,-0.3449120306414605,-1.301205789352268,-1.3280258935182185,-0.9071125984191895,0.3381139039993286,-0.25065094232559204,1.29170823097229,-0.8152622580528259,-0.34546470642089844
7.279945135116577,-0.11146152019500732,0.31718015670776367,-0.3131150007247925,-0.3286260925570367,-1.3138936969728574,-1.3080246388022845,-0.9154245257377625,0.32274293899536133,-0.24048906564712524,0.9621731638908386,-1.0016214847564697,-0.7674199342727661
7.299943208694458,-0.36817336082458496,0.2587941586971283,-0.19762971997261047,-0.3064505527018654,-1.3250446815876673,-1.294332892290444,-0.9247650504112244,0.3016764521598816,-0.23195090889930725,0.9116387367248535,-0.6019323468208313,-1.023438572883606
7.3199872970581055,-0.5845340490341187,0.2417449951171875,-0.29037752747535706,-0.27955169191521695,-1.3315728167596967,-1.2806451758298611,-0.9338071942329407,0.27592477202415466,-0.22774985432624817,0.9927858114242554,-0.4539697766304016,-1.295093297958374
7.33994197845459,-0.8381405472755432,0.23782213032245636,-0.36931490898132324,-0.24798823950832843,-1.340830259822744,-1.2707380438828495,-0.9438877105712891,0.24545423686504364,-0.2209712564945221,0.578658938407898,-0.7205622792243958,-1.6057864427566528
7.359966278076172,-0.9394751191139221,0.10008604824542999,-0.1663370132446289,-0.211859054248577,-1.3525265004969012,-1.2718280566853457,-0.9544458985328674,0.2102777510881424,-0.21169938147068024,0.2952732741832733,-0.39406195282936096,-1.9117833375930786
7.37994909286499,-0.9033070802688599,0.1410394161939621,0.023921072483062744,-0.17396951108909178,-1.3550858681397873,-1.2673508470984054,-0.9620800018310547,0.1730932891368866,-0.21081064641475677,1.0584044456481934,0.013010119087994099,-1.652940034866333
7.399943113327026,-0.9746055006980896,0.2519843578338623,-0.04525381326675415,-0.13525322384553193,-1.3528478543253903,-1.2444002464179749,-0.9674264788627625,0.13484123349189758,-0.21425235271453857,1.8797839879989624,-0.14671394228935242,-1.7213674783706665
7.419966220855713,-0.9139416217803955,0.08251017332077026,0.11746975779533386,-0.09777557325311668,-1.3496036200122037,-1.2142786075973733,-0.9709768295288086,0.09761985391378403,-0.21834559738636017,1.6897958517074585,0.1340695172548294,-1.2264171838760376
7.4391632080078125,-0.8944182395935059,-0.1327577531337738,0.23384959995746613,-0.07343654407425966,-1.3420203400747446,-1.1929376671057315,-0.9713197350502014,0.0733705535531044,-0.22617433965206146,0.8746592998504639,0.4480900466442108,-0.6373295187950134
7.4599831104278564,-0.8943012952804565,-0.027621127665042877,0.33161336183547974,-0.06411829501398177,-1.3281267015120113,-1.1832573879658355,-0.9687054753303528,0.06407436728477478,-0.23980115354061127,0.42785871028900146,0.8606362342834473,-0.06419079005718231
7.4800262451171875,-0.8567883968353271,-0.0019952356815338135,0.3544655442237854,-0.06596213819540764,-1.3081867903061701,-1.1737162189848716,-0.9636157751083374,0.06591431796550751,-0.25903695821762085,0.5075082778930664,1.0918941497802734,0.5005707144737244
7.499958038330078,-0.8481014966964722,-0.10593356937170029,0.3444976210594177,-0.0792066837091028,-1.2851770982116286,-1.1599133518756843,-0.9564793109893799,0.07912389189004898,-0.2808683514595032,0.3734482526779175,1.1071760654449463,1.081737995147705
7.519949197769165,-0.8282240629196167,-0.1378139853477478,0.367134153842926,-0.10500208172243332,-1.2648008866734715,-1.1472507987348954,-0.9482957720756531,0.1048092395067215,-0.29958340525627136,0.3840751051902771,0.7489884495735168,1.6096775531768799
7.539951324462891,-0.6863179802894592,-0.16045233607292175,0.2629339396953583,-0.1350291595908724,-1.2513664765734025,-1.1350908110649471,-0.9407724738121033,0.13461920619010925,-0.3111668527126312,0.10163821280002594,0.4204496145248413,1.79836905002594
7.559970140457153,-0.7060759663581848,-0.39391210675239563,0.13043776154518127,-0.173172974515355,-1.245761431112586,-1.123384087857702,-0.9334658980369568,0.17230872809886932,-0.314565509557724,-0.27181410789489746,0.1066785603761673,2.1578140258789062
7.579967021942139,-0.8266212344169617,-0.18045805394649506,0.11284291744232178,-0.22076003866276686,-1.2378828712389605,-1.1156509039542246,-0.9221581816673279,0.21897128224372864,-0.3188669979572296,-0.46669304370880127,0.5287779569625854,2.442750930786133
7.599951267242432,-0.9285548329353333,-0.1439569592475891,0.04205566644668579,-0.2679716931468096,-1.2218904268356372,-1.1076128137478163,-0.906207799911499,0.2647760808467865,-0.3296685218811035,-0.4031513035297394,0.8806681036949158,2.3760807514190674
7.619984149932861,-0.744199275970459,-0.2096295952796936,0.035364121198654175,-0.316061915307657,-1.2008709335771068,-1.097672524128041,-0.8861720561981201,0.31082597374916077,-0.3436374366283417,-0.3830510377883911,0.846659779548645,2.4041025638580322
7.639941215515137,-0.6159378290176392,-0.14916455745697021,0.012125790119171143,-0.36154941144262664,-1.1825512749716969,-1.086051723286114,-0.8657364845275879,0.3537239134311676,-0.35409048199653625,-0.34138223528862,0.6011876463890076,2.23490047454834
7.659961223602295,-0.5781403183937073,-0.17370283603668213,0.09546041488647461,-0.4048569008594965,-1.1685909201034477,-1.0781268617555366,-0.8458099961280823,0.3938872218132019,-0.35980358719825745,-0.6958974003791809,0.5468143820762634,2.0848164558410645
7.679944038391113,-0.5666521787643433,-0.15844035148620605,0.1237938404083252,-0.4481308672735721,-1.1580970113793054,-1.07841698849645,-0.8255903720855713,0.43328171968460083,-0.3614799678325653,-0.9476301074028015,0.48829522728919983,1.864453673362732
7.699944019317627,-0.48058652877807617,-0.02952021360397339,0.04044643044471741,-0.48738537266081,-1.1507903470118903,-1.0790225257480182,-0.8067672252655029,0.46831730008125305,-0.3602858781814575,-0.6799619793891907,0.2621000111103058,1.7104905843734741
7.719942092895508,-0.3869814872741699,-0.03321680426597595,0.035112619400024414,-0.5227338744116414,-1.1461472342071477,-1.0772193913106984,-0.7895017266273499,0.4992507994174957,-0.35698145627975464,-0.6603541970252991,0.11799770593643188,1.5733665227890015
7.7399420738220215,-0.3156675100326538,-0.028237342834472656,0.046893805265426636,-0.554799195721947,-1.1454518770763673,-1.0777808172573273,-0.7742679715156555,0.5267726182937622,-0.35074201226234436,-0.6876629590988159,0.006050925236195326,1.3297796249389648
7.759989261627197,-0.24748969078063965,-0.0033362507820129395,0.01392248272895813,-0.5826721544173251,-1.1470136149660055,-1.0790279802856202,-0.761131763458252,0.55025714635849,-0.34335973858833313,-0.5612003803253174,-0.1166410818696022,1.1379261016845703
7.779942035675049,-0.18458479642868042,-0.010039746761322021,0.00130501389503479,-0.6059942487121033,-1.1505335444350875,-1.0794206005994127,-0.7504128217697144,0.569579541683197,-0.33535030484199524,-0.44552165269851685,-0.21324342489242554,1.0212323665618896
7.799943208694458,-0.1377052664756775,-0.01959925889968872,0.021813929080963135,-0.6263464930914,-1.1562494988655787,-1.080389834264807,-0.7415519952774048,0.5861886739730835,-0.32631823420524597,-0.4796983301639557,-0.29331180453300476,0.8136388063430786
7.819941997528076,-0.05717748403549194,-0.03169667720794678,0.05313768982887268,-0.6433232753852951,-1.165116938681701,-1.084260716324698,-0.7351656556129456,0.599857747554779,-0.31575658917427063,-0.4677618443965912,-0.3722441792488098,0.6388819217681885
7.839982032775879,0.07446879148483276,-0.04431283473968506,0.04379260540008545,-0.6580287667497069,-1.1759030544990579,-1.0886691494536735,-0.7303069233894348,0.6115583777427673,-0.3043820858001709,-0.4636489152908325,-0.4393046200275421,0.592085063457489
7.859943151473999,0.10709726810455322,-0.025648832321166992,0.04077643156051636,-0.6715971517642102,-1.1885954873921318,-1.094365840477614,-0.7263447642326355,0.6222370862960815,-0.2919665575027466,-0.45574551820755005,-0.4569251835346222,0.5140011310577393
7.879953145980835,0.14507371187210083,-0.04180347919464111,0.05404338240623474,-0.6834203474744959,-1.2010012013122449,-1.0999639444397133,-0.7230004072189331,0.6314489245414734,-0.2802548408508301,-0.3777199983596802,-0.4507884085178375,0.4099051356315613
7.899991035461426,0.2001245617866516,-0.04419147968292236,0.03718769550323486,-0.6930712076704715,-1.2134048152297787,-1.1051503931004718,-0.7206782102584839,0.6389028429985046,-0.2691211998462677,-0.3473803699016571,-0.4523210823535919,0.3515837788581848
7.91996431350708,0.2625698447227478,-0.06486976146697998,0.029770851135253906,-0.700975150407067,-1.2255846206604075,-1.1107616968214131,-0.7191281318664551,0.6449632048606873,-0.25860682129859924,-0.3315907418727875,-0.4224245250225067,0.2610819935798645
7.939946174621582,0.3520982265472412,-0.08123886585235596,0.03914716839790344,-0.7076982959704239,-1.2384438385109926,-1.117503697088977,-0.7182786464691162,0.650086522102356,-0.24791781604290009,-0.4005933403968811,-0.4090597927570343,0.162496879696846
7.959972143173218,0.3821730613708496,-0.12493449449539185,0.05747303366661072,-0.7121778164292007,-1.2523061410447918,-1.1271040425945256,-0.7188736796379089,0.6534838080406189,-0.23702315986156464,-0.3924238979816437,-0.3572221100330353,0.08336890488862991
7.979945182800293,0.4451749920845032,-0.09978723526000977,0.012226641178131104,-0.7158311931956203,-1.2644654157732693,-1.1348391631709602,-0.7194212675094604,0.6562448143959045,-0.22754335403442383,-0.3079390823841095,-0.3628067374229431,0.05036620795726776
7.999953269958496,0.4605180025100708,-0.08502733707427979,-0.016537129878997803,-0.7181935393691761,-1.2759300041313149,-1.1411007913869944,-0.7204973697662354,0.6580255031585693,-0.21882960200309753,-0.1856464445590973,-0.3868362605571747,0.06610172986984253
8.019946098327637,0.46875709295272827,-0.04946106672286987,-0.029555290937423706,-0.7201836716421393,-1.2861016637185592,-1.1446913417456257,-0.7214274406433105,0.6595227718353271,-0.21112146973609924,-0.14370788633823395,-0.3905138373374939,0.016289178282022476
8.039988040924072,0.5032180547714233,-0.0717012882232666,-0.0220678448677063,-0.7210271733471356,-1.2953191979983456,-1.1472726185014173,-0.7228073477745056,0.6601565480232239,-0.20431147515773773,-0.04967912286520004,-0.3469216227531433,0.06228143721818924
8.059943199157715,0.5709088444709778,-0.12068110704421997,-0.02482372522354126,-0.7227744207034135,-1.3008337749622798,-1.1458940471860284,-0.7228101491928101,0.661467969417572,-0.20001444220542908,0.11228204518556595,-0.3078579008579254,0.1050998792052269
8.079957008361816,0.5964646339416504,-0.14816409349441528,-0.020573005080223083,-0.7231431001360116,-1.302842824485159,-1.1399922100934117,-0.7229753136634827,0.6617444157600403,-0.19849729537963867,0.30902472138404846,-0.3000243902206421,0.055126309394836426
8.099953174591064,0.623508095741272,-0.1979873776435852,-0.02105852961540222,-0.7219069660745211,-1.3021259548710016,-1.1297810335189387,-0.723621129989624,0.6608171463012695,-0.1992325633764267,0.4657455086708069,-0.30495160818099976,0.03648930415511131
8.119960308074951,0.6137977242469788,-0.17572224140167236,-0.05787193775177002,-0.7186146765134961,-1.2985157714968183,-1.1144592113526222,-0.7249886393547058,0.6583425402641296,-0.20242764055728912,0.7753251194953918,-0.37754714488983154,-0.05165543407201767
8.13994312286377,0.612464964389801,-0.18717896938323975,-0.040153488516807556,-0.712203031623684,-1.2891670513765503,-1.089616498391449,-0.7271043062210083,0.653502881526947,-0.2103652060031891,1.23778235912323,-0.33345383405685425,-0.05295225605368614
8.159942150115967,0.5401996970176697,-0.1724134087562561,-0.011353641748428345,-0.7009746806377863,-1.2724840341671342,-1.0535095713744522,-0.730461597442627,0.6449628472328186,-0.2246081680059433,1.6988730430603027,-0.3567941188812256,-0.2787055969238281
8.179949283599854,0.5017675161361694,-0.19220834970474243,-0.04080915451049805,-0.6847382336488839,-1.2563297131513933,-1.0132730472232916,-0.7366003394126892,0.6324702501296997,-0.23958627879619598,1.6170939207077026,-0.6597279906272888,-0.3128702640533447
8.19998025894165,0.4330251216888428,-0.13869023323059082,-0.11417436599731445,-0.669557574500931,-1.2549557209671893,-0.9841082169428025,-0.7453116178512573,0.6206391453742981,-0.24355259537696838,1.0325812101364136,-0.9580170512199402,-0.42839306592941284
8.219942092895508,0.3251076340675354,-0.08670926094055176,-0.0435403436422348,-0.6561109944436696,-1.2595180661758292,-0.9653200076969456,-0.7542916536331177,0.6100399494171143,-0.24268391728401184,0.889589786529541,-0.6485816836357117,-0.4527032971382141
8.239942073822021,0.3361533284187317,0.05264943838119507,-0.0749083161354065,-0.6386075906537926,-1.2573135077266706,-0.9413417809588194,-0.7637962102890015,0.5960780382156372,-0.24760136008262634,1.5787311792373657,-0.6024919748306274,-0.5487558245658875
8.259973049163818,0.4340514540672302,0.05628061294555664,-0.05139446258544922,-0.6165896903586972,-1.246565155165609,-0.9014601159401644,-0.773345947265625,0.5782561898231506,-0.259915292263031,2.0933895111083984,-0.7051268219947815,-0.5929112434387207
