timestamp,acceleration_x,acceleration_y,acceleration_z,attitude_pitch,attitude_roll,attitude_yaw,gravity_x,gravity_y,gravity_z,rotation_x,rotation_y,rotation_z
0.0,0.11324018239974976,0.07073718309402466,-0.02407050132751465,-0.6468731925881266,-0.5241366901543095,-0.7175117228254327,-0.39935776591300964,0.6026942729949951,-0.6908494830131531,-0.2851150333881378,-0.17358160018920898,0.3926433026790619
0.01999497413635254,0.12110859155654907,0.046878159046173096,0.01190185546875,-0.6588719899142625,-0.525713945735772,-0.7149269170118178,-0.39678916335105896,0.612225353717804,-0.6839141249656677,-0.6347478628158569,-0.15417328476905823,0.387929230928421
0.039971113204956055,0.10464558005332947,0.03688174486160278,0.020326733589172363,-0.6743679214004271,-0.529969620405819,-0.7162949550046493,-0.39485254883766174,0.624403715133667,-0.6739521622657776,-0.7041894793510437,-0.19783127307891846,0.29078832268714905
0.05963397026062012,0.10049572587013245,0.07161277532577515,0.0035843253135681152,-0.687049542602303,-0.5349047805984369,-0.7174015384607788,-0.39410537481307983,0.6342588663101196,-0.6651291251182556,-0.3995926082134247,-0.22299522161483765,0.2865874469280243
0.08000898361206055,0.06971317529678345,0.08462285995483398,0.0003275871276855469,-0.6936470350092185,-0.5374900327301985,-0.7145260326210813,-0.39367255568504333,0.6393457055091858,-0.6604990363121033,-0.0781187042593956,-0.2087428718805313,0.2356760948896408
0.09996700286865234,0.04454973340034485,0.043283283710479736,0.027806401252746582,-0.6962938495984548,-0.5382949498200184,-0.7099431323881207,-0.3933351933956146,0.64137864112854,-0.6587268114089966,-0.019551526755094528,-0.16521571576595306,0.20064646005630493
0.1200110912322998,0.04320773482322693,0.011990964412689209,0.04315906763076782,-0.6996152490144123,-0.5396838606679044,-0.7069905062207605,-0.39315280318260193,0.6439233422279358,-0.6563486456871033,-0.16569343209266663,-0.15019798278808594,0.16709904372692108
0.13997292518615723,0.010179907083511353,-0.023353874683380127,0.05275636911392212,-0.7056608511727931,-0.542772545926435,-0.7078883399153585,-0.39316025376319885,0.6485369801521301,-0.6517858505249023,-0.39752501249313354,-0.11405470967292786,0.046770647168159485
0.15986394882202148,-0.013546556234359741,-0.010331571102142334,0.03401756286621094,-0.7133553351099717,-0.5517221503938572,-0.7166488621309387,-0.39635032415390015,0.6543746590614319,-0.6439723968505859,-0.5855472683906555,-0.23744091391563416,-0.2292003184556961
0.17999696731567383,-0.06810912489891052,0.08468395471572876,-0.05221712589263916,-0.7191016620560692,-0.568401584036608,-0.7325593844319208,-0.40500494837760925,0.6587090492248535,-0.6340926289558411,-0.49098217487335205,-0.3638339042663574,-0.47959861159324646
0.20010685920715332,-0.16399922966957092,0.17516714334487915,-0.10213673114776611,-0.7187994081550874,-0.586179135843483,-0.7501409558132398,-0.41632309556007385,0.6584815979003906,-0.6269586682319641,-0.20675431191921234,-0.2198934406042099,-0.6121019124984741
0.219984769821167,-0.13125300407409668,0.1546381115913391,-0.08240103721618652,-0.7155275447764163,-0.5991729493064549,-0.7659696971842607,-0.4256470799446106,0.6560156941413879,-0.6232721209526062,-0.2482145130634308,-0.05653904005885124,-0.5400636792182922
0.23997807502746582,-0.02474755048751831,0.05450594425201416,-0.0564652681350708,-0.7169285965279047,-0.6093794896305529,-0.781251162707107,-0.4314597547054291,0.6570724844932556,-0.6181410551071167,-0.5344911813735962,0.01819760352373123,-0.31517425179481506
0.2600138187408447,-0.010042130947113037,-0.02849215269088745,-0.046543896198272705,-0.7248780846546241,-0.6182204474864703,-0.7954907433312286,-0.43386659026145935,0.6630441546440125,-0.6100264191627502,-0.6927193403244019,0.038505978882312775,-0.1265551894903183
0.27999186515808105,-0.06690794229507446,-0.038454413414001465,-0.07387799024581909,-0.7341066225749991,-0.625448919093611,-0.8079763948459204,-0.4346637427806854,0.6699241399765015,-0.6018879413604736,-0.5505045652389526,0.09014537930488586,-0.11681674420833588
0.29999804496765137,-0.12681952118873596,-0.03833049535751343,-0.07169663906097412,-0.7388001572128823,-0.6294413111553329,-0.8178719232227818,-0.4352074861526489,0.6734013557434082,-0.5975995659828186,-0.25960201025009155,0.18863289058208466,-0.22072403132915497
0.3199748992919922,-0.14221090078353882,-0.07932901382446289,-0.045733749866485596,-0.7381786104052417,-0.6312842265249393,-0.8273792575455536,-0.43655499815940857,0.6729417443275452,-0.5971342325210571,-0.15012001991271973,0.256564736366272,-0.3881899118423462
0.33998799324035645,-0.1378473937511444,-0.11023205518722534,-0.008342206478118896,-0.7368851639562022,-0.6334638025660172,-0.8397729263569538,-0.43837031722068787,0.6719844341278076,-0.5968823432922363,-0.3035329282283783,0.34469521045684814,-0.41937020421028137
0.3600270748138428,-0.1567489504814148,-0.10809344053268433,-0.035887181758880615,-0.737871434805533,-0.637153113559098,-0.8560273969559109,-0.44017493724823,0.6727145314216614,-0.5947279930114746,-0.47403454780578613,0.3750055134296417,-0.4928249418735504
0.3800218105316162,-0.1738254725933075,-0.08593922853469849,-0.04400455951690674,-0.7399376851682112,-0.642333162743964,-0.8753881695422988,-0.4424160420894623,0.6742419004440308,-0.5913256406784058,-0.5504599213600159,0.4091293215751648,-0.5508201718330383
0.4000117778778076,-0.18176475167274475,-0.0789334774017334,-0.02875053882598877,-0.7416099237846613,-0.6489395603237141,-0.8976782678938013,-0.44563090801239014,0.6754758954048157,-0.5874908566474915,-0.5435729026794434,0.4433417022228241,-0.6452512741088867
0.42000508308410645,-0.14789235591888428,-0.14026784896850586,-0.007021069526672363,-0.742802689133943,-0.6552154518191861,-0.9205754359555283,-0.4488179087638855,0.6763549447059631,-0.5840433239936829,-0.6136376857757568,0.4594716727733612,-0.6365666389465332
0.43985486030578613,-0.09160810708999634,-0.20135921239852905,0.016340136528015137,-0.7455132680966903,-0.6636757120356681,-0.9456076194436569,-0.45261192321777344,0.6783490180969238,-0.5787791013717651,-0.7127642035484314,0.3964444100856781,-0.639798641204834
0.45996880531311035,-0.05174329876899719,-0.21593588590621948,0.03117203712463379,-0.7495142630772704,-0.6741817232971431,-0.9719064520104598,-0.4569695293903351,0.6812832951545715,-0.5718672275543213,-0.7837384343147278,0.3197934031486511,-0.665054202079773
0.47998785972595215,-0.02360934019088745,-0.2070552110671997,-0.01787346601486206,-0.7513500252850968,-0.6874563194681296,-0.9984609712569481,-0.46372589468955994,0.682625949382782,-0.5647833347320557,-0.5080887079238892,0.17253203690052032,-0.708284318447113
0.5000879764556885,-0.0146808922290802,-0.18029236793518066,-0.03215169906616211,-0.7472250488739899,-0.6978163152740229,-1.0178313279421927,-0.4713573157787323,0.6796057224273682,-0.5621017217636108,-0.10286415368318558,0.11706967651844025,-0.6609066724777222
0.5199730396270752,-0.016414999961853027,-0.18180221319198608,-0.021552085876464844,-0.7390595090217513,-0.7042110084579365,-1.031002563006577,-0.47851911187171936,0.6735931038856506,-0.5632867217063904,0.03980881720781326,0.13362964987754822,-0.6116639375686646
0.540024995803833,-0.014630019664764404,-0.1920824646949768,-0.01001507043838501,-0.7314824857840175,-0.7104512094835743,-1.0443197114223082,-0.485339492559433,0.6679736375808716,-0.5641425848007202,-0.12922681868076324,0.11913149803876877,-0.645626962184906
0.5593559741973877,-0.003976047039031982,-0.16053539514541626,-0.03569704294204712,-0.726073017277054,-0.7195105779031127,-1.0608589772220158,-0.4928044378757477,0.6639382243156433,-0.5624322295188904,-0.24384722113609314,0.08307193964719772,-0.6346803307533264
0.5799458026885986,0.003349125385284424,-0.1392611861228943,-0.06624698638916016,-0.7214255331810197,-0.7287382946397554,-1.0768761693963398,-0.5000227689743042,0.6604557037353516,-0.5601567625999451,-0.1812157928943634,0.046604301780462265,-0.5787390470504761
0.6000468730926514,0.027135848999023438,-0.12018007040023804,-0.08356970548629761,-0.7157394148990538,-0.7372688567233721,-1.0902541305185227,-0.5072994232177734,0.6561755537986755,-0.5586420893669128,-0.05823338404297829,-0.016124773770570755,-0.5554210543632507
0.62027907371521,0.060683488845825195,-0.11979001760482788,-0.06319093704223633,-0.708652462107195,-0.7440640300797821,-1.100242772529013,-0.5142204761505127,0.6508112549781799,-0.5585894584655762,0.04826132953166962,0.005857313051819801,-0.486432820558548
0.6402828693389893,0.10157883167266846,-0.14067405462265015,-0.035951972007751465,-0.7016324057193374,-0.7491309651958609,-1.1085221922749278,-0.5201427340507507,0.6454653739929199,-0.5593085885047913,0.04285772144794464,0.011120162904262543,-0.4608716368675232
0.6601099967956543,0.14549577236175537,-0.1386120319366455,-0.02039015293121338,-0.6949957202147019,-0.7544809334786866,-1.1169121269551863,-0.5260500311851501,0.6403821706771851,-0.5596268773078918,-0.007000262383371592,-0.01164187490940094,-0.47238433361053467
0.6800258159637451,0.18460941314697266,-0.1223023533821106,-0.04819822311401367,-0.6882622957392862,-0.7611062751851475,-1.1255893109943524,-0.5327081084251404,0.6351960301399231,-0.5592387914657593,0.048256173729896545,-0.11843525618314743,-0.4512668251991272
0.6999690532684326,0.21781808137893677,-0.10625261068344116,-0.06856906414031982,-0.681881341478517,-0.7696058147737421,-1.1319623574827198,-0.5402516722679138,0.6302548050880432,-0.5575906038284302,0.067118801176548,-0.3283514082431793,-0.3616998791694641
0.7201249599456787,0.21286141872406006,-0.06173598766326904,-0.07224494218826294,-0.6759514302379074,-0.7805951906273804,-1.1362864641742834,-0.5489667654037476,0.625639796257019,-0.5542656183242798,0.13245591521263123,-0.49327120184898376,-0.2800939977169037
0.7401549816131592,0.22028052806854248,-0.018591225147247314,-0.05992370843887329,-0.6710216575346941,-0.790915289325729,-1.1363375205378548,-0.556843638420105,0.6217864751815796,-0.5507329702377319,0.20950102806091309,-0.5327207446098328,-0.07306426763534546
0.7600328922271729,0.20693129301071167,0.04161989688873291,-0.06404352188110352,-0.6671505722401165,-0.7997458505659423,-1.1330263608526083,-0.5634071826934814,0.6187500357627869,-0.5474676489830017,0.25306668877601624,-0.5481123328208923,-0.046226534992456436
0.7800190448760986,0.20075684785842896,0.07445698976516724,-0.060939133167266846,-0.6627487859380036,-0.8078539944809343,-1.1289498395012398,-0.5697906613349915,0.6152860522270203,-0.5447583794593811,0.27644288539886475,-0.5025699138641357,-0.018321160227060318
0.8000137805938721,0.24468988180160522,0.010586261749267578,-0.0544896125793457,-0.6597874898523438,-0.8150082487971069,-1.1242797991924924,-0.5749969482421875,0.6129489541053772,-0.5419154167175293,0.189618319272995,-0.5264849662780762,0.05546760559082031
0.8284599781036377,0.26955646276474,0.07335448265075684,-0.044595181941986084,-0.657846571550581,-0.8363370144688479,-1.1158788119041292,-0.58730548620224,0.6114142537117004,-0.5303253531455994,0.17965352535247803,-0.8032189607620239,0.034376587718725204
0.8501770496368408,0.24055224657058716,0.07100355625152588,-0.006463825702667236,-0.6546316349271358,-0.8505056788844908,-1.1121225503424041,-0.5962346196174622,0.6088670492172241,-0.5232449173927307,0.22330555319786072,-0.8657691478729248,-0.07017771154642105
0.8708140850067139,0.27596813440322876,0.018768370151519775,0.04585641622543335,-0.6509684136131931,-0.8674616990882776,-1.1101465994554514,-0.6067177057266235,0.60595703125,-0.5144995450973511,0.1387963593006134,-0.9632797837257385,-0.07008513063192368
0.8863639831542969,0.3215424418449402,-0.0663611888885498,0.04026097059249878,-0.6490142752412347,-0.8869852029463263,-1.1080186343474627,-0.617563009262085,0.6044014096260071,-0.503304123878479,0.1276971697807312,-1.1327271461486816,0.009221226908266544
0.9051909446716309,0.350805401802063,-0.06162470579147339,0.06961512565612793,-0.6468439145659403,-0.9081533856042386,-1.1042499301327793,-0.62911057472229,0.6026709079742432,-0.49092549085617065,0.2917160987854004,-1.179419994354248,0.012737776152789593
0.9241828918457031,0.3632432222366333,-0.019519388675689697,0.11140203475952148,-0.6406169925216377,-0.925518288081413,-1.0946435397210845,-0.6405259966850281,0.597690224647522,-0.4821752905845642,0.7453556060791016,-1.0989314317703247,-0.06430278718471527
0.9424850940704346,0.3569350838661194,-0.0037995576858520508,0.1509171426296234,-0.6264697875737054,-0.9342467408432348,-1.0758462569913916,-0.6514449715614319,0.586288571357727,-0.48154449462890625,1.3039566278457642,-0.9125156998634338,-0.16068926453590393
0.9623188972473145,0.34943848848342896,-0.021245300769805908,0.21186286211013794,-0.6066138576652025,-0.9368336066742463,-1.0500528201773123,-0.6619386076927185,0.5700887441635132,-0.48665836453437805,1.501288652420044,-0.8446281552314758,-0.20158295333385468
0.9823501110076904,0.26370376348495483,0.054720401763916016,0.11043119430541992,-0.5872694816378687,-0.9431783759806522,-1.0287775094583205,-0.6738142967224121,0.5540900826454163,-0.48883387446403503,0.9886527061462402,-1.0709953308105469,-0.3903557360172272
1.002469778060913,0.1425747275352478,0.20208275318145752,0.036374419927597046,-0.5704347130068784,-0.9631880292732597,-1.0229311181205267,-0.6910213828086853,0.5399979948997498,-0.48051193356513977,0.4022524952888489,-1.182576060295105,-0.633602499961853
1.0220301151275635,0.16871941089630127,0.16940546035766602,0.11727631092071533,-0.559028234502315,-0.9877405021511093,-1.0287458164876904,-0.7077056169509888,0.530362606048584,-0.46676352620124817,-0.22553955018520355,-0.9531589150428772,-0.5567507743835449
1.0430479049682617,0.20911985635757446,0.1122785210609436,0.23626679182052612,-0.557748599421871,-1.013788067302344,-1.0470804804246578,-0.7201977968215942,0.5292773246765137,-0.44853171706199646,-0.9653182625770569,-0.660383403301239,-0.3865440785884857
1.066148042678833,0.19022858142852783,0.07515782117843628,0.26945996284484863,-0.5620660288250687,-1.0357173856511515,-1.071424449016741,-0.7278873920440674,0.5329355001449585,-0.43146252632141113,-0.8220828771591187,-0.24027594923973083,-0.3510933518409729
1.0841429233551025,0.2038182020187378,0.210446298122406,0.22152870893478394,-0.5575592798280584,-1.0427307162928436,-1.0814884883466722,-0.7329626083374023,0.529116690158844,-0.42755281925201416,0.4208465814590454,0.05009641498327255,-0.45621970295906067
1.102658987045288,0.30161237716674805,0.2113974690437317,0.25104954838752747,-0.5385674255886349,-1.0327226610744893,-1.066902243328701,-0.7371440529823303,0.5129067301750183,-0.4399380087852478,1.4914470911026,0.17317147552967072,-0.5858612656593323
1.1236498355865479,0.36843329668045044,-0.021704018115997314,0.383505642414093,-0.5119804958928097,-1.019812939625421,-1.0460324941109849,-0.7427619695663452,0.4899047613143921,-0.45639684796333313,1.2437825202941895,0.01441964227706194,-0.7591896653175354
1.1446950435638428,0.3567141890525818,-0.19168636202812195,0.33096176385879517,-0.48700059591578254,-1.0202388241475415,-1.0385309297051792,-0.7531529068946838,0.4679773151874542,-0.4623398780822754,0.6820473074913025,-0.43207165598869324,-1.0222002267837524
1.164369821548462,0.29502689838409424,-0.11618664860725403,0.28928208351135254,-0.46338869825403634,-1.032321408354181,-1.0386932887496283,-0.767957866191864,0.4469819962978363,-0.4587461054325104,0.6083656549453735,-0.7066310048103333,-1.0003942251205444
1.1863420009613037,0.16159379482269287,-0.00012916326522827148,0.2693222165107727,-0.4376924323947843,-1.0465114348255156,-1.0363308811839396,-0.7840762734413147,0.42385056614875793,-0.4534042179584503,0.8734319806098938,-0.780909538269043,-1.1603748798370361
1.207746982574463,0.03217649459838867,-0.01702752709388733,0.3077734410762787,-0.4054068530731989,-1.0588860243424612,-1.032289718227675,-0.8011431694030762,0.3943926692008972,-0.4501378536224365,0.9689435958862305,-0.6076616644859314,-1.4358434677124023
1.2263729572296143,-0.02616220712661743,-0.07510629296302795,0.2694063186645508,-0.3701528795421519,-1.070401635100567,-1.0324877137443502,-0.8179693222045898,0.36175796389579773,-0.4472779631614685,0.7245427370071411,-0.6062011122703552,-1.6689257621765137
1.2472970485687256,-0.006952524185180664,-0.020725369453430176,0.16705065965652466,-0.3339506664246894,-1.0875422410619313,-1.037545125790545,-0.8365687131881714,0.3277779817581177,-0.4389927089214325,0.5870550274848938,-0.9513974785804749,-1.7528220415115356
1.2662019729614258,0.01724696159362793,0.1058097779750824,0.17111054062843323,-0.2973088231832882,-1.1115844969794646,-1.0430160414427823,-0.8570755124092102,0.2929481565952301,-0.42379599809646606,0.7001129388809204,-1.2472716569900513,-1.6749728918075562
1.2871220111846924,-0.01567906141281128,0.07768091559410095,0.12340211868286133,-0.2606959782359396,-1.1395215058721282,-1.0411079180195926,-0.877738356590271,0.25775307416915894,-0.40390437841415405,1.0347908735275269,-1.6193214654922485,-1.6216015815734863
1.30696702003479,-0.1862439513206482,0.04428790509700775,0.1392914354801178,-0.21946297213322832,-1.169933778322478,-1.0331603179555657,-0.8986407518386841,0.21770550310611725,-0.38085320591926575,1.343125820159912,-1.530018925666809,-1.866574764251709
1.3267319202423096,-0.22664469480514526,-0.010452687740325928,0.12410712242126465,-0.17288800475735347,-1.1974056778207298,-1.0216107365456262,-0.9172152876853943,0.17202802002429962,-0.3593365550041199,1.4699342250823975,-1.476269006729126,-1.9373836517333984
1.3467791080474854,-0.2385677695274353,-0.023314163088798523,0.025419533252716064,-0.12783380959796253,-1.2243953142861115,-1.0046112428334635,-0.932925820350647,0.12748593091964722,-0.3367445170879364,1.7419207096099854,-1.5617926120758057,-1.7530817985534668
1.3668057918548584,-0.367367148399353,0.07315299659967422,-0.009267032146453857,-0.08109542121001417,-1.254052660702836,-0.9799631952151779,-0.947131872177124,0.08100656419992447,-0.3104502856731415,2.1431984901428223,-1.7055531740188599,-1.9686858654022217
1.3869049549102783,-0.47241514921188354,0.06244754418730736,-0.004819154739379883,-0.028101823577226934,-1.2860268382445752,-0.9465002229100852,-0.9593476057052612,0.028098125010728836,-0.28082534670829773,2.4901440143585205,-1.6185423135757446,-2.0056185722351074
1.4067749977111816,-0.5771316885948181,-0.14923223853111267,0.24316060543060303,0.02143896834792693,-1.3102812889853328,-0.916689285290245,-0.9660354852676392,-0.021437326446175575,-0.25751906633377075,1.6732943058013916,-0.4983740746974945,-1.9618916511535645
1.4264469146728516,-0.8089379668235779,-0.3156711459159851,0.42218881845474243,0.05918027039121775,-1.3013886216780501,-0.9040068957032776,-0.9622413516044617,-0.0591457337141037,-0.26569461822509766,0.6321266889572144,1.259718418121338,-1.5797061920166016
1.4464280605316162,-0.7242777943611145,0.09898915886878967,0.21685704588890076,0.08765728281050925,-1.2745607131365333,-0.9025352460360445,-0.9527699947357178,-0.08754506707191467,-0.2908010482788086,0.4909926950931549,1.3099859952926636,-1.0772860050201416
1.4664528369903564,-0.5479041337966919,0.40839800238609314,0.28629347681999207,0.09947996281463156,-1.2475958196521528,-0.8912145063630816,-0.9435357451438904,-0.09931596368551254,-0.316032737493515,1.3797627687454224,0.9239757657051086,0.5189580321311951
1.4863779544830322,-0.37390726804733276,0.21499615907669067,0.0431860089302063,0.10121628151213655,-1.245519363616671,-0.8573309448513076,-0.9427127242088318,-0.10104354470968246,-0.3179357051849365,2.0250706672668457,-0.449410617351532,0.6911661624908447
1.506255865097046,-0.46061402559280396,-0.20486971735954285,0.5103423595428467,0.08609968682095333,-1.2543967312805606,-0.8293435270238577,-0.9468415379524231,-0.08599334955215454,-0.30999433994293213,0.2080526351928711,0.17282313108444214,1.199419617652893
1.5263209342956543,-0.9986273050308228,-0.40448087453842163,0.41212427616119385,0.06695892197653025,-1.2403748297527775,-0.8214517249728562,-0.9437861442565918,-0.06690889596939087,-0.3237147629261017,-0.048955194652080536,1.0146045684814453,0.8846575021743774
1.5462698936462402,-0.5432754158973694,-0.3226676285266876,0.1714709997177124,0.0489492151753589,-1.226721448078285,-0.8162637264124774,-0.9402604699134827,-0.048929668962955475,-0.33692193031311035,-0.12057039141654968,0.45250120759010315,1.1608015298843384
1.566253900527954,-0.6105706691741943,-0.3083457350730896,0.25725147128105164,0.019734776051745253,-1.215796722442429,-0.8124970521501302,-0.9374641180038452,-0.019733496010303497,-0.3475223183631897,-0.46723076701164246,0.6602823138237,1.5888800621032715
1.5862059593200684,-0.7924855351448059,-0.1544036567211151,0.06623420119285583,-0.015320394588756888,-1.2026506854664223,-0.8095845724740212,-0.9328868389129639,0.015319795347750187,-0.3598437011241913,-0.5521583557128906,0.7698224186897278,1.9345474243164062
1.6043288707733154,-0.9070223569869995,-0.14501050114631653,0.0696745216846466,-0.05907684401751729,-1.1830656640291677,-0.8032564497411765,-0.9241544604301453,0.05904248729348183,-0.37742894887924194,-0.41893893480300903,1.1013753414154053,2.294248580932617
1.6260530948638916,-0.9527773261070251,-0.05332990735769272,-0.029735803604125977,-0.10318024517519628,-1.161567320827388,-0.7873259345847102,-0.9125487208366394,0.10299726575613022,-0.39578595757484436,0.05545123666524887,0.9357501864433289,2.3358819484710693
1.6461780071258545,-0.9701474905014038,-0.17393752932548523,0.1212233304977417,-0.14590546539271013,-1.1392224955269141,-0.7670412553074083,-0.8986575603485107,0.14538833498954773,-0.41385629773139954,0.10901396721601486,1.006531000137329,2.3624420166015625
1.664128065109253,-0.8673508167266846,-0.16887374222278595,0.08687788248062134,-0.18764264983670936,-1.1149910271922372,-0.7453531374958638,-0.8821457028388977,0.18654344975948334,-0.43245887756347656,-0.013539427891373634,1.0134210586547852,2.275041103363037
1.6858549118041992,-0.8477621674537659,-0.21394957602024078,0.009817183017730713,-0.2268146377993244,-1.0935780750527468,-0.7283739731891234,-0.8655253052711487,0.22487489879131317,-0.4475460350513458,-0.28305280208587646,0.7990700006484985,2.0206780433654785
1.7061219215393066,-0.7302372455596924,-0.1874329149723053,0.034089118242263794,-0.2659031693077342,-1.077206766960553,-0.7196606691036393,-0.8496882915496826,0.2627808153629303,-0.45713895559310913,-0.7035009860992432,0.5984922647476196,1.839068055152893
1.7259299755096436,-0.6414420008659363,-0.1006271243095398,0.014809906482696533,-0.3040992985613536,-1.0659503479947041,-0.7172199437300566,-0.8350901007652283,0.2994339168071747,-0.46148037910461426,-0.8707575798034668,0.44492611289024353,1.6311938762664795
1.745466947555542,-0.507657527923584,-0.03273969888687134,-0.03499925136566162,-0.3385310991670344,-1.0611685088807483,-0.7193091246568778,-0.8233820199966431,0.3321019113063812,-0.4601636528968811,-0.9705565571784973,0.13035848736763,1.340328335762024
1.7656128406524658,-0.35966628789901733,-0.0360906720161438,-0.02189376950263977,-0.37190595006609595,-1.06109375685205,-0.725299440152449,-0.8132158517837524,0.3633917570114136,-0.45456185936927795,-1.1649683713912964,0.09804369509220123,1.3099985122680664
1.7856857776641846,-0.2758835554122925,0.04847642779350281,-0.055578529834747314,-0.40519322611706954,-1.0647864821534159,-0.7359391998036499,-0.8038589358329773,0.39419636130332947,-0.4454437792301178,-1.277833104133606,-0.03157740831375122,1.1379002332687378
1.8058578968048096,-0.1791095733642578,0.09714046120643616,-0.06730413436889648,-0.43633391435624885,-1.0713657723140673,-0.747476416415803,-0.7956066727638245,0.42261970043182373,-0.43405383825302124,-1.148693561553955,-0.1492343544960022,1.1541996002197266
1.8255259990692139,-0.10525166988372803,0.1360040307044983,-0.09224492311477661,-0.4663833767054157,-1.0820793972687177,-0.7588883489525403,-0.7886387705802917,0.4496588706970215,-0.4193516969680786,-1.2268298864364624,-0.4014759063720703,1.0135289430618286
1.8443400859832764,0.017734408378601074,0.07207414507865906,-0.027000486850738525,-0.4963335437990815,-1.0957971105264805,-0.7732572733738836,-0.7819861769676208,0.47620469331741333,-0.4021528959274292,-1.266715407371521,-0.38816243410110474,1.0067956447601318
1.8657000064849854,0.1465889811515808,0.09129947423934937,-0.04347705841064453,-0.5262366274002297,-1.1124794870395913,-0.7884332280405421,-0.7754647731781006,0.5022826790809631,-0.3825787901878357,-1.3039681911468506,-0.46060308814048767,1.0876359939575195
1.8833978176116943,0.15382814407348633,0.04240429401397705,-0.04107576608657837,-0.5566029639002129,-1.1295996925869203,-0.8054455938366962,-0.7677503824234009,0.5283049941062927,-0.36256489157676697,-1.3181968927383423,-0.4325326383113861,1.0411431789398193
1.9051549434661865,0.2096533179283142,0.06603139638900757,-0.07323890924453735,-0.5864764600838495,-1.147046437934543,-0.8231739523793172,-0.7592291831970215,0.5534297227859497,-0.3424714505672455,-1.2518473863601685,-0.273581862449646,1.0406123399734497
1.9253108501434326,0.2488647699356079,0.045009613037109375,-0.10803654789924622,-0.6142473902708577,-1.162148032192594,-0.840661692673819,-0.74991774559021,0.5763436555862427,-0.3247331976890564,-1.3180750608444214,-0.3049275577068329,0.9331079721450806
1.9452650547027588,0.3267822265625,-0.05172985792160034,-0.053714364767074585,-0.6426158015436353,-1.1804929759493765,-0.8646951714628941,-0.740325927734375,0.5992915034294128,-0.30457717180252075,-1.5314370393753052,-0.12099099904298782,0.9415860176086426
1.9654910564422607,0.39752310514450073,-0.015434324741363525,-0.12221413850784302,-0.6696218631447086,-1.2004968206920217,-0.8924199381835657,-0.7309125065803528,0.6206895709037781,-0.2837459146976471,-1.520845651626587,-0.1434657722711563,0.8625505566596985
1.985079050064087,0.4524499177932739,-0.04100710153579712,-0.15327009558677673,-0.6970707524935784,-1.218310034607959,-0.9182493898816586,-0.7195855975151062,0.6419745087623596,-0.2646985948085785,-1.3365155458450317,0.005665920674800873,0.9119292497634888
2.0048539638519287,0.4812253713607788,-0.0591280460357666,-0.14216962456703186,-0.7216978640348007,-1.232321747992688,-0.9422162276859835,-0.7080932259559631,0.6606602072715759,-0.24926403164863586,-1.2237149477005005,0.1317867487668991,0.8317885398864746
2.024977922439575,0.6653957962989807,-0.22140151262283325,-0.10015156865119934,-0.7450874235781011,-1.2454876766367793,-0.9666058566476415,-0.696478009223938,0.678036093711853,-0.234916090965271,-1.3085781335830688,0.1952444612979889,0.762825608253479
2.0438168048858643,0.7718844413757324,-0.2697286605834961,-0.06495383381843567,-0.7661817046508392,-1.2586733589789947,-0.9928431159811723,-0.6857485771179199,0.6933889985084534,-0.22127042710781097,-1.1110296249389648,0.2510671615600586,0.680013120174408
2.067044973373413,0.7984284162521362,-0.18846702575683594,-0.11799287796020508,-0.7844368182591327,-1.2668139421222406,-1.0106904748539616,-0.6753358244895935,0.7064266800880432,-0.21185630559921265,-0.6615031361579895,0.17988742887973785,0.663851261138916
2.085141897201538,0.743317186832428,-0.2757977247238159,-0.10822060704231262,-0.7996504659999922,-1.2697070567980384,-1.0195457509212689,-0.665604293346405,0.7171125411987305,-0.2066902071237564,-0.4340592324733734,0.11570463329553604,0.5795930624008179
2.104130983352661,0.7397854328155518,-0.35313206911087036,-0.02956610918045044,-0.8131251351427367,-1.269876164584394,-1.0233606152436645,-0.6563504934310913,0.7264384031295776,-0.2036949247121811,-0.16642431914806366,0.154567152261734,0.6385862231254578
2.125962972640991,0.6207597851753235,-0.30093246698379517,0.008098557591438293,-0.8240917644384183,-1.2628131457216478,-1.018679457237613,-0.647264301776886,0.7339311838150024,-0.20589812099933624,0.08218695223331451,0.2979605197906494,0.49304142594337463
2.144500970840454,0.5387967824935913,-0.2774850130081177,-0.05007219314575195,-0.8296200902947876,-1.2474892060502536,-1.0045189916305857,-0.6401762366294861,0.7376749515533447,-0.21449986100196838,0.7656887769699097,0.04790045693516731,0.34224608540534973
2.164262056350708,0.5274438261985779,-0.2559093236923218,0.010662823915481567,-0.8291006904123931,-1.2292959153160434,-0.9766519055268368,-0.6365289092063904,0.7373241782188416,-0.2262388914823532,1.0930356979370117,-0.29574263095855713,0.2281874269247055
2.183227777481079,0.3085581660270691,-0.3209158182144165,0.0661463737487793,-0.8230506939532028,-1.215196519385418,-0.9465468670467782,-0.6374461650848389,0.7332236766815186,-0.23673954606056213,1.0874508619308472,-0.5111889839172363,-0.19058528542518616
2.204495906829834,0.2058734893798828,-0.26152652502059937,0.158474862575531,-0.8078452429780484,-1.20681560933975,-0.921105914104356,-0.6457844972610474,0.7227997779846191,-0.24601443111896515,1.0391614437103271,-0.4810883700847626,-0.5907461643218994
2.22426700592041,0.3169870376586914,-0.2676776051521301,0.17272451519966125,-0.7852162622741906,-1.2053739263581522,-0.9021956027634891,-0.6605387330055237,0.7069781422615051,-0.2527262270450592,1.0073994398117065,-0.8076909780502319,-1.0242396593093872
2.2444279193878174,0.43776869773864746,-0.24027496576309204,0.21466824412345886,-0.7560396152882974,-1.2150372859912764,-0.8846677498795367,-0.682000994682312,0.6860454082489014,-0.2534102499485016,1.253158688545227,-1.3539131879806519,-1.2872334718704224
2.2632930278778076,0.41055864095687866,-0.2425101399421692,0.2877390384674072,-0.7170954611789425,-1.2328903121850094,-0.8599943060855657,-0.7110957503318787,0.6571982502937317,-0.24986669421195984,1.666770339012146,-1.8979843854904175,-1.5882432460784912
2.2843101024627686,0.3387715816497803,-0.36140143871307373,0.33704355359077454,-0.672823439137413,-1.2523608679843545,-0.8259291327329001,-0.7427482008934021,0.6231966018676758,-0.24484987556934357,2.3309500217437744,-2.5249249935150146,-1.8654930591583252
2.3042070865631104,0.16518020629882812,-0.14125925302505493,0.421913743019104,-0.6220421284272857,-1.2891020518001104,-0.7859886907747552,-0.7806587219238281,0.5826960206031799,-0.22591452300548553,2.2021608352661133,-3.522658586502075,-2.2174038887023926
2.323867082595825,-0.36482787132263184,-0.2558882236480713,0.3941899836063385,-0.582530305817921,-1.3314022645097543,-0.7665548222371827,-0.8112585544586182,0.5501387119293213,-0.19800758361816406,-0.09459896385669708,-0.9415686726570129,-0.844143807888031
2.3439109325408936,-1.6215384006500244,0.4345032572746277,-1.6766961812973022,-0.5485788606264868,-1.361801478827179,-0.7439050492562908,-0.8346994519233704,0.5214751362800598,-0.1770329475402832,2.065882921218872,-3.146044969558716,-1.221128225326538
2.363900899887085,-0.13178282976150513,1.0278942584991455,0.09105861186981201,-0.5038866140546239,-1.4134216150161274,-0.6942175979608028,-0.8648908138275146,0.48283272981643677,-0.13724687695503235,3.6870181560516357,-3.364652156829834,-1.181182622909546
2.383920907974243,-0.8509302735328674,0.04815959930419922,0.044002413749694824,-0.4708466779361193,-1.427185641498604,-0.6148659920290732,-0.8820105195045471,0.45364099740982056,-0.12754416465759277,3.4084227085113525,-1.9246294498443604,-1.468422770500183
2.403902769088745,-0.5360007882118225,-0.18241125345230103,-0.16335076093673706,-0.43590802215916596,-1.4340130842847447,-0.5638147546207002,-0.898020327091217,0.4222336709499359,-0.12360597401857376,1.6658273935317993,-0.9851747751235962,-1.2798768281936646
2.4236180782318115,-0.31601661443710327,-0.4794981777667999,0.23638658225536346,-0.41343222921120243,-1.4355699024897581,-0.5488948306608232,-0.9073874950408936,0.4017547369003296,-0.1234562024474144,0.10432752966880798,0.14736101031303406,-0.7929048538208008
2.4435579776763916,-0.20134395360946655,-0.34033554792404175,-0.021849408745765686,-0.4024915179534318,-1.4301803422832748,-0.5493874372460177,-0.9110067486763,0.3917119801044464,-0.12895315885543823,0.12356080859899521,0.3412923812866211,-0.2457377016544342
2.462570905685425,-0.08979791402816772,-0.4064326584339142,-0.018648996949195862,-0.40252039323875105,-1.4206794299586991,-0.5446013777159834,-0.9097293019294739,0.39173853397369385,-0.13760091364383698,0.1849576085805893,0.4296194911003113,0.24754758179187775
2.483468770980835,-0.13135498762130737,-0.6240195035934448,0.20085662603378296,-0.40972519435722876,-1.409103292398633,-0.547102585618241,-0.9052662253379822,0.3983572721481323,-0.1476643681526184,-0.508711040019989,0.8124150037765503,0.3753697872161865
2.5033059120178223,-0.20533829927444458,-0.5643450021743774,0.17376667261123657,-0.41921354184321197,-1.398702584148194,-0.5611023907407302,-0.89991694688797,0.4070422351360321,-0.15641729533672333,-0.9374251961708069,0.8008394837379456,0.3230510652065277
2.523507833480835,-0.2539152503013611,-0.3595900237560272,0.15587401390075684,-0.4279034688817068,-1.389921240346847,-0.5817269363186689,-0.894995391368866,0.4149641990661621,-0.16367115080356598,-1.0194705724716187,0.9817577004432678,0.21376313269138336
2.543287992477417,-0.2858235836029053,-0.19598105549812317,0.08320857584476471,-0.4361825192673747,-1.3778134855512647,-0.6022236471238231,-0.8895456790924072,0.4224824905395508,-0.17383038997650146,-0.980640172958374,0.9976335763931274,0.30964305996894836
2.561167001724243,-0.2573400139808655,-0.1625046730041504,0.04938556253910065,-0.4473751873111696,-1.3689674854257392,-0.6272879291341156,-0.8832850456237793,0.4326005280017853,-0.18073314428329468,-1.4574596881866455,0.9980197548866272,0.3143286406993866
2.582998037338257,-0.3221592307090759,-0.21315637230873108,0.07875128090381622,-0.46059324339314045,-1.3606551935702025,-0.6601930774853413,-0.8760829567909241,0.4444796144962311,-0.18685972690582275,-1.6660045385360718,1.3043192625045776,0.38213086128234863
2.60263991355896,-0.27354711294174194,-0.20994925498962402,0.08702147006988525,-0.4746758107146229,-1.3480119633502192,-0.6947650268518315,-0.8674594163894653,0.4570501148700714,-0.19651846587657928,-1.6174978017807007,1.5110052824020386,0.33040347695350647
2.62465500831604,-0.25676214694976807,-0.22594082355499268,0.14175143837928772,-0.4877068441740869,-1.3320411610184224,-0.727941017614327,-0.8583501577377319,0.4686013162136078,-0.20892047882080078,-1.5592998266220093,1.6893177032470703,0.28582561016082764
2.6433119773864746,-0.36115771532058716,-0.2024593949317932,0.20788456499576569,-0.500308618430833,-1.3116982655534533,-0.7621888225112827,-0.8481471538543701,0.4796963632106781,-0.22480648756027222,-1.7077213525772095,1.9231078624725342,0.12294353544712067
2.6629860401153564,-0.30399054288864136,-0.1641809642314911,0.15397770702838898,-0.5100626353548721,-1.2919942806408964,-0.7993796141581561,-0.8390148282051086,0.488231897354126,-0.24017450213432312,-1.778149127960205,1.9057605266571045,0.06412936002016068
2.682835817337036,-0.15551847219467163,-0.1470026671886444,0.1381426453590393,-0.5201306911941337,-1.2748555673370177,-0.8398845720163721,-0.8300315737724304,0.4969935417175293,-0.25307175517082214,-1.8389647006988525,1.8121098279953003,-0.12032582610845566
2.7026870250701904,-0.12062311172485352,-0.06371188163757324,0.07371607422828674,-0.5269395108273911,-1.259059261853793,-0.8804641543580543,-0.8226904273033142,0.5028903484344482,-0.2651069760322571,-1.6466008424758911,1.7782121896743774,-0.31309303641319275
2.7226510047912598,-0.09289383888244629,-0.049883127212524414,0.06526625156402588,-0.52795874796063,-1.2426737292403522,-0.9158111946426738,-0.8177507519721985,0.5037710666656494,-0.2783856987953186,-1.3105567693710327,1.6118931770324707,-0.4962942600250244
2.7433578968048096,0.0045021772384643555,-0.13529175519943237,0.17634674906730652,-0.5281060326058217,-1.2279999945497517,-0.9502096830071867,-0.8135079145431519,0.5038983225822449,-0.29032978415489197,-1.5842828750610352,1.702649474143982,-0.54017573595047
2.762923002243042,-0.05805230140686035,-0.07185012102127075,0.11059898138046265,-0.526910346108744,-1.2148124237199291,-0.9908489285472224,-0.8101728558540344,0.5028651356697083,-0.30124226212501526,-1.5638782978057861,1.6086795330047607,-0.8025016188621521
2.7825069427490234,-0.02509021759033203,0.03992706537246704,0.0181540846824646,-0.5209111406091105,-1.2070123140583269,-1.0298318428459323,-0.8106032609939575,0.49767065048217773,-0.30862030386924744,-1.485708236694336,1.1234424114227295,-0.9559743404388428
2.8028171062469482,0.005317091941833496,-0.014759242534637451,0.07613694667816162,-0.5112956731720059,-1.2091398061693324,-1.074983758657376,-0.8156962394714355,0.4893076419830322,-0.30857402086257935,-1.6625059843063354,1.0201727151870728,-1.227337121963501
2.822695016860962,0.06551671028137207,-0.019367635250091553,0.1421794295310974,-0.5012984150088527,-1.2089957705837528,-1.1201121992727314,-0.8201859593391418,0.48056459426879883,-0.31040748953819275,-1.7274929285049438,1.1650075912475586,-1.1649850606918335
2.842417001724243,0.1322493553161621,0.0011754930019378662,0.11582252383232117,-0.49238852854216253,-1.2066589802753709,-1.166161520196535,-0.8234267234802246,0.4727320075035095,-0.3138357400894165,-1.7180349826812744,1.245476484298706,-1.08612859249115
2.8617429733276367,0.13453102111816406,0.06263402104377747,0.0035951435565948486,-0.48313446786014114,-1.2028051048028925,-1.2087235013550208,-0.8262577652931213,0.4645571708679199,-0.3185669779777527,-1.4660067558288574,1.1133263111114502,-1.1135916709899902
2.884079933166504,0.20090168714523315,0.10802540183067322,-0.010073661804199219,-0.47269044172254726,-1.1997182590178548,-1.247276182623904,-0.8297469615936279,0.45528334379196167,-0.3228577971458435,-1.3878192901611328,1.0164706707000732,-1.0717217922210693
2.903033971786499,0.22660231590270996,0.0195600688457489,0.005659013986587524,-0.46392950853114207,-1.195869187817489,-1.284098614641281,-0.8321778178215027,0.447465717792511,-0.32749730348587036,-1.3704464435577393,1.0413717031478882,-0.9378040432929993
2.9213759899139404,0.26805293560028076,0.019187629222869873,-0.04178059101104736,-0.45758228134689505,-1.1918215622526511,-1.3198706675097613,-0.833467423915863,0.4417804181575775,-0.33190709352493286,-1.3578393459320068,0.9345192909240723,-0.8310875296592712
2.942304849624634,0.2405371069908142,0.059717267751693726,-0.09186527132987976,-0.4524495950127587,-1.1884599364323314,-1.3526462217850466,-0.8344396948814392,0.43716996908187866,-0.3355485498905182,-1.1753062009811401,0.8603769540786743,-0.7575830221176147
2.9626379013061523,0.2145366072654724,0.07587134838104248,-0.07640475034713745,-0.4478794579670592,-1.183773589142011,-1.3811414757190497,-0.8346996307373047,0.4330551326274872,-0.3402059078216553,-1.0629897117614746,0.8423393368721008,-0.6083033084869385
2.9835379123687744,0.22826814651489258,0.059470534324645996,-0.02743309736251831,-0.44735208935377074,-1.1772813649429874,-1.4071354947493,-0.8326841592788696,0.4325796961784363,-0.3457052707672119,-1.1221070289611816,0.9902496337890625,-0.311303049325943
3.000127077102661,0.231645405292511,0.062380462884902954,-0.037609219551086426,-0.45255930044155174,-1.1681517725254418,-1.4333671980291378,-0.8274096846580505,0.43726861476898193,-0.3524053394794464,-1.2151356935501099,1.0207831859588623,-0.15428942441940308
3.0220119953155518,0.29118913412094116,0.09234991669654846,-0.08943167328834534,-0.46041181154022237,-1.1597567876076973,-1.4581103498201886,-0.8212491869926453,0.4443170726299286,-0.3579559624195099,-1.1403518915176392,0.9058001041412354,0.0060622431337833405
3.0434069633483887,0.3412988781929016,0.04423987865447998,-0.06660974025726318,-0.47072482303672847,-1.1530440533547903,-1.480221132620185,-0.8145961165428162,0.4535323977470398,-0.36158230900764465,-1.0867185592651367,0.7791747450828552,0.1340876817703247
3.061877965927124,0.3665849566459656,0.029430806636810303,-0.04476809501647949,-0.4824455070731199,-1.146771505809361,-1.4993636986712833,-0.8074114322662354,0.4639469385147095,-0.3644725978374481,-0.9162986874580383,0.7150098085403442,0.22513116896152496
3.0819737911224365,0.40487051010131836,0.08510863780975342,-0.05592918395996094,-0.49381521078349744,-1.1395668331954587,-1.51214151227672,-0.7999206781387329,0.47398874163627625,-0.3680514693260193,-0.588262140750885,0.5920552611351013,0.3551209270954132
3.1033670902252197,0.3930947780609131,0.10348436236381531,-0.04008468985557556,-0.5047951597874107,-1.1313108303301713,-1.517580805468099,-0.7920970320701599,0.48362815380096436,-0.37240612506866455,-0.3133644163608551,0.5183814764022827,0.453151673078537
3.1216070652008057,0.3991526961326599,0.046524256467819214,-0.005538493394851685,-0.5162667480708724,-1.121412996388087,-1.5176634821022994,-0.7833232879638672,0.4936369061470032,-0.37779268622398376,-0.2151239961385727,0.46228599548339844,0.5602431297302246
3.139946937561035,0.39805370569229126,0.04257357120513916,0.003949344158172607,-0.5276366938266807,-1.1120156483978854,-1.5149141283393799,-0.7746560573577881,0.5034928321838379,-0.3826266825199127,-0.027945196256041527,0.34834524989128113,0.556645393371582
3.161184072494507,0.3483579158782959,0.08445197343826294,-0.02884817123413086,-0.5355928112740288,-1.1020637504413513,-1.5064372818823248,-0.7672117352485657,0.5103509426116943,-0.38849490880966187,0.31637951731681824,0.19973383843898773,0.48444461822509766
3.181436777114868,0.2653958797454834,0.15250182151794434,-0.0747007429599762,-0.5389191064689615,-1.0926869817810174,-1.4927245779031562,-0.7620237469673157,0.5132086277008057,-0.39488840103149414,0.5681009292602539,0.06290346384048462,0.3502240478992462
3.2011899948120117,0.18084871768951416,0.20655447244644165,-0.08216279745101929,-0.539036669538999,-1.0842017282265937,-1.4773791716006275,-0.7585923671722412,0.5133094787597656,-0.4013119041919708,0.5435759425163269,-0.004967903718352318,0.26548299193382263
3.2212629318237305,0.13666492700576782,0.2047327756881714,-0.037329673767089844,-0.5385635551993995,-1.0773775467757183,-1.464928359658035,-0.7560498714447021,0.5129033923149109,-0.40659427642822266,0.4218117296695709,0.0821763128042221,0.2213650792837143
3.2411210536956787,0.13259398937225342,0.1590505838394165,0.06106436252593994,-0.5395917133345267,-1.0700175351703003,-1.4565704013316054,-0.7525739669799805,0.5137857794761658,-0.4118943512439728,0.15030020475387573,0.22929146885871887,0.1979624480009079
3.2612130641937256,0.14656269550323486,0.10895651578903198,0.10790985822677612,-0.5416377948075537,-1.062282787492876,-1.453268743356877,-0.7484456896781921,0.5155400633811951,-0.41719022393226624,0.07843887060880661,0.3734818398952484,0.11435656994581223
3.2801029682159424,0.20438861846923828,0.1287495493888855,0.12537124752998352,-0.5406913391289365,-1.0519879141795145,-1.4483537274933607,-0.7445344924926758,0.514728844165802,-0.42511481046676636,0.36102980375289917,0.37459734082221985,0.005559762008488178
3.3009510040283203,0.25542163848876953,0.09962987899780273,0.17455601692199707,-0.5346580539149295,-1.0410290176273633,-1.43939547686396,-0.7424975633621216,0.5095468163490295,-0.43480992317199707,0.5774884819984436,0.2615782916545868,-0.14978450536727905
3.3208529949188232,0.27157682180404663,0.00493544340133667,0.24249759316444397,-0.5248246539524611,-1.0326707006401303,-1.4307558240236689,-0.7431039810180664,0.5010612607002258,-0.4435473084449768,0.5670295357704163,0.13401181995868683,-0.32241949439048767
3.3407537937164307,0.2920876145362854,-0.00786733627319336,0.2730327844619751,-0.5121415526159654,-1.0291802794551086,-1.4254766293261762,-0.7469369769096375,0.4900451600551605,-0.4493785500526428,0.44406360387802124,-0.07814224809408188,-0.5307477116584778
3.3609299659729004,0.30978888273239136,0.005987018346786499,0.2645028829574585,-0.4980711468676142,-1.0336347292174943,-1.4256752449869365,-0.7547810077667236,0.4777319133281708,-0.4495308995246887,0.26138463616371155,-0.3614596426486969,-0.6711928248405457
3.3807849884033203,0.24582922458648682,0.02132958173751831,0.19765716791152954,-0.48284033723780245,-1.0459298340836898,-1.430130401812505,-0.7664591670036316,0.4642966687679291,-0.44381189346313477,0.2361772060394287,-0.6395599842071533,-0.874818742275238
3.400861978530884,0.13071364164352417,0.10165882110595703,0.10533133149147034,-0.4629328933181384,-1.0626283900436455,-1.4345366699675774,-0.7816841006278992,0.44657421112060547,-0.4353635907173157,0.379663348197937,-0.8381864428520203,-1.0353208780288696
3.4203970432281494,0.07853877544403076,0.12868952751159668,0.11811155080795288,-0.43991293298643863,-1.0820916210260967,-1.4399912036891165,-0.7988758087158203,0.4258607029914856,-0.4247826337814331,0.2783648669719696,-0.8050875067710876,-1.189886212348938
3.4399619102478027,0.07544147968292236,0.07895985245704651,0.17644602060317993,-0.4180673520032626,-1.0992710155675254,-1.4484293834678874,-0.8141500949859619,0.4059950113296509,-0.41512393951416016,0.057639408856630325,-0.5494232177734375,-1.1299631595611572
3.4606308937072754,0.021269559860229492,0.064419686794281,0.15440917015075684,-0.3973719049185477,-1.112996816469261,-1.4598695188097528,-0.8271320462226868,0.3869963586330414,-0.40753716230392456,-0.011058399453759193,-0.42825302481651306,-1.2165868282318115
3.4806149005889893,-0.059997379779815674,0.075966477394104,0.08731311559677124,-0.3741216776921821,-1.1256145677376541,-1.4709019757360584,-0.8401033878326416,0.36545509099960327,-0.40083542466163635,0.06167296692728996,-0.4556300640106201,-1.3305407762527466
3.5004827976226807,-0.12848979234695435,0.06038248538970947,0.11142313480377197,-0.3488895790917573,-1.1408833087772607,-1.4857611615763509,-0.8542373180389404,0.3418544828891754,-0.3916812837123871,-0.27087220549583435,-0.5080102682113647,-1.5157849788665771
3.5203659534454346,0.0010246634483337402,-0.0043378472328186035,0.175169438123703,-0.3268049790237199,-1.1568883059013564,-1.5075749181909461,-0.867098331451416,0.3210187554359436,-0.3809036314487457,-0.7777219414710999,-0.40320083498954773,-1.320732593536377
3.540313959121704,0.15449988842010498,0.04567566514015198,0.1583399772644043,-0.31127049373823545,-1.1750311475857789,-1.5361460165458443,-0.878361701965332,0.3062683343887329,-0.36698856949806213,-0.9667980074882507,-0.5477123260498047,-1.2117798328399658
3.5602529048919678,0.1764822006225586,0.10992205142974854,0.08045396208763123,-0.294509230896553,-1.194526390747306,-1.5594045589489594,-0.8899986743927002,0.29027023911476135,-0.35163313150405884,-0.356340229511261,-0.6943449974060059,-1.1778887510299683
3.5800509452819824,0.06375807523727417,0.1350424587726593,0.06257134675979614,-0.2700055006964666,-1.211008312007291,-1.565702598457341,-0.9020608067512512,0.2667367458343506,-0.33931994438171387,0.6925150156021118,-0.7467769384384155,-1.380077600479126
3.6003220081329346,-0.028530538082122803,0.14854088425636292,0.11696740984916687,-0.2346332925271284,-1.2228303621175711,-1.554682786864442,-0.9143100380897522,0.23248633742332458,-0.3316432535648346,1.4076266288757324,-0.6858696937561035,-1.5637603998184204
3.6200408935546875,-0.01811087131500244,0.006188109517097473,0.15671151876449585,-0.1956497710454912,-1.2325481767052364,-1.5381961293480084,-0.9253401160240173,0.19440394639968872,-0.3255041539669037,1.3603979349136353,-0.704554557800293,-1.5781193971633911
3.639962911605835,-0.1545112133026123,-0.14722077548503876,-0.03126418590545654,-0.15618631917795722,-1.246895336161909,-1.5214033186956768,-0.9364618062973022,0.15555208921432495,-0.3143931031227112,1.5919609069824219,-1.0560158491134644,-1.5788569450378418
3.6599490642547607,-0.3317944407463074,-0.023129701614379883,-0.059837788343429565,-0.11627177154380114,-1.26714368475917,-1.5011318607704054,-0.9478076696395874,0.11600996553897858,-0.2969888746738434,1.4569936990737915,-1.2323803901672363,-1.7076283693313599
3.679948091506958,-0.5761207342147827,0.06458093225955963,0.13818421959877014,-0.07041075447432023,-1.2861668112212759,-1.4901430970812046,-0.9573877453804016,0.07035259157419205,-0.28010615706443787,0.88689124584198,-0.7588098645210266,-2.312883138656616
3.7000958919525146,-0.5654509663581848,-0.08100630342960358,0.2838515639305115,-0.024398611368069652,-1.2954523928864103,-1.490259521358909,-0.962045431137085,0.02439619041979313,-0.2717970311641693,0.31660816073417664,-0.07817642390727997,-1.8857028484344482
3.7199649810791016,-0.4697604179382324,-0.08083835989236832,0.3191642463207245,0.0037258605173054386,-1.292151656999755,-1.498539510334237,-0.9614225029945374,-0.003725851885974407,-0.27505096793174744,-0.19214805960655212,0.3588833808898926,-1.2056480646133423
3.7400190830230713,-0.45455145835876465,0.1352628767490387,0.20229482650756836,0.02303651368822777,-1.2845946914868838,-1.5040058599717248,-0.9590687155723572,-0.0230344757437706,-0.2822355329990387,0.3245152235031128,0.2755447328090668,-0.8180020451545715
3.7599709033966064,-0.4006919264793396,0.13512864708900452,0.15949416160583496,0.03601532838496395,-1.2838289224099806,-1.4928080849384207,-0.9584847688674927,-0.03600754216313362,-0.2828614413738251,1.0438125133514404,-0.1419181227684021,-0.11374716460704803
3.7799627780914307,-0.5350251197814941,-0.17291471362113953,0.25519999861717224,0.03786399561484411,-1.288101925464364,-1.472439170813519,-0.9596191048622131,-0.03785494714975357,-0.2787441909313202,0.8534761071205139,-0.14211715757846832,0.39466428756713867
3.8000199794769287,-0.7170272469520569,-0.3401763141155243,0.2447337508201599,0.0331512767000363,-1.2919467351389702,-1.4571886260235971,-0.9608445167541504,-0.033145204186439514,-0.27509862184524536,0.4601489007472992,-0.2283788025379181,0.47285306453704834
3.8199408054351807,-0.6389327645301819,-0.42973506450653076,0.20832866430282593,0.02555946435938518,-1.2966410421237393,-1.449361018098509,-0.9623398780822754,-0.02555668167769909,-0.27064546942710876,0.11145112663507462,-0.1214105412364006,0.5367454290390015
3.839963912963867,-0.6605400443077087,-0.40016287565231323,0.1748068630695343,0.013991637336736733,-1.2956571455899735,-1.445658449527407,-0.9622932076454163,-0.013991180807352066,-0.27165430784225464,0.028338007628917694,0.12006475776433945,0.6184073686599731
3.859963893890381,-0.6553181409835815,-0.30004096031188965,-0.004566550254821777,0.0011217572114637945,-1.2928678723766178,-1.4389013599193854,-0.961625337600708,-0.0011217569699510932,-0.27436402440071106,0.15651726722717285,0.18487916886806488,0.8481894731521606
3.8799641132354736,-0.6197119951248169,-0.2352522313594818,-0.05075448751449585,-0.018059620114341417,-1.2895343367406384,-1.4338653139509063,-0.9605493545532227,0.018058639019727707,-0.2775230407714844,-0.22082947194576263,0.1865731179714203,1.1936359405517578
3.899962902069092,-0.6258704662322998,-0.23457545042037964,-0.029591381549835205,-0.048421882096191325,-1.2848353944716069,-1.433135697189677,-0.9582666158676147,0.04840296134352684,-0.28174889087677,-0.5623438954353333,0.26395872235298157,1.7418742179870605
3.9199631214141846,-0.6520118117332458,-0.1322629153728485,0.08425375819206238,-0.09065424267999726,-1.277765987456551,-1.43622767096208,-0.9534417390823364,0.09053012728691101,-0.2876686155796051,-0.9673354625701904,0.5375372767448425,2.179335117340088
3.939997911453247,-0.7638004422187805,-0.1088184267282486,0.16701745986938477,-0.14022232624698427,-1.2641998150758698,-1.4408355230812848,-0.9440091252326965,0.1397632658481598,-0.29885333776474,-0.7653254270553589,0.7335286140441895,2.3942575454711914
3.9599709510803223,-0.7088188529014587,0.02398321032524109,0.05926704406738281,-0.18816961091122572,-1.2503449873025403,-1.4334948041851938,-0.9323403835296631,0.1870611310005188,-0.30943480134010315,-0.08399584889411926,0.5408971905708313,2.3914077281951904
3.9800679683685303,-0.7198017239570618,-0.04434579610824585,0.12859532237052917,-0.23121490784224993,-1.236381019329021,-1.418122325525797,-0.9194653034210205,0.22916026413440704,-0.3194826543331146,0.0035899446811527014,0.519631028175354,2.181607961654663
4.000284910202026,-0.6121846437454224,-0.16807910799980164,0.16420194506645203,-0.2724029279745009,-1.2252184397112102,-1.4078805915400774,-0.9061870574951172,0.2690465450286865,-0.3262501657009125,-0.4851411283016205,0.3229314982891083,2.0455663204193115
4.020068883895874,-0.527482807636261,-0.10907772183418274,0.16269952058792114,-0.3135301431465314,-1.2211375303142837,-1.4075408723937803,-0.8936904072761536,0.3084186017513275,-0.32587695121765137,-0.8450920581817627,0.1369594931602478,1.8426681756973267
4.039992094039917,-0.511779248714447,-0.043958187103271484,0.15734097361564636,-0.35148984577682557,-1.2190090079603275,-1.4133884317608234,-0.8813634514808655,0.344296932220459,-0.3235091269016266,-0.9030850529670715,0.23061905801296234,1.5213240385055542
4.059945821762085,-0.3914342522621155,0.04846927523612976,0.0424649715423584,-0.3830230763163646,-1.218936182194983,-1.4199581245891915,-0.8707118034362793,0.3737261891365051,-0.3196713328361511,-0.8412449359893799,-0.008929267525672913,1.2949966192245483
4.079095125198364,-0.25935494899749756,0.021504700183868408,0.02950608730316162,-0.4127203977688272,-1.2254123128805272,-1.4297595057051133,-0.8619372844696045,0.40110278129577637,-0.31013038754463196,-1.110780954360962,-0.15287728607654572,1.2058969736099243
4.100032091140747,-0.23001599311828613,0.05235797166824341,0.04373002052307129,-0.44140535727613234,-1.2354420298307294,-1.4468967570414513,-0.8537853360176086,0.4272105395793915,-0.2975598871707916,-1.2682679891586304,-0.16471070051193237,0.9558420181274414
4.120000123977661,-0.12675684690475464,0.12284296751022339,0.008085012435913086,-0.4665290243784363,-1.2466270828379988,-1.4660994934109137,-0.8466166853904724,0.4497889578342438,-0.2844826281070709,-1.1870347261428833,-0.08345498889684677,0.8871310353279114
4.1400368213653564,-0.08632749319076538,0.09656772017478943,-0.035111963748931885,-0.4890560844988041,-1.2572162126325632,-1.4862983164631578,-0.8397285342216492,0.46979284286499023,-0.27230677008628845,-1.172257900238037,-0.12934516370296478,0.6847654581069946
4.159960031509399,0.06473517417907715,0.07086330652236938,-0.041384756565093994,-0.5088590484430979,-1.270917071852921,-1.5088275763878685,-0.8343275785446167,0.487181156873703,-0.25797736644744873,-1.3563437461853027,-0.0993589386343956,0.6561420559883118
4.1799938678741455,0.09101593494415283,0.04781216382980347,-0.06728827953338623,-0.5283906018902065,-1.2855903323575477,-1.5350834309916994,-0.8287326693534851,0.5041440725326538,-0.2429838329553604,-1.3372708559036255,-0.11855172365903854,0.5320844650268555
4.199962854385376,0.16174906492233276,0.13356077671051025,-0.09144324064254761,-0.5452483052871235,-1.3015489045816713,-1.5603999025218436,-0.8241942524909973,0.5186303853988647,-0.22743482887744904,-1.2324315309524536,-0.13444280624389648,0.5379168391227722
4.219559907913208,0.17476803064346313,0.12594521045684814,-0.09344375133514404,-0.5613916234014188,-1.316034908797038,-1.584949071213158,-0.8191925883293152,0.5323647260665894,-0.2133341282606125,-1.2352268695831299,-0.058011412620544434,0.4458514451980591
4.2399680614471436,0.2737865447998047,0.06242269277572632,-0.13376778364181519,-0.5752784423216916,-1.331681010056328,-1.6109222058576207,-0.8151684403419495,0.544068455696106,-0.19872115552425385,-1.2079694271087646,-0.10764163732528687,0.42215320467948914
4.260005950927734,0.36711233854293823,0.06985753774642944,-0.13656866550445557,-0.5902781123493533,-1.3483675752170443,-1.6362740863847063,-0.810319185256958,0.5565921068191528,-0.18327070772647858,-1.1843751668930054,-0.14457204937934875,0.536656379699707
4.279961824417114,0.3217231035232544,0.06682497262954712,-0.14124512672424316,-0.605893935164669,-1.3642763164627898,-1.6602758015315295,-0.8045265078544617,0.5694971084594727,-0.16855397820472717,-1.0871496200561523,-0.0941150039434433,0.5186817646026611
4.299973964691162,0.33947354555130005,0.010854184627532959,-0.11681753396987915,-0.6193616684123839,-1.3789596520617453,-1.6833256578938502,-0.7993124723434448,0.5805155038833618,-0.1552465707063675,-1.0501173734664917,-0.05309930071234703,0.4653130769729614
4.3199639320373535,0.39729106426239014,-0.10294145345687866,-0.09652084112167358,-0.6317041232532387,-1.393491891121589,-1.7056462724926098,-0.7943706512451172,0.5905208587646484,-0.14234015345573425,-0.9865058064460754,-0.13799822330474854,0.38811957836151123
4.339965105056763,0.45611441135406494,-0.10454058647155762,-0.10210299491882324,-0.642997180279901,-1.4095108266669625,-1.7241970089090655,-0.7899157404899597,0.5995967984199524,-0.12851828336715698,-0.6334409713745117,-0.42193156480789185,0.4944140315055847
4.359991788864136,0.35364824533462524,-0.05788367986679077,-0.1502220779657364,-0.6534926677088403,-1.4254541253118913,-1.7325523962429568,-0.7855942249298096,0.6079631447792053,-0.11499083787202835,-0.141462042927742,-0.6122413277626038,0.49324628710746765
4.379962921142578,0.2793107032775879,-0.07298153638839722,-0.2684791684150696,-0.6633980938914956,-1.4363196253341015,-1.7301906250158243,-0.7807908654212952,0.615797758102417,-0.10563572496175766,0.16655470430850983,-0.6148562431335449,0.4736603796482086
4.399980783462524,0.3122188448905945,-0.1792929768562317,-0.366535484790802,-0.6716599266366262,-1.442695682670037,-1.7227261068225193,-0.7763760089874268,0.6222862005233765,-0.10000186413526535,0.26040345430374146,-0.4424743950366974,0.44176581501960754
4.419965982437134,0.37719905376434326,-0.31495845317840576,-0.35000747442245483,-0.6790691272396528,-1.444337285256247,-1.7166047216187137,-0.7719441056251526,0.6280689239501953,-0.09814303368330002,0.16774044930934906,-0.10185379534959793,0.3739614188671112
4.439965009689331,0.43559926748275757,-0.3742034435272217,-0.32724517583847046,-0.6856295947568791,-1.4399254493470046,-1.711394436994071,-0.7674018740653992,0.6331604719161987,-0.1010078713297844,0.0976773351430893,0.18317368626594543,0.2770718038082123
4.459963083267212,0.5150144100189209,-0.4092637300491333,-0.2540876269340515,-0.6898497953937749,-1.4336502798497155,-1.7101908405535227,-0.7640988826751709,0.6364213228225708,-0.10545513778924942,-0.03450562804937363,0.3676810562610626,0.1572529524564743
4.479964971542358,0.5817813873291016,-0.3779870271682739,-0.15791958570480347,-0.691794980312735,-1.4257737617090989,-1.7108503924823177,-0.7620182633399963,0.6379204988479614,-0.11129114031791687,0.02790571004152298,0.4496906101703644,0.05382194742560387
4.499964952468872,0.6428929567337036,-0.2931908369064331,-0.08438445627689362,-0.6928614847634168,-1.4135441176547545,-1.706386000064548,-0.7599280476570129,0.6387414932250977,-0.12049521505832672,0.26051273941993713,0.4702713191509247,0.08734692633152008
4.520004034042358,0.6456683278083801,-0.24311167001724243,0.00022454559803009033,-0.693397221386698,-1.400644979820487,-1.6987481446195019,-0.7579730153083801,0.6391535997390747,-0.13022933900356293,0.3049745261669159,0.33375510573387146,0.07887445390224457
4.539965867996216,0.6314530372619629,-0.20580017566680908,0.060218632221221924,-0.6945039026241002,-1.391517447197366,-1.691779475848381,-0.7560563683509827,0.6400043368339539,-0.13701604306697845,0.13781216740608215,0.11908853054046631,0.09727136045694351
4.5599658489227295,0.6121726036071777,-0.22838562726974487,0.16291606426239014,-0.6964150383754993,-1.3938074786505754,-1.694570684364677,-0.7551628351211548,0.6414716243743896,-0.13506869971752167,-0.4008735120296478,-0.17150601744651794,0.05553705245256424
4.579998970031738,0.5828672647476196,-0.2440463900566101,0.2435981035232544,-0.6984324490926394,-1.4105515622130793,-1.7110363045953831,-0.7560392618179321,0.6430179476737976,-0.12219908833503723,-0.8185333609580994,-0.45411527156829834,-0.06521719694137573
4.599967002868652,0.5313483476638794,-0.20166850090026855,0.2991454601287842,-0.7012795952696621,-1.43364412391899,-1.7341730117140923,-0.7568427920341492,0.6451958417892456,-0.10445845872163773,-0.9526044726371765,-0.30695322155952454,0.08214098960161209
4.619984865188599,0.3859729766845703,-0.139484703540802,0.14889812469482422,-0.7029328135888284,-1.4531631752130705,-1.7552409298521972,-0.7576771974563599,0.6464580297470093,-0.08954134583473206,-0.5398383736610413,-0.35804012417793274,-0.1633172184228897
4.6400229930877686,0.430778443813324,0.03187841176986694,0.033418118953704834,-0.6969191430538927,-1.4659354167070238,-1.761029419376763,-0.7626113891601562,0.6418582797050476,-0.08026252686977386,0.1498391181230545,-0.4693449139595032,-0.4944562017917633
4.659932851791382,0.6013259887695312,-0.06497544050216675,0.05641467124223709,-0.6851058759166829,-1.4688584066747672,-1.7532923379951943,-0.7703323364257812,0.6327549815177917,-0.07879921048879623,0.48333269357681274,-0.35850074887275696,-0.5744972825050354
4.679415941238403,0.6337345838546753,-0.14459943771362305,0.0703858733177185,-0.671880676412798,-1.4701662539527585,-1.7418601628859043,-0.7786931395530701,0.6224589943885803,-0.07862552255392075,0.4469025433063507,-0.47878438234329224,-0.6057517528533936
4.699966907501221,0.4125162959098816,-0.18077480792999268,0.08441687375307083,-0.6564322627112923,-1.4776007400071383,-1.7348963781881588,-0.7887370586395264,0.6102944612503052,-0.07372036576271057,0.09321848303079605,-0.44134026765823364,-0.9639223217964172
4.719965934753418,0.16459667682647705,-0.21291840076446533,-0.1012687161564827,-0.6596833229474973,-1.484289102502454,-1.750992328941711,-0.7872318029403687,0.6128666400909424,-0.06827162206172943,-1.8771330118179321,1.4233102798461914,1.5434350967407227
4.739964962005615,-1.0552699565887451,0.39248502254486084,-0.10101050138473511,-0.6731804187470136,-1.5284101373968704,-1.8458948123531007,-0.7811405658721924,0.6234757304191589,-0.03312941640615463,-4.093847274780273,-0.08568085730075836,-2.7189347743988037
4.759974002838135,-0.11102879047393799,1.0346837043762207,-0.49798715114593506,-0.5828061127410913,-1.5550254680534534,-1.8758696959478511,-0.8348180055618286,0.5503689646720886,-0.013166887685656548,2.533276319503784,-0.9823234677314758,-3.747037410736084
4.779966115951538,0.18384742736816406,0.8098799586296082,-0.22960668802261353,-0.5523084382030171,-1.5362954100910764,-1.7571571626013478,-0.8508092164993286,0.5246538519859314,-0.02936534956097603,6.030096530914307,-3.4716246128082275,-0.27475351095199585
4.799964904785156,-0.7971027493476868,0.3789291977882385,0.7266242504119873,-0.5351517327099514,-1.5452311957153677,-1.6601684793462639,-0.8599101901054382,0.509971559047699,-0.021988507360219955,2.3284099102020264,-2.102224588394165,-1.235167384147644
4.820012807846069,-1.0945935249328613,0.04170307517051697,0.515076220035553,-0.5128480146392529,-1.5549996981902827,-1.6273884770701679,-0.871242105960846,0.4906608462333679,-0.013763832859694958,0.8296405673027039,-0.7443119883537292,-0.7584527730941772
4.8399879932403564,-0.47206807136535645,0.09408089518547058,0.11166685819625854,-0.5027959926541208,-1.5567916679636487,-1.6073116854342344,-0.8761526942253113,0.4818773865699768,-0.01227102242410183,1.0777043104171753,-0.4657856822013855,-0.30371302366256714
4.859959840774536,-0.408771812915802,0.028341829776763916,0.10047203302383423,-0.4967854522295007,-1.549367117894891,-1.580999778487972,-0.878917396068573,0.47660204768180847,-0.01883738860487938,1.120606541633606,-0.0030158068984746933,-0.270914226770401
4.879964113235474,-0.37211132049560547,-0.36445102095603943,0.1610403060913086,-0.4931626745658823,-1.5357632455881398,-1.5643121260702275,-0.8802996277809143,0.4734140634536743,-0.03085223026573658,0.26350918412208557,0.5589970946311951,0.026634803041815758
4.899965047836304,-0.25344210863113403,-0.5021488666534424,0.11700278520584106,-0.4969457756617325,-1.524573694136495,-1.5705559941724587,-0.8781039118766785,0.4767429828643799,-0.0406172052025795,-0.7616352438926697,0.8280356526374817,0.1836896389722824
4.919963121414185,-0.2011086344718933,-0.26510143280029297,0.05111825093626976,-0.4985584842296509,-1.5179545464492707,-1.5931252101984115,-0.8770471215248108,0.47815999388694763,-0.046387914568185806,-1.1254922151565552,0.8867822289466858,-0.11265896260738373
4.939988851547241,-0.14035707712173462,-0.10592231154441833,0.004559628665447235,-0.4963019982925779,-1.5117325280706897,-1.6158037254495605,-0.877816379070282,0.4761769771575928,-0.05190754309296608,-0.7955419421195984,0.8034494519233704,-0.17391444742679596
4.959965944290161,-0.09406512975692749,-0.18605884909629822,0.013181023299694061,-0.49537955897955493,-1.5042892956637008,-1.6317446373356528,-0.8778436183929443,0.47536560893058777,-0.058469004929065704,-0.652268648147583,0.7376218438148499,-0.015463612973690033
4.980012893676758,-0.15112417936325073,-0.2805447280406952,0.01747262477874756,-0.497188040104504,-1.4968404276707081,-1.647374248645667,-0.876524806022644,0.47695592045783997,-0.0649426281452179,-0.7600346207618713,0.7485345602035522,0.08217743039131165
4.9999778270721436,-0.2001599669456482,-0.24251115322113037,-0.002653054893016815,-0.5002535025423601,-1.4907857359561476,-1.664269294618618,-0.8746538758277893,0.47964799404144287,-0.07013129442930222,-0.7057272791862488,0.6514443755149841,0.10687820613384247
5.019965887069702,-0.21335548162460327,-0.18961670994758606,0.006666906177997589,-0.5034474764498315,-1.4864537017519601,-1.679000364624199,-0.8728109002113342,0.48244813084602356,-0.07379022240638733,-0.6332460641860962,0.5097004175186157,0.09153381735086441
5.03998589515686,-0.24204659461975098,-0.23417788743972778,0.0655403733253479,-0.505894331569048,-1.4837949079888662,-1.694084771823141,-0.8714331388473511,0.48458993434906006,-0.07600779086351395,-0.7210056185722351,0.5350637435913086,0.043655481189489365
5.060002088546753,-0.19236207008361816,-0.2997666299343109,0.11960757523775101,-0.5089220291450844,-1.4814491389384907,-1.7126768049405785,-0.8697870373725891,0.4872361719608307,-0.07792048156261444,-0.9260780215263367,0.6089603900909424,0.17337720096111298
5.079965829849243,-0.16847634315490723,-0.2507496178150177,0.14745491743087769,-0.5149187463335165,-1.4797207934178036,-1.736789921210107,-0.8667256236076355,0.4924641251564026,-0.07915648072957993,-1.1501997709274292,0.730130136013031,0.20324140787124634
5.099998950958252,-0.17645293474197388,-0.17629194259643555,0.11695617437362671,-0.521775629437995,-1.4770431510885227,-1.7616265529745179,-0.8631284236907959,0.49842026829719543,-0.08115895837545395,-1.0878596305847168,0.7786659598350525,0.32131290435791016
5.119967937469482,-0.1897338628768921,-0.12274253368377686,0.10922813415527344,-0.5303612406465945,-1.4747867899344937,-1.7863266429892322,-0.858651876449585,0.5058450102806091,-0.08269301056861877,-1.080743432044983,0.7237260341644287,0.3026140630245209
5.14004111289978,-0.2172519564628601,-0.14663654565811157,0.11261565238237381,-0.5387472353551601,-1.4719138509395946,-1.8095756081921306,-0.8541591763496399,0.5130611062049866,-0.08473774045705795,-1.0161657333374023,0.7796590924263,0.37051427364349365
5.160161972045898,-0.20562034845352173,-0.14773637056350708,0.13627839088439941,-0.5479470898503866,-1.466190186888635,-1.8307525328786463,-0.8489300608634949,0.5209359526634216,-0.08912862837314606,-0.8523573875427246,0.8887932896614075,0.3670066297054291
5.179976940155029,-0.14986366033554077,-0.1412949562072754,0.13577480614185333,-0.5572484852452407,-1.4571576843073348,-1.848881533415474,-0.8432393074035645,0.5288529396057129,-0.09623919427394867,-0.8396497368812561,0.9423606395721436,0.3882465064525604
5.199963808059692,-0.12285733222961426,-0.137037456035614,0.128098726272583,-0.5669140359323896,-1.4500868879281148,-1.8697131966572689,-0.8374241590499878,0.5370314121246338,-0.10157883912324905,-1.0690311193466187,0.8508936166763306,0.3588636815547943
5.219990015029907,-0.10004520416259766,-0.11318850517272949,0.12036679685115814,-0.5766040895187318,-1.4472690770695589,-1.8956349543300264,-0.8319312930107117,0.5451802015304565,-0.10329210013151169,-1.1437433958053589,0.8316733837127686,0.3866499662399292
5.239975929260254,-0.06412416696548462,-0.07215440273284912,0.11111687123775482,-0.5866624014562976,-1.444694572650997,-1.9204686607333576,-0.826180636882782,0.5535845756530762,-0.10473859310150146,-0.9864441156387329,0.7960849404335022,0.33376187086105347
5.260036945343018,-0.04363071918487549,-0.0678093433380127,0.09230001270771027,-0.5945293417033989,-1.440498721537492,-1.9399344617205252,-0.8213900327682495,0.5601189136505127,-0.10763496905565262,-0.7103832960128784,0.7234414219856262,0.29893574118614197
5.27997899055481,0.027021944522857666,-0.141041100025177,0.106712207198143,-0.6023103862065644,-1.4349342762210129,-1.955001379616225,-0.8164355754852295,0.5665478110313416,-0.11161018162965775,-0.6524996757507324,0.6839161515235901,0.29723024368286133
5.30000901222229,0.06281757354736328,-0.187394917011261,0.1261194348335266,-0.6099754066766349,-1.4299979424564142,-1.9706170986411928,-0.8115512132644653,0.572847306728363,-0.11502620577812195,-0.7431935667991638,0.7136369347572327,0.30646172165870667
5.320004940032959,0.10977137088775635,-0.171320378780365,0.11619270592927933,-0.6180315644765126,-1.4270071905111061,-1.98889343351822,-0.8066098093986511,0.57943195104599,-0.11678770929574966,-0.8250224590301514,0.6469411253929138,0.30031198263168335
5.339968919754028,0.1280522346496582,-0.13761448860168457,0.09422589093446732,-0.6262004031313649,-1.4267201454156986,-2.0087012029204714,-0.8018651008605957,0.5860703587532043,-0.11633574217557907,-0.822281539440155,0.5493131279945374,0.3422647714614868
5.359966039657593,0.14076274633407593,-0.12814247608184814,0.0628514364361763,-0.6357671800536578,-1.4269893832179181,-2.027247731178555,-0.7963109016418457,0.5937950015068054,-0.11531102657318115,-0.8335123658180237,0.48684123158454895,0.3800585865974426
5.379966974258423,0.14557188749313354,-0.11355900764465332,0.03690199553966522,-0.6460710922447465,-1.429243523597046,-2.046317775940003,-0.7904695868492126,0.6020539999008179,-0.11264656484127045,-0.816497266292572,0.4270130693912506,0.44664400815963745
5.39996600151062,0.1572582721710205,-0.06289982795715332,0.015299439430236816,-0.6572790941291402,-1.4317136051307304,-2.0632148797611554,-0.7840131521224976,0.6109650731086731,-0.10975126922130585,-0.6494886875152588,0.3258163332939148,0.47768551111221313
5.419972896575928,0.1484028697013855,-0.0018775463104248047,0.008224911987781525,-0.6690096581454892,-1.433030046069541,-2.0741941348704565,-0.7770039439201355,0.6202094554901123,-0.10772734880447388,-0.37072527408599854,0.21247342228889465,0.5499994158744812
5.4400599002838135,0.09470456838607788,0.040924668312072754,-0.00034928321838378906,-0.6796936632824342,-1.432869188415289,-2.0786222695553738,-0.7703791260719299,0.6285548210144043,-0.10693515837192535,-0.12944330275058746,0.06971219182014465,0.4468575119972229
5.459939956665039,0.09268879890441895,0.06594109535217285,-0.035439297556877136,-0.6882480645579387,-1.4325491148543907,-2.077565825838492,-0.7649909853935242,0.6351850032806396,-0.1064368188381195,0.06394952535629272,-0.12071722745895386,0.44165340065956116
5.479878902435303,0.09945029020309448,0.08166468143463135,-0.04215466231107712,-0.6966843666164236,-1.4345465561729127,-2.073697051723537,-0.759865939617157,0.6416782140731812,-0.10417701303958893,0.09877283871173859,-0.3204472064971924,0.4215012192726135
5.499942064285278,0.017294764518737793,0.12558037042617798,-0.03686080873012543,-0.7039670375876252,-1.439743029197628,-2.069961401664986,-0.7557438611984253,0.647246778011322,-0.09961366653442383,0.08570916950702667,-0.4238356351852417,0.33730292320251465
5.519964933395386,-0.05443769693374634,0.19670408964157104,-0.04865729808807373,-0.7095821582069057,-1.446351194620054,-2.065924805925844,-0.7527676224708557,0.651516854763031,-0.09416486322879791,0.1679224818944931,-0.5058653950691223,0.26765480637550354
5.5399909019470215,-0.07724142074584961,0.28824377059936523,-0.07863777875900269,-0.7139520367270409,-1.4525461078698063,-2.058207710207277,-0.7505022287368774,0.654825747013092,-0.08916302770376205,0.38871538639068604,-0.6258119344711304,0.24755632877349854
5.559861898422241,-0.12492573261260986,0.3428689241409302,-0.08844446390867233,-0.7173302642164879,-1.4567772920015432,-2.0440613591068897,-0.7486705183982849,0.6573752164840698,-0.0857345387339592,0.6223415732383728,-0.7085562944412231,0.2123946100473404
5.579974889755249,-0.14219379425048828,0.3089752197265625,-0.05218863487243652,-0.7202146514444665,-1.4585706778274088,-2.0258077241189993,-0.7469359040260315,0.6595460176467896,-0.08417906612157822,0.6645784974098206,-0.6574113368988037,0.23331955075263977
5.599968910217285,-0.11689549684524536,0.2818446755409241,-0.033831119537353516,-0.7235491715129955,-1.4592006473268433,-2.008586059233067,-0.7447989583015442,0.6620488166809082,-0.08346310257911682,0.5943728685379028,-0.5255945920944214,0.261404812335968
5.61997389793396,-0.0629999041557312,0.31780099868774414,-0.046105675399303436,-0.7277626718562353,-1.4568769868424443,-1.9909481845861372,-0.7418249249458313,0.6652007699012756,-0.08487568795681,0.6924288868904114,-0.43432947993278503,0.29458102583885193
5.640001058578491,-0.022092700004577637,0.3224181532859802,-0.030190639197826385,-0.7318657190066867,-1.4514170429839353,-1.970194149675996,-0.7386342883110046,0.668258786201477,-0.08859891444444656,0.7924817204475403,-0.39419323205947876,0.29439103603363037
5.659965991973877,0.0029476284980773926,0.2603731155395508,0.007721014320850372,-0.7359381477353986,-1.444450141345298,-1.9483074660280584,-0.7352932095527649,0.6712828278541565,-0.09339901059865952,0.7376098036766052,-0.3830856382846832,0.30634504556655884
5.679965972900391,0.0588451623916626,0.17972397804260254,0.03694438934326172,-0.7408161438999773,-1.4387930949669594,-1.9293006781179962,-0.7314984202384949,0.674890398979187,-0.09712494164705276,0.6056785583496094,-0.3203381896018982,0.3735641539096832
5.699965000152588,0.11093854904174805,0.12727534770965576,0.028914496302604675,-0.7474799096399295,-1.4326476018237337,-1.9118143070716314,-0.7264171838760376,0.6797927021980286,-0.1009969413280487,0.6081669926643372,-0.25145742297172546,0.46133682131767273
5.719988107681274,0.16266411542892456,0.05723315477371216,0.014529764652252197,-0.7558404715608995,-1.423860594777866,-1.8923882660677926,-0.7198541164398193,0.6859005093574524,-0.10654013603925705,0.6618465781211853,-0.19740481674671173,0.5563154816627502
5.739973783493042,0.1962793469429016,-0.02064836025238037,0.01799742877483368,-0.7650235750180454,-1.4134390863842263,-1.872224542732717,-0.7124537825584412,0.6925539970397949,-0.11304434388875961,0.6518400311470032,-0.14394451677799225,0.5785861611366272
5.759964942932129,0.22394055128097534,-0.06866109371185303,0.03224647045135498,-0.7744061238825273,-1.4018028306784418,-1.8518436158460183,-0.7046535015106201,0.6992916464805603,-0.12022857367992401,0.6511421799659729,-0.11960731446743011,0.5829367637634277
5.779966115951538,0.24329519271850586,-0.09451359510421753,0.03355073928833008,-0.7835246388868262,-1.3898363685577735,-1.8309188101162246,-0.6968627572059631,0.7057807445526123,-0.1274990290403366,0.6331892013549805,-0.1635703295469284,0.5713983774185181
5.79997181892395,0.22499656677246094,-0.09690707921981812,0.04054766893386841,-0.7917835433078048,-1.380321181538963,-1.81187759210043,-0.6898708939552307,0.7116074562072754,-0.13301581144332886,0.557967483997345,-0.21962134540081024,0.48663750290870667
5.820019960403442,0.1958373785018921,-0.08846652507781982,0.06290251016616821,-0.7986452581266529,-1.3719875949846128,-1.7940555469187707,-0.6839355826377869,0.7164115905761719,-0.13779258728027344,0.5440673232078552,-0.21866962313652039,0.4244241714477539
5.839966058731079,0.1718091368675232,-0.0677538514137268,0.09196054935455322,-0.8035472939337586,-1.3640677173925118,-1.7761969172658374,-0.679377555847168,0.7198230028152466,-0.14248232543468475,0.590686023235321,-0.25864171981811523,0.30370646715164185
5.8599488735198975,0.134648859500885,-0.05208510160446167,0.12090326845645905,-0.8060373356386362,-1.3559332292317352,-1.7575180081643482,-0.6764426827430725,0.7215492725372314,-0.1476213037967682,0.6238436698913574,-0.2796805202960968,0.19772380590438843
5.879954099655151,0.08467477560043335,-0.02727222442626953,0.12534034252166748,-0.8059462739993515,-1.3482834502024046,-1.7395050309401188,-0.6753578186035156,0.7214862108230591,-0.1528060883283615,0.5710644125938416,-0.25199881196022034,0.06992556154727936
5.899924993515015,0.06610125303268433,-0.02299785614013672,0.12066633999347687,-0.8044240830929739,-1.3434124665958311,-1.725524700425272,-0.6756746768951416,0.7204313278198242,-0.1563412994146347,0.4051164388656616,-0.26353713870048523,-0.0005114826490171254
5.9199059009552,0.06011480093002319,-0.0019555091857910156,0.12258251011371613,-0.8029724140738448,-1.3418532277046555,-1.7162217136214912,-0.676447868347168,0.7194238305091858,-0.15763182938098907,0.2801273465156555,-0.24830839037895203,0.002326925517991185
5.9399659633636475,0.03277069330215454,0.015599489212036133,0.11422468721866608,-0.801644556482144,-1.341085818039603,-1.7090030047319056,-0.677256166934967,0.7185009121894836,-0.15836824476718903,0.27226799726486206,-0.1864621490240097,-0.015185431577265263
5.959903001785278,0.02977907657623291,0.00878828763961792,0.09954690933227539,-0.7999651300438193,-1.3384066142973734,-1.7007124325770073,-0.6780030131340027,0.7173317670822144,-0.16045992076396942,0.320839524269104,-0.14757885038852692,-0.01586618833243847
5.979904890060425,0.0381808876991272,-0.03381550312042236,0.10094253718852997,-0.7983913968972745,-1.3354522964170104,-1.6927563538386519,-0.6786229610443115,0.7162344455718994,-0.1627252846956253,0.2335129678249359,-0.1306929886341095,-0.021043622866272926
5.9999120235443115,0.034116506576538086,-0.09288531541824341,0.10799407958984375,-0.7968881261374045,-1.3348979326438153,-1.6888383287702846,-0.6795786619186401,0.7151845693588257,-0.16335290670394897,0.05478041246533394,-0.08907079696655273,-0.05961580201983452
6.0199809074401855,0.04180091619491577,-0.12125551700592041,0.11751623451709747,-0.7956286292383343,-1.3368875802584022,-1.6899686656612058,-0.6807779669761658,0.7143036723136902,-0.16220909357070923,-0.09358284622430801,-0.034130584448575974,-0.08358559757471085
6.039965867996216,0.06078016757965088,-0.1442195177078247,0.11292673647403717,-0.7944294788281251,-1.3401274153848641,-1.6943406725607246,-0.6821333765983582,0.7134639620780945,-0.160198375582695,-0.17204129695892334,0.020472029224038124,-0.097198486328125
6.0599589347839355,0.0645861029624939,-0.14457589387893677,0.09663702547550201,-0.7930880063090434,-1.34409952300081,-1.70094969712421,-0.6836962103843689,0.712523341178894,-0.15770256519317627,-0.22785402834415436,0.06252095103263855,-0.1495075821876526
6.0799400806427,0.07078862190246582,-0.16893279552459717,0.07451601326465607,-0.790530641565028,-1.3471376562826178,-1.7085900697671068,-0.6859467625617981,0.7107266783714294,-0.15602833032608032,-0.24061965942382812,0.16732965409755707,-0.21226434409618378
6.099989891052246,0.09049743413925171,-0.22544586658477783,0.06944708526134491,-0.7868639878705969,-1.349331416579783,-1.7174448788394971,-0.6888251900672913,0.7081425189971924,-0.15509456396102905,-0.31892481446266174,0.24174031615257263,-0.27419766783714294
6.120033025741577,0.07213252782821655,-0.26177388429641724,0.04324747622013092,-0.7829554862179615,-1.3540681605833502,-1.731197999233969,-0.6922497153282166,0.705377459526062,-0.15242403745651245,-0.5579614043235779,0.26473185420036316,-0.35237929224967957
6.139967918395996,0.023943603038787842,-0.24329513311386108,-0.02409614622592926,-0.7767744175930718,-1.364849319871789,-1.753250943111685,-0.6981075406074524,0.7009826302528381,-0.14584091305732727,-0.8493205904960632,0.2174031138420105,-0.5828806757926941
6.1599647998809814,0.0472029447555542,-0.20402657985687256,-0.0633992999792099,-0.7669262707774452,-1.3821127026891322,-1.7845617757890644,-0.7072676420211792,0.6939252614974976,-0.13505637645721436,-1.1595089435577393,0.24390219151973724,-0.827170193195343
6.179963827133179,0.07008332014083862,-0.23001712560653687,-0.12835431098937988,-0.7534575392243662,-1.4010146058884112,-1.8198899917806175,-0.7188413739204407,0.6841645240783691,-0.12323249876499176,-1.0649839639663696,0.33548837900161743,-0.9663398861885071
6.199994802474976,0.06808000802993774,-0.21210813522338867,-0.21020716428756714,-0.7357844139152303,-1.4132803798721902,-1.8480831027969176,-0.73212730884552,0.671168863773346,-0.1162850484251976,-0.6685221791267395,0.37938979268074036,-1.0447331666946411
6.219963788986206,0.04927176237106323,-0.13597267866134644,-0.17859816551208496,-0.716022374482759,-1.4207168245819766,-1.8724825662970244,-0.7459423542022705,0.656389057636261,-0.11279882490634918,-0.8208391070365906,0.45995059609413147,-1.3118236064910889
6.239964962005615,0.011794745922088623,-0.19001156091690063,-0.17864298820495605,-0.6896143397663453,-1.4278779060009226,-1.8988584205516,-0.7636258602142334,0.6362397074699402,-0.10988537967205048,-0.8004071116447449,0.5322782397270203,-1.4895203113555908
6.259990930557251,0.09906458854675293,-0.1314842700958252,-0.2267521619796753,-0.6632632810836204,-1.4351687844088268,-1.9248034249594983,-0.7807510495185852,0.6156915426254272,-0.10654544830322266,-0.7905222773551941,0.30727699398994446,-1.4555028676986694
6.279964923858643,0.1181262731552124,0.008336305618286133,-0.30568307638168335,-0.6364259121821552,-1.4433926615446375,-1.9436501906967005,-0.7977070808410645,0.5943248867988586,-0.10218428075313568,-0.3156238794326782,0.04330810531973839,-1.358331561088562
6.299964904785156,0.10199803113937378,0.05038028955459595,-0.24766862392425537,-0.6109466852335135,-1.4469202719503598,-1.9495000428666605,-0.812828779220581,0.573643147945404,-0.10120823979377747,0.1307685673236847,0.008407821878790855,-1.2506877183914185
6.319965124130249,0.05393385887145996,-0.04982602596282959,-0.13064932823181152,-0.5867115244357837,-1.4432199175159306,-1.9472640490359783,-0.8259981870651245,0.5536254644393921,-0.10595332831144333,0.32334646582603455,0.2363373041152954,-1.1458584070205688
6.339966058731079,0.04216575622558594,-0.10416984558105469,-0.11500411480665207,-0.5629212727390069,-1.434711377978757,-1.9422716148837766,-0.8378810882568359,0.5336589813232422,-0.11473213136196136,0.3951471447944641,0.3162361979484558,-1.1828311681747437
6.359966993331909,0.08652198314666748,-0.11349010467529297,-0.15748506784439087,-0.5377826233343516,-1.4261152318162476,-1.9361068933011505,-0.8498735427856445,0.5122328400611877,-0.12382584065198898,0.48267847299575806,0.20892015099525452,-1.2488372325897217
6.379987001419067,0.11154377460479736,-0.1514304280281067,-0.13191944360733032,-0.5112236739739676,-1.419856938410557,-1.929851998662259,-0.8622304797172546,0.48924484848976135,-0.13114199042320251,0.4056396782398224,0.14941367506980896,-1.3075209856033325
6.399910926818848,0.11747241020202637,-0.2159118950366974,-0.06880879402160645,-0.48419943976094143,-1.4141888691583262,-1.927443038577528,-0.8742169141769409,0.46549996733665466,-0.1380392462015152,0.2195667028427124,0.304921418428421,-1.3150752782821655
6.4199230670928955,0.17811083793640137,-0.2085091769695282,-0.05445212125778198,-0.45828557079398374,-1.408766943014933,-1.9302200881166673,-0.8850659132003784,0.44241124391555786,-0.14467498660087585,-0.0024491860531270504,0.34796661138534546,-1.3152683973312378
6.439966917037964,0.20355862379074097,-0.14836335182189941,-0.11970381438732147,-0.4324371035817427,-1.4042024741677377,-1.9341464547860916,-0.8953769207000732,0.4190848171710968,-0.15055972337722778,0.11467428505420685,0.28083208203315735,-1.3179583549499512
6.460005044937134,0.2008751630783081,-0.06935077905654907,-0.12323187291622162,-0.40489308507497523,-1.3988282337071274,-1.9339027953900798,-0.9055870771408081,0.3939204812049866,-0.15728561580181122,0.3535517454147339,0.25115904211997986,-1.3647446632385254
6.479820013046265,0.24084478616714478,-0.03478962182998657,-0.10579149425029755,-0.3773286229045759,-1.392792254822592,-1.930925293525722,-0.914962887763977,0.36843833327293396,-0.1646093726158142,0.38498756289482117,0.24659882485866547,-1.302400827407837
6.500042915344238,0.3034200668334961,-0.024700522422790527,-0.13065171241760254,-0.3520901430612706,-1.387482700128154,-1.9276909901722445,-0.9229269623756409,0.3448604941368103,-0.1711060106754303,0.3531699776649475,0.18382109701633453,-1.1328130960464478
6.519970893859863,0.3528730273246765,0.02181193232536316,-0.10964608192443848,-0.3302911987805143,-1.383191114346977,-1.9255293170365404,-0.9293501973152161,0.3243184983730316,-0.17642562091350555,0.2567864954471588,0.17389976978302002,-0.9825355410575867
6.540025949478149,0.37696224451065063,0.03972738981246948,-0.1240682601928711,-0.31091508772727405,-1.378569222250852,-1.9226874739968218,-0.9345185160636902,0.3059299886226654,-0.18188561499118805,0.39328303933143616,0.2112613469362259,-0.8737332820892334
6.559106111526489,0.42437273263931274,0.10218125581741333,-0.1600005030632019,-0.2931748892259825,-1.3727027533192644,-1.9151329703116438,-0.9386093020439148,0.28899309039115906,-0.18840332329273224,0.7108067870140076,0.12855428457260132,-0.7538098692893982
6.580003023147583,0.43967747688293457,0.17592781782150269,-0.14766693115234375,-0.2755438201476313,-1.3665287599027514,-1.9010205082452316,-0.9422715902328491,0.2720702886581421,-0.19519799947738647,0.9428547620773315,0.10032007843255997,-0.7057307362556458
6.600005865097046,0.4317994713783264,0.15873616933822632,-0.14076656103134155,-0.25850087313999576,-1.3598763359531598,-1.8833260887497343,-0.945349395275116,0.25563153624534607,-0.2024034857749939,1.047051191329956,0.09470392018556595,-0.629317581653595
6.620015859603882,0.42909008264541626,0.14426060020923615,-0.13761717081069946,-0.24279182505516075,-1.354005812172399,-1.8656506836566022,-0.9479500651359558,0.24041350185871124,-0.20878775417804718,0.9176931977272034,0.05693727359175682,-0.5426310300827026
6.640025854110718,0.3887637257575989,0.13841724395751953,-0.13256019353866577,-0.22847943976558133,-1.3498441562638601,-1.8521180805550383,-0.9503330588340759,0.22649674117565155,-0.21346326172351837,0.6281907558441162,0.06522920727729797,-0.5946728587150574
6.660007953643799,0.35772907733917236,0.144459530711174,-0.11572025716304779,-0.21402806678511946,-1.347457678970696,-1.8447872148252786,-0.9529134631156921,0.2123977690935135,-0.21643298864364624,0.5137799978256226,0.008722874335944653,-0.6616488099098206
6.6800079345703125,0.3293995261192322,0.2712060213088989,-0.12208187580108643,-0.19846276513828148,-1.3453373635186894,-1.832836263424545,-0.9555593132972717,0.19716250896453857,-0.21916557848453522,1.0282814502716064,-0.08475115150213242,-0.5959537029266357
6.699986934661865,0.2368810772895813,0.3933120667934418,-0.08925054967403412,-0.18074481090194297,-1.344880411257909,-1.8101605227800908,-0.9587134122848511,0.17976230382919312,-0.22035017609596252,1.458675742149353,-0.28576749563217163,-0.6520650386810303
6.719999074935913,0.0998041033744812,0.28272247314453125,-0.03431054949760437,-0.16036207255652418,-1.3476270662683123,-1.7855879513878072,-0.9626888632774353,0.15967564284801483,-0.21848177909851074,1.2791348695755005,-0.41539815068244934,-0.7944635152816772
6.739906072616577,-0.06480199098587036,0.20135380327701569,-0.010582596063613892,-0.13881327241018224,-1.3539191919269196,-1.7670816483560061,-0.9671804308891296,0.1383679062128067,-0.21311111748218536,0.9772135019302368,-0.429790198802948,-0.9265273809432983
6.760004997253418,-0.21066272258758545,0.21941867470741272,0.008489221334457397,-0.11586236183489805,-1.3614982043832686,-1.7558626044802208,-0.9716187715530396,0.11560331284999847,-0.20638036727905273,0.6574447751045227,-0.5118472576141357,-1.1066495180130005
6.78009295463562,-0.32563912868499756,0.1803588718175888,0.0028147995471954346,-0.09175773093309776,-1.3716055246246155,-1.7494908354389747,-0.9761034250259399,0.0916290283203125,-0.197043776512146,0.4837858974933624,-0.610526442527771,-1.132041573524475
6.799978971481323,-0.5268417000770569,0.19087505340576172,0.03241486847400665,-0.06475488303697201,-1.3838284141278938,-1.7441406256474787,-0.9805130958557129,0.06470964103937149,-0.1854909509420395,0.5612848997116089,-0.6230970621109009,-1.418310284614563
6.819988012313843,-0.6073757410049438,0.23430366814136505,0.09105956554412842,-0.03329586079894747,-1.395336688938809,-1.7335820455995075,-0.9841008186340332,0.03328970819711685,-0.17446401715278625,1.0713425874710083,-0.6057994365692139,-1.4510329961776733
6.839963912963867,-0.5453000664710999,0.16990157961845398,0.1535446047782898,-0.002110757615413564,-1.4062097268576434,-1.7151394534563853,-0.986484169960022,0.002110756002366543,-0.16384419798851013,1.1701350212097168,-0.5541481971740723,-1.3150453567504883
6.8599817752838135,-0.5288518071174622,-0.015261219814419746,0.21825174987316132,0.02427669674147897,-1.415690204218045,-1.6975494997512188,-0.9877042174339294,-0.0242743119597435,-0.15443944931030273,0.9106192588806152,-0.3362542390823364,-0.9616478085517883
6.8799779415130615,-0.6260836720466614,-0.0010919757187366486,0.26607823371887207,0.042438836074888145,-1.4204111695670834,-1.689280509855792,-0.9878232479095459,-0.04242609813809395,-0.14968407154083252,0.25702282786369324,-0.10371942073106766,-0.7099700570106506
6.900058031082153,-0.7389650344848633,0.11692388355731964,0.28513145446777344,0.052601832496321894,-1.4203584015559545,-1.689395418032192,-0.9873381853103638,-0.05257757753133774,-0.14966385066509247,0.03138836473226547,0.15152636170387268,-0.2760690152645111
6.919986009597778,-0.6768304705619812,0.07021413743495941,0.326327919960022,0.050750466741156776,-1.4154284093439526,-1.6858866541141193,-0.9866828322410583,-0.050728682428598404,-0.154544398188591,0.21088619530200958,0.2812279760837555,0.49563199281692505
6.939987897872925,-0.707634687423706,-0.01695939153432846,0.4071190357208252,0.037278978890490505,-1.4081799590889288,-1.6802221026015278,-0.9861214756965637,-0.03727034479379654,-0.16178812086582184,0.13288119435310364,0.5647525787353516,0.9671381711959839
6.959977865219116,-0.8675082325935364,-0.1505456417798996,0.42503052949905396,0.015165382163590804,-1.3915833112723752,-1.6744296936489185,-0.9838712811470032,-0.01516480091959238,-0.1782347708940506,0.06087389960885048,1.1570701599121094,1.2664852142333984
6.980082988739014,-0.9065534472465515,-0.21911470592021942,0.45436614751815796,-0.012663617972041862,-1.3617511168786571,-1.6685663970612952,-0.978151261806488,0.0126632796600461,-0.207509383559227,0.04501192644238472,1.8619855642318726,1.5893373489379883
7.000067949295044,-0.8997713327407837,-0.2877487540245056,0.22803184390068054,-0.04664629532028397,-1.3243410642730007,-1.6543683889072032,-0.9687284231185913,0.04662938043475151,-0.2437025010585785,0.42207542061805725,1.6079306602478027,1.9865549802780151
7.020060777664185,-0.7207719683647156,-0.2512494921684265,-0.020384907722473145,-0.0839285352638672,-1.3032253394953925,-1.636506027424869,-0.961021363735199,0.08383003622293472,-0.2634590268135071,0.18659208714962006,0.4177055060863495,2.0618484020233154
7.0400121212005615,-0.8151870369911194,-0.23886029422283173,0.05416026711463928,-0.12603452548265323,-1.299829381261016,-1.632105745628904,-0.9558701515197754,0.12570111453533173,-0.2655401825904846,-0.8378347158432007,0.07161928713321686,2.1521201133728027
7.0600669384002686,-0.9165441393852234,-0.29634368419647217,0.03885260224342346,-0.17420712797285534,-1.2959976367789723,-1.639598748333838,-0.9479120969772339,0.17332732677459717,-0.2672460675239563,-1.0375604629516602,0.4038284718990326,2.2769112586975098
7.080060005187988,-0.8355786800384521,-0.12585735321044922,-0.08734643459320068,-0.22128690288824573,-1.2881257152333534,-1.6439482365928604,-0.9368975758552551,0.2194853276014328,-0.27212002873420715,-0.5761868953704834,0.41466131806373596,2.1233251094818115
7.099989891052246,-0.7580726742744446,-0.09931263327598572,-0.10638752579689026,-0.26258280713422644,-1.279807262208767,-1.6396965610934615,-0.9251244068145752,0.2595756947994232,-0.2770657539367676,-0.3051098585128784,0.3123147189617157,1.9795881509780884
7.120067834854126,-0.6640170812606812,-0.16381758451461792,-0.03270149230957031,-0.30148157870170306,-1.2728502917292792,-1.63566716300744,-0.9128262400627136,0.2969352900981903,-0.2803172171115875,-0.5405029058456421,0.29102176427841187,1.8800318241119385
7.139971971511841,-0.6042192578315735,-0.12490347027778625,-0.009427398443222046,-0.3411212609199144,-1.269509982253497,-1.6406726211911506,-0.8999311327934265,0.33454394340515137,-0.2796502411365509,-1.0330498218536377,0.21121180057525635,1.7582801580429077
7.1599647998809814,-0.5275512933731079,-0.012262701988220215,-0.050335317850112915,-0.37932659584067446,-1.2726400773662834,-1.6539638410089632,-0.8879304528236389,0.3702950179576874,-0.2728763222694397,-1.1537450551986694,-0.051199138164520264,1.534581184387207
7.1799938678741455,-0.4448365569114685,0.11186254024505615,-0.060577571392059326,-0.4133919065867324,-1.2788061147056342,-1.6648535326362712,-0.877001941204071,0.40171781182289124,-0.2636105716228485,-0.7970513105392456,-0.16459707915782928,1.40547776222229
7.199986934661865,-0.3724585771560669,0.134538471698761,-0.06784138083457947,-0.4421011450331978,-1.285135312446623,-1.668656261287725,-0.8672267198562622,0.4278395473957062,-0.25469884276390076,-0.4265214204788208,-0.26719340682029724,1.3112682104110718
7.219964981079102,-0.3130872845649719,0.12081962823867798,-0.049264341592788696,-0.4690181097775466,-1.2918650145258315,-1.6710769220443826,-0.8575366735458374,0.4520106315612793,-0.24559646844863892,-0.5640866160392761,-0.28144344687461853,1.2060906887054443
7.239965915679932,-0.2681768536567688,0.1155063807964325,-0.05820345878601074,-0.494575299589092,-1.3000634353542673,-1.678913787412968,-0.8481104969978333,0.47465789318084717,-0.2353907972574234,-0.7603801488876343,-0.21575923264026642,1.0496314764022827
7.26003098487854,-0.14547139406204224,0.13362610340118408,-0.08329431712627411,-0.5173846830972543,-1.3099364452826423,-1.6896704419642168,-0.839712381362915,0.4946088194847107,-0.22415490448474884,-0.7302746176719666,-0.2183285653591156,0.943222165107727
7.279963970184326,-0.05246305465698242,0.1198575496673584,-0.08776992559432983,-0.5385170031461385,-1.3200848321283762,-1.7010319238313005,-0.8316313028335571,0.5128634572029114,-0.2129807323217392,-0.7674126029014587,-0.2284756600856781,0.8346167802810669
7.29996395111084,0.029847800731658936,0.09142512083053589,-0.08851170539855957,-0.5580660013966073,-1.3315980654963895,-1.7140414777335908,-0.8241289258003235,0.5295466184616089,-0.20097795128822327,-0.7866902351379395,-0.20224013924598694,0.8151869177818298
7.320007085800171,0.0729256272315979,0.10692155361175537,-0.07779109477996826,-0.5770748842990944,-1.3419441254420383,-1.7284154160505663,-0.8162118792533875,0.5455748438835144,-0.19012264907360077,-0.8254860043525696,-0.0815364420413971,0.7298610806465149
7.340074777603149,0.15781176090240479,0.10880088806152344,-0.0831301212310791,-0.5937683809637114,-1.3523049118574881,-1.7441586911044156,-0.8091332316398621,0.5594883561134338,-0.17965665459632874,-0.7969768643379211,-0.08377740532159805,0.6254889369010925
7.360274076461792,0.21561235189437866,0.08433634042739868,-0.0688886046409607,-0.6091531274285994,-1.3622236552430627,-1.7598261504388,-0.8023586273193359,0.5721731185913086,-0.16981978714466095,-0.7985870242118835,0.018020324409008026,0.5996648669242859
7.380244970321655,0.2492976188659668,0.05264580249786377,-0.0611119270324707,-0.6240760005345428,-1.3697948512596296,-1.7768860285141566,-0.7951655983924866,0.584347665309906,-0.16201727092266083,-0.8613715171813965,0.18182985484600067,0.5607457756996155
7.399985074996948,0.35212236642837524,0.04265117645263672,-0.08856552839279175,-0.6382512551566492,-1.3745963341356968,-1.794070964928874,-0.7877303957939148,0.5957918763160706,-0.15656685829162598,-0.7578781843185425,0.3059757649898529,0.5744919180870056
7.420165777206421,0.4525492787361145,-0.0008841156959533691,-0.09758651256561279,-0.652253099681798,-1.3768591904249625,-1.807527667774824,-0.779819905757904,0.6069785356521606,-0.15316107869148254,-0.6113632321357727,0.30474796891212463,0.6078689098358154
7.440114974975586,0.44133317470550537,-0.06443190574645996,-0.09050317108631134,-0.6664556510309924,-1.3775099379448508,-1.8199194982214357,-0.7713810205459595,0.6182039380073547,-0.15098236501216888,-0.6659190058708191,0.38219985365867615,0.5795725584030151
7.46005392074585,0.4476848840713501,-0.0745963454246521,-0.0848580002784729,-0.680199603487351,-1.3772529048814326,-1.8340095785692028,-0.7629315257072449,0.6289482116699219,-0.14953216910362244,-0.6804238557815552,0.5388602614402771,0.6181744337081909
7.4801318645477295,0.4932284355163574,-0.036405086517333984,-0.09800569713115692,-0.6963625632982555,-1.373668987022208,-1.8466339934031724,-0.7523226141929626,0.6414313912391663,-0.15025466680526733,-0.562454104423523,0.6321055293083191,0.7321248054504395
7.500041961669922,0.48792994022369385,-0.06086170673370361,-0.10316602885723114,-0.7122769803240783,-1.367187280320657,-1.8563152586585359,-0.7412411570549011,0.6535588502883911,-0.15304416418075562,-0.47113949060440063,0.6371142268180847,0.7290359735488892
7.519982099533081,0.5238608717918396,-0.09106665849685669,-0.09264330565929413,-0.7296555629412315,-1.3595384555352252,-1.8642420546241285,-0.7288321852684021,0.6666129231452942,-0.1563037633895874,-0.4595371186733246,0.6600795984268188,0.7795302271842957
7.539995908737183,0.5363359451293945,-0.1356605887413025,-0.0892375111579895,-0.748911592216588,-1.3499086323137475,-1.8691647826227638,-0.7146349549293518,0.6808419823646545,-0.16047248244285583,-0.2845553755760193,0.6621795892715454,0.9215033650398254
7.568339109420776,0.5196040868759155,-0.19314831495285034,-0.07075971364974976,-0.7885802568510094,-1.322688628967225,-1.860706010610144,-0.6832699775695801,0.7093532681465149,-0.1730908751487732,0.11240571737289429,0.44151797890663147,1.0541540384292603
7.588295936584473,0.48090243339538574,-0.2176123857498169,-0.02829335629940033,-0.80919393914491,-1.3026823248704822,-1.8472932409507146,-0.6654269695281982,0.7237311601638794,-0.1828119158744812,0.2338956892490387,0.5813612937927246,1.1306791305541992
7.6068480014801025,0.4466235637664795,-0.21900182962417603,-0.04668007791042328,-0.8286994092044371,-1.277720002174351,-1.8291159261959222,-0.647017240524292,0.7370530366897583,-0.19524790346622467,0.40145668387413025,0.5849487781524658,1.145133376121521
7.627352952957153,0.43258315324783325,-0.1766793131828308,-0.05204242467880249,-0.8475514958833138,-1.2501740322530908,-1.8061241634905458,-0.6280940771102905,0.7496621608734131,-0.20857760310173035,0.498384028673172,0.4632498323917389,1.1289575099945068
7.64819598197937,0.41209089756011963,-0.21908080577850342,-0.010991275310516357,-0.8647305524085571,-1.2208033780669971,-1.7788091080001391,-0.6095091700553894,0.7609204649925232,-0.22248335182666779,0.6339613199234009,0.3946361541748047,1.0670437812805176
7.668291807174683,0.4346083998680115,-0.24308645725250244,0.0067235976457595825,-0.8780092740139673,-1.1912829436121304,-1.7468123988328628,-0.5932387709617615,0.7694689631462097,-0.2366124391555786,0.8229022026062012,0.10407353937625885,0.9106984734535217
7.688054800033569,0.4615193009376526,-0.28473329544067383,0.074290931224823,-0.8872437792028959,-1.162441249266164,-1.709470309521023,-0.5796223878860474,0.7753340005874634,-0.25078922510147095,1.0102046728134155,-0.09373141825199127,0.8444643616676331
7.710508108139038,0.4389196038246155,-0.26757538318634033,0.1173374354839325,-0.8923707329707906,-1.1350474937330197,-1.6692277401428064,-0.5689244866371155,0.7785617113113403,-0.26488980650901794,1.0986472368240356,-0.29439660906791687,0.6293027400970459
7.724591016769409,0.458482563495636,-0.28368711471557617,0.15260091423988342,-0.8917363075916416,-1.1117275160764049,-1.629259478304951,-0.563035786151886,0.7781634330749512,-0.27830269932746887,1.2156305313110352,-0.5470467805862427,0.37962791323661804
7.744309902191162,0.5304040312767029,-0.30459731817245483,0.18455404043197632,-0.8846339353190872,-1.0943497410994592,-1.58785640264912,-0.5630121231079102,0.7736831307411194,-0.29057204723358154,1.4583057165145874,-0.9559143781661987,0.2143886238336563
7.763077974319458,0.500109076499939,-0.26612842082977295,0.1947791874408722,-0.8715144327490074,-1.0837918621284819,-1.5440345129662658,-0.5688347816467285,0.7653046250343323,-0.3012244701385498,1.6043953895568848,-1.389997959136963,-0.08854594826698303
7.7888548374176025,0.460502028465271,-0.3182671070098877,0.3478166460990906,-0.8553814188229434,-1.081911934876596,-1.5055671970962092,-0.5790933966636658,0.7548211812973022,-0.3080521821975708,1.34408438205719,-1.2684519290924072,-0.20091913640499115
7.809391975402832,0.36788272857666016,-0.3306942582130432,0.331929087638855,-0.838548435979826,-1.0860281761938013,-1.478615364189205,-0.5915156006813049,0.7436734437942505,-0.3115432560443878,0.9450432062149048,-1.104833722114563,-0.44269075989723206
7.827624082565308,0.2720639109611511,-0.17006510496139526,0.214029461145401,-0.8225761404214825,-1.097346254149337,-1.4650829046799592,-0.6054990887641907,0.7329009175300598,-0.3102055490016937,0.7053176164627075,-1.1255275011062622,-0.556419849395752
7.848300933837891,0.1970682144165039,0.05401456356048584,0.07437029480934143,-0.8095182843324009,-1.116291075132917,-1.4566142473788746,-0.619813084602356,0.723954975605011,-0.30285537242889404,0.28303617238998413,-1.3230241537094116,-0.28185030817985535
7.8691980838775635,-0.016031861305236816,0.20443379878997803,0.0375901460647583,-0.8031717718995451,-1.1466459273386975,-1.4591646482227465,-0.632893979549408,0.719562292098999,-0.2857895493507385,-0.05547961965203285,-1.5449597835540771,-0.44880211353302
7.887586832046509,-0.14472246170043945,0.419147789478302,0.06500881910324097,-0.7890687467227938,-1.181875479538393,-1.4628301904685672,-0.6518932580947876,0.7096974849700928,-0.2671419382095337,0.6797183752059937,-1.6556521654129028,-0.9265199899673462
7.907739877700806,-0.159878671169281,0.4664458632469177,0.02834048867225647,-0.7592813814556212,-1.1927776568473083,-1.4309600423707647,-0.6741209626197815,0.688400387763977,-0.26770496368408203,2.496321439743042,-1.7476955652236938,-0.961498498916626
7.927450895309448,-0.13002127408981323,0.2631263732910156,0.1502300500869751,-0.7201688713181205,-1.1874760769450525,-1.3673654210836932,-0.6971425414085388,0.6595116257667542,-0.28113511204719543,3.140000104904175,-1.935228943824768,-0.9218196272850037
7.947264909744263,-0.22014516592025757,-0.01782381534576416,0.2325129210948944,-0.6784609974953787,-1.1841877060864336,-1.3003028512588308,-0.7210779786109924,0.6275956034660339,-0.29354798793792725,3.180521011352539,-2.1263961791992188,-1.062389612197876
7.967225790023804,-0.29444175958633423,-0.056902289390563965,0.2184033989906311,-0.6339138777222159,-1.190379766676654,-1.2381378132703929,-0.7481151223182678,0.5923027396202087,-0.29916810989379883,3.080019235610962,-2.3397929668426514,-1.2381399869918823
7.987188100814819,-0.3836250305175781,-0.070137619972229,0.1830950677394867,-0.5864758956143091,-1.2055345615448458,-1.180106709110511,-0.7779502868652344,0.5534292459487915,-0.29750537872314453,3.0431296825408936,-2.5026845932006836,-1.3917657136917114
8.006905794143677,-0.387409508228302,-0.15206009149551392,0.1458558440208435,-0.5399288271792405,-1.2281642347982713,-1.1256978387726388,-0.807887852191925,0.5140749216079712,-0.28817448019981384,2.8331899642944336,-2.605367660522461,-1.3537997007369995
8.027110815048218,-0.3489382266998291,-0.24696725606918335,0.1615317165851593,-0.49915891969209775,-1.2566662463975442,-1.0781610719282628,-0.8350217938423157,0.47868725657463074,-0.27128806710243225,2.5309371948242188,-2.604929208755493,-1.1705619096755981
8.044047117233276,-0.39729541540145874,-0.15524807572364807,0.16354143619537354,-0.4632339428852568,-1.2863156404243037,-1.0375735741196934,-0.8586556315422058,0.44684356451034546,-0.25108101963996887,1.997578740119934,-2.139190673828125,-1.4550557136535645
8.067240953445435,-1.0093410015106201,-0.02886548638343811,-0.30334925651550293,-0.42551717516435356,-1.267751571133401,-1.024317671793529,-0.8693212270736694,0.412791907787323,-0.2718154489994049,-0.2632397711277008,1.709498643875122,-1.9830968379974365
8.086809873580933,-0.4786906838417053,-0.5467159748077393,-0.7538838386535645,-0.3815439001863714,-1.2564813038010925,-1.0089022369016991,-0.882622241973877,0.37235379219055176,-0.28693336248397827,2.4714748859405518,-0.23866145312786102,-1.1483129262924194
8.105986833572388,0.32708054780960083,0.2952997386455536,0.49707531929016113,-0.3749869626303313,-1.2638905066851511,-1.00048830368242,-0.8870323896408081,0.3662604093551636,-0.28111761808395386,-0.9952554106712341,-1.171628713607788,0.07901415973901749
8.128253936767578,-0.21855241060256958,-0.3441779613494873,0.10762274265289307,-0.3795302444274751,-1.2855663459624023,-1.0119723250388786,-0.89131098985672,0.3704841732978821,-0.2613549828529358,-0.007971517741680145,-0.38337743282318115,0.3323158919811249
8.145510911941528,-0.2893645167350769,0.12864500284194946,-0.0020618438720703125,-0.38332911216037174,-1.2796152585156575,-0.9938828050130349,-0.8883852362632751,0.37401002645492554,-0.26624858379364014,1.4485207796096802,0.05298061668872833,0.259227454662323
8.16649079322815,0.03623145818710327,0.11266559362411499,0.07626283168792725,-0.37743330908518896,-1.2693195606588195,-0.9597408200056674,-0.8876872658729553,0.3685356676578522,-0.27603086829185486,1.522379755973816,-0.20830947160720825,0.29768475890159607
8.18661379814148,0.11752915382385254,-0.1747371256351471,0.2879123389720917,-0.38022892117159657,-1.2610525392181717,-0.9322256438598929,-0.8843903541564941,0.37113305926322937,-0.2830447256565094,0.7983277440071106,0.035455863922834396,0.6483671069145203
8.206460952758789,0.04373764991760254,-0.269968181848526,0.25951892137527466,-0.3894656794270859,-1.2536405025429602,-0.9197501341041038,-0.8789733052253723,0.3796941637992859,-0.2885105609893799,0.02537056803703308,0.21001727879047394,0.5593327283859253
8.227061033248901,0.10542654991149902,-0.17298969626426697,0.11958354711532593,-0.4014107821616749,-1.2517515351129043,-0.9226338614809758,-0.8740577101707458,0.39071735739707947,-0.28872716426849365,-0.6258760094642639,0.02900613099336624,0.50472491979599
8.246365785598755,0.13999152183532715,-0.05593785643577576,0.03677228093147278,-0.41537510331768357,-1.2591914104669562,-0.936173853851846,-0.8709030151367188,0.4035331606864929,-0.280516117811203,-0.917375922203064,-0.2054414302110672,0.43780264258384705
8.266156911849976,0.0909690260887146,0.0863446593284607,0.011391967535018921,-0.4271861544065896,-1.270238312188612,-0.9504555046299185,-0.8693351149559021,0.4143114686012268,-0.26944848895072937,-0.5883944034576416,-0.28482717275619507,0.29691916704177856
8.286336898803711,0.03753948211669922,0.2245306670665741,-0.0011796653270721436,-0.43381591461839564,-1.2792086479413662,-0.9568335940694261,-0.8690672516822815,0.4203363060951233,-0.2608441710472107,-0.2112574279308319,-0.35499992966651917,0.1363641768693924
8.305367946624756,0.011105000972747803,0.15388348698616028,-0.007033586502075195,-0.43556442257311945,-1.2872078895504526,-0.9585477122394926,-0.8704190850257874,0.4219222068786621,-0.25367799401283264,-0.01630055345594883,-0.35157203674316406,0.02515702322125435
8.326226949691772,0.022671282291412354,0.08553344011306763,-0.05447840690612793,-0.4364463528286772,-1.2946098253489893,-0.9593313402548838,-0.8719145655632019,0.42272162437438965,-0.2471267431974411,-0.13441994786262512,-0.3779798150062561,0.0162693802267313
8.344204902648926,0.017361998558044434,0.09291252493858337,-0.10700398683547974,-0.43855885236289793,-1.3041323672695169,-0.9628713942132102,-0.8733649253845215,0.4246351420879364,-0.2385769933462143,-0.19515001773834229,-0.38942939043045044,0.1409645825624466
8.365187883377075,0.03417348861694336,0.06568711996078491,-0.11138266324996948,-0.4439799301895636,-1.3130718887602744,-0.9661470025886143,-0.8732239007949829,0.42953693866729736,-0.23016995191574097,-0.21936500072479248,-0.372216135263443,0.26883259415626526
8.385905027389526,0.04023861885070801,0.055960506200790405,-0.12174674868583679,-0.4501977505761813,-1.3210960028547805,-0.9689927042647858,-0.8724377155303955,0.4351435899734497,-0.22249144315719604,-0.1864238977432251,-0.3129866421222687,0.24363206326961517
8.404817819595337,0.061315953731536865,0.024300336837768555,-0.16856986284255981,-0.45492956676974505,-1.328610923356633,-0.9717130714636185,-0.8720765709877014,0.43939903378486633,-0.2154327630996704,-0.17880554497241974,-0.31135377287864685,0.16861529648303986
