timestamp,acceleration_x,acceleration_y,acceleration_z,attitude_pitch,attitude_roll,attitude_yaw,gravity_x,gravity_y,gravity_z,rotation_x,rotation_y,rotation_z
0.0,0.051823973655700684,0.1956329345703125,-0.002898097038269043,-0.3002840848200338,-1.2410349211289213,-3.0538488266575374,-0.9037831425666809,0.2957915961742401,-0.30932727456092834,-1.6849488019943237,0.9776896238327026,-0.6432734727859497
0.020974159240722656,0.06921160221099854,0.20574340224266052,-0.028791159391403198,-0.30016272072651107,-1.2331008965285573,-3.089687553679427,-0.9013344645500183,0.295675665140152,-0.3165000379085541,-1.5615248680114746,0.8456131219863892,-0.5122599005699158
0.04529094696044922,0.04098379611968994,0.19969311356544495,-0.06931561231613159,-0.30033057185215783,-1.2276057006167742,-3.1211161417567213,-0.8995348215103149,0.2958360016345978,-0.3214315176010132,-1.242064356803894,0.6502281427383423,-0.45999225974082947
0.06156301498413086,-0.005423605442047119,0.1664978265762329,-0.0901743471622467,-0.30014666626598635,-1.222294855602809,3.1384883378615034,-0.8978660702705383,0.2956603169441223,-0.3262227773666382,-0.8886647820472717,0.5983124375343323,-0.3241066038608551
0.08095884323120117,-0.013796329498291016,0.13715454936027527,-0.1158100962638855,-0.3003070835790624,-1.2156757386354018,3.1217764511017574,-0.8956426978111267,0.29581356048583984,-0.3321422040462494,-0.6201114058494568,0.5727483630180359,-0.20156031847000122
0.10088586807250977,0.040734827518463135,0.09413260221481323,-0.13111284375190735,-0.30175276613052543,-1.2072273547875854,3.111456359950354,-0.8924040198326111,0.297194242477417,-0.33954453468322754,-0.3799709379673004,0.5802117586135864,0.0036679923068732023
0.12208700180053711,0.10448110103607178,0.06492096185684204,-0.13525068759918213,-0.3056931342830991,-1.198150366707271,3.10549946360749,-0.8881877064704895,0.30095425248146057,-0.34720173478126526,-0.2742499113082886,0.4860444664955139,0.15304501354694366
0.14166903495788574,0.08564150333404541,0.0211622416973114,-0.1555822491645813,-0.3111504019866367,-1.1901512049486038,3.103061137787636,-0.8838439583778381,0.3061540126800537,-0.3536798655986786,-0.1642242968082428,0.39004117250442505,0.2611187994480133
0.1622939109802246,0.026589274406433105,-0.024143248796463013,-0.16239473223686218,-0.31694433190552435,-1.184053305066715,3.1023283298882522,-0.8800132870674133,0.31166455149650574,-0.3583877682685852,-0.124111607670784,0.264538437128067,0.24408188462257385
0.18379592895507812,0.006848812103271484,-0.04596862196922302,-0.18174731731414795,-0.32217349592600036,-1.1793884008649815,3.1022190802841885,-0.8768134117126465,0.31662896275520325,-0.3618623614311218,-0.07528261840343475,0.21874307096004486,0.23996591567993164
0.20329999923706055,0.020752429962158203,-0.06571707129478455,-0.14935150742530823,-0.32749049066464897,-1.174265898696558,3.1019707661085976,-0.8733829259872437,0.3216679096221924,-0.3656936585903168,-0.19243831932544708,0.33244577050209045,0.2413942813873291
0.22474384307861328,0.024818778038024902,-0.1083940863609314,-0.07207450270652771,-0.33413567262950883,-1.1673379856201143,3.0971841166020426,-0.8688434958457947,0.3279527723789215,-0.37088820338249207,-0.4987078607082367,0.5178105235099792,0.1880573034286499
0.24542903900146484,0.04267525672912598,-0.1268840730190277,-0.05912935733795166,-0.3417819503564797,-1.1599372988041636,3.0855041156275447,-0.8637506365776062,0.3351665139198303,-0.3762954771518707,-0.7898438572883606,0.5952334403991699,0.07247025519609451
0.2608828544616699,0.06884324550628662,-0.10632964968681335,-0.08666887879371643,-0.3493384027860589,-1.1533885349242603,3.0686363086504533,-0.8589279651641846,0.3422762453556061,-0.38090619444847107,-0.9917852878570557,0.6261012554168701,-4.8268469981849194e-05
0.2809419631958008,0.07651656866073608,-0.11170923709869385,-0.07283002138137817,-0.3574631814176269,-1.1486858087942793,3.0464026446500863,-0.8545621633529663,0.34989890456199646,-0.3837893009185791,-1.226337194442749,0.6204639077186584,-0.11105751991271973
0.3008861541748047,0.07636314630508423,-0.09998184442520142,-0.06457656621932983,-0.3657413723771556,-1.1454678683738875,3.0204076868431633,-0.8506551384925842,0.35764172673225403,-0.38532885909080505,-1.33233642578125,0.6206786036491394,-0.11673616617918015
0.3241539001464844,0.07309132814407349,-0.08376145362854004,-0.06629985570907593,-0.37459581959741844,-1.1432404706003512,2.993135459929982,-0.8468797206878662,0.36589640378952026,-0.38589438796043396,-1.309120535850525,0.5807733535766602,-0.13300617039203644
0.3427410125732422,0.06901407241821289,-0.05234643816947937,-0.07757067680358887,-0.38274430491485284,-1.1411206559511513,2.968136114971961,-0.8433212637901306,0.3734675943851471,-0.386433869600296,-1.1415190696716309,0.5551181435585022,-0.08249920606613159
0.3618919849395752,0.07216817140579224,-0.04535633325576782,-0.1008831262588501,-0.39018878486547365,-1.138273145700149,2.9477367021346037,-0.8396700024604797,0.38036301732063293,-0.3876575529575348,-0.8977540135383606,0.48958468437194824,-0.018335040658712387
0.38373517990112305,0.07655942440032959,-0.056705743074417114,-0.10975825786590576,-0.3976709655672741,-1.135386487437209,2.932253035956153,-0.8359435796737671,0.3872721195220947,-0.3888684809207916,-0.7444718480110168,0.4167245030403137,0.088523730635643
0.4037439823150635,0.030963420867919922,-0.07213351130485535,-0.07718268036842346,-0.4061113048644028,-1.1322858565849279,2.918620606630125,-0.8317446112632751,0.3950399160385132,-0.3900567293167114,-0.7661920785903931,0.4330443739891052,0.13883794844150543
0.4235720634460449,-8.147954940795898e-05,-0.08895176649093628,-0.06951344013214111,-0.41540170315398267,-1.1291367405418116,2.904592035537428,-0.8271585702896118,0.40355750918388367,-0.39108845591545105,-0.790071427822113,0.4457159638404846,0.1715114712715149
0.4423379898071289,-0.008357346057891846,-0.08487135171890259,-0.07931584119796753,-0.42567460391093015,-1.1257042004721458,2.8910859927583266,-0.8220259547233582,0.4129352867603302,-0.39211973547935486,-0.764663815498352,0.45445528626441956,0.22183434665203094
0.46349596977233887,-0.029870808124542236,-0.10417884588241577,-0.08736979961395264,-0.43646280510872426,-1.1216826474113974,2.8782500551090227,-0.8163816332817078,0.4227365255355835,-0.39346522092819214,-0.773902952671051,0.48344025015830994,0.24920009076595306
0.4836139678955078,-0.023797810077667236,-0.12734079360961914,-0.07718703150749207,-0.44811143047372914,-1.1175024280147319,2.8653458554715274,-0.810247540473938,0.43326419591903687,-0.3946910500526428,-0.8038680553436279,0.49132639169692993,0.2958844006061554
0.5012879371643066,-0.034561753273010254,-0.14676952362060547,-0.07501563429832458,-0.46073408915989206,-1.113551203920888,2.8517663291391417,-0.8037102222442627,0.4446057677268982,-0.3954433798789978,-0.8408273458480835,0.5019239187240601,0.3031553626060486
0.52305006980896,-0.05341678857803345,-0.15912088751792908,-0.07909789681434631,-0.4735250992407162,-1.1098768129139216,2.838077935319162,-0.7970927953720093,0.4560263454914093,-0.3958319127559662,-0.8191735148429871,0.4832490384578705,0.30643168091773987
0.5412800312042236,-0.06256723403930664,-0.16803577542304993,-0.08301609754562378,-0.48617243313186204,-1.106320326633675,2.825133632793313,-0.7904599905014038,0.4672452509403229,-0.3960488438606262,-0.7730076909065247,0.4708086848258972,0.30607980489730835
0.563230037689209,-0.07622581720352173,-0.1885424554347992,-0.09764587879180908,-0.4981871411635294,-1.103055638046461,2.813023760319228,-0.7840951681137085,0.4778338074684143,-0.3960675299167633,-0.7253278493881226,0.4311770498752594,0.2866378426551819
0.5856530666351318,-0.060840070247650146,-0.2060113251209259,-0.09022268652915955,-0.5093701899042844,-1.1004692780832055,2.801295698773311,-0.7782558798789978,0.48762747645378113,-0.39564770460128784,-0.7214653491973877,0.3962179124355316,0.24144600331783295
0.6008250713348389,-0.018518686294555664,-0.22964712977409363,-0.06273874640464783,-0.5198173989000695,-1.1002740163891698,2.7870614485146676,-0.7735954523086548,0.49672165513038635,-0.39346855878829956,-0.9002703428268433,0.3141016662120819,0.12173642963171005
0.622873067855835,0.012982308864593506,-0.2515498399734497,-0.03017967939376831,-0.5295744722604936,-1.1063145819287563,2.765258023824822,-0.7715882062911987,0.5051661729812622,-0.38659897446632385,-1.2323492765426636,0.16950638592243195,-0.10971508920192719
0.6408770084381104,0.014517486095428467,-0.24584591388702393,-0.028370290994644165,-0.5369312353506003,-1.1198868437328693,2.735421930475047,-0.7733981609344482,0.5115014910697937,-0.374461829662323,-1.3428882360458374,0.005365640856325626,-0.3520539402961731
0.662909984588623,-0.008422136306762695,-0.19628137350082397,-0.06185978651046753,-0.5391120656121623,-1.1369812637684003,2.7056615407543196,-0.7786719799041748,0.5133742094039917,-0.36071717739105225,-0.973651647567749,-0.20086981356143951,-0.554686427116394
0.6826128959655762,-0.05434000492095947,-0.09444433450698853,-0.11321848630905151,-0.5310060183859584,-1.150739420634849,2.6901825110314572,-0.7873347401618958,0.5064010620117188,-0.35165584087371826,0.2116939127445221,-0.3856513798236847,-0.6954893469810486
0.7036271095275879,-0.14978039264678955,0.037036508321762085,-0.18036964535713196,-0.5110420855834208,-1.154728833836333,2.7009826842119047,-0.7978208661079407,0.48908644914627075,-0.35252833366394043,1.326298713684082,-0.5471881031990051,-0.790427029132843
0.7211129665374756,-0.257987380027771,0.07716390490531921,-0.11161202192306519,-0.4825446639639111,-1.1559835703977213,2.723076779782788,-0.8106924295425415,0.4640347957611084,-0.3570006787776947,1.454619288444519,-0.6102046966552734,-1.0252310037612915
0.7450418472290039,-0.3030925989151001,0.023193806409835815,-0.05628848075866699,-0.45281607255715906,-1.1604344557073971,2.7384390678852726,-0.8245623707771301,0.4374995231628418,-0.3587353527545929,0.9373519420623779,-0.4949991703033447,-1.1334034204483032
0.7626490592956543,-0.27889490127563477,0.052182406187057495,-0.03956809639930725,-0.4271669300080052,-1.166456960952962,2.740597983276035,-0.8367513418197632,0.41429397463798523,-0.35806071758270264,0.24836523830890656,-0.19329267740249634,-1.1283141374588013
0.7845640182495117,-0.19753921031951904,0.11113277077674866,-0.01137322187423706,-0.407016120877464,-1.1713801727252768,2.7302705034886534,-0.8460245728492737,0.39587098360061646,-0.3571113646030426,-0.23467868566513062,0.11433988064527512,-1.0839816331863403
0.8025059700012207,-0.1541980504989624,0.17801940441131592,-0.011870622634887695,-0.38812477203080076,-1.170736038976938,2.7199610081549133,-0.8525310754776001,0.3784533441066742,-0.3605049252510071,0.212420254945755,0.31516337394714355,-0.9763572216033936
0.8239929676055908,-0.07677054405212402,0.28779539465904236,-0.03960728645324707,-0.366372637760712,-1.1631516355568994,2.7236877701877233,-0.857128381729126,0.35823115706443787,-0.3701370358467102,0.877088725566864,0.2681427597999573,-0.8543029427528381
0.8441739082336426,0.04993635416030884,0.26124584674835205,0.02691328525543213,-0.3439613964739723,-1.1558129878753787,2.7343116652999973,-0.8615207672119141,0.33721908926963806,-0.3795592188835144,0.8044536709785461,0.10271260887384415,-0.796146810054779
0.8630609512329102,0.14909160137176514,0.16328296065330505,0.13109546899795532,-0.3249012394209594,-1.1536234755572228,2.7387628439075264,-0.8664072751998901,0.31921520829200745,-0.3839794397354126,0.3718438148498535,-0.015865789726376534,-0.7724754214286804
0.8836719989776611,0.2334306836128235,0.17406702041625977,0.14689069986343384,-0.3087988440936628,-1.154955663519981,2.7379094266364836,-0.871507465839386,0.30391451716423035,-0.3848515450954437,0.26740044355392456,-0.08849454671144485,-0.7215263247489929
0.9027040004730225,0.28226399421691895,0.2336236834526062,0.13937130570411682,-0.29253393646981457,-1.1573116175950302,2.7390191668536064,-0.8768226504325867,0.288379430770874,-0.3847326636314392,0.48087596893310547,-0.17165227234363556,-0.7002212405204773
0.9221401214599609,0.2946978211402893,0.27169397473335266,0.14408299326896667,-0.27563676727192005,-1.160148460648407,2.7426410884997656,-0.8822526335716248,0.27215972542762756,-0.38413429260253906,0.4685646891593933,-0.21611161530017853,-0.7178481817245483
0.9418978691101074,0.2895256280899048,0.24158170819282532,0.14756417274475098,-0.25934746753050125,-1.1649730981607473,2.7432826504445895,-0.8880515694618225,0.2564499080181122,-0.38157302141189575,0.19912412762641907,-0.28538647294044495,-0.7527578473091125
0.9608578681945801,0.29201650619506836,0.25202739238739014,0.15091949701309204,-0.24517236638135304,-1.172538739973708,2.7378981173531423,-0.8941740393638611,0.24272353947162628,-0.37621554732322693,-0.1148047149181366,-0.3335515260696411,-0.7490719556808472
0.9818739891052246,0.25744813680648804,0.29006946086883545,0.14770817756652832,-0.23288876368944564,-1.18107069106182,2.728821597121569,-0.9000414609909058,0.23078925907611847,-0.3696778416633606,-0.194867804646492,-0.2895506024360657,-0.7143365144729614
1.003159999847412,0.20035159587860107,0.3405550420284271,0.10118043422698975,-0.22177479011307075,-1.1886449655349438,2.720094090296845,-0.9051397442817688,0.2199612855911255,-0.36378422379493713,-0.18476451933383942,-0.28231701254844666,-0.6546807885169983
1.022217035293579,0.16231483221054077,0.37733104825019836,0.07353097200393677,-0.21197560208673835,-1.1964643288854073,2.711159142105819,-0.9099191427230835,0.21039168536663055,-0.35746654868125916,-0.2775219678878784,-0.31480881571769714,-0.5721787214279175
1.0417861938476562,0.12379199266433716,0.3652293086051941,0.04797935485839844,-0.20456912212659073,-1.204993374345304,2.7012421812505423,-0.9143651127815247,0.20314528048038483,-0.3502407371997833,-0.3394586741924286,-0.33567699790000916,-0.48472902178764343
1.061527967453003,0.07557803392410278,0.3880841135978699,0.026904195547103882,-0.1981091202438286,-1.2132709892883236,2.693207323039097,-0.9184430837631226,0.19681578874588013,-0.34311217069625854,-0.11142730712890625,-0.33299580216407776,-0.4067484438419342
1.0815880298614502,0.09614241123199463,0.43400657176971436,-0.035038381814956665,-0.19113264204919017,-1.2204852537483444,2.693135758167828,-0.9221616387367249,0.18997102975845337,-0.33694037795066833,0.3662078082561493,-0.42709746956825256,-0.24039606750011444
1.1014351844787598,0.14144545793533325,0.43897414207458496,-0.09175530076026917,-0.18432115277732872,-1.2283828122206464,2.703738996051714,-0.9259912371635437,0.18327923119068146,-0.3300739526748657,0.8393843173980713,-0.5404367446899414,-0.04772530868649483
1.121532917022705,0.08910524845123291,0.41871026158332825,-0.11008688807487488,-0.1795117812797781,-1.2351499516533737,2.7220203296280427,-0.9290252327919006,0.17854921519756317,-0.3240867257118225,0.9747804999351501,-0.44918206334114075,0.18807020783424377
1.141523838043213,0.0726386308670044,0.3332897126674652,-0.16399657726287842,-0.17917250172642862,-1.2392747714511574,2.741814048184574,-0.9304113984107971,0.1782153844833374,-0.32027164101600647,0.8676636219024658,-0.3049561679363251,0.41207027435302734
1.1612181663513184,0.0460013747215271,0.3139306604862213,-0.2046341896057129,-0.1835428082424638,-1.2398067178053973,2.7603446876108126,-0.9298361539840698,0.1825140118598938,-0.319520503282547,0.7036879062652588,-0.08961697667837143,0.5770151019096375
1.1815390586853027,-0.025195300579071045,0.3030330240726471,-0.22806504368782043,-0.19171523399130624,-1.2368319531031295,2.775994633821953,-0.9274412989616394,0.19054298102855682,-0.32178542017936707,0.4534119665622711,0.06091278791427612,0.7308758497238159
1.2008099555969238,-0.1537802815437317,0.2946321964263916,-0.23161306977272034,-0.2048909775095014,-1.2341213276517935,2.785800314268959,-0.9241157174110413,0.2034604251384735,-0.32344070076942444,-0.010598430410027504,0.024866726249456406,0.8042266368865967
1.221987009048462,-0.46030378341674805,0.31524214148521423,-0.15380749106407166,-0.2210069459324744,-1.232815307662172,2.7848272561919356,-0.9204793572425842,0.21921218931674957,-0.3235180079936981,-0.6118428111076355,0.17463864386081696,0.6507476568222046
1.2427539825439453,-0.538141667842865,0.2929795980453491,-0.06671363115310669,-0.2366429091005269,-1.2269052360510981,2.7750298190489358,-0.9152121543884277,0.234440416097641,-0.3277566134929657,-0.6903603672981262,0.6526322364807129,0.6238315105438232
1.2607879638671875,-0.011234939098358154,0.18839013576507568,-0.16585975885391235,-0.25683758986601884,-1.2133429092479013,2.771596639520805,-0.9060624241828918,0.25402316451072693,-0.33841273188591003,-0.23910845816135406,0.6930891871452332,1.2128190994262695
1.280817985534668,0.3196566104888916,0.10944920778274536,-0.2710007131099701,-0.28487595147078404,-1.1965803535419839,2.78534950970243,-0.8932802081108093,0.28103840351104736,-0.3508101999759674,0.4614318311214447,0.645433247089386,1.842695951461792
1.3009450435638428,0.23975402116775513,0.05094349384307861,-0.18465641140937805,-0.3168016389638373,-1.1736808482483783,2.8154127722964124,-0.8762896060943604,0.3115289509296417,-0.36751341819763184,0.9674763083457947,0.76186603307724,2.1377198696136475
1.3207800388336182,0.07872927188873291,-0.008335202932357788,-0.06324869394302368,-0.3478420861080116,-1.144951540909128,2.8550572406520596,-0.8561491966247559,0.3408699333667755,-0.3883504271507263,1.1789461374282837,0.7538634538650513,2.165191888809204
1.340770959854126,-0.02251756191253662,-0.05547186732292175,0.05596756935119629,-0.3757276323438416,-1.1171217347701001,2.8968220820169304,-0.8361402750015259,0.36694949865341187,-0.4076979458332062,1.1688157320022583,0.5149803161621094,1.9777541160583496
1.3609280586242676,-0.10797417163848877,-0.1168777346611023,0.10831058025360107,-0.3972974921736476,-1.0950585713247543,2.937270647929069,-0.819714367389679,0.3869277536869049,-0.42232123017311096,1.2535074949264526,0.1358260065317154,1.6133477687835693
1.382080078125,-0.1157374382019043,-0.14079248905181885,0.10401973128318787,-0.4102780560155263,-1.0806311573552214,2.976904495765773,-0.8090366721153259,0.3988643288612366,-0.43170222640037537,1.4079136848449707,-0.25534921884536743,1.229568600654602
1.4007890224456787,-0.08148008584976196,-0.18304452300071716,0.10649281740188599,-0.4156595145021739,-1.0729263883923583,3.0155668358028964,-0.8037890791893005,0.4037933647632599,-0.43689143657684326,1.409245252609253,-0.5238537788391113,0.905855655670166
1.4208240509033203,-0.047164976596832275,-0.2098011076450348,0.1694716215133667,-0.41616862657768555,-1.0712772041319683,3.048566626390522,-0.8028868436813354,0.4042590856552124,-0.4381178915500641,1.208493947982788,-0.6077412962913513,0.6111842393875122
1.4407930374145508,0.021344542503356934,-0.23035505414009094,0.19382578134536743,-0.41531833675810587,-1.0733032575268895,3.0739491324079835,-0.8040745854377747,0.40348121523857117,-0.4366541802883148,0.876891553401947,-0.6473806500434875,0.4292181134223938
1.4608101844787598,0.10666447877883911,-0.19626447558403015,0.15790748596191406,-0.41398194804369814,-1.0799630009257024,3.0931382107588683,-0.8074396252632141,0.40225809812545776,-0.43154338002204895,0.8002594709396362,-0.8026769757270813,0.30784475803375244
1.4808259010314941,0.13859587907791138,-0.14073356986045837,0.12992069125175476,-0.41044675096279964,-1.0890713176981375,3.113794977023577,-0.8125917911529541,0.3990190029144287,-0.42482733726501465,1.0929354429244995,-0.930202841758728,0.2779432237148285
1.5008139610290527,0.1434485912322998,-0.08769875764846802,0.14037111401557922,-0.4033571478225608,-1.0975576737382298,3.141310312697941,-0.8186651468276978,0.39250826835632324,-0.4191949963569641,1.4552488327026367,-1.0225261449813843,0.2522510290145874
1.5207769870758057,0.16630154848098755,-0.0777762234210968,0.18620043992996216,-0.3940471228908416,-1.1071048616202666,-3.1106748885095623,-0.82586270570755,0.383928507566452,-0.41297662258148193,1.4765435457229614,-1.153419852256775,0.21027986705303192
1.5407729148864746,0.18978214263916016,-0.10848015546798706,0.23228490352630615,-0.38527512454414264,-1.120709518667089,-3.082567483312024,-0.8344048857688904,0.3758141100406647,-0.40315285325050354,1.2316479682922363,-1.2684544324874878,0.1536904275417328
1.5607690811157227,0.21569687128067017,-0.11411747336387634,0.25469309091567993,-0.37847494010460453,-1.1384287595802878,-3.0605960732194366,-0.8437179923057556,0.36950376629829407,-0.38936716318130493,0.9017599821090698,-1.3331830501556396,0.10034352540969849
1.5808191299438477,0.24977880716323853,-0.11299315094947815,0.24836546182632446,-0.37318174009901245,-1.1601775028737884,-3.045234880159473,-0.853767454624176,0.3645800054073334,-0.37170228362083435,0.6560386419296265,-1.4166769981384277,-0.006573467515408993
1.6010119915008545,0.28490149974823,-0.08901938796043396,0.20430997014045715,-0.36728688978820534,-1.1852572375226664,-3.033046721410213,-0.8647964000701904,0.3590846061706543,-0.35097742080688477,0.6768607497215271,-1.5336929559707642,-0.0916009470820427
1.6207618713378906,0.29955124855041504,-0.0501040518283844,0.1638941466808319,-0.3594615585133879,-1.2117040580847294,-3.0189895286239468,-0.8763791918754578,0.3517702519893646,-0.3289636969566345,0.8310765027999878,-1.6250779628753662,-0.16609764099121094
1.6407849788665771,0.28766798973083496,-0.0063152313232421875,0.14455658197402954,-0.3492970944124816,-1.2389834554860804,-3.002387196568139,-0.8883607387542725,0.3422374427318573,-0.3060861825942993,0.9793635010719299,-1.6892367601394653,-0.24502477049827576
1.660933017730713,0.2653295397758484,0.006323486566543579,0.142378032207489,-0.33836850948102626,-1.2668682640546511,-2.983599086108446,-0.9000645875930786,0.33194854855537415,-0.2823011577129364,1.0226702690124512,-1.7336716651916504,-0.24345150589942932
1.6808500289916992,0.1883939504623413,0.02394235134124756,0.1446753740310669,-0.32760462702652543,-1.2941747170439495,-2.9642829992888275,-0.9108213186264038,0.32177597284317017,-0.25858229398727417,1.03432297706604,-1.5966556072235107,-0.25911909341812134
1.7007420063018799,0.13717782497406006,0.043441951274871826,0.16713881492614746,-0.317582511072576,-1.3172380394174874,-2.945700893836821,-0.9196180105209351,0.3122708797454834,-0.23830582201480865,0.9229244589805603,-1.3115779161453247,-0.24084195494651794
1.7208871841430664,0.18630892038345337,0.027994424104690552,0.19288957118988037,-0.30937572166202065,-1.3367008294967198,-2.9297289481318076,-0.9265432357788086,0.30446404218673706,-0.22095051407814026,0.7792330980300903,-1.163619041442871,-0.1793842762708664
1.7410049438476562,0.21712267398834229,0.027101129293441772,0.16569776833057404,-0.3032548784257138,-1.354810453108558,-2.913645470523765,-0.932195246219635,0.29862815141677856,-0.20453140139579773,0.9074599146842957,-1.1519221067428589,-0.08788298815488815
1.7607531547546387,0.1730964183807373,0.06045284867286682,0.08598700165748596,-0.296678651738813,-1.3709906702147088,-2.890421885489189,-0.937286913394928,0.2923455834388733,-0.18980783224105835,1.4619816541671753,-1.1659024953842163,-0.08693903684616089
1.7808170318603516,0.17020386457443237,0.103130042552948,0.04361814260482788,-0.28875977697339256,-1.383714161059065,-2.8539035834480035,-0.9418713450431824,0.2847635746002197,-0.17829225957393646,2.071943521499634,-1.1575746536254883,-0.019636284559965134
1.8008341789245605,0.14262253046035767,0.09508195519447327,0.09638889133930206,-0.2807060001446361,-1.3935995563408097,-2.8109938851056278,-0.9458145499229431,0.27703407406806946,-0.16937169432640076,2.0411980152130127,-1.0084500312805176,-0.04925496503710747
1.8210270404815674,0.09953606128692627,0.031136631965637207,0.17270587384700775,-0.2730239227717909,-1.4007384215658085,-2.774840045056234,-0.9490692615509033,0.2696445882320404,-0.16297079622745514,1.4416279792785645,-0.7169680595397949,-0.09549833089113235
1.8407888412475586,0.11597132682800293,-0.021360307931900024,0.20804929733276367,-0.26723600325545077,-1.407249673447905,-2.75340493305567,-0.9516341686248779,0.26406654715538025,-0.15703922510147095,0.7393361926078796,-0.5270724296569824,-0.1280759871006012
1.8608109951019287,0.09745323657989502,-0.015976428985595703,0.13733667135238647,-0.26233755137811704,-1.4133300687561081,-2.7424436474544276,-0.953837513923645,0.2593388259410858,-0.15145106613636017,0.47564083337783813,-0.364848792552948,-0.18753652274608612
1.880730152130127,0.11709952354431152,0.06414729356765747,0.08136540651321411,-0.2570802266040068,-1.4169075626742655,-2.7339376285613843,-0.955707311630249,0.25425782799720764,-0.1482446938753128,0.42363837361335754,-0.2240213006734848,-0.18707160651683807
1.9007339477539062,0.19558197259902954,0.04571717977523804,0.08733463287353516,-0.2532456742150966,-1.418223655187012,-2.7259357195331417,-0.956858217716217,0.2505474388599396,-0.14713387191295624,0.4054202735424042,-0.13521739840507507,-0.07030566036701202
1.9207301139831543,0.19661211967468262,0.05917847156524658,0.013956964015960693,-0.2511625512940914,-1.4188302106932047,-2.7159353576619467,-0.9574611186981201,0.24853020906448364,-0.1466321498155594,0.6877015829086304,-0.18891187012195587,0.03094654530286789
1.9404559135437012,0.11553007364273071,0.08561570942401886,-0.12102164328098297,-0.25012947754816517,-1.417340312325444,-2.6949960266194792,-0.957494854927063,0.24752940237522125,-0.1480976790189743,1.3079007863998413,-0.1332097202539444,0.1510106325149536
1.9607579708099365,0.07361620664596558,0.09315471351146698,-0.06831961870193481,-0.24921492560347283,-1.4106353312000288,-2.6657897615109465,-0.9567033648490906,0.24664321541786194,-0.15455031394958496,1.3930245637893677,0.06838109344244003,0.21173599362373352
1.9807839393615723,0.12264156341552734,-0.0030118227005004883,0.05011558532714844,-0.25038607232520194,-1.401665819531949,-2.6409391308466343,-0.9549932479858398,0.2477780133485794,-0.16307641565799713,0.9456332921981812,0.17922371625900269,0.29818087816238403
2.0007970333099365,0.05328571796417236,-0.06283164024353027,0.05913960933685303,-0.2529912393771138,-1.3938491769142125,-2.6245010904379087,-0.9530506730079651,0.2503010928630829,-0.17042198777198792,0.6722769141197205,0.19962690770626068,0.18767759203910828
2.020724058151245,-0.08655840158462524,0.02325136959552765,-0.002557888627052307,-0.2524469676247966,-1.3852296303209475,-2.608102100668522,-0.9516802430152893,0.24977411329746246,-0.17865554988384247,0.9077727198600769,0.24679717421531677,0.05405537784099579
2.040724039077759,-0.06627708673477173,0.035378485918045044,0.023020341992378235,-0.2487177781314387,-1.3753031695530995,-2.588543670792313,-0.950766921043396,0.24616140127182007,-0.18827299773693085,1.0323162078857422,0.21923300623893738,-0.036370355635881424
2.059877872467041,-0.013214528560638428,0.02102084457874298,0.02708524465560913,-0.24255030038451855,-1.3669105890905637,-2.566826216351264,-0.9506220817565918,0.24017904698848724,-0.19654934108257294,1.1597203016281128,0.10935692489147186,-0.1859780102968216
2.0807271003723145,-0.10966169834136963,0.10456956923007965,0.012265875935554504,-0.23200940906520956,-1.3583545681916314,-2.5408594518013237,-0.9513275623321533,0.22993355989456177,-0.2051980048418045,1.5270746946334839,0.15180036425590515,-0.29750174283981323
2.1007261276245117,-0.14155703783035278,0.026651188731193542,0.0034681111574172974,-0.2185381160240013,-1.3475027853801154,-2.5101922767309315,-0.9519792795181274,0.21680274605751038,-0.21617566049098969,1.7407389879226685,0.26176244020462036,-0.36331871151924133
2.120728015899658,-0.12111097574234009,-0.021899491548538208,0.010146230459213257,-0.2018719688988222,-1.3336941961969817,-2.4726540247819386,-0.9522839188575745,0.2005036324262619,-0.23011699318885803,2.221226930618286,0.30995306372642517,-0.4835371971130371
2.1407289505004883,-0.10707956552505493,0.14505934715270996,-0.05134481191635132,-0.17752689085381754,-1.3227313809408978,-2.4290417063366303,-0.9541539549827576,0.17659588158130646,-0.24166974425315857,2.5600175857543945,-0.07535716891288757,-0.7435191869735718
2.1607890129089355,-0.072437584400177,0.020458325743675232,-0.11521635949611664,-0.15038061033647776,-1.3195966846752611,-2.382864739067376,-0.9576832056045532,0.1498144567012787,-0.24576082825660706,2.4051599502563477,-0.3004721999168396,-0.8295462727546692
2.180716037750244,-0.09887295961380005,-0.13088999688625336,0.005898118019104004,-0.12435906228770965,-1.32148051228976,-2.348984810150371,-0.9615976214408875,0.12403877079486847,-0.2448354959487915,1.460060715675354,-0.3069015443325043,-0.8544136881828308
2.200721025466919,-0.12914788722991943,-0.04932617396116257,-0.0324786901473999,-0.10058209026119827,-1.3264025684853762,-2.331722616140973,-0.9653802514076233,0.10041258484125137,-0.24074521660804749,0.8849272727966309,-0.4199720025062561,-1.0473123788833618
2.220700979232788,-0.17698264122009277,0.09586098790168762,-0.08056996762752533,-0.07591905583747495,-1.3342992332474073,-2.323769257324112,-0.9693642854690552,0.07584615051746368,-0.23362375795841217,0.4348047375679016,-0.38761183619499207,-1.1734952926635742
2.2406558990478516,-0.22152948379516602,0.09470595419406891,0.02983677387237549,-0.05056396731721811,-1.337283979243324,-2.321045311466904,-0.9716162085533142,0.050542425364255905,-0.23110021650791168,0.5179330706596375,0.055820025503635406,-1.229052186012268
2.260416030883789,-0.2104474902153015,0.06560777127742767,0.0779036432504654,-0.02397884746752414,-1.3336254989429588,-2.3161640134528336,-0.9717270731925964,0.02397654950618744,-0.234886035323143,0.626082181930542,0.1270177662372589,-1.2091530561447144
2.2806968688964844,-0.18229013681411743,0.11692120134830475,0.0007307827472686768,0.0005882268839121687,-1.3320086270796834,-2.305838783162829,-0.9716253280639648,-0.000588226830586791,-0.23652487993240356,0.8809961676597595,0.04194646701216698,-0.9652601480484009
2.300704002380371,-0.21544253826141357,0.09664574265480042,0.002888709306716919,0.022642580967999672,-1.332049576568255,-2.292950108717417,-0.9713859558105469,-0.022640645503997803,-0.23642446100711823,0.9074570536613464,-0.02545938268303871,-0.8671979904174805
2.320683002471924,-0.20818209648132324,0.09182890504598618,0.04013541340827942,0.04252535623328525,-1.3334790753485946,-2.2816574495920356,-0.971093475818634,-0.04251253977417946,-0.2348833829164505,0.6213698983192444,-0.09454657137393951,-0.8317452669143677
2.3407180309295654,-0.2052466869354248,0.12352655082941055,0.0480039119720459,0.059918015132107996,-1.3353126373963347,-2.2748401165959486,-0.9706566333770752,-0.05988216772675514,-0.2328946739435196,0.5146231651306152,-0.06428596377372742,-0.7024690508842468
2.3607091903686523,-0.19484984874725342,0.040898531675338745,0.10421779751777649,0.07363417173109181,-1.334572630537992,-2.269741409777536,-0.9695942401885986,-0.07356765121221542,-0.2333987057209015,0.270096093416214,0.23276452720165253,-0.46281126141548157
2.3807711601257324,-0.15755826234817505,0.0247516930103302,0.11190769076347351,0.0820948870225013,-1.328236246067548,-2.267298400891674,-0.9674568176269531,-0.08200270682573318,-0.23937958478927612,0.25590941309928894,0.32687824964523315,-0.3481859266757965
2.400692939758301,-0.12185734510421753,0.1649566888809204,0.015788987278938293,0.08851892412589613,-1.324219921276293,-2.262000993318746,-0.9659569263458252,-0.0884033665060997,-0.2431296855211258,0.3871593773365021,0.11273986101150513,-0.15628787875175476
2.420076847076416,-0.1619246006011963,0.19305528700351715,0.005127221345901489,0.0925863522824011,-1.3250707612535442,-2.2542806376247673,-0.965806782245636,-0.09245412796735764,-0.2422182857990265,0.4124864637851715,-0.05216476321220398,-0.029820436611771584
2.4407601356506348,-0.2529990077018738,0.13613300025463104,0.07110220193862915,0.09424980354647018,-1.3254624038664733,-2.246715162304923,-0.9657509326934814,-0.09411032497882843,-0.24180230498313904,0.4354621469974518,0.02955850586295128,0.05589782074093819
2.4606828689575195,-0.30975550413131714,0.10554909706115723,0.15607833862304688,0.08990787118172079,-1.3243940011814697,-2.239886835513715,-0.9658792018890381,-0.08978679031133652,-0.24293135106563568,0.11723189055919647,0.1675199270248413,0.47609397768974304
2.480679988861084,-0.3686184287071228,0.021389171481132507,0.19485855102539062,0.07922659060385077,-1.320286939810159,-2.233389558916911,-0.9657474160194397,-0.07914373278617859,-0.24711988866329193,0.2739039361476898,0.40136536955833435,0.7703635692596436
2.500676155090332,-0.429629385471344,0.08914505690336227,0.20350506901741028,0.06537265433217121,-1.3058900283718857,-2.219898562525619,-0.963055431842804,-0.06532610207796097,-0.2612595558166504,0.6318917870521545,1.1067875623703003,0.8581171631813049
2.5207629203796387,-0.5678264498710632,0.14172276854515076,0.1714979112148285,0.04799122671374464,-1.2797169077031816,-2.2032002675057343,-0.9568316340446472,-0.04797280579805374,-0.2866559624671936,0.34721270203590393,1.5064795017242432,1.4686617851257324
2.5407538414001465,-0.5026617646217346,0.18797564506530762,0.1965431571006775,0.031486737994646345,-1.2521238736772715,-2.199261341330441,-0.9491814970970154,-0.031481534242630005,-0.3131508231163025,-0.6063104271888733,1.370576024055481,0.8524187803268433
2.559962034225464,-0.5472327470779419,-0.11378468573093414,-0.08044347167015076,0.010895125748625025,-1.2309267346380908,-2.195950069248803,-0.9427421689033508,-0.01089491043239832,-0.33334434032440186,-0.21493223309516907,0.7082007527351379,1.157885193824768
2.5806620121002197,-0.31798720359802246,-0.002806777134537697,0.08441221714019775,-0.015991002869492565,-1.2233658239469676,-2.1941177175938713,-0.9401304721832275,0.015990320593118668,-0.34043943881988525,-0.2611987888813019,0.11700659990310669,1.417701005935669
2.6007330417633057,-0.37891685962677,0.11214098334312439,0.00328749418258667,-0.047193524299352196,-1.2217829324945173,-2.1889365067003026,-0.9386642575263977,0.04717600718140602,-0.34159010648727417,-0.28338852524757385,0.09285873919725418,1.6900207996368408
2.62064790725708,-0.47309064865112305,0.09950585663318634,-0.008166640996932983,-0.08475385399152165,-1.217496375610753,-2.1840526714983994,-0.9348682165145874,0.08465242385864258,-0.34475386142730713,-0.5816514492034912,0.32346975803375244,1.9959726333618164
2.640707015991211,-0.5115293860435486,0.08095550537109375,-0.06244659423828125,-0.12807352552595522,-1.2100903633705895,-2.179470015187571,-0.9279847741127014,0.12772367894649506,-0.35004425048828125,-0.41815075278282166,0.30133330821990967,2.2550857067108154
2.6606411933898926,-0.4090738296508789,0.12978427112102509,-0.12974563241004944,-0.17407195729977892,-1.2040794221019844,-2.1661600946618127,-0.9194020628929138,0.17319419980049133,-0.35313400626182556,0.058819446712732315,0.08650284260511398,2.5067498683929443
2.6806440353393555,-0.41049450635910034,0.08063966035842896,-0.1050567626953125,-0.22002035324105887,-1.1999664285602492,-2.143529068860719,-0.9095585346221924,0.21824948489665985,-0.3536529242992401,0.28469008207321167,-0.09021876007318497,2.544952869415283
2.700636863708496,-0.43453967571258545,-0.010527342557907104,0.025481194257736206,-0.265417892451001,-1.1966892239335627,-2.1205831934526636,-0.8982391953468323,0.26231256127357483,-0.35264483094215393,0.07141570746898651,-0.10320655256509781,2.516181707382202
2.7206759452819824,-0.4178164005279541,-0.08818495273590088,0.15699008107185364,-0.31229149428448943,-1.193822663655004,-2.1049662907163653,-0.8848112225532532,0.3072400987148285,-0.35030367970466614,-0.371452659368515,-0.08119872212409973,2.3663058280944824
2.740628957748413,-0.33831316232681274,-0.11262103915214539,0.1276928186416626,-0.3561727555698659,-1.1949918093366882,-2.0953500006395998,-0.8718308806419373,0.3486897647380829,-0.3439861536026001,-0.3009130358695984,-0.38369086384773254,2.0366010665893555
2.7606258392333984,-0.18130415678024292,-0.0974961519241333,0.10719984769821167,-0.39254986734301905,-1.2003670066333068,-2.0818812523021624,-0.8612678647041321,0.3825455605983734,-0.33447954058647156,0.14448870718479156,-0.5959136486053467,1.8501213788986206
2.7806448936462402,-0.12235808372497559,-0.14516007900238037,0.0856858491897583,-0.42239459949701313,-1.204623149223681,-2.0614374124815518,-0.8516409993171692,0.4099457561969757,-0.3265763223171234,0.48485949635505676,-0.6387780904769897,1.5480239391326904
2.8006820678710938,-0.10957980155944824,-0.10698428750038147,0.07597965002059937,-0.44550434387499194,-1.2098536274907168,-2.0438768415481183,-0.8442471027374268,0.4309130609035492,-0.31868597865104675,-0.024100976064801216,-0.6233628988265991,1.2309813499450684
2.8206748962402344,-0.0600321888923645,-0.20529049634933472,0.16188132762908936,-0.4701636003917187,-1.2240510924783408,-2.0482048706252187,-0.8384358286857605,0.45303213596343994,-0.30296409130096436,-1.188618540763855,-0.6152538657188416,0.9879775047302246
2.8407111167907715,-0.027909576892852783,-0.1805661916732788,0.14348405599594116,-0.4980006992645668,-1.2496268598509301,-2.074683920639587,-0.8336169123649597,0.4776700437068939,-0.27733418345451355,-1.8264442682266235,-0.7235368490219116,0.882785975933075
2.8606419563293457,-0.06264013051986694,-0.05314135551452637,0.06485559046268463,-0.5239453306886657,-1.28158400587021,-2.108512828445928,-0.829892098903656,0.5003001093864441,-0.24693869054317474,-1.6028436422348022,-0.796394407749176,0.7454479932785034
2.8806240558624268,-0.07807183265686035,-0.0406726598739624,-0.07751283049583435,-0.5456330375912886,-1.3079794730691654,-2.129745642496851,-0.8254467248916626,0.5189593434333801,-0.22207818925380707,-0.7715006470680237,-0.7705804109573364,0.8339534401893616
2.900609016418457,-0.03787308931350708,-0.04123431444168091,-0.13033585250377655,-0.5647888924873452,-1.327345445086305,-2.1369123413055857,-0.8197928667068481,0.5352374911308289,-0.20361797511577606,-0.3903544247150421,-0.7932741045951843,0.9067823886871338
2.9206180572509766,-0.002565622329711914,-0.16391265392303467,-0.1383044570684433,-0.5846749212034996,-1.3450954154271808,-2.1393396772465914,-0.8127419948577881,0.5519283413887024,-0.1866162121295929,-0.27159613370895386,-0.8548581600189209,0.9441710114479065
2.940135955810547,0.03079777956008911,-0.2035207748413086,-0.18267297744750977,-0.6030634790588625,-1.3635309014873371,-2.1399415766295147,-0.8059748411178589,0.5671682357788086,-0.16948466002941132,-0.14240115880966187,-0.9809708595275879,0.8441944122314453
2.960602045059204,0.1101570725440979,-0.267090380191803,-0.14087216556072235,-0.620249507441592,-1.3804110068746105,-2.1367934838639213,-0.7990303039550781,0.5812382102012634,-0.15398867428302765,0.040530309081077576,-0.8842393755912781,0.8611222505569458
2.980605125427246,0.13996374607086182,-0.3315274715423584,-0.16207168996334076,-0.6349525672608961,-1.3918686957023994,-2.1284149338984855,-0.792246401309967,0.5931393504142761,-0.14328716695308685,0.4012885093688965,-0.7449244260787964,0.7451000213623047
3.0005979537963867,0.20008999109268188,-0.3616534471511841,-0.21116726100444794,-0.6456145257501469,-1.3952501829109252,-2.1108686471122353,-0.7864546775817871,0.6016893982887268,-0.13949495553970337,0.776276171207428,-0.6275390982627869,0.5219852328300476
3.0205941200256348,0.24960702657699585,-0.41631120443344116,-0.22485584020614624,-0.6503809670281778,-1.3911043408996144,-2.086558491532061,-0.7830390334129333,0.6054896712303162,-0.14224009215831757,0.9359319806098938,-0.44530370831489563,0.3086163401603699
3.0406441688537598,0.24573808908462524,-0.4636072516441345,-0.22168956696987152,-0.6492232782425466,-1.385956057328077,-2.0651461921742356,-0.7829846739768982,0.6045678853988647,-0.14639818668365479,0.8960239291191101,-0.309810072183609,-0.08640637248754501
3.060680866241455,0.30943894386291504,-0.42897671461105347,-0.26661741733551025,-0.6422773383907788,-1.376986880631694,-2.039409166784582,-0.7857419848442078,0.5990205407142639,-0.15422001481056213,1.1878376007080078,-0.37923723459243774,-0.22800740599632263
3.0806169509887695,0.329872727394104,-0.3185712695121765,-0.29032379388809204,-0.6312411624064735,-1.3683589011616697,-2.0088315071878395,-0.7908101677894592,0.5901471972465515,-0.16231290996074677,1.5200608968734741,-0.5532814860343933,-0.34562182426452637
3.1006908416748047,0.33003395795822144,-0.3430430293083191,-0.3248874545097351,-0.6161607580216788,-1.3578536401718013,-1.9691298781576978,-0.7976699471473694,0.5779061913490295,-0.1724727898836136,1.8779895305633545,-0.765993595123291,-0.541923999786377
3.1206159591674805,0.359386146068573,-0.283439040184021,-0.1556665301322937,-0.5981532564827713,-1.3540026048396347,-1.9315920043990351,-0.8070332407951355,0.5631173253059387,-0.177753284573555,1.5499154329299927,-0.9064722061157227,-0.5838626027107239
3.1406168937683105,0.33099430799484253,-0.31920039653778076,-0.09568196535110474,-0.5773538787668323,-1.3556326290373975,-1.9028129219217995,-0.81858891248703,0.5458086133003235,-0.17889991402626038,1.1765304803848267,-0.8213798403739929,-0.826418399810791
3.1606030464172363,0.2854301333427429,-0.2748425006866455,-0.06274718046188354,-0.5565325433096449,-1.3601380203189413,-1.8830468400730986,-0.8303214907646179,0.528245210647583,-0.17754825949668884,0.9788692593574524,-0.7288423180580139,-0.8629451990127563
3.180616855621338,0.24377131462097168,-0.13169938325881958,-0.08307003974914551,-0.5351969946506555,-1.3613291289644827,-1.8621623056555432,-0.8413665294647217,0.5100104808807373,-0.1788623332977295,1.2463467121124268,-0.4440602660179138,-0.8555604219436646
3.200572967529297,0.25030845403671265,-0.0031596124172210693,-0.08028815686702728,-0.5111171815568453,-1.3566878523268693,-1.8362116267186812,-0.8522829413414001,0.4891519546508789,-0.18532155454158783,1.3541659116744995,-0.4191168546676636,-0.9833474159240723
3.220576047897339,0.3708811402320862,0.0018066465854644775,-0.057459235191345215,-0.4859517560240013,-1.3567130951612392,-1.8138789947461131,-0.8640452027320862,0.46705013513565063,-0.18785631656646729,1.1124802827835083,-0.7258583903312683,-1.1014020442962646
3.2405660152435303,0.40813910961151123,0.0633091926574707,-0.01610112190246582,-0.45961487772227777,-1.3678773971560108,-1.8005782236077437,-0.8778351545333862,0.443602979183197,-0.18061520159244537,0.553309440612793,-0.9434495568275452,-1.219508171081543
3.260589122772217,0.33157986402511597,0.017641693353652954,-0.007028758525848389,-0.4331210767723802,-1.3864391782528507,-1.8011959204099042,-0.892279326915741,0.41970571875572205,-0.1663873940706253,-0.08299777656793594,-0.8930729627609253,-1.3821618556976318
3.280627965927124,0.3123251795768738,0.03248921036720276,0.043927550315856934,-0.40709895195910645,-1.408337165666797,-1.8127026206646633,-0.9061819911003113,0.39594703912734985,-0.14852656424045563,-0.36478471755981445,-0.8491963148117065,-1.3797428607940674
3.300579071044922,0.23733878135681152,0.15728142857551575,0.0040152668952941895,-0.3795195696094332,-1.4269831203314793,-1.8170656627599262,-0.9192540645599365,0.37047427892684937,-0.1331198811531067,0.455645352602005,-0.8065308928489685,-1.3762069940567017
3.3205580711364746,0.1021876335144043,0.29874885082244873,-0.10131680965423584,-0.3491236785155968,-1.4361452271063981,-1.8014952014456294,-0.9311671257019043,0.3420744836330414,-0.12614597380161285,1.3418519496917725,-0.7311837673187256,-1.4614062309265137
3.3405539989471436,0.009077012538909912,0.21043092012405396,-0.027491629123687744,-0.31615674495200846,-1.4417405981253966,-1.776952396454104,-0.9425333738327026,0.31091609597206116,-0.12231917679309845,1.193908929824829,-0.5728000402450562,-1.4653613567352295
3.360556125640869,-0.0075879693031311035,0.016438990831375122,0.16044938564300537,-0.28679269954280057,-1.4479726327873066,-1.763540308788962,-0.9519304633140564,0.2828773856163025,-0.11751112341880798,0.5069484710693359,-0.47620320320129395,-1.2883559465408325
3.3805620670318604,-0.04621237516403198,-0.0598168671131134,0.038388848304748535,-0.262355342829126,-1.4563508042260416,-1.757786318198004,-0.959463894367218,0.2593560218811035,-0.11028827726840973,0.47468388080596924,-0.6572636365890503,-1.2040245532989502
3.400534152984619,-0.23582011461257935,0.2747582793235779,-0.24425506591796875,-0.2338052082022461,-1.4679925355433345,-1.744362913695902,-0.9676557779312134,0.23168087005615234,-0.09983061999082565,1.0534290075302124,-0.6567567586898804,-1.378372311592102
3.42061185836792,-0.19835388660430908,0.19070561230182648,-0.03597527742385864,-0.20800790988753953,-1.4755493249953788,-1.728553467041894,-0.9740093946456909,0.20651115477085114,-0.09305303543806076,0.6531420350074768,-0.4487753212451935,-0.992130696773529
3.440540075302124,-0.21212118864059448,-0.04621727764606476,0.12483305484056473,-0.1955165416289449,-1.47895312102782,-1.7272036118219003,-0.976813018321991,0.19427326321601868,-0.08996674418449402,-0.38906925916671753,0.06447397172451019,-0.3063473701477051
3.460538864135742,-0.20921576023101807,0.047557711601257324,0.06763923168182373,-0.19438677628744452,-1.4758068097094912,-1.7375502460789556,-0.9767430424690247,0.1931648999452591,-0.09306041151285172,-0.43957987427711487,0.33269405364990234,0.03275145962834358
3.4805409908294678,-0.11773812770843506,0.28869783878326416,0.04639608412981033,-0.19739910385105724,-1.4701239789007023,-1.7387886528048013,-0.9756150245666504,0.19611960649490356,-0.09855061769485474,0.31856465339660645,0.2986334562301636,0.30843865871429443
3.5005340576171875,-0.11523258686065674,0.08585907518863678,0.15252560377120972,-0.20508039730113262,-1.4616861909365135,-1.7248115297046673,-0.9732224941253662,0.20364587008953094,-0.10661184787750244,0.8892291784286499,0.31907498836517334,0.5468183159828186
3.5205299854278564,-0.2846953868865967,-0.19538342952728271,0.17209017276763916,-0.21254405119458275,-1.4481672257303293,-1.7030612570190353,-0.9701568484306335,0.21094737946987152,-0.11956942081451416,1.1149903535842896,0.5943118929862976,0.3887176513671875
3.540534019470215,-0.2935703992843628,-0.2070026695728302,0.1993764042854309,-0.21759635196829147,-1.4315872248232036,-1.6844365385388267,-0.9669733643531799,0.2158832848072052,-0.13548783957958221,0.5333713889122009,0.5115244388580322,0.28015100955963135
3.5606088638305664,-0.1528717279434204,-0.20712749660015106,0.24152369797229767,-0.22075693973178295,-1.42513499303008,-1.6764258525928306,-0.9653990268707275,0.2189682573080063,-0.1416243612766266,0.22766529023647308,0.08025515079498291,0.2643692195415497
3.580548048019409,-0.23403829336166382,-0.24894626438617706,0.18992215394973755,-0.2307868882214523,-1.4230181191586664,-1.6756875286617208,-0.9628763794898987,0.22874361276626587,-0.14333708584308624,-0.407075971364975,0.00636379374191165,0.5919672250747681
3.600522994995117,-0.35442274808883667,-0.2377537488937378,0.1701141595840454,-0.24099523650408092,-1.4210180436704765,-1.674972746799535,-0.960228681564331,0.23866921663284302,-0.14490662515163422,-0.12027163803577423,0.2989088296890259,0.6200920939445496
3.620516061782837,-0.4158019423484802,-0.1321043223142624,0.1182260513305664,-0.2526422530357722,-1.4147948065911917,-1.6762183522299727,-0.9564972519874573,0.2499632090330124,-0.1504373848438263,-0.05441849306225777,0.15538986027240753,0.45689573884010315
3.6405630111694336,-0.3247166872024536,-0.2331676185131073,0.12576508522033691,-0.2649270724621274,-1.4119599688105193,-1.6751083892414078,-0.9529627561569214,0.2618388831615448,-0.15265104174613953,-0.041937485337257385,0.11500656604766846,0.7594209313392639
3.660522937774658,-0.3413291573524475,-0.22303986549377441,0.10249514877796173,-0.2801094825028039,-1.4112308043214714,-1.6740165721874223,-0.9488166570663452,0.2764608561992645,-0.15269657969474792,-0.09332755953073502,-0.0039176056161522865,0.7389277219772339
3.680556058883667,-0.44138509035110474,-0.15801697969436646,0.023604586720466614,-0.29657709058989434,-1.4096050245818403,-1.674951285349785,-0.943945050239563,0.2922484576702118,-0.15348738431930542,-0.34255900979042053,0.19709095358848572,0.9047731161117554
3.700546979904175,-0.4309839606285095,-0.1759149432182312,0.05847688019275665,-0.3176592016259157,-1.40632625493095,-1.682455073168484,-0.9371494054794312,0.3123437464237213,-0.15553802251815796,-0.660771906375885,0.37217870354652405,1.0622096061706543
3.72054386138916,-0.4279508590698242,-0.13166004419326782,0.06502038240432739,-0.3421544292201475,-1.4008564966259893,-1.693712998494693,-0.9284639358520508,0.33551740646362305,-0.1593196541070938,-0.7467297911643982,0.5053432583808899,1.1709047555923462
3.7405009269714355,-0.40761637687683105,-0.1284240186214447,0.024170279502868652,-0.3667217150749334,-1.3943458342582826,-1.7036511227203908,-0.9190132021903992,0.3585570454597473,-0.16386450827121735,-0.6287639141082764,0.5101019740104675,1.1086370944976807
3.7604990005493164,-0.3542575240135193,-0.11150011420249939,0.08975984156131744,-0.3903999484752215,-1.3875679185276577,-1.7145784226110616,-0.9092769622802734,0.3805583119392395,-0.16849522292613983,-0.7799619436264038,0.5644770860671997,0.9942818284034729
3.780586004257202,-0.33946001529693604,-0.15587759017944336,0.05154646933078766,-0.4115033603634094,-1.3807060699026898,-1.7266706435419585,-0.9000113606452942,0.3999876379966736,-0.17317427694797516,-0.7079037427902222,0.5850925445556641,0.9205273389816284
3.8004989624023438,-0.2593485116958618,-0.10366278886795044,0.03927801549434662,-0.4311014966741359,-1.3739762901109407,-1.737709250140164,-0.8909659385681152,0.41787177324295044,-0.17765997350215912,-0.6736633777618408,0.5484803318977356,0.7797113656997681
3.8204920291900635,-0.2284361720085144,-0.0949782133102417,0.03118288516998291,-0.44738503885405395,-1.3680840959678948,-1.7480151630892573,-0.8831208348274231,0.4326094090938568,-0.1815124750137329,-0.5057551264762878,0.4640616774559021,0.6176228523254395
3.840527057647705,-0.20393770933151245,-0.05380135774612427,0.004258975386619568,-0.4585248551922715,-1.3604893077244713,-1.7516753669315208,-0.8769491910934448,0.44262582063674927,-0.18719658255577087,-0.050851937383413315,0.44030043482780457,0.4181998074054718
3.8604860305786133,-0.15249663591384888,-0.03546684980392456,-0.017460674047470093,-0.46468457736034086,-1.3523119265907295,-1.7501169957590155,-0.8727109432220459,0.44814085960388184,-0.1937667578458786,-0.05916573852300644,0.3255167603492737,0.22970673441886902
3.8805320262908936,-0.11259466409683228,-0.1155371367931366,0.012631893157958984,-0.4693751143907728,-1.3484871228564768,-1.7551873399495248,-0.8699034452438354,0.4523290693759918,-0.19663763046264648,-0.48414283990859985,0.2771531343460083,0.14829406142234802
3.900515079498291,-0.12081712484359741,-0.0722639262676239,-0.0171281099319458,-0.47465263717764117,-1.3500113927376698,-1.768465427455708,-0.8678608536720276,0.4570295214653015,-0.194785937666893,-0.7252961993217468,0.21913154423236847,0.07858410477638245
3.920483112335205,-0.18497443199157715,0.02793225646018982,-0.026366472244262695,-0.4772369602470043,-1.3500193272521135,-1.781308723494541,-0.8667070865631104,0.4593266248703003,-0.1945197731256485,-0.3393275737762451,0.38240179419517517,-0.04750536382198334
3.9404759407043457,-0.1278650164604187,0.08301210403442383,-0.043588608503341675,-0.47691547660774314,-1.341875677276404,-1.7827881521233302,-0.8652378916740417,0.459041029214859,-0.20160487294197083,0.15456444025039673,0.45206403732299805,-0.03132849186658859
3.960510015487671,-0.06765252351760864,0.07036757469177246,-0.04419891536235809,-0.4750043762232545,-1.3324045632008135,-1.779454791791501,-0.8641405701637268,0.45734232664108276,-0.2099972516298294,0.10236281901597977,0.3538614809513092,-0.04906854405999184
3.9804768562316895,-0.07848680019378662,0.003011763095855713,-0.009801551699638367,-0.4750941177587026,-1.326061993744146,-1.781352709000482,-0.8627515435218811,0.457422137260437,-0.21546392142772675,-0.2782944440841675,0.4095363914966583,0.013418596237897873
4.000470161437988,-0.11003100872039795,0.033776044845581055,0.012624174356460571,-0.47819959943782414,-1.3204723419256221,-1.7902271562935883,-0.8601534366607666,0.46018147468566895,-0.21993009746074677,-0.49925902485847473,0.549424946308136,0.07394111156463623
4.0204949378967285,-0.10487151145935059,0.10514482855796814,-0.020856738090515137,-0.4818943694661451,-1.3113526187021791,-1.798136679085259,-0.8564627170562744,0.4634586274623871,-0.22732745110988617,-0.19438275694847107,0.7338044047355652,0.13254095613956451
4.040467977523804,-0.06511133909225464,0.17424002289772034,-0.08541630208492279,-0.48518231783115306,-1.2953319932530651,-1.7955354052610168,-0.8512399196624756,0.46636962890625,-0.24060294032096863,0.26692232489585876,0.6983947157859802,0.24198667705059052
4.06046199798584,-0.07099318504333496,0.14880722761154175,-0.037250518798828125,-0.48959931942517937,-1.279620517554659,-1.789836875343816,-0.8453733921051025,0.4702723026275635,-0.2533531188964844,-0.017029233276844025,0.6757635474205017,0.31189218163490295
4.080463886260986,-0.1333848237991333,0.03137493133544922,0.059680163860321045,-0.49670246646733696,-1.2652259601005647,-1.7930706525969815,-0.8384321928024292,0.4765290915966034,-0.26448363065719604,-0.44212689995765686,0.8922764658927917,0.2840176224708557
4.1004979610443115,-0.020302534103393555,0.0539412796497345,0.046749264001846313,-0.5047227026315058,-1.2513675636102748,-1.8010400385233412,-0.8310310244560242,0.48356473445892334,-0.2748681306838989,-0.3837226927280426,0.8611150979995728,0.2902940809726715
4.120450973510742,0.05096226930618286,0.12379339337348938,-0.00722891092300415,-0.511012426398987,-1.2349893173169328,-1.8018169947868825,-0.8235300183296204,0.48906058073043823,-0.28743353486061096,0.13015471398830414,0.8191800713539124,0.2930167615413666
4.140458106994629,0.017406105995178223,0.1381208598613739,-0.020946919918060303,-0.5149534188067094,-1.2155026007622627,-1.7953399130364076,-0.8159595727920532,0.4924943149089813,-0.3027530312538147,0.1426316648721695,0.8469937443733215,0.26578450202941895
4.160457134246826,0.003651261329650879,0.012536376714706421,0.08312347531318665,-0.5207715918715408,-1.1963515852715116,-1.793999901594075,-0.8073316216468811,0.4975495934486389,-0.31726956367492676,-0.24272631108760834,0.9903890490531921,0.3235703110694885
4.180520057678223,0.03641998767852783,0.019376277923583984,0.06979978084564209,-0.5292489204577002,-1.1786123530204655,-1.7982222508130243,-0.7976504564285278,0.5048851370811462,-0.3299163579940796,-0.3409710228443146,0.9900173544883728,0.339169979095459
4.2004430294036865,0.0671113133430481,0.09496277570724487,0.02502623200416565,-0.5373708134236536,-1.1597747221894892,-1.7993363406735747,-0.7875092029571533,0.5118791460990906,-0.34323298931121826,-0.019998295232653618,0.9548465609550476,0.3637678921222687
4.220494031906128,0.029876410961151123,0.09936916828155518,0.038280189037323,-0.5433893612766321,-1.1365986660939604,-1.793535270998457,-0.7765347957611084,0.5170401334762573,-0.360088050365448,0.13393065333366394,1.1151984930038452,0.380235493183136
4.240478992462158,0.013617932796478271,0.005087375640869141,0.10770326852798462,-0.5490116303551962,-1.1105851884859128,-1.7889766679828405,-0.7642893195152283,0.5218443870544434,-0.3788672089576721,-0.029231984168291092,1.24642014503479,0.31331294775009155
4.2604079246521,0.06431257724761963,0.006568551063537598,0.08522790670394897,-0.5563787700279406,-1.0854642786700441,-1.7886612666813761,-0.7511106729507446,0.5281146168708801,-0.39614102244377136,-0.3002462685108185,1.2252707481384277,0.3266333043575287
4.28038215637207,0.06308609247207642,-0.010323643684387207,0.10607796907424927,-0.565823261541315,-1.0632601906372028,-1.793773490246198,-0.7377381920814514,0.5361109375953674,-0.41027718782424927,-0.5170113444328308,1.3020068407058716,0.32834702730178833
4.3004419803619385,0.041972458362579346,-0.010323703289031982,0.1295120120048523,-0.576506493122558,-1.040545202967907,-1.8020471310799349,-0.7232468128204346,0.5450984239578247,-0.4240066111087799,-0.5706376433372498,1.4266607761383057,0.24739517271518707
4.320457935333252,0.06624889373779297,-0.002370178699493408,0.13397327065467834,-0.5846959849955446,-1.0143516791125124,-1.8080057577974151,-0.7080792784690857,0.5519459247589111,-0.44043076038360596,-0.23502953350543976,1.5117923021316528,0.21835342049598694
4.340457916259766,0.1259433627128601,0.013130903244018555,0.11543375253677368,-0.5893532934036154,-0.98414000392745,-1.8073510688183305,-0.6923038363456726,0.5558235049247742,-0.4601908326148987,-0.05953064560890198,1.4630134105682373,0.20027069747447968
4.36042594909668,0.13674938678741455,-0.05774962902069092,0.1582869291305542,-0.5940638721001384,-0.9555013075686607,-1.8075758773064983,-0.6766968965530396,0.5597332715988159,-0.4783095121383667,-0.25209012627601624,1.4424344301223755,0.17764519155025482
4.380423069000244,0.1116487979888916,-0.06710559129714966,0.16238391399383545,-0.6006180525896206,-0.9306617573948015,-1.8138433164658792,-0.6616518497467041,0.5651524662971497,-0.49276721477508545,-0.5548250079154968,1.425431251525879,0.029390526935458183
4.400480031967163,0.1383543610572815,-0.08368426561355591,0.1862890124320984,-0.6088627981692979,-0.9094294956990709,-1.8267510622075789,-0.647341787815094,0.5719349980354309,-0.5038244128227234,-0.7730808258056641,1.430397391319275,-0.012553498148918152
4.420439004898071,0.19700050354003906,-0.09412336349487305,0.16827327013015747,-0.6178595275359977,-0.8905553533214198,-1.8411628147955506,-0.6336917281150818,0.5792917609214783,-0.5126945972442627,-0.6746485829353333,1.3274332284927368,-0.011510100215673447
4.440451145172119,0.21008175611495972,-0.059408724308013916,0.16896265745162964,-0.6242752239128028,-0.8701365804176938,-1.8511352471457396,-0.6202380061149597,0.5845093727111816,-0.5231191515922546,-0.37594830989837646,1.3061670064926147,0.004861646331846714
4.460447072982788,0.21894752979278564,-0.07038640975952148,0.1902693510055542,-0.6275783979456989,-0.8484546348558647,-1.8570532080455961,-0.6072990298271179,0.587186336517334,-0.5351637005805969,-0.24783611297607422,1.2237944602966309,-0.05705776438117027
4.4804370403289795,0.23134452104568481,-0.10545498132705688,0.19985723495483398,-0.6301115001176814,-0.8290070759879109,-1.8630632343261055,-0.5956786274909973,0.5892348289489746,-0.545865535736084,-0.30517876148223877,1.0702893733978271,-0.08885694295167923
4.500494003295898,0.23663055896759033,-0.09685730934143066,0.2072121500968933,-0.6336011482280771,-0.8145480124915159,-1.8724665885677674,-0.5862246751785278,0.5920507311820984,-0.5530068278312683,-0.4944823980331421,0.9571782946586609,-0.14586585760116577
4.520406007766724,0.24465417861938477,-0.10860782861709595,0.23061621189117432,-0.6395609385500447,-0.8039026638378098,-1.886051653115237,-0.5777535438537598,0.5968432426452637,-0.5567575693130493,-0.7163493633270264,0.9083561301231384,-0.22166819870471954
4.540438175201416,0.2500562071800232,-0.08560365438461304,0.21858400106430054,-0.6457826513208754,-0.7977544051692459,-1.9044064763593958,-0.5716503858566284,0.6018236875534058,-0.557695209980011,-0.7327223420143127,0.8371894955635071,-0.3174039423465729
4.560399055480957,0.2720819115638733,-0.08526617288589478,0.18802297115325928,-0.6505272569315877,-0.7918642323212132,-1.9215994450332996,-0.5663171410560608,0.6056060791015625,-0.5590404272079468,-0.563869833946228,0.7826794981956482,-0.31031352281570435
4.580456972122192,0.2954537272453308,-0.07449966669082642,0.179085373878479,-0.652991807004741,-0.7861224276215021,-1.9360282870819614,-0.5620400309562683,0.6075654029846191,-0.561226487159729,-0.45774394273757935,0.6688201427459717,-0.3089473843574524
4.600393056869507,0.3079048991203308,-0.10856884717941284,0.1860097050666809,-0.6551020650263022,-0.7828472926441761,-1.9501544023661166,-0.5592934489250183,0.6092401742935181,-0.5621541142463684,-0.5010827779769897,0.5271135568618774,-0.3373880684375763
4.620463848114014,0.30046766996383667,-0.10862678289413452,0.18173319101333618,-0.6578719676091065,-0.7829217663967641,-1.9655922328296644,-0.5581427812576294,0.6114343404769897,-0.5609140396118164,-0.5541291832923889,0.43456876277923584,-0.34548819065093994
4.640419960021973,0.2819793224334717,-0.09735774993896484,0.17317068576812744,-0.6611827662639865,-0.7857656506389744,-1.9831639831363455,-0.5583007335662842,0.6140508055686951,-0.5578905344009399,-0.6689692139625549,0.33746910095214844,-0.38790103793144226
4.6603920459747314,0.2823137640953064,-0.07298952341079712,0.14038735628128052,-0.6655401324527814,-0.7926310226767977,-2.0023237171852375,-0.5602067708969116,0.6174840927124023,-0.5521610379219055,-0.7138063311576843,0.1280881017446518,-0.39250072836875916
4.680402994155884,0.22637927532196045,0.08589339256286621,0.06433355808258057,-0.6674513507945267,-0.8038328162892,-2.0211967447805033,-0.565505862236023,0.6189863085746765,-0.5450311899185181,-0.4088733196258545,-0.029128242284059525,-0.4560609757900238
4.7004289627075195,0.14298796653747559,0.1575259566307068,-0.015837550163269043,-0.6653255676103356,-0.8107290269084748,-2.0324416704091073,-0.5702035427093506,0.6173152923583984,-0.5420238375663757,-0.14392970502376556,0.01222203765064478,-0.3412524163722992
4.720177173614502,0.12958037853240967,0.20048683881759644,-0.06556999683380127,-0.6625456403173585,-0.8172672223963395,-2.040715056979975,-0.5749844312667847,0.6151258945465088,-0.5394562482833862,-0.16630111634731293,-0.16201251745224,-0.28176119923591614
4.740408897399902,0.13906431198120117,0.21184194087982178,-0.13131624460220337,-0.662426361998226,-0.8256206479016712,-2.0471995680195696,-0.579524576663971,0.6150318384170532,-0.5346841812133789,-0.1926206648349762,-0.28288257122039795,-0.08067744970321655
4.760436058044434,0.12967133522033691,0.1967260241508484,-0.20190125703811646,-0.6645302559584787,-0.8340872066981714,-2.050384384570419,-0.5830709338188171,0.6166894435882568,-0.5288878679275513,-0.09466015547513962,-0.34706440567970276,0.061868101358413696
4.780390977859497,0.11204034090042114,0.20539146661758423,-0.24564886093139648,-0.6667244749975791,-0.8391972116058899,-2.0478232734946733,-0.5847576260566711,0.6184152364730835,-0.524996280670166,0.09062139689922333,-0.33335497975349426,0.2504635751247406
4.800534963607788,0.09460759162902832,0.15124499797821045,-0.23148739337921143,-0.6695536137729599,-0.8397508787576684,-2.0395966172029687,-0.5837433338165283,0.6206360459327698,-0.5235021710395813,0.18225809931755066,-0.24794837832450867,0.3918106257915497
4.820433139801025,0.09566807746887207,0.0902719497680664,-0.22518116235733032,-0.6726892962379809,-0.8370851552188356,-2.0269597103766817,-0.5808975696563721,0.6230916380882263,-0.5237507224082947,0.34098395705223083,-0.2727460563182831,0.5102407336235046
4.840354919433594,0.08146822452545166,0.04868137836456299,-0.19540739059448242,-0.6750458307239071,-0.8314973758343117,-2.0086143792019655,-0.5768753290176392,0.624933123588562,-0.5259976983070374,0.5842340588569641,-0.3066280484199524,0.6110246181488037
4.860547065734863,0.05812793970108032,-0.01670527458190918,-0.13888633251190186,-0.6750493235903989,-0.8229931704512797,-1.9849122677482864,-0.5723797082901001,0.6249358057975769,-0.5308829545974731,0.7761863470077515,-0.3406151831150055,0.6389809250831604
4.880334854125977,0.05326998233795166,-0.04005920886993408,-0.10151195526123047,-0.6725406621941328,-0.8137854462772167,-1.957534523826486,-0.5686051249504089,0.6229754090309143,-0.537205696105957,0.9480569958686829,-0.4442386031150818,0.6488655805587769
4.900294065475464,0.016055166721343994,-0.06141000986099243,-0.06753146648406982,-0.6687085362856436,-0.8049528449134016,-1.927922526056749,-0.565554678440094,0.6199731826782227,-0.5438576936721802,0.9787722826004028,-0.5110911130905151,0.6658634543418884
4.919979095458984,-0.035316407680511475,-0.05509805679321289,-0.036087751388549805,-0.6648509640873522,-0.7971139613017394,-1.89887256965643,-0.5629807114601135,0.6169418692588806,-0.54994136095047,0.9336012005805969,-0.4824431836605072,0.6579934358596802
4.940346956253052,-0.0756344199180603,-0.04093581438064575,0.002884984016418457,-0.662253014793393,-0.7889985823594798,-1.8709760190430327,-0.559634804725647,0.6148951649665833,-0.5556194186210632,0.8042814135551453,-0.4337838590145111,0.691683292388916
4.960290908813477,-0.11499148607254028,-0.02278447151184082,0.03797036409378052,-0.6608109362168945,-0.7815782464693808,-1.8460456589027987,-0.5561205148696899,0.613757312297821,-0.560385525226593,0.7120990753173828,-0.34080782532691956,0.5886926651000977
4.980362892150879,-0.1294822096824646,-0.02288895845413208,0.08477413654327393,-0.6589539673569773,-0.774473652087668,-1.825221235105418,-0.5529214143753052,0.6122901439666748,-0.5651361346244812,0.5671623349189758,-0.23707681894302368,0.4642648696899414
5.0002899169921875,-0.09564477205276489,-0.059375762939453125,0.11913752555847168,-0.6577039437788769,-0.7691874880011561,-1.8090873902312938,-0.5504581928253174,0.6113013625144958,-0.5686004757881165,0.4414122700691223,-0.2323846071958542,0.3746635615825653
5.020344972610474,-0.08736509084701538,-0.08025228977203369,0.12013900279998779,-0.6569553773136545,-0.7653263482526975,-1.7955764423087446,-0.5485754609107971,0.6107087731361389,-0.5710514187812805,0.3433026075363159,-0.20415464043617249,0.3410562574863434
5.040349006652832,-0.09932595491409302,-0.08933275938034058,0.13364458084106445,-0.657053565223536,-0.7626537387395508,-1.7854440994197824,-0.547005832195282,0.6107865571975708,-0.572472095489502,0.20515282452106476,-0.155849426984787,0.24200491607189178
5.06046199798584,-0.09054213762283325,-0.09750378131866455,0.13329052925109863,-0.6578342290761559,-0.7618606841017298,-1.7791877886447431,-0.5462223887443542,0.6114044785499573,-0.5725606083869934,0.08420183509588242,-0.156012162566185,0.18242940306663513
5.080379009246826,-0.08612853288650513,-0.09294188022613525,0.11892426013946533,-0.6594749046882072,-0.7629200084795326,-1.7756568404971569,-0.5461346507072449,0.612701952457428,-0.5712558031082153,0.0008394604083150625,-0.1631484478712082,0.13602520525455475
5.100397109985352,-0.1039244532585144,-0.08993852138519287,0.09027427434921265,-0.6614490988624584,-0.7650509034085262,-1.774230130381031,-0.5465119481086731,0.6142609715461731,-0.5692171454429626,-0.07005247473716736,-0.14868420362472534,0.07775047421455383
5.120376110076904,-0.10602778196334839,-0.08186537027359009,0.06142723560333252,-0.6634601766316547,-0.7681511388751255,-1.7749953198385164,-0.5474146008491516,0.6158466935157776,-0.566630482673645,-0.1142667680978775,-0.11481953412294388,0.0273194070905447
5.140419006347656,-0.10751187801361084,-0.07714354991912842,0.03497946262359619,-0.6655641550381972,-0.7713880202405834,-1.777152601683497,-0.5483413934707642,0.6175029873847961,-0.5639254450798035,-0.16103744506835938,-0.07904830574989319,-0.008115656673908234
5.160400867462158,-0.11657166481018066,-0.09325975179672241,0.0014262199401855469,-0.6677230688842137,-0.7747612278630193,-1.780676301529573,-0.5493066310882568,0.6191996932029724,-0.5611186027526855,-0.19575080275535583,-0.040249694138765335,-0.0365690216422081
5.180413007736206,-0.12565112113952637,-0.11113452911376953,-0.02728891372680664,-0.6695596044409072,-0.7789682886947902,-1.7862742637143392,-0.5508626103401184,0.620640754699707,-0.5579924583435059,-0.2307322770357132,0.015703855082392693,-0.098882295191288
5.20030403137207,-0.13988572359085083,-0.11166083812713623,-0.043588221073150635,-0.6703283142716128,-0.782369687621067,-1.793035292500636,-0.5524207949638367,0.6212432980537415,-0.5557769536972046,-0.21090611815452576,0.12761734426021576,-0.1475939005613327
5.220577001571655,-0.13978058099746704,-0.11890643835067749,-0.05251497030258179,-0.6705785047007772,-0.7842408300003054,-1.8009950602054385,-0.5533499121665955,0.6214393377304077,-0.5546322464942932,-0.2741236984729767,0.2251993715763092,-0.22478851675987244
5.240342140197754,-0.1300443410873413,-0.1300618052482605,-0.05690491199493408,-0.6701905159788076,-0.7861654740439217,-1.8119877240517663,-0.5545869469642639,0.6211352944374084,-0.5537365078926086,-0.3457428514957428,0.31231528520584106,-0.3198152184486389
5.263620853424072,-0.10776710510253906,-0.0689469575881958,-0.060933470726013184,-0.6695633937860228,-0.7874858111255948,-1.8395168262621502,-0.5555934906005859,0.6206437349319458,-0.5532785654067993,-0.3642757534980774,0.49774062633514404,-0.4576234519481659
5.284244060516357,-0.10681527853012085,-0.04763311147689819,-0.03753066062927246,-0.6677193753631108,-0.7858978506266706,-1.8550228340938704,-0.5555229783058167,0.6191967725753784,-0.5549681186676025,-0.3798203766345978,0.6179341673851013,-0.5369096994400024
5.3074798583984375,-0.08408600091934204,-0.03985702991485596,-0.00225144624710083,-0.6654553963919572,-0.7837233266468553,-1.8726184667012962,-0.5553030967712402,0.6174174547195435,-0.5571662783622742,-0.4421100318431854,0.6885825395584106,-0.5920884609222412
5.328763961791992,-0.05231940746307373,-0.039455294609069824,0.027547180652618408,-0.6635107308906704,-0.7816574919605129,-1.8921550853143176,-0.5549956560134888,0.6158865094184875,-0.5591633915901184,-0.49733686447143555,0.7181222438812256,-0.6426820158958435
5.347409963607788,-0.030520141124725342,-0.026064634323120117,0.03416025638580322,-0.6614676417287768,-0.7803130847182713,-1.9129929757308233,-0.5551273822784424,0.6142756342887878,-0.5608020424842834,-0.5224331617355347,0.7020167708396912,-0.6766514182090759
5.367552042007446,-0.02676081657409668,-0.00540614128112793,0.043004751205444336,-0.6592482523970833,-0.7798951229354021,-1.9350745720400422,-0.5558502674102783,0.6125227808952332,-0.5620019435882568,-0.5527315139770508,0.7117260098457336,-0.7251152396202087
5.387660026550293,-0.02968454360961914,0.006533503532409668,0.052623748779296875,-0.6571366302828389,-0.7800539722980119,-1.9587982672049442,-0.5568480491638184,0.6108523011207581,-0.5628318786621094,-0.6138479113578796,0.7280644178390503,-0.7589972019195557
5.407417058944702,-0.01956331729888916,0.02278423309326172,0.05329596996307373,-0.65559560731753,-0.7806217828502859,-1.9835702930065577,-0.5578292608261108,0.6096314787864685,-0.5631837248802185,-0.6594654321670532,0.7200566530227661,-0.7496768236160278
5.427340030670166,-0.01597541570663452,0.047994136810302734,0.02585059404373169,-0.6543035670221029,-0.7825139373615105,-2.0087821750295363,-0.5594488382339478,0.6086068153381348,-0.5626853108406067,-0.6347852945327759,0.6208410859107971,-0.7746503353118896
5.448338985443115,-0.034501612186431885,0.08128130435943604,-0.005563914775848389,-0.6511630033144385,-0.7848899756185986,-2.0321764447610224,-0.5621322989463806,0.6061118245124817,-0.5627039074897766,-0.43974876403808594,0.5736411213874817,-0.7511272430419922
5.468106985092163,-0.04227864742279053,0.11188191175460815,-0.01557767391204834,-0.645641048114365,-0.7846163265210655,-2.0504417271007767,-0.564334511756897,0.6017105579376221,-0.5652176141738892,-0.2165108323097229,0.560287594795227,-0.6777620911598206
5.487513065338135,-0.032647788524627686,0.10629713535308838,-0.007173657417297363,-0.6385722284770367,-0.7819383333978215,-2.0648593119467673,-0.5658019185066223,0.5960496068000793,-0.5697306394577026,-0.12491685152053833,0.5723983645439148,-0.6376572251319885
5.508182048797607,0.002025008201599121,0.04811358451843262,0.029044806957244873,-0.632090727767144,-0.7780725217520292,-2.0779764857227825,-0.5662949681282043,0.5908328294754028,-0.5746533274650574,-0.18227854371070862,0.5769056081771851,-0.5639740824699402
5.528019905090332,0.05185955762863159,0.005482017993927002,0.04880106449127197,-0.6273876493871801,-0.7750482751752396,-2.0912502245436877,-0.5664926767349243,0.587031900882721,-0.5783420205116272,-0.20265549421310425,0.5026876330375671,-0.5481859445571899
5.547915935516357,0.10061436891555786,-0.0027219653129577637,0.041797637939453125,-0.6215881652444188,-0.7727045675129328,-2.102612407871838,-0.5675027966499329,0.5823270082473755,-0.5820960998535156,-0.006643529050052166,0.3973533809185028,-0.5026741623878479
5.56787896156311,0.1259990930557251,-0.010320782661437988,0.05249035358428955,-0.6134656676940429,-0.7694896018534064,-2.109680670102956,-0.5689006447792053,0.5757046341896057,-0.5872955918312073,0.18045814335346222,0.3394397795200348,-0.4840868413448334
5.588114976882935,0.13653945922851562,-0.02068239450454712,0.05761796236038208,-0.604221939238364,-0.7650773670732055,-2.1136418535137675,-0.5699653625488281,0.5681219696998596,-0.5936134457588196,0.23260945081710815,0.33173319697380066,-0.3912912607192993
5.606796979904175,0.14991766214370728,-0.021413981914520264,0.06748348474502563,-0.5961774578866423,-0.7595834494014635,-2.1162905626039246,-0.5698243379592896,0.5614835023880005,-0.6000304818153381,0.1959540694952011,0.3719191253185272,-0.30968108773231506
5.627871036529541,0.17812299728393555,-0.043573617935180664,0.08823490142822266,-0.5908258572321541,-0.7533532292385386,-2.118315979928657,-0.5681224465370178,0.5570470690727234,-0.6057520508766174,0.07378389686346054,0.3502487540245056,-0.19984976947307587
5.644680976867676,0.18233948945999146,-0.03882920742034912,0.09253895282745361,-0.5873219151784357,-0.7488405319563647,-2.12039643416752,-0.5667083859443665,0.5541337132453918,-0.6097356081008911,0.09986548125743866,0.19080686569213867,-0.1684093028306961
5.667484998703003,0.13815855979919434,0.0432354211807251,0.03737825155258179,-0.5815006731142672,-0.7478255563473936,-2.1207585664445023,-0.5682733058929443,0.5492785573005676,-0.6126651167869568,0.3468994200229645,-0.07487247884273529,-0.2981487214565277
5.687720060348511,0.047643959522247314,0.16192364692687988,-0.06381571292877197,-0.5678056503385506,-0.751319037167172,-2.1187128289661668,-0.5754912495613098,0.5377833247184753,-0.616115927696228,0.7950535416603088,-0.39733484387397766,-0.4712711274623871
5.706335067749023,-0.01975703239440918,0.3302242159843445,-0.25614219903945923,-0.5470600052440974,-0.7578633692746872,-2.111044898272288,-0.5870545506477356,0.5201785564422607,-0.6203073859214783,1.143126130104065,-0.5959821343421936,-0.47401702404022217
5.728886127471924,-0.1401916742324829,0.40638047456741333,-0.2537088394165039,-0.524875673104628,-0.757908612318481,-2.0975725994593164,-0.5948699712753296,0.5011054277420044,-0.6285085678100586,1.1325938701629639,0.0009862500010058284,-0.1229308694601059
5.747441053390503,-0.1172606348991394,0.2529987394809723,-0.08696228265762329,-0.515520910555768,-0.7450751099767013,-2.0846324627797,-0.5899079442024231,0.49298813939094543,-0.6395086050033569,0.2542051076889038,0.5434932112693787,0.2038259506225586
5.766872882843018,0.06049984693527222,0.1768072545528412,-0.04210710525512695,-0.5186856236919716,-0.7316579848929933,-2.0800642666742792,-0.5802294611930847,0.49573907256126404,-0.6462016105651855,0.016085751354694366,0.5619097948074341,0.32992100715637207
5.788639068603516,0.19970476627349854,0.14553317427635193,-0.07519835233688354,-0.5191350975089986,-0.7146558825434801,-2.0663501818599066,-0.569013237953186,0.4961293637752533,-0.655804455280304,0.8897578120231628,0.4228794574737549,0.549069881439209
5.8089799880981445,0.25868844985961914,0.12139728665351868,-0.07261598110198975,-0.5052144617089004,-0.6927584715836392,-2.0332016504570896,-0.5588746070861816,0.48399510979652405,-0.6733556985855103,1.9480987787246704,0.12253931164741516,0.7680824398994446
5.823829174041748,0.2535814046859741,0.06552782654762268,-0.0055921077728271484,-0.48388155274834405,-0.6725966534886461,-1.9889687947866899,-0.5514940023422241,0.46521860361099243,-0.6924059391021729,2.0392916202545166,-0.20527450740337372,0.8668848872184753
5.842073917388916,0.17927879095077515,-0.06576776504516602,0.06473338603973389,-0.46493710875731387,-0.659940294502558,-1.9477442406740015,-0.5479922294616699,0.44836658239364624,-0.7061671018600464,1.7493596076965332,-0.3813597857952118,0.8590389490127563
5.8632800579071045,0.10780870914459229,-0.0028044581413269043,0.027947962284088135,-0.44855818400241926,-0.6500092584607016,-1.9087148173230268,-0.54532390832901,0.43366679549217224,-0.7173247933387756,1.6991757154464722,-0.3064196705818176,0.9066088199615479
5.88562798500061,0.04602932929992676,0.018934190273284912,0.04822814464569092,-0.43442085748034037,-0.637342102935667,-1.8701921183081422,-0.539788544178009,0.4208851158618927,-0.7290294766426086,1.4640625715255737,-0.13406673073768616,1.033244013786316
5.906414031982422,0.04503732919692993,0.02723422646522522,0.01285243034362793,-0.42617805639703954,-0.6261471569325286,-1.8357135924508294,-0.5336084365844727,0.4133937358856201,-0.7378126978874207,1.1102571487426758,-0.19410200417041779,0.989429235458374
5.9282920360565186,0.02945917844772339,0.0631614625453949,-0.04699903726577759,-0.420044380746224,-0.6179495647356236,-1.8047037335414933,-0.5290013551712036,0.40780097246170044,-0.7442148923873901,1.0729308128356934,-0.23939768970012665,0.9669274687767029
5.943794012069702,0.007886826992034912,0.05661889910697937,-0.05224871635437012,-0.41359922677191113,-0.6099204239436128,-1.7734295438283345,-0.5245036482810974,0.40190765261650085,-0.7505772113800049,1.0647059679031372,-0.23900894820690155,1.0308706760406494
5.965704917907715,0.012325286865234375,0.03200387954711914,0.032798945903778076,-0.40919043214343964,-0.6011552771960186,-1.7429633102145063,-0.5189018249511719,0.39786672592163086,-0.7565996050834656,0.9606144428253174,-0.07527922838926315,0.997978925704956
5.988491058349609,0.02706778049468994,-0.032320261001586914,0.07090926170349121,-0.4074371767656317,-0.5912408117613814,-1.7145548037812512,-0.5117632150650024,0.396257609128952,-0.7622849345207214,0.5807125568389893,-0.11103340238332748,1.059028148651123
6.005807876586914,0.03521353006362915,-0.025696247816085815,0.0760267972946167,-0.41019577891372716,-0.5846996935203209,-1.6901512618315209,-0.5061608552932739,0.3987888693809509,-0.7647016644477844,0.4544932544231415,-0.20059674978256226,0.9652016758918762
6.02561092376709,-0.008562266826629639,-0.006043732166290283,0.04863548278808594,-0.41299369399585323,-0.5800637757555405,-1.6684005137371734,-0.5019968152046204,0.401353120803833,-0.7661037445068359,0.45053982734680176,-0.21298444271087646,0.8562463521957397
6.04460597038269,-0.0028788745403289795,-0.009322762489318848,0.05237555503845215,-0.41397508571817393,-0.5764739509211765,-1.6479492259750712,-0.4990284740924835,0.40225180983543396,-0.7675702571868896,0.4798237681388855,-0.24179613590240479,0.7809330224990845
6.0653979778289795,0.012149721384048462,-0.0037400126457214355,0.07106906175613403,-0.4149774625216363,-0.5734605864528016,-1.6281354723477408,-0.49649423360824585,0.40316930413246155,-0.768731415271759,0.4197998344898224,-0.26293790340423584,0.7837751507759094
6.086637020111084,-0.013280987739562988,0.0036854147911071777,0.044960081577301025,-0.4163011929291099,-0.5713245693773029,-1.6094992966882025,-0.4945620596408844,0.40438032150268555,-0.7693405747413635,0.4276326298713684,-0.2700100839138031,0.7211538553237915
6.10637903213501,-0.038200974464416504,0.02741318941116333,0.015241384506225586,-0.4157836744775664,-0.5690742415911819,-1.5909853896322905,-0.4929422438144684,0.4039069712162018,-0.7706277370452881,0.5293266773223877,-0.2634495794773102,0.6845949292182922
6.124261856079102,-0.05723065137863159,0.034916698932647705,0.01736670732498169,-0.4129373288970668,-0.5660988520827238,-1.5720420745175743,-0.491261750459671,0.4013015031814575,-0.7730581760406494,0.6227781772613525,-0.19286631047725677,0.6370558738708496
6.1451640129089355,-0.06251060962677002,0.013341128826141357,0.04881560802459717,-0.40989037770013986,-0.5619086149188841,-1.5537722202510265,-0.488667368888855,0.39850878715515137,-0.7761410474777222,0.5140573978424072,-0.1231989935040474,0.6126347780227661
6.165124893188477,-0.060577571392059326,-0.00967225432395935,0.06545984745025635,-0.4088625401520046,-0.5576774503893349,-1.538072781222211,-0.4855955243110657,0.3975658714771271,-0.7785488367080688,0.36168378591537476,-0.08637821674346924,0.5552703738212585
6.185379981994629,-0.047797560691833496,-0.011639386415481567,0.042497217655181885,-0.4079800172719018,-0.5539084432069039,-1.5238440003512954,-0.4828421175479889,0.3967559337615967,-0.7806716561317444,0.44073379039764404,-0.10544520616531372,0.521565318107605
6.206279993057251,-0.03918620944023132,0.004470467567443848,0.03141283988952637,-0.40479425204148406,-0.5503197701745829,-1.5083998559222114,-0.4806959927082062,0.3938296437263489,-0.7834727168083191,0.5923672914505005,-0.15358379483222961,0.5041541457176208
6.225723028182983,-0.0652681291103363,0.0167996883392334,0.028300762176513672,-0.3967898007742398,-0.5468426126043449,-1.4910337001966845,-0.4795927405357361,0.3864595592021942,-0.7878069281578064,0.9297158122062683,-0.1691141128540039,0.4670972526073456
6.244703054428101,-0.08500754833221436,0.022378921508789062,0.018606722354888916,-0.384468733923778,-0.5421372542504543,-1.4710476847921201,-0.47830116748809814,0.37506669759750366,-0.7940736413002014,1.0268038511276245,-0.11670318990945816,0.4587235450744629
6.262405872344971,-0.0801439881324768,-0.03224813938140869,0.0703960657119751,-0.3727114182952812,-0.5374158504306296,-1.4526028380694909,-0.4767712950706482,0.3641420304775238,-0.8000560402870178,0.8520753383636475,-0.08872268348932266,0.42069733142852783
6.282258987426758,-0.0536043643951416,-0.07607805728912354,0.09104478359222412,-0.36462138354392,-0.533475178308428,-1.436641932244363,-0.4750974178314209,0.35659560561180115,-0.8044389486312866,0.6281907558441162,-0.10962414741516113,0.43748238682746887
6.304780006408691,-0.046679288148880005,-0.06233936548233032,0.05369842052459717,-0.35817176639255255,-0.5312030689682994,-1.4220432895698663,-0.4744236469268799,0.35056260228157043,-0.8074825406074524,0.6638628244400024,-0.17986689507961273,0.4214181900024414
6.325728893280029,-0.06546449661254883,-0.04374575614929199,0.00901859998703003,-0.3496876318768401,-0.5293819094966793,-1.4057930743172107,-0.47443723678588867,0.3426043689250946,-0.8108831644058228,0.8376131653785706,-0.19152584671974182,0.45926323533058167
6.344451904296875,-0.10686346888542175,-0.05884942412376404,0.01448523998260498,-0.3396171652338181,-0.5272695669012927,-1.3886428381319018,-0.47443538904190063,0.33312615752220154,-0.8148239254951477,0.8109157681465149,-0.1773463785648346,0.4227346181869507
6.3654420375823975,-0.13182270526885986,-0.10162532329559326,0.038790345191955566,-0.3311878639465398,-0.525865675566244,-1.373812065160037,-0.4746836721897125,0.32516658306121826,-0.8178887963294983,0.624918520450592,-0.17470550537109375,0.36838582158088684
6.386276006698608,-0.1547306478023529,-0.12205559015274048,0.012286663055419922,-0.3248198746870286,-0.5257766564667462,-1.3620954989962621,-0.4756404757499695,0.3191380798816681,-0.8197054862976074,0.5031784772872925,-0.19780737161636353,0.26899150013923645
6.405245065689087,-0.16609475016593933,-0.08651125431060791,-0.04047346115112305,-0.3185080793088008,-0.5269214609285504,-1.353119099398758,-0.47758200764656067,0.313150018453598,-0.820885181427002,0.4727453291416168,-0.1932458132505417,0.15199019014835358
6.425282001495361,-0.16260498762130737,-0.07411351799964905,-0.06879723072052002,-0.31195180983107607,-0.5282707912515416,-1.3465976994813995,-0.4797137677669525,0.30691683292388916,-0.8219956159591675,0.39646098017692566,-0.13569648563861847,0.06452895700931549
6.445117950439453,-0.1463727056980133,-0.09064018726348877,-0.062303781509399414,-0.30676307248584084,-0.5283934130950847,-1.3423695533689086,-0.4806109666824341,0.30197441577911377,-0.8233010172843933,0.2582244277000427,0.0065713427029550076,0.03329687565565109
6.465053081512451,-0.10528430342674255,-0.09566056728363037,-0.026811838150024414,-0.30356374444544704,-0.5255446729554532,-1.3394737502886513,-0.47874587774276733,0.29892289638519287,-0.8254983425140381,0.17249560356140137,0.18086716532707214,0.04447777569293976
6.484827041625977,-0.051849693059921265,-0.11534544825553894,-0.0004010796546936035,-0.301311043262385,-0.5201747212542999,-1.3369425160895556,-0.4746395945549011,0.29677245020866394,-0.8286394476890564,0.14222872257232666,0.2653835415840149,0.04434005171060562
6.504873991012573,-0.008463382720947266,-0.1294788420200348,0.01632392406463623,-0.2995258081282388,-0.5141330474750242,-1.3354216904732918,-0.46988439559936523,0.29506716132164,-0.831951916217804,0.0874064639210701,0.2803342640399933,-0.010258734226226807
6.527616024017334,0.02146020531654358,-0.1476856768131256,0.030867040157318115,-0.297868668828057,-0.5086120159496622,-1.3351641222804944,-0.4655214846134186,0.2934834063053131,-0.8349594473838806,0.06930716335773468,0.2664110064506531,-0.031995370984077454
6.5480451583862305,0.031206846237182617,-0.13139432668685913,0.04848510026931763,-0.2965653584189447,-0.5031869641975709,-1.3353295426665721,-0.46116903424263,0.29223722219467163,-0.8378069996833801,0.059174299240112305,0.2915841042995453,-0.050276704132556915
6.566681861877441,0.022720664739608765,-0.1139453649520874,0.04920321702957153,-0.2948181115701709,-0.4970403052027776,-1.3354231876395095,-0.45625340938568115,0.2905658185482025,-0.8410733342170715,0.06575798988342285,0.328183650970459,-0.03375978022813797
6.583928108215332,0.013525843620300293,-0.0957525372505188,0.050936758518218994,-0.29395255005910503,-0.49044211932097437,-1.3355713278120989,-0.4508122503757477,0.2897374927997589,-0.8442869782447815,0.003730814903974533,0.32154563069343567,-0.021469496190547943
6.604745864868164,0.003045588731765747,-0.09451070427894592,0.044805288314819336,-0.29428125394787136,-0.48463294830683906,-1.3358814125849152,-0.44585567712783813,0.2900520861148834,-0.8468072414398193,-0.03917071223258972,0.25608786940574646,0.015470536425709724
6.623627185821533,-0.01733684539794922,-0.047550737857818604,0.021757841110229492,-0.29500571868989917,-0.4804137396208887,-1.335749394040244,-0.44218161702156067,0.2907453179359436,-0.848494291305542,-0.02058686874806881,0.15791673958301544,0.020888883620500565
6.644290924072266,-0.05691102147102356,-0.013174206018447876,-0.009964942932128906,-0.2949594401144613,-0.47836581376099535,-1.335290976684022,-0.44044923782348633,0.2907010316848755,-0.8494099974632263,0.05523249879479408,0.03363669291138649,0.028930140659213066
6.664606094360352,-0.11282351613044739,0.010302692651748657,-0.06344825029373169,-0.2935789493135769,-0.47792839825198663,-1.334569330562419,-0.4402618110179901,0.28937989473342896,-0.8499581217765808,0.09880492091178894,0.040881913155317307,-0.05779147520661354
6.683873176574707,-0.1759640872478485,-0.015792161226272583,-0.05725705623626709,-0.29135042852698667,-0.4755555173803359,-1.3352139251722925,-0.4385378956794739,0.2872460186481476,-0.8515716195106506,-0.030855977907776833,0.2362024039030075,-0.05398014932870865
6.704653024673462,-0.1280713975429535,-0.05310735106468201,0.01626676321029663,-0.29269661805608294,-0.4696726394575541,-1.3370495246533063,-0.433345228433609,0.2885352075099945,-0.8537911772727966,-0.16352874040603638,0.3717915713787079,-0.019764326512813568
6.724521160125732,-0.045021384954452515,-0.032951146364212036,0.03605681657791138,-0.2958223617346877,-0.46325482224069436,-1.3388853899192275,-0.4274517595767975,0.29152658581733704,-0.8557437062263489,-0.20138370990753174,0.3479025661945343,-0.004385881591588259
6.744274139404297,-0.02153274416923523,-0.03501015901565552,0.05037802457809448,-0.2992687647718986,-0.45769231895772244,-1.3416127517955563,-0.42223864793777466,0.294821560382843,-0.8572017550468445,-0.23141120374202728,0.31481441855430603,-0.04756584018468857
6.764129161834717,0.014486491680145264,-0.033545881509780884,0.08356988430023193,-0.3031360697636348,-0.4534511897234453,-1.344887242941134,-0.41809675097465515,0.2985147535800934,-0.8579534292221069,-0.26862359046936035,0.25441721081733704,-0.04310385882854462
6.785467147827148,0.055624932050704956,-0.023197084665298462,0.14135241508483887,-0.30817263191615485,-0.450292821608421,-1.3484964406215558,-0.41472527384757996,0.3033178746700287,-0.8579050898551941,-0.3383743166923523,0.1841973513364792,-0.04767020791769028
6.803369045257568,0.05941745638847351,-0.04945644736289978,0.16916406154632568,-0.3149204662168614,-0.4482714787805367,-1.3527288143108895,-0.4120938777923584,0.3097408413887024,-0.8568776249885559,-0.4386799931526184,0.1411341279745102,-0.015295909717679024
6.822093963623047,0.06120502948760986,-0.028778046369552612,0.1724042296409607,-0.322726879712321,-0.44753338506774043,-1.3568894139621068,-0.4104023873806,0.31715384125709534,-0.8549755811691284,-0.4035278558731079,0.05913566052913666,-0.011831298470497131
6.843017101287842,0.06975328922271729,-0.010764986276626587,0.1690801978111267,-0.32927442288403813,-0.44835077986427885,-1.3602565915566354,-0.4101921617984772,0.3233565092086792,-0.8527502417564392,-0.33660730719566345,-0.0329158790409565,0.004728787112981081
6.862962007522583,0.08157938718795776,-0.025295525789260864,0.18658751249313354,-0.3351704810557761,-0.45065900985449703,-1.36291573600924,-0.41132184863090515,0.32893016934394836,-0.8500701785087585,-0.33986884355545044,-0.10725846886634827,0.03607884794473648
6.884142875671387,0.10143464803695679,-0.0526585578918457,0.2130666971206665,-0.3434920178927373,-0.45526027051858126,-1.3661878957937554,-0.4140109717845917,0.3367771804332733,-0.845680832862854,-0.5539988279342651,-0.2730666995048523,0.02857235074043274
6.903885841369629,0.11519825458526611,-0.053529560565948486,0.22581303119659424,-0.3541934401380052,-0.46498183021729445,-1.3723172010530196,-0.420572429895401,0.3468339741230011,-0.8383466005325317,-0.6288338303565979,-0.49075767397880554,-0.057854220271110535
6.925044059753418,0.10571897029876709,-0.006772637367248535,0.2032526135444641,-0.3643601233043372,-0.4796678275419244,-1.380252636561967,-0.4311889708042145,0.35635149478912354,-0.8289087414741516,-0.5784527659416199,-0.7074244618415833,-0.15780974924564362
6.942820072174072,0.10635846853256226,0.0017516613006591797,0.1457640528678894,-0.37061171171929447,-0.4996807253366965,-1.3883589469863264,-0.44661420583724976,0.36218568682670593,-0.8181425929069519,-0.3711196780204773,-1.027748703956604,-0.17970649898052216
6.963913917541504,0.07247400283813477,0.06568878889083862,0.03998565673828125,-0.3749504920985753,-0.5252125540400497,-1.3958133455135873,-0.46656274795532227,0.366226464509964,-0.805107057094574,-0.36175644397735596,-1.22312593460083,-0.22753050923347473
6.985054016113281,-0.00389060378074646,0.08580562472343445,-0.011383593082427979,-0.37986848676806667,-0.5525479823309931,-1.404705800001135,-0.48744240403175354,0.37079834938049316,-0.7905114889144897,-0.5151616930961609,-1.139305591583252,-0.20805378258228302
7.005002975463867,-0.010541021823883057,0.07059770822525024,-0.004630923271179199,-0.3887016567849383,-0.577756422994037,-1.415037474393732,-0.5054044127464294,0.37898725271224976,-0.7751999497413635,-0.7052814364433289,-1.0176886320114136,-0.1382697969675064
7.0233259201049805,0.040493905544281006,0.1014057993888855,-0.06341803073883057,-0.39841588039770803,-0.6022223366567655,-1.4252390193657862,-0.5221070647239685,0.3879587948322296,-0.7595341801643372,-0.5572094321250916,-1.0582987070083618,-0.0996713861823082
7.043199062347412,0.05352449417114258,0.17551884055137634,-0.21155905723571777,-0.40396730277830245,-0.6265617324947852,-1.431495595449635,-0.5391659736633301,0.39306938648223877,-0.7448465824127197,-0.25891193747520447,-1.106874942779541,-0.06963799148797989
7.06370210647583,0.04205906391143799,0.21619528532028198,-0.25614553689956665,-0.40571416492360496,-0.648698401516666,-1.4343840448959446,-0.5551052689552307,0.39467504620552063,-0.7321814298629761,-0.07480299472808838,-0.9874627590179443,0.0013016879092901945
7.083229064941406,0.08719116449356079,0.1574617326259613,-0.23974108695983887,-0.40902400051358156,-0.6662360773350345,-1.4333417413033611,-0.5670495629310608,0.3977140188217163,-0.7213031649589539,-0.1447361707687378,-0.8167791366577148,0.2612309753894806
7.1032140254974365,0.11042898893356323,0.18227455019950867,-0.2602200508117676,-0.41449979594925473,-0.679402554702119,-1.4288776765136022,-0.5751201510429382,0.40273213386535645,-0.7120699286460876,0.05958057940006256,-0.6689403653144836,0.3896999657154083
7.123093128204346,0.09807848930358887,0.22597524523735046,-0.27882111072540283,-0.4160512197079976,-0.6862269605474175,-1.41766637019163,-0.5795695781707764,0.40415170788764954,-0.7076442837715149,0.41024845838546753,-0.46846604347229004,0.4991687834262848
7.14221715927124,0.10045498609542847,0.1802310347557068,-0.23137080669403076,-0.41588260950943073,-0.687929661217069,-1.4026453570268702,-0.580816924571991,0.4039974510669708,-0.7067090272903442,0.4217229187488556,-0.3313411772251129,0.547999382019043
7.162939071655273,0.12373250722885132,0.03484484553337097,-0.15533816814422607,-0.41815282103145096,-0.6880761950870512,-1.3884746326221098,-0.5803365707397461,0.40607312321662903,-0.7059136629104614,0.2164556235074997,-0.2813067138195038,0.5978964567184448
7.183145046234131,0.14258134365081787,-0.003161996603012085,-0.11644530296325684,-0.42343230354165734,-0.689312488435994,-1.3767383337291896,-0.5798372030258179,0.4108920395374298,-0.7035315036773682,0.1294362097978592,-0.32304003834724426,0.5340125560760498
7.2029640674591064,0.10932290554046631,0.022852987051010132,-0.13111984729766846,-0.4240530869988396,-0.6898335374068868,-1.3637853634864385,-0.5800412893295288,0.41145792603492737,-0.703032374382019,0.5459583401679993,-0.2575245797634125,0.4555964469909668
7.224241018295288,0.0859459638595581,0.0406096875667572,-0.06913423538208008,-0.42089611980146263,-0.6883386731915677,-1.3490211592477084,-0.5798119306564331,0.4085785150527954,-0.7048982977867126,0.5156713724136353,-0.22444429993629456,0.3507089912891388
7.244026184082031,0.05921733379364014,-0.060820698738098145,0.015360593795776367,-0.41811171270108544,-0.6889679186091562,-1.3384778038367249,-0.5809764266014099,0.40603554248809814,-0.7054087519645691,0.29391366243362427,-0.2648148834705353,0.24099157750606537
7.260010004043579,0.011190414428710938,-0.08320426940917969,0.04891979694366455,-0.4174426956080109,-0.6916782405924107,-1.3326779572339595,-0.5830593109130859,0.4054240882396698,-0.7040406465530396,0.11108483374118805,-0.2274305820465088,0.11108388006687164
7.284394979476929,-0.03587353229522705,-0.0728665292263031,0.07221287488937378,-0.4170839408380972,-0.6959012582396887,-1.3316145906550192,-0.5861204862594604,0.4050961136817932,-0.7016836404800415,0.02671338990330696,-0.25746607780456543,-0.06827943027019501
7.300931930541992,-0.038458287715911865,-0.062031835317611694,0.07277953624725342,-0.41321427527829907,-0.7022797407574485,-1.332237812052772,-0.5915923714637756,0.4015551507472992,-0.6991223096847534,0.1986256092786789,-0.3667565882205963,-0.20855513215065002
7.322761058807373,-0.08049029111862183,-0.039703309535980225,0.10655355453491211,-0.4070525107121258,-0.711553893275664,-1.3349529947104706,-0.5996549725532532,0.39590439200401306,-0.6954664587974548,0.06752835214138031,-0.4523541331291199,-0.40524277091026306
7.342429161071777,-0.12956148386001587,-0.10707667469978333,0.15429389476776123,-0.40154873628219134,-0.7249491645217114,-1.3444208297764215,-0.6103524565696716,0.39084434509277344,-0.6889923810958862,-0.24540656805038452,-0.5309157371520996,-0.6007224321365356
7.362204074859619,-0.13820606470108032,-0.12605175375938416,0.19297003746032715,-0.39887381413205564,-0.7428597390849593,-1.361619315520729,-0.6232991218566895,0.3883807957172394,-0.6787183284759521,-0.6327931880950928,-0.5925124883651733,-0.7614271640777588
7.382299900054932,-0.14536672830581665,-0.13539522886276245,0.2213665246963501,-0.4001713425372676,-0.7655722000189032,-1.3879989536963901,-0.6382026672363281,0.38957616686820984,-0.6640239357948303,-1.1580678224563599,-0.6529203057289124,-0.9344997406005859
7.402316093444824,-0.1441274881362915,-0.17245742678642273,0.2424834966659546,-0.4065237939920176,-0.7945381987071426,-1.425961646498746,-0.655387282371521,0.39541882276535034,-0.6435149312019348,-1.7611026763916016,-0.7764725089073181,-1.1026325225830078
7.422184944152832,-0.16612744331359863,-0.19726532697677612,0.2509605288505554,-0.4180454610227305,-0.8312194107954923,-1.4769293102874208,-0.6751353740692139,0.40597501397132874,-0.6159355044364929,-2.448721408843994,-0.8293116688728333,-1.2895989418029785
7.44127893447876,-0.2056370973587036,-0.19786670804023743,0.261929988861084,-0.43371890672766406,-0.8749767668536815,-1.5435094915030187,-0.6964625120162964,0.42024827003479004,-0.5816625952720642,-3.176635265350342,-0.8045533299446106,-1.5245532989501953
7.462000846862793,-0.22362524271011353,-0.18743100762367249,0.27954310178756714,-0.451569311277232,-0.9265318766104021,-1.6271557906547525,-0.7193983793258667,0.4363780915737152,-0.5404072999954224,-3.842186212539673,-0.7512827515602112,-1.7846893072128296
7.482760906219482,-0.24880880117416382,-0.16312694549560547,0.2746678590774536,-0.4686711379743432,-0.9844218876781549,-1.726721932090776,-0.7431345582008362,0.4517011046409607,-0.4936772584915161,-4.488992691040039,-0.599341869354248,-1.9662375450134277
7.501904010772705,-0.2591516971588135,-0.1363053023815155,0.30069589614868164,-0.48345643064865823,-1.0478176978972769,-1.842116039903739,-0.767047643661499,0.4648422598838806,-0.44222116470336914,-4.858561038970947,-0.4574424922466278,-2.240274429321289
7.522335052490234,-0.3152380585670471,-0.08202415704727173,0.2637678384780884,-0.4824679983694677,-1.1063936399203564,-1.9538624461329954,-0.7920312285423279,0.46396687626838684,-0.3967634439468384,-3.71111798286438,-0.150238499045372,-2.42789626121521
7.54096794128418,-0.31894975900650024,0.1866408884525299,0.20894289016723633,-0.46767283081665334,-1.1489456677573968,-2.0459690424721626,-0.8143662810325623,0.4508102238178253,-0.36548280715942383,-3.255312919616699,0.08275479078292847,-2.5336227416992188
7.56173300743103,-0.2818959355354309,0.11809539794921875,0.2205243706703186,-0.44481418389520366,-1.1882995731923534,-2.1390449076921088,-0.8374583125114441,0.430290162563324,-0.3369184136390686,-3.7154464721679688,0.054308149963617325,-2.7826874256134033
7.580918073654175,-0.2081378698348999,-0.01476365327835083,0.2842356562614441,-0.4220323298341561,-1.231809391017869,-2.2441421648770277,-0.8603435754776001,0.40961530804634094,-0.303354948759079,-4.134535312652588,0.026603106409311295,-2.7773728370666504
7.601629018783569,-0.2909785509109497,0.11156582832336426,0.16001421213150024,-0.3911780468956207,-1.264545066555705,-2.334298591882666,-0.8814458250999451,0.38127774000167847,-0.27871233224868774,-2.655292510986328,0.27773982286453247,-2.7205941677093506
7.621556043624878,-0.24785935878753662,0.4550074636936188,0.039906054735183716,-0.3530306945913497,-1.2796448189456577,-2.39187262829097,-0.8988385200500488,0.34574317932128906,-0.2693524956703186,-1.4576776027679443,0.31379881501197815,-2.5840909481048584
7.64090895652771,-0.04501551389694214,0.33238255977630615,0.039575785398483276,-0.3112444492236713,-1.2892518695609492,-2.4329835523819487,-0.9144725203514099,0.30624353885650635,-0.26449036598205566,-1.3871315717697144,0.048387497663497925,-2.4868674278259277
7.661460876464844,0.09068197011947632,0.15987128019332886,0.10272485017776489,-0.2754847605782068,-1.3035955704126199,-2.478806744503021,-0.9281453490257263,0.27201345562934875,-0.2540768086910248,-1.830331802368164,-0.09923631697893143,-2.121236562728882
7.680634021759033,0.10382920503616333,0.15801651775836945,0.11709725856781006,-0.24928129470611746,-1.319440941503333,-2.528706559622818,-0.9386375546455383,0.24670752882957458,-0.24102914333343506,-2.173111915588379,-0.2104283571243286,-1.69962477684021
7.700473070144653,-0.0024908781051635742,0.232550710439682,0.1202394962310791,-0.22869662187320922,-1.336573722326909,-2.5823076323285727,-0.9473687410354614,0.2267082780599594,-0.22604398429393768,-2.3109612464904785,-0.23046588897705078,-1.6094030141830444
7.721126079559326,-0.12464463710784912,0.28157559037208557,0.02988894283771515,-0.2074580915369369,-1.3514582097405683,-2.633101725358313,-0.9551129341125488,0.20597316324710846,-0.21291811764240265,-2.0376741886138916,-0.13287390768527985,-1.563027024269104
7.741386890411377,-0.10147178173065186,0.3503376543521881,-0.05013512074947357,-0.18562326525149606,-1.362726157707815,-2.67687503283542,-0.9616231918334961,0.18455912172794342,-0.20302343368530273,-1.6999539136886597,-0.16159218549728394,-1.502362847328186
7.760919094085693,0.0033373236656188965,0.36190366744995117,-0.08435928821563721,-0.1641003469085514,-1.373693648132828,-2.714374918874857,-0.9674638509750366,0.16336482763290405,-0.193198099732399,-1.5512248277664185,-0.27564844489097595,-1.330507755279541
7.780415058135986,0.03866910934448242,0.3521105647087097,-0.06430293619632721,-0.1465364525950051,-1.3852012394091329,-2.750487099636111,-0.9722934365272522,0.1460125893354416,-0.18255376815795898,-1.6382570266723633,-0.2804108262062073,-1.0894407033920288
7.8009748458862305,0.01218724250793457,0.31082892417907715,-0.08835077285766602,-0.1334141074971387,-1.394312540884995,-2.7873691591007983,-0.9757186770439148,0.13301867246627808,-0.17400887608528137,-1.6866726875305176,-0.11391894519329071,-0.8618830442428589
7.82083797454834,0.05058634281158447,0.3311735689640045,-0.18163418769836426,-0.1238393280637619,-1.4000348810051606,-2.8212737713738267,-0.9779086709022522,0.1235230341553688,-0.16863135993480682,-1.4469127655029297,-0.03568130359053612,-0.6721134781837463
7.841188907623291,0.14413446187973022,0.389658659696579,-0.20989149808883667,-0.11670959984895156,-1.4040152424723038,-2.849203671801781,-0.9794158339500427,0.11644482612609863,-0.16487963497638702,-1.1725068092346191,-0.02085433341562748,-0.5029318928718567
7.860759973526001,0.21598666906356812,0.3617178499698639,-0.19020454585552216,-0.11204237472207337,-1.406670944858505,-2.871225362152743,-0.9803755879402161,0.11180809885263443,-0.16236503422260284,-0.9516614079475403,0.020397942513227463,-0.3241117596626282
7.881267070770264,0.24984359741210938,0.32425761222839355,-0.16861850023269653,-0.11064509946426637,-1.4082580167400542,-2.892347829975449,-0.9807853102684021,0.11041948199272156,-0.16083402931690216,-1.2001909017562866,0.050191789865493774,-0.1623290777206421
7.899978160858154,0.25482624769210815,0.26806238293647766,-0.17170941829681396,-0.11345215573433057,-1.4104400761168636,-2.9235052911529027,-0.9808241128921509,0.11320893466472626,-0.15864340960979462,-1.9439477920532227,0.08628658950328827,-0.0706242248415947
7.9200758934021,0.25171995162963867,0.21596091985702515,-0.1941273808479309,-0.12006646249654951,-1.4140685168792972,-2.968315515072246,-0.9806322455406189,0.11977819353342056,-0.15496325492858887,-2.460660219192505,0.07066510617733002,0.021501652896404266
7.940876007080078,0.2273384928703308,0.2896507978439331,-0.25504839420318604,-0.12978054709147854,-1.4184157963264319,-3.017000685514061,-0.9801003336906433,0.1294165402650833,-0.15051499009132385,-2.404385566711426,0.10406558215618134,0.19610866904258728
7.9606781005859375,0.20076406002044678,0.38953399658203125,-0.2743763327598572,-0.14123902640998598,-1.4217716939431626,-3.058975441096314,-0.9790690541267395,0.14076991379261017,-0.1469951868057251,-1.838635802268982,0.10756852477788925,0.3085717558860779
7.9816930294036865,0.18752819299697876,0.46665167808532715,-0.2608814835548401,-0.15308614556197095,-1.4251540236304945,-3.0879539861360996,-0.977841854095459,0.15248890221118927,-0.1434307098388672,-1.1594064235687256,-0.026166008785367012,0.44694724678993225
8.00006103515625,0.1529971957206726,0.472861111164093,-0.2448500543832779,-0.1657910089152937,-1.4287991707498617,-3.100884026483706,-0.9763615131378174,0.1650325506925583,-0.13957995176315308,-0.30450403690338135,-0.1465590000152588,0.6235666871070862
8.0207359790802,0.11685848236083984,0.44520241022109985,-0.21126054227352142,-0.1790280981291788,-1.43189400896281,-3.0976423988070065,-0.9745396375656128,0.17807328701019287,-0.13624316453933716,0.41949257254600525,-0.23987215757369995,0.7320254445075989
8.040188074111938,0.12608462572097778,0.38921746611595154,-0.18557952344417572,-0.19248961345920387,-1.435651082050335,-3.080851508627697,-0.972581148147583,0.19130311906337738,-0.13224582374095917,1.0250422954559326,-0.4585800766944885,0.8227578997612
8.059958934783936,0.12627005577087402,0.3448362946510315,-0.16054357588291168,-0.20563638473197915,-1.4418037260413927,-3.0517257991884286,-0.9707983732223511,0.2041901797056198,-0.1259250044822693,1.6596875190734863,-0.7270885109901428,0.8421267867088318
8.079890966415405,0.06080830097198486,0.3254380226135254,-0.16006600856781006,-0.21665826612892067,-1.4489253321512359,-3.008753490965949,-0.9693776369094849,0.21496722102165222,-0.11872740089893341,2.383880615234375,-0.851323664188385,0.7584472298622131
