timestamp,acceleration_x,acceleration_y,acceleration_z,attitude_pitch,attitude_roll,attitude_yaw,gravity_x,gravity_y,gravity_z,rotation_x,rotation_y,rotation_z
0.0,0.24265718460083008,0.06383603811264038,-0.1989138126373291,-0.7044771735261071,-0.6933070855873598,-0.5103192233447811,-0.48695048689842224,0.6476355791091919,-0.5860440135002136,-0.8284145593643188,0.2930053770542145,-0.20992188155651093
0.01926898956298828,0.23005500435829163,0.062130749225616455,-0.16660797595977783,-0.7142860154033365,-0.6982457071227944,-0.5266749497141515,-0.4857313632965088,0.655078113079071,-0.5787380933761597,-0.7075436115264893,0.27588436007499695,-0.1192074567079544
0.039665937423706055,0.219964861869812,0.0737004280090332,-0.1236754059791565,-0.7225711010659625,-0.7010770126249298,-0.5387636919881735,-0.4838504195213318,0.6613154411315918,-0.5731934309005737,-0.5146579146385193,0.23528127372264862,-0.039547618478536606
0.05999398231506348,0.2081223726272583,0.07467961311340332,-0.0797041654586792,-0.7294028784580456,-0.7021922013076637,-0.5460327260653589,-0.4815599322319031,0.666424572467804,-0.569191038608551,-0.3805178701877594,0.132297545671463,0.06686117500066757
0.08003020286560059,0.18905150890350342,0.07439738512039185,-0.05338919162750244,-0.7360844645395154,-0.7035240295514088,-0.5496984931880646,-0.4794263541698456,0.6713912487030029,-0.5651410222053528,-0.3079230487346649,-0.046780776232481,0.1573663353919983
0.09997105598449707,0.14588743448257446,0.08404183387756348,-0.07081520557403564,-0.7424845120819159,-0.707278210669362,-0.5500445469116572,-0.4787427484989166,0.6761205792427063,-0.5600594282150269,-0.18529759347438812,-0.29612234234809875,0.23997379839420319
0.11928915977478027,0.06601941585540771,0.13599246740341187,-0.08554255962371826,-0.7472242044633515,-0.7114336075721402,-0.5454800468557924,-0.4789681136608124,0.6796051263809204,-0.555631697177887,0.05783393979072571,-0.3966617286205292,0.3114650249481201
0.1401059627532959,-0.0015375614166259766,0.1486932635307312,-0.041078150272369385,-0.749069504912372,-0.7131763227676652,-0.5364332645477147,-0.4791143834590912,0.6809576153755188,-0.5538467168807983,0.2087160348892212,-0.39381057024002075,0.3069206178188324
0.16016101837158203,-0.009618192911148071,0.10487616062164307,0.03893935680389404,-0.7499783142102716,-0.7137271693800381,-0.5259487712658528,-0.4790140986442566,0.6816228628158569,-0.5531147122383118,0.2039928287267685,-0.3795633316040039,0.3480943739414215
0.1801588535308838,-0.01560559868812561,0.04540807008743286,0.11695384979248047,-0.752761757402322,-0.7141457193699933,-0.515699696504104,-0.47800102829933167,0.6836569309234619,-0.5514783263206482,0.035149987787008286,-0.3595445454120636,0.384491890668869
0.19999098777770996,-0.056475162506103516,0.021696388721466064,0.14515113830566406,-0.7583792507927144,-0.7172628696036827,-0.5101739456207676,-0.47718584537506104,0.6877457499504089,-0.5470829010009766,-0.16651730239391327,-0.33445239067077637,0.2668769657611847
0.21946120262145996,-0.10211628675460815,0.02541440725326538,0.15023940801620483,-0.7637811256948559,-0.7224713259401722,-0.5092613399246447,-0.477565199136734,0.6916571855545044,-0.5417951345443726,-0.17883199453353882,-0.2421920895576477,0.16100874543190002
0.24002385139465332,-0.10616946220397949,0.049829959869384766,0.17070281505584717,-0.7683526173085566,-0.7263169593528487,-0.5094129558819445,-0.47754037380218506,0.694951593875885,-0.5375850796699524,-0.14914321899414062,-0.14405877888202667,0.1262914538383484
0.2593390941619873,-0.112171471118927,0.07340645790100098,0.17814874649047852,-0.771070091845528,-0.7280247651346434,-0.5089688382154535,-0.47719934582710266,0.6969030499458313,-0.5353569388389587,-0.024644169956445694,-0.050708141177892685,0.08949612081050873
0.279987096786499,-0.13306939601898193,0.0908542275428772,0.17699742317199707,-0.7714646869358195,-0.7260712588711425,-0.5065535457063671,-0.47597000002861023,0.6971859931945801,-0.5360824465751648,0.09234842658042908,0.08601633459329605,0.05637941136956215
0.29999303817749023,-0.1589122712612152,0.09822505712509155,0.1627199649810791,-0.770123430109719,-0.721721862277319,-0.5043826792172144,-0.47425127029418945,0.6962238550186157,-0.5388490557670593,0.09012430161237717,0.18672926723957062,-0.028450721874833107
0.31958508491516113,-0.16953667998313904,0.07182222604751587,0.15334928035736084,-0.7683040645274509,-0.7172904585885231,-0.5046933269888886,-0.4726905822753906,0.6949167251586914,-0.5418989658355713,0.01057424396276474,0.2829606235027313,-0.10282236337661743
0.3398449420928955,-0.17045217752456665,0.0419803261756897,0.1571001410484314,-0.7676405798736411,-0.7138946856324601,-0.5089610873864474,-0.4711495041847229,0.6944394707679749,-0.5438494086265564,-0.16310149431228638,0.35659268498420715,-0.1830591857433319
0.36000800132751465,-0.16434147953987122,0.03369033336639404,0.1545729637145996,-0.7677315267474759,-0.7119652317739228,-0.5173823807122528,-0.47005799412727356,0.6945049166679382,-0.5447095632553101,-0.21363192796707153,0.4209120273590088,-0.25971463322639465
0.37999510765075684,-0.15505775809288025,0.03096872568130493,0.1557345986366272,-0.7669972042963785,-0.7090461553765091,-0.5265382224497656,-0.46879786252975464,0.6939763426780701,-0.5464662909507751,-0.17062480747699738,0.5226936936378479,-0.2906557321548462
0.3999760150909424,-0.1392463743686676,0.0035536885261535645,0.18637299537658691,-0.765888869041899,-0.7050479532280066,-0.5371313349053397,-0.4671074450016022,0.6931779384613037,-0.5489217638969421,-0.24400803446769714,0.6003222465515137,-0.3719790279865265
0.4199550151824951,-0.11359864473342896,-0.03739821910858154,0.1911143660545349,-0.7647002465626982,-0.7029362545040256,-0.5512511718635736,-0.46647951006889343,0.692320704460144,-0.5505350828170776,-0.3112536370754242,0.5932026505470276,-0.4809226393699646
0.4400780200958252,-0.08626362681388855,-0.04831516742706299,0.18773508071899414,-0.763082866790804,-0.7030476441315323,-0.5680173606068771,-0.4672642946243286,0.6911527514457703,-0.5513367652893066,-0.349078506231308,0.5629739761352539,-0.5498490333557129
0.45999908447265625,-0.06524330377578735,-0.0506739616394043,0.2017688751220703,-0.7611545309609463,-0.7051262160437879,-0.5872509911641742,-0.4692721366882324,0.6897578239440918,-0.5513781309127808,-0.4041767120361328,0.5664528608322144,-0.6444131731987
0.4800121784210205,-0.04174819588661194,-0.06647598743438721,0.23131561279296875,-0.7589357128654408,-0.7089113682165064,-0.6092684289468011,-0.47235098481178284,0.688149631023407,-0.5507583022117615,-0.46417292952537537,0.5721964836120605,-0.7124180197715759
0.5000760555267334,-0.013627022504806519,-0.07126283645629883,0.24459165334701538,-0.7562412085617851,-0.7145334447536669,-0.6335306671315712,-0.47665318846702576,0.6861920952796936,-0.5494927167892456,-0.46417292952537537,0.5277581810951233,-0.8026943802833557
0.5200090408325195,0.0028495490550994873,-0.04207766056060791,0.229367196559906,-0.7515594498334947,-0.7219722595736894,-0.6586130607112025,-0.48284533619880676,0.6827789545059204,-0.5483368635177612,-0.36071524024009705,0.45616838335990906,-0.8919574618339539
0.539484977722168,-0.000544816255569458,0.0032042264938354492,0.22175288200378418,-0.7435158037667051,-0.7295299003556088,-0.6827104097610848,-0.4906204342842102,0.6768800616264343,-0.5487486720085144,-0.23779597878456116,0.4339461624622345,-0.9634585380554199
0.5622560977935791,0.0005271732807159424,0.024783313274383545,0.24171966314315796,-0.7338939220061683,-0.7374483957539094,-0.7070843144730569,-0.4993065297603607,0.6697662472724915,-0.5496419668197632,-0.27695876359939575,0.4169628322124481,-1.0111017227172852
0.5805618762969971,0.005932629108428955,0.02170085906982422,0.2419542670249939,-0.7254601830469827,-0.7475934736423924,-0.7335230954839193,-0.5086792707443237,0.6634798049926758,-0.5486711263656616,-0.44388774037361145,0.31074759364128113,-1.0318622589111328
0.5999879837036133,-0.016476690769195557,0.05011284351348877,0.20436632633209229,-0.7177771488093737,-0.7627338770807476,-0.7632751474745068,-0.5204343795776367,0.6577118635177612,-0.5445762276649475,-0.48728039860725403,0.14885751903057098,-1.1290247440338135
0.6200778484344482,-0.05912220478057861,0.10454553365707397,0.12507790327072144,-0.7075864752348562,-0.7814123296068822,-0.7935801074052051,-0.5352076888084412,0.6500015258789062,-0.5394912958145142,-0.3676207661628723,-0.03104495443403721,-1.2373305559158325
0.6401059627532959,-0.07538753747940063,0.17615288496017456,0.03629755973815918,-0.692585552210789,-0.8017826454456325,-0.8215152650576724,-0.5530304908752441,0.6385291218757629,-0.5351988673210144,-0.08279527723789215,-0.20210929214954376,-1.3247361183166504
0.6601340770721436,-0.05333232879638672,0.2328183650970459,-0.059227824211120605,-0.671871780846067,-0.8198195313814934,-0.8419917650228734,-0.5721407532691956,0.6224520206451416,-0.5340491533279419,0.3445532023906708,-0.2946826219558716,-1.2479028701782227
0.6800620555877686,-0.02598661184310913,0.23207294940948486,-0.10051417350769043,-0.6488192891346805,-0.8328405775260728,-0.8540579293827427,-0.5895072221755981,0.6042460203170776,-0.5360671877861023,0.48451367020606995,-0.24160298705101013,-1.0934150218963623
0.6999549865722656,-0.014559447765350342,0.13541781902313232,-0.1030922532081604,-0.6283028402080205,-0.8423370845610623,-0.8635506233776489,-0.6036962270736694,0.5877725481987,-0.5385855436325073,0.25566789507865906,-0.1376083344221115,-0.9540808200836182
0.7200329303741455,0.016443848609924316,0.02602243423461914,-0.08530181646347046,-0.6148139525124748,-0.8521761902947138,-0.8774821321722541,-0.6148783564567566,0.5768065452575684,-0.5377907752990723,-0.20545844733715057,-0.0663682371377945,-0.8008646368980408
0.748682975769043,0.08659613132476807,-0.0292322039604187,-0.19369113445281982,-0.6073277542012006,-0.8817116567407223,-0.9160590862534982,-0.6338068842887878,0.5706751346588135,-0.5221291184425354,-0.5601034760475159,-0.3492283523082733,-0.5414857864379883
0.7686121463775635,0.07721984386444092,0.03026103973388672,-0.2659240961074829,-0.6047852570774679,-0.8985199823240295,-0.9304677335420165,-0.6436262130737305,0.5685854554176331,-0.5123046040534973,-0.17892825603485107,-0.4830639958381653,-0.39869067072868347
0.7875988483428955,0.021930217742919922,0.12260168790817261,-0.30887842178344727,-0.5982404491294215,-0.911393005304627,-0.9357243643123663,-0.6530948877334595,0.5631893873214722,-0.506246030330658,0.25351405143737793,-0.4707913398742676,-0.3992544412612915
0.8083200454711914,-0.030730783939361572,0.10690724849700928,-0.29927700757980347,-0.5875239443856858,-0.918567851103617,-0.9345036492805309,-0.6614689230918884,0.5543018579483032,-0.5051814913749695,0.40292757749557495,-0.28644752502441406,-0.38992634415626526
0.8290290832519531,0.01008838415145874,-0.002431809902191162,-0.23184120655059814,-0.5779414147334878,-0.9216195594736162,-0.9337341391818533,-0.667208194732666,0.5463008284568787,-0.5063484907150269,0.19423964619636536,-0.07843075692653656,-0.3088742196559906
0.849902868270874,0.12154817581176758,-0.14925217628479004,-0.15813446044921875,-0.5744662107056241,-0.9245955131538202,-0.938100089225755,-0.6702237725257874,0.5433867573738098,-0.5055007934570312,-0.2706185281276703,0.005724598653614521,-0.20544840395450592
0.8680689334869385,0.21588373184204102,-0.22315144538879395,-0.1136019229888916,-0.5763770099962321,-0.9303838307371594,-0.9480979992307702,-0.6723046898841858,0.544989824295044,-0.5009915232658386,-0.4737530052661896,-0.05615874007344246,-0.14906050264835358
0.8883190155029297,0.2682957053184509,-0.20168966054916382,-0.07121747732162476,-0.5796833231534623,-0.9383563938345939,-0.9591289490992936,-0.6748204231262207,0.5477589964866638,-0.49454784393310547,-0.4538722336292267,-0.13707393407821655,-0.15964606404304504
0.9074530601501465,0.2652518153190613,-0.150901198387146,-0.052567869424819946,-0.5799300040671647,-0.94835077735532,-0.9696350772745563,-0.6796194911003113,0.547965407371521,-0.4877000153064728,-0.20842285454273224,-0.2848040759563446,-0.3434482216835022
0.9192421436309814,0.2652518153190613,-0.150901198387146,-0.052567869424819946,-0.5799300040671647,-0.94835077735532,-0.9696350772745563,-0.6796194911003113,0.547965407371521,-0.4877000153064728,-0.20842285454273224,-0.2848040759563446,-0.3434482216835022
0.9469811916351318,0.2280106544494629,-0.08071786165237427,-0.06030690670013428,-0.5666795637332118,-0.9687013114801448,-0.9755343076265877,-0.6953264474868774,0.5368335843086243,-0.47784000635147095,0.23105289041996002,-0.6100682616233826,-0.30184561014175415
0.9606339931488037,0.23267996311187744,-0.07509380578994751,-0.04455357789993286,-0.5601175876612691,-0.983155622707058,-0.9749696668263448,-0.7050769329071045,0.53128582239151,-0.46968281269073486,0.15880168974399567,-0.8641166090965271,-0.20708006620407104
0.9880549907684326,0.20010602474212646,-0.060874760150909424,-0.03437840938568115,-0.5558392503455113,-1.0014444712358086,-0.9740282682110956,-0.7154564261436462,0.5276563763618469,-0.45793113112449646,0.17783308029174805,-1.0056887865066528,-0.10673079639673233
1.0091421604156494,0.1354299783706665,-0.05463612079620361,-0.05946570634841919,-0.5528986031397672,-1.020211799598325,-0.9696905634276665,-0.7252432703971863,0.5251561403274536,-0.44523394107818604,0.2853321135044098,-1.0953341722488403,0.04209919646382332
1.0280530452728271,0.043393850326538086,-0.0428699254989624,-0.09098953008651733,-0.5502272715467441,-1.0385923825044403,-0.9626765401658905,-0.7345103025436401,0.5228809714317322,-0.4325394630432129,0.3519628643989563,-1.1166538000106812,0.011995172128081322
1.0468909740447998,-0.04102414846420288,-0.03910702466964722,-0.07999056577682495,-0.5464972520219165,-1.0565274688250932,-0.9559473357107618,-0.7438422441482544,0.5196978449821472,-0.4202535152435303,0.3147912621498108,-0.9899316430091858,-0.03070763684809208
1.0693719387054443,-0.07590097188949585,-0.09944641590118408,-0.019283056259155273,-0.5444161169926873,-1.0719958333786597,-0.9521783038749302,-0.7512018084526062,0.5179187059402466,-0.40921419858932495,0.03952644020318985,-0.7556619644165039,0.007083118427544832
1.088243007659912,-0.06160473823547363,-0.19648444652557373,0.029714345932006836,-0.5462809459061474,-1.0860872181687524,-0.95425799177066,-0.7560375928878784,0.5195130109786987,-0.39813774824142456,-0.2992953360080719,-0.5835509896278381,0.08464277535676956
1.1072051525115967,-0.02602064609527588,-0.2372104525566101,0.030142009258270264,-0.5523462743530423,-1.1020902551590848,-0.9626653553719584,-0.7594865560531616,0.5246860384941101,-0.3845577836036682,-0.5693467259407043,-0.6008285284042358,0.09947666525840759
1.127143144607544,-0.041813015937805176,-0.2222549319267273,-0.015382170677185059,-0.5581439273094753,-1.1205351218893589,-0.9736704081575518,-0.7636985778808594,0.5296127200126648,-0.36915451288223267,-0.4906619191169739,-0.65932297706604,0.008919778279960155
1.147252082824707,-0.09343892335891724,-0.1607348918914795,-0.037802040576934814,-0.5603981326363561,-1.1379538890635479,-0.9821969681301871,-0.7689269185066223,0.5315234661102295,-0.3552948236465454,-0.255035400390625,-0.6147966384887695,-0.12472822517156601
1.167173147201538,-0.12039655447006226,-0.12433391809463501,-0.0524480938911438,-0.558965309411541,-1.1521187358523792,-0.9868646268794158,-0.7745773196220398,0.53030925989151,-0.3446770906448364,-0.07322508841753006,-0.5610531568527222,-0.13676846027374268
1.1861820220947266,-0.09757184982299805,-0.12385588884353638,-0.030811548233032227,-0.5584016302383489,-1.161825830278399,-0.9876808959946823,-0.7781606912612915,0.5298312902450562,-0.337260901927948,0.001986535731703043,-0.34597811102867126,0.10605760663747787
1.2070610523223877,-0.11264783143997192,-0.1015891432762146,-0.06705173850059509,-0.5624139458957677,-1.1671757242558782,-0.9872824124246421,-0.7779926657676697,0.5332298874855042,-0.33225545287132263,-0.13765478134155273,-0.24573488533496857,0.19919517636299133
1.225999116897583,-0.13743889331817627,-0.04116016626358032,-0.12395882606506348,-0.5653878400938048,-1.173250514507239,-0.9893202095535687,-0.7785310745239258,0.5357433557510376,-0.32690778374671936,-0.07907940447330475,-0.2516292631626129,0.04406542703509331
1.246919870376587,-0.08975660800933838,-0.014493882656097412,-0.15354478359222412,-0.5667328113335403,-1.1760861731441017,-0.9862882195380327,-0.7787890434265137,0.5368785262107849,-0.3244214355945587,0.2654382586479187,-0.18963727355003357,0.19672590494155884
1.2670960426330566,-0.03791773319244385,0.0017723441123962402,-0.130411297082901,-0.568542121262424,-1.1707134240781787,-0.9736088140977414,-0.7761389017105103,0.538404107093811,-0.3282220959663391,0.6405439972877502,0.07099015265703201,0.40837833285331726
1.2856950759887695,0.003637552261352539,-0.01779770851135254,-0.13107073307037354,-0.5722865478585792,-1.1559377477260036,-0.9531227489932318,-0.7693541646003723,0.5415557026863098,-0.3388388752937317,0.7543829083442688,0.27622702717781067,0.5660936236381531
1.3065779209136963,0.0886945128440857,0.014611661434173584,-0.16323894262313843,-0.5743211200400121,-1.1377127144278572,-0.930611901917742,-0.7620497345924377,0.5432649254798889,-0.3523401916027069,0.9913237690925598,0.32301193475723267,0.39269301295280457
1.327368974685669,0.21359825134277344,0.04557305574417114,-0.23050576448440552,-0.5714869177218854,-1.1136655496844292,-0.8991137450734323,-0.754736065864563,0.5408833026885986,-0.3712398111820221,1.4652155637741089,0.3510393798351288,0.5189518332481384
1.3466641902923584,0.3294791579246521,0.054140329360961914,-0.2151225209236145,-0.5676373277639111,-1.0862692105168934,-0.8625967505709043,-0.7461205124855042,0.5376414060592651,-0.3927418887615204,1.3827711343765259,0.4201836585998535,0.5314218401908875
1.3668920993804932,0.4212952256202698,0.005197286605834961,-0.2090778350830078,-0.5649527311950749,-1.0621417291396553,-0.8311050153383609,-0.7376863360404968,0.5353758931159973,-0.4113292396068573,1.1167325973510742,0.3036741018295288,0.4959982633590698
1.3849279880523682,0.47563666105270386,0.01129215955734253,-0.21515822410583496,-0.5627244168647961,-1.040559277922673,-0.8020810713643995,-0.7296651601791382,0.5334925055503845,-0.42775559425354004,1.1488866806030273,0.3025336265563965,0.5465966463088989
1.4063169956207275,0.5016431212425232,0.07392269372940063,-0.19106271862983704,-0.5599384590241738,-1.0206525528230983,-0.7734838938513727,-0.7222700119018555,0.5311340689659119,-0.4429703950881958,1.0429667234420776,0.11652666330337524,0.42069366574287415
1.426481008529663,0.5489102005958557,0.1327667236328125,-0.24930617213249207,-0.5557047285168841,-1.0103125044606054,-0.7495142389420268,-0.719549298286438,0.5275421142578125,-0.45160621404647827,0.9224072098731995,-0.3600117564201355,0.33369749784469604
1.446225881576538,0.5242139101028442,0.228956937789917,-0.3828573226928711,-0.5512578212817995,-1.008722364091,-0.7270619150164571,-0.7208082675933838,0.523759126663208,-0.4539956748485565,1.0012683868408203,-0.5797345042228699,0.31823331117630005
1.4670500755310059,0.46368634700775146,0.328154981136322,-0.33878177404403687,-0.5451604044903038,-1.0066848449292676,-0.7022183599689243,-0.722567081451416,0.518555223941803,-0.45716235041618347,1.1271501779556274,-0.5082637667655945,0.2397875040769577
1.4870500564575195,0.49242740869522095,0.39897894859313965,-0.21268194913864136,-0.5337690701168215,-1.0019786911753337,-0.6761912785924518,-0.7253376841545105,0.5087817311286926,-0.46370962262153625,1.357729434967041,-0.3657859265804291,0.0390891395509243
1.5062181949615479,0.5135266780853271,0.3510293662548065,-0.10639286041259766,-0.520165353867875,-0.9937073486213779,-0.6482396167633621,-0.7272108793258667,0.49702364206314087,-0.4734257757663727,1.4193171262741089,-0.23584310710430145,0.13130100071430206
1.5262911319732666,0.5265961289405823,0.19876563549041748,-0.03203645348548889,-0.5088903619302562,-0.9854574001842061,-0.6208561890834707,-0.7279053330421448,0.4872085154056549,-0.48247453570365906,1.1518598794937134,-0.32581445574760437,0.24672597646713257
1.5461461544036865,0.5649763941764832,0.13426727056503296,-0.002361804246902466,-0.5028890727414382,-0.9850298309608623,-0.6013914174074454,-0.7301223278045654,0.48195892572402954,-0.484393447637558,0.6539515852928162,-0.6051437258720398,0.10841118544340134
1.5652830600738525,0.560543954372406,0.1838923692703247,0.10085827112197876,-0.49480512027828333,-0.993340049047279,-0.5908585560763796,-0.7373629212379456,0.47486016154289246,-0.48042061924934387,0.718068540096283,-0.6670066714286804,-0.22160492837429047
1.5860180854797363,0.5493305325508118,0.1952737271785736,0.15917056798934937,-0.4806087971796085,-0.997287333771938,-0.5743474468829284,-0.744841456413269,0.4623190760612488,-0.4811157286167145,1.2264082431793213,-0.5049918293952942,-0.14260736107826233
1.6058151721954346,0.5271661281585693,0.1313256323337555,0.19865581393241882,-0.46400342381243287,-0.9963307556267594,-0.5519243885962898,-0.7507227063179016,0.4475318193435669,-0.48593297600746155,1.2982527017593384,-0.42809122800827026,-0.21872884035110474
1.6271860599517822,0.5139954686164856,0.06439048051834106,0.24360299110412598,-0.446853950677467,-0.9964509097925607,-0.5336464935171891,-0.7571138739585876,0.4321305453777313,-0.4899407923221588,0.9752258062362671,-0.41945093870162964,-0.32287392020225525
1.644577980041504,0.5114026665687561,0.03316307067871094,0.23987534642219543,-0.4316890708928549,-1.0011446863634115,-0.522519867689587,-0.7648359537124634,0.4184055030345917,-0.48985999822616577,0.7337533831596375,-0.5407127737998962,-0.4146669805049896
1.6673729419708252,0.4730636477470398,0.052064746618270874,0.21081960201263428,-0.415407394028195,-1.0093957835834686,-0.5142925092196023,-0.7745164036750793,0.4035627245903015,-0.4870951473712921,0.7993292808532715,-0.6192005276679993,-0.5794538855552673
1.6857240200042725,0.4074665904045105,0.10332012176513672,0.2000332772731781,-0.3956947793231629,-1.0193710336121506,-0.5069722283943187,-0.7859609127044678,0.3854493796825409,-0.48341938853263855,0.7664123773574829,-0.7230680584907532,-0.7276077270507812
1.7045810222625732,0.33805811405181885,0.09875422716140747,0.1348133087158203,-0.3762138799661567,-1.0346517058068259,-0.50221505872443,-0.7995602488517761,0.36740177869796753,-0.47509950399398804,0.6064051985740662,-0.9543286561965942,-0.6687434315681458
1.7256081104278564,0.22563350200653076,0.049884021282196045,0.06820917129516602,-0.3606385141292573,-1.0542624384611576,-0.5008458047990337,-0.8136005401611328,0.35287174582481384,-0.46209949254989624,0.31207260489463806,-1.0643855333328247,-0.6640120148658752
1.7458419799804688,0.09074592590332031,0.15121090412139893,0.03664177656173706,-0.34510033149753533,-1.0745216670656392,-0.5015961006836137,-0.8275166749954224,0.33829110860824585,-0.4480796754360199,0.4625316262245178,-0.9041233658790588,-0.7013053894042969
1.7660181522369385,-0.006802916526794434,0.19215711951255798,0.04790642857551575,-0.32616872449138146,-1.0874883971793965,-0.495671697832856,-0.8387781977653503,0.320416122674942,-0.4402097761631012,0.9124700427055359,-0.6333009600639343,-0.7222487926483154
1.7857139110565186,0.004418015480041504,0.14966875314712524,0.06612610816955566,-0.3035813222780704,-1.0977899599378929,-0.48171411478434256,-0.8494956493377686,0.29893967509269714,-0.4347326159477234,1.3650532960891724,-0.8611751198768616,-0.6907249093055725
1.8053781986236572,-0.08333861827850342,0.06403344869613647,-0.051205456256866455,-0.27697290155360416,-1.11092956242724,-0.4583834295678471,-0.8619587421417236,0.273445188999176,-0.42691338062286377,1.8442071676254272,-1.1509308815002441,-0.7204354405403137
1.8252019882202148,-0.25478672981262207,-0.024821117520332336,-0.1200529932975769,-0.24241357169169625,-1.1264310457739022,-0.4275849964406856,-0.8764848113059998,0.24004632234573364,-0.4173157215118408,2.314016580581665,-1.1082966327667236,-1.1012656688690186
1.8452041149139404,-0.36165064573287964,-0.0848216563463211,-0.03481245040893555,-0.2001070948003204,-1.1399972242377903,-0.3929571171503436,-0.8905009031295776,0.1987742930650711,-0.4092640280723572,2.4478495121002197,-0.9834272861480713,-1.2161710262298584
1.8652122020721436,-0.5271902680397034,-0.12661212682724,0.016006886959075928,-0.1617556418733079,-1.151441856284292,-0.3643984739221473,-0.9014291167259216,0.1610511839389801,-0.4018557667732239,1.6118042469024658,-0.6892301440238953,-1.2023929357528687
1.8850390911102295,-0.750707745552063,-0.12348431348800659,0.06691062450408936,-0.1280761101796935,-1.1592735027148156,-0.3535285908281333,-0.9090061783790588,0.1277262419462204,-0.3967292904853821,0.7388690114021301,-0.3220708668231964,-1.4023628234863281
1.9039251804351807,-0.7071411609649658,-0.12293873727321625,0.16324162483215332,-0.10136846828803081,-1.1657072067680965,-0.357740046636206,-0.9143494367599487,0.10119495540857315,-0.39207762479782104,-0.07151296734809875,-0.24309410154819489,-1.1733002662658691
1.9251601696014404,-0.7265856266021729,-0.05937878042459488,0.28355324268341064,-0.08407495060415228,-1.170444461114965,-0.37494345447440586,-0.9176710247993469,0.08397593349218369,-0.388365775346756,-0.7311649322509766,-0.07079964876174927,-1.126462459564209
1.9449219703674316,-0.6035955548286438,-0.009218715131282806,0.41125258803367615,-0.0724534609965866,-1.1715623265502226,-0.3977939878321649,-0.9189417362213135,0.07239008694887161,-0.3876928687095642,-0.866109311580658,0.1145315021276474,-0.7766056060791016
1.966567039489746,-0.4951639175415039,0.017377540469169617,0.3606327176094055,-0.06676321656020524,-1.1720851636381358,-0.4160371923162795,-0.9195091724395752,0.06671363115310669,-0.38736605644226074,-0.48402294516563416,-0.03288981691002846,-0.5054532885551453
1.9828999042510986,-0.4983775019645691,0.013204962015151978,0.2829545736312866,-0.06123512690558305,-1.1723623560185403,-0.4221078630638846,-0.919942319393158,0.061196863651275635,-0.38724830746650696,0.06629153341054916,-0.016224021092057228,-0.27545419335365295
2.0024659633636475,-0.46935760974884033,-0.05960160866379738,0.30539435148239136,-0.05648830865844896,-1.1715743780540122,-0.41950388355110824,-0.9198942184448242,0.05645827203989029,-0.3880816400051117,0.26526007056236267,0.12099384516477585,0.028216863051056862
2.0225908756256104,-0.4760010838508606,-0.2526443600654602,0.4148699641227722,-0.061857366465586726,-1.1645836559600513,-0.41784352775063,-0.9168670773506165,0.06181792542338371,-0.39437735080718994,-0.3732924461364746,0.6362156867980957,0.432706743478775
2.044922113418579,-0.6370740532875061,-0.375262051820755,0.4528067111968994,-0.07346348053893029,-1.1445336781416549,-0.4216187400910736,-0.9080615639686584,0.07339742034673691,-0.41235557198524475,-0.33507415652275085,1.3469648361206055,0.5311412811279297
2.066547155380249,-0.6178052425384521,-0.2851138114929199,0.3132162392139435,-0.0879462302186217,-1.1197719930241534,-0.4197746348454132,-0.8965228796005249,0.08783290535211563,-0.4342030882835388,-0.45584890246391296,1.047945261001587,0.7574078440666199
2.084681987762451,-0.510011613368988,-0.2559414207935333,0.2567884922027588,-0.11006059395143544,-1.102412316666182,-0.42014069506823,-0.8869002461433411,0.10983853042125702,-0.4487135112285614,-0.5788528323173523,0.6135694980621338,1.3185927867889404
2.1045138835906982,-0.6035157442092896,-0.22924652695655823,0.20391923189163208,-0.1440354340902434,-1.0899571481926527,-0.41487446356052615,-0.8774262070655823,0.14353792369365692,-0.4577338993549347,-0.43902358412742615,0.6606828570365906,1.9134511947631836
2.1244919300079346,-0.8253371715545654,-0.10041199624538422,0.1541832983493805,-0.18128303164754858,-1.0681466646998934,-0.39641356536190286,-0.8619492650032043,0.18029172718524933,-0.47385483980178833,0.2899971008300781,1.359197735786438,2.254876136779785
2.144636869430542,-1.0310873985290527,-0.026995763182640076,0.16309291124343872,-0.21734737923813005,-1.0301992738373156,-0.3675151294972174,-0.8372294306755066,0.21564017236232758,-0.502539873123169,0.34958288073539734,1.7088704109191895,2.224048137664795
2.1645209789276123,-0.9793441891670227,-0.20385703444480896,0.11094427108764648,-0.2529635160224159,-0.9909367932197438,-0.33713880767201343,-0.8099167943000793,0.25027427077293396,-0.5304693579673767,0.12453681975603104,1.4403910636901855,2.377976655960083
2.184279203414917,-0.8239061236381531,-0.207404226064682,0.1618328094482422,-0.29245762086591715,-0.9586836212670332,-0.3119076697902597,-0.783683717250824,0.2883063554763794,-0.5501994490623474,-0.3294484317302704,1.2523411512374878,2.270638942718506
2.203989028930664,-0.7860518097877502,-0.21626779437065125,0.18718427419662476,-0.3355188632684021,-0.9286420606025629,-0.2939962786179072,-0.7561540603637695,0.32925915718078613,-0.5655258893966675,-0.8283973932266235,1.1320533752441406,2.1556508541107178
2.224184036254883,-0.7054906487464905,-0.16934004426002502,0.09814995527267456,-0.381055514378398,-0.9060806300480887,-0.28571686923620676,-0.7306361794471741,0.3719004690647125,-0.5725914239883423,-1.3107274770736694,0.8106319904327393,1.9145212173461914
2.2444560527801514,-0.6038878560066223,-0.14833253622055054,0.06668180227279663,-0.42550701713750655,-0.8929476410543876,-0.2872118509069666,-0.7094667553901672,0.4127826392650604,-0.5711983442306519,-1.582065463066101,0.6024149060249329,1.5419120788574219
2.263813018798828,-0.48338425159454346,-0.11341932415962219,0.0835108757019043,-0.4663698192743179,-0.8864344168942431,-0.29556977119169464,-0.6920766234397888,0.4496467411518097,-0.564666211605072,-1.4878199100494385,0.4760805666446686,1.209488868713379
2.2836520671844482,-0.3018583655357361,0.0015587806701660156,0.020196735858917236,-0.5019521142916903,-0.8825465158173348,-0.30300141723268764,-0.6770846247673035,0.481137752532959,-0.5568329691886902,-1.3689913749694824,0.25073274970054626,1.171257734298706
2.3036279678344727,-0.26866692304611206,0.05433386564254761,-0.052646756172180176,-0.5368854024873537,-0.8825714361486168,-0.3107817050256172,-0.6637061834335327,0.5114620923995972,-0.545802891254425,-1.4340705871582031,0.1739538162946701,1.0480986833572388
2.3237578868865967,-0.3577268123626709,0.05977290868759155,-0.06790173053741455,-0.5699528339745614,-0.8868652044872284,-0.3264112682647091,-0.6525729298591614,0.5395923256874084,-0.5319669842720032,-1.6918195486068726,0.20247158408164978,0.6800329089164734
2.3439040184020996,-0.22245371341705322,0.047141969203948975,-0.07585257291793823,-0.6005009730175707,-0.8965941172002423,-0.35020170134485257,-0.644535481929779,0.5650558471679688,-0.5150591731071472,-1.751416802406311,0.11837826669216156,0.5414461493492126
2.3638699054718018,-0.03089195489883423,0.07713532447814941,-0.07002401351928711,-0.6312596221426401,-0.9089477528095535,-0.37508279486169843,-0.6368327140808105,0.5901620984077454,-0.4961380362510681,-1.7400295734405518,0.14428859949111938,0.6372203230857849
2.3834290504455566,-0.08932578563690186,0.1550857424736023,-0.11258789896965027,-0.6616829817101174,-0.9216675699387384,-0.4004279850796416,-0.6284934282302856,0.6144455075263977,-0.4769200384616852,-1.7482898235321045,0.10094866901636124,0.5153862237930298
2.402479887008667,-0.11959874629974365,0.16874665021896362,-0.10693368315696716,-0.6912454789053181,-0.9385723477432538,-0.4316214065474881,-0.6215358972549438,0.6374972462654114,-0.4552915394306183,-1.9838794469833374,0.17479537427425385,0.4211927652359009
2.4233710765838623,-0.031143665313720703,0.10059857368469238,-0.0728287398815155,-0.7199134928577039,-0.958799977147336,-0.4674321007416227,-0.6154018044471741,0.6593196392059326,-0.4319472014904022,-1.8301684856414795,0.09737284481525421,0.3717544972896576
2.442246198654175,0.05167359113693237,0.15836101770401,-0.08497655391693115,-0.7454795161393128,-0.9790386666525235,-0.4995307313234755,-0.6098248958587646,0.6783242225646973,-0.4098659157752991,-1.6335822343826294,0.07841256260871887,0.371241956949234
2.4622251987457275,0.08831238746643066,0.06518411636352539,-0.07557198405265808,-0.7686867294543281,-0.9999172924356068,-0.5315584578920988,-0.6048376560211182,0.6951918005943298,-0.38843244314193726,-1.6407350301742554,0.05444535240530968,0.28638365864753723
2.4831809997558594,0.15106868743896484,0.03262680768966675,-0.03404352068901062,-0.7916936624814274,-1.02463666076317,-0.5690552862381842,-0.6004248261451721,0.7115443348884583,-0.36495843529701233,-1.782422661781311,0.08483540266752243,0.21974416077136993
2.5031750202178955,0.16300290822982788,0.024607062339782715,-0.06508496403694153,-0.8115164710317808,-1.051821078445071,-0.609948748936777,-0.5977563858032227,0.7253319621086121,-0.3414396047592163,-1.669686198234558,0.15336163341999054,0.0770963504910469
2.5230159759521484,0.2871607542037964,-0.013515949249267578,-0.05736428499221802,-0.8283897377774079,-1.0790871217677047,-0.6505919372006955,-0.5959681868553162,0.7368437051773071,-0.31919199228286743,-1.5644335746765137,0.08955381065607071,0.06324433535337448
2.5427520275115967,0.3505479097366333,-0.041526734828948975,-0.05228123068809509,-0.8440455085138705,-1.1075403380343383,-0.6912279147991381,-0.5944139361381531,0.7473372220993042,-0.29691603779792786,-1.612755298614502,0.08451306819915771,0.05091969296336174
2.562005043029785,0.3697710633277893,-0.10695761442184448,-0.05286946892738342,-0.8596632868690963,-1.1400362540002655,-0.7373390321531936,-0.5930682420730591,0.7576228380203247,-0.272539347410202,-1.7807998657226562,0.15313731133937836,0.01205384824424982
2.5828568935394287,0.4155436158180237,-0.09983986616134644,-0.08798977732658386,-0.8729403407968047,-1.1751145302773032,-0.7874003308571343,-0.592927098274231,0.7662216424942017,-0.24767297506332397,-1.7038766145706177,0.14265474677085876,-0.07290980219841003
2.601918935775757,0.5429522395133972,-0.09931832551956177,-0.07605676352977753,-0.8838594710026249,-1.2095713218890956,-0.8348346480873239,-0.593245267868042,0.7731922268867493,-0.22412927448749542,-1.5382606983184814,0.07313728332519531,-0.015038489364087582
2.6228790283203125,0.6365494728088379,-0.16825973987579346,-0.06595222651958466,-0.8942511228518848,-1.2434865557981372,-0.8789861791112037,-0.5928635597229004,0.7797404527664185,-0.2012900859117508,-1.42765474319458,-0.07329973578453064,0.018035953864455223
2.6427509784698486,0.6952978372573853,-0.20982599258422852,-0.13937903940677643,-0.9030018158269829,-1.277974564291979,-0.9185567519224206,-0.5928962230682373,0.7851893305778503,-0.1787513643503189,-1.1918765306472778,-0.24836565554141998,0.09663256257772446
2.6616761684417725,0.7358134984970093,-0.2387300729751587,-0.1790071725845337,-0.9110573597474302,-1.309501865708628,-0.9514504053189519,-0.5921063423156738,0.7901522517204285,-0.15833401679992676,-0.9796139001846313,-0.2519087791442871,0.1430545449256897
2.6817009449005127,0.7581186890602112,-0.3375862240791321,-0.1829407662153244,-0.9200882280395547,-1.3349081634462114,-0.9797155451410601,-0.5889750719070435,0.7956550717353821,-0.14156779646873474,-1.0166128873825073,-0.15421803295612335,0.3660193085670471
2.702672004699707,0.8139309883117676,-0.40369945764541626,-0.246785506606102,-0.9295633140559417,-1.354101892454351,-1.0035291307496406,-0.5841946601867676,0.8013588190078735,-0.12861110270023346,-0.5956077575683594,-0.006943525280803442,0.2277369201183319
2.7227890491485596,0.8793277740478516,-0.38651537895202637,-0.2845861315727234,-0.9377925393115462,-1.3624428554475487,-1.0134159987362812,-0.5787754654884338,0.8062542080879211,-0.12236569821834564,-0.10591677576303482,-0.0319301001727581,0.44020551443099976
2.7418100833892822,0.875725507736206,-0.3554752469062805,-0.2996116280555725,-0.9451225791077791,-1.3591764003624067,-1.006818742235342,-0.5725792646408081,0.8105687499046326,-0.12301095575094223,0.29125866293907166,-0.18528087437152863,0.33070340752601624
2.762708902359009,0.8596266508102417,-0.3983455300331116,-0.17601162195205688,-0.9502092836181849,-1.3488826535713818,-0.990603920874133,-0.5672531127929688,0.8135372400283813,-0.12798911333084106,0.4588451087474823,-0.03684940189123154,0.3787609040737152
2.782235860824585,0.8534950017929077,-0.37772780656814575,-0.1257832646369934,-0.9529117396040326,-1.336403293212526,-0.9733796000692111,-0.563471257686615,0.8151057362556458,-0.13454681634902954,0.47694429755210876,-0.12507398426532745,0.16401483118534088
2.80259108543396,0.8576087951660156,-0.23659193515777588,-0.0918847918510437,-0.9537952468058156,-1.3242782860194686,-0.9564082686750034,-0.5611000657081604,0.8156172633171082,-0.14119310677051544,0.5415876507759094,-0.18395398557186127,0.008072389289736748
2.8224680423736572,0.780710756778717,-0.06589537858963013,-0.11951667070388794,-0.94520317562239,-1.302711710371334,-0.9226546441806199,-0.5646616816520691,0.8106158971786499,-0.1551109403371811,1.6815904378890991,-0.35136041045188904,-0.2801620066165924
2.8422648906707764,0.7477111220359802,0.05837571620941162,-0.052102506160736084,-0.9249970230431892,-1.2604693808097591,-0.86046332366281,-0.5730896592140198,0.7986189723014832,-0.18378299474716187,2.2430248260498047,-0.42565831542015076,-0.653789222240448
2.862252950668335,0.7958940267562866,-0.2042863965034485,0.22794945538043976,-0.8974756741398261,-1.2291041815828836,-0.809058477186559,-0.5875353217124939,0.781755268573761,-0.2089521735906601,1.4041752815246582,-0.5208184719085693,-0.9087963104248047
2.882014036178589,0.8773373365402222,-0.3115301728248596,0.37668687105178833,-0.8680944216168419,-1.2325040950961186,-0.79292817815603,-0.6096524596214294,0.7630987763404846,-0.21448583900928497,0.8738309741020203,-1.158556580543518,-1.5389753580093384
2.9019229412078857,0.7692949771881104,0.017439186573028564,0.2703803777694702,-0.8306341439215882,-1.243555077398091,-0.7712823031764718,-0.6386187672615051,0.7383592128753662,-0.21677617728710175,1.7644424438476562,-1.3869619369506836,-1.578714370727539
2.9222071170806885,0.4024026393890381,0.421489417552948,0.18994750082492828,-0.7828834316344808,-1.2484718713965393,-0.7378767122170901,-0.6723764538764954,0.7053263783454895,-0.22455431520938873,1.8948498964309692,-1.5933080911636353,-2.1742160320281982
2.9419350624084473,-0.04837220907211304,0.37965691089630127,0.20013701915740967,-0.7306727084915717,-1.2611970238707466,-0.7095607725681048,-0.7093183398246765,0.6673707962036133,-0.22690081596374512,1.534536600112915,-1.6020656824111938,-2.1777915954589844
2.9620559215545654,-0.6335800290107727,0.35061824321746826,0.06203390657901764,-0.6740937009567785,-1.2827267210869053,-0.6863144158405878,-0.7490799427032471,0.6241894960403442,-0.2219611406326294,2.0045053958892822,-2.1478137969970703,-2.7759361267089844
2.9817709922790527,-1.1036038398742676,0.39099186658859253,-0.001334458589553833,-0.6082979102902654,-1.3058159168943766,-0.6539312588353327,-0.7919802665710449,0.5714715123176575,-0.21491298079490662,2.1585705280303955,-1.948243260383606,-2.730450391769409
3.001595973968506,-1.3384486436843872,0.08534008264541626,-0.03382508456707001,-0.5485744998299905,-1.3239982104396528,-0.6288840249149864,-0.8274144530296326,0.5214714407920837,-0.20845386385917664,1.2667802572250366,-1.328202247619629,-2.5697906017303467
3.02150297164917,-1.409517526626587,0.0084972083568573,-0.10308901965618134,-0.49922631604812095,-1.342747158346069,-0.6227979970602235,-0.8552224040031433,0.4787464141845703,-0.1984855979681015,0.47842127084732056,-0.8460285067558289,-1.9455897808074951
3.041416883468628,-1.0182783603668213,0.2123047411441803,-0.0332939475774765,-0.47102784672026204,-1.3537504332891075,-0.6235869016259343,-0.8701952695846558,0.4538024365901947,-0.19189514219760895,0.1844966858625412,-0.25175079703330994,-0.8445939421653748
3.061414957046509,-0.7134719491004944,0.1703001856803894,-0.016745910048484802,-0.46256659675658035,-1.351082531630178,-0.6156415697336497,-0.8733963966369629,0.4462464451789856,-0.19504594802856445,0.7516498565673828,0.12851504981517792,0.1636393815279007
3.079918146133423,-0.4903717637062073,0.020600050687789917,0.009059548377990723,-0.4684021944201327,-1.3357309269370896,-0.5943346557516238,-0.8677521347999573,0.45146116614341736,-0.20782043039798737,0.8418585658073425,0.44256991147994995,0.720302939414978
3.1021480560302734,-0.42765146493911743,-0.33149635791778564,0.086475670337677,-0.47906760043984453,-1.3177664533227968,-0.5756603553577496,-0.8591681122779846,0.46095195412635803,-0.22215668857097626,0.4863537549972534,0.5014244318008423,0.6754454374313354
3.123016119003296,-0.32387351989746094,-0.4415566325187683,0.19434094429016113,-0.4898083893322512,-1.304076199137707,-0.5678963808320204,-0.8512212038040161,0.4704568088054657,-0.23257936537265778,-0.047048747539520264,0.4528091549873352,0.5144019722938538
3.1415200233459473,-0.20186835527420044,-0.41413187980651855,0.15779897570610046,-0.49872968500711856,-1.2984828986833328,-0.5682052101780839,-0.8458306193351746,0.47831034660339355,-0.2361985146999359,-0.16418573260307312,0.09370913356542587,0.3590245842933655
3.161140203475952,-0.1358242630958557,-0.3512488603591919,0.03659631311893463,-0.5056912740752756,-1.300421313216654,-0.5717125742558465,-0.8430576324462891,0.4844123125076294,-0.23366346955299377,-0.33671650290489197,-0.05814847722649574,0.23936256766319275
3.181190013885498,-0.2012939453125,-0.3319987952709198,-0.006501555442810059,-0.5111313640167096,-1.304088631671017,-0.5795974710016245,-0.841354489326477,0.4891643226146698,-0.2298722267150879,-0.4711019992828369,0.14143724739551544,0.09663877636194229
3.2011611461639404,-0.23850446939468384,-0.275272399187088,0.026878386735916138,-0.5136240996377079,-1.3045299341614407,-0.5908561764599622,-0.8402768969535828,0.4913369417190552,-0.22917936742305756,-0.5160737633705139,0.35689157247543335,-0.11791104823350906
3.2209160327911377,-0.17604392766952515,-0.23474714159965515,0.07246389985084534,-0.5122953599310717,-1.3037451423952393,-0.603583329310889,-0.8407254815101624,0.4901792109012604,-0.2300107628107071,-0.5277837514877319,0.3005591630935669,-0.3246968686580658
3.240873098373413,-0.09444338083267212,-0.195277601480484,0.09898865222930908,-0.5070744389315008,-1.306453731089312,-0.6188774532708294,-0.8438044190406799,0.4856218993663788,-0.22839833796024323,-0.6073656678199768,0.17675794661045074,-0.47769588232040405
3.2610561847686768,-0.0585135817527771,-0.152960866689682,0.07331466674804688,-0.5009184782384223,-1.313034436840298,-0.6363081513180151,-0.8481637835502625,0.480231374502182,-0.2235984206199646,-0.6900309324264526,0.015921665355563164,-0.49070125818252563
3.2809221744537354,-0.044147610664367676,-0.09124931693077087,0.01498439908027649,-0.49651682467581526,-1.3216915487540277,-0.6541269510534766,-0.8521078824996948,0.476365864276886,-0.21676649153232574,-0.743162214756012,-0.016721853986382484,-0.323113352060318
3.3001110553741455,-0.04305845499038696,-0.06656625866889954,-0.026151031255722046,-0.49501406249488156,-1.3304207566425998,-0.6732041510860822,-0.8546619415283203,0.47504401206970215,-0.20949028432369232,-0.8338319063186646,0.09088663011789322,-0.22384172677993774
3.3200361728668213,-0.05677908658981323,-0.05251181125640869,-0.04289768636226654,-0.4956719002144065,-1.3360004963590753,-0.6927176390354866,-0.8555134534835815,0.4756228029727936,-0.2046455293893814,-0.8336493968963623,0.29056811332702637,-0.15842999517917633
3.340609073638916,-0.07189446687698364,-0.04326164722442627,-0.06561897695064545,-0.49690011633823467,-1.3393570938291006,-0.7121408054765769,-0.8556263446807861,0.47670283913612366,-0.2016386240720749,-0.9115307927131653,0.31126177310943604,-0.09894774109125137
3.3606560230255127,-0.049470722675323486,-0.06432527303695679,-0.014917492866516113,-0.49949567516707416,-1.3416170942973789,-0.7327160009292647,-0.8548720479011536,0.4789828956127167,-0.19942264258861542,-0.7731523513793945,0.43282994627952576,-0.058244455605745316
3.3806159496307373,-0.06831240653991699,-0.028216958045959473,-0.06999176740646362,-0.502742266554428,-1.3383996112468923,-0.7445431481006396,-0.8527082204818726,0.48183029890060425,-0.20181292295455933,-0.3689587414264679,0.4585780203342438,0.16481298208236694
3.3999760150909424,-0.04940295219421387,-0.014223545789718628,-0.0687628835439682,-0.5085838695077329,-1.3313518844030479,-0.7493055401523329,-0.8485158085823059,0.48694083094596863,-0.20714642107486725,-0.24328823387622833,0.4850786030292511,0.32225045561790466
3.4202780723571777,-0.07739895582199097,-0.1119081974029541,-0.04039841890335083,-0.5182334449007734,-1.3249180031609433,-0.7567301959877977,-0.8425688147544861,0.4953463077545166,-0.21144777536392212,-0.6707459688186646,0.5206167101860046,0.4117404818534851
3.4401638507843018,-0.15368521213531494,-0.14340120553970337,-0.046674758195877075,-0.5290330990814837,-1.3244657267700708,-0.7745032157228339,-0.8372359871864319,0.5046988725662231,-0.21051204204559326,-0.9467558264732361,0.35369741916656494,0.24467620253562927
3.4601290225982666,-0.17365950345993042,-0.12843012809753418,-0.13372546434402466,-0.5401847142014177,-1.3317269970537848,-0.8011456393318,-0.8332222700119019,0.5142943859100342,-0.20308169722557068,-1.837332844734192,0.15976715087890625,0.32120081782341003
3.479990005493164,-0.22320246696472168,-0.251945436000824,0.03457966446876526,-0.5517490742127367,-1.3468364706666591,-0.8430710859020109,-0.8303408026695251,0.5241775512695312,-0.1891358643770218,-1.8420400619506836,0.570578396320343,0.0769822970032692
3.5000321865081787,-0.1830521821975708,-0.19658541679382324,0.07170677185058594,-0.5638155019931196,-1.3532174133491859,-0.8830898675538703,-0.8252944946289062,0.5344150066375732,-0.18245497345924377,-1.6693111658096313,0.863244354724884,0.2985278367996216
3.519986867904663,-0.12235641479492188,-0.14792609214782715,-0.015073403716087341,-0.574286038265323,-1.3524432644375588,-0.9137701952477875,-0.8196449875831604,0.5432354807853699,-0.18187165260314941,-1.0959064960479736,0.8587648272514343,0.18465948104858398
3.5399601459503174,-0.09162789583206177,-0.08335500955581665,-0.05858476459980011,-0.5824731356701347,-1.348942422019662,-0.9375619093577973,-0.8146376013755798,0.5500909686088562,-0.18375523388385773,-1.1218582391738892,0.7983328700065613,0.15806813538074493
3.5601861476898193,-0.1136743426322937,-0.17819726467132568,-0.04248832166194916,-0.5903793532268294,-1.3488484507617309,-0.9659875853909209,-0.8103522062301636,0.5566762089729309,-0.1828686147928238,-1.3752652406692505,0.7731381058692932,0.12777221202850342
3.580065965652466,-0.13311541080474854,-0.17342859506607056,-0.06457476317882538,-0.5995638608260624,-1.3514660630928002,-0.9984468300530523,-0.8058037161827087,0.5642824769020081,-0.17962677776813507,-1.438174843788147,0.7952818274497986,0.20197032392024994
3.5999748706817627,-0.13278567790985107,-0.11382901668548584,-0.07908284664154053,-0.6101761122441218,-1.3541883039398055,-1.0311699191682127,-0.8003961443901062,0.5730118155479431,-0.1761355847120285,-1.3943508863449097,0.813605010509491,0.2568525969982147
3.619976043701172,-0.12001967430114746,-0.1220329999923706,-0.0780600905418396,-0.6221171448993105,-1.3539533622566313,-1.0608825686298966,-0.7936156988143921,0.5827569365501404,-0.17483896017074585,-1.2670191526412964,0.9283077120780945,0.3825749456882477
3.641249895095825,-0.09905737638473511,-0.12088954448699951,-0.0432349294424057,-0.6339605085965109,-1.3504725536447877,-1.0886000985628654,-0.7862118482589722,0.592340350151062,-0.17607954144477844,-1.1675218343734741,1.060286521911621,0.29384544491767883
3.660032033920288,-0.0571291446685791,-0.13338172435760498,-0.015475571155548096,-0.6439914831367126,-1.3438798282558917,-1.1146917063364192,-0.7792052030563354,0.60039222240448,-0.17991314828395844,-1.1078790426254272,1.1411446332931519,0.20931529998779297
3.6799750328063965,0.052296340465545654,-0.17086398601531982,-0.025052666664123535,-0.6518076984977523,-1.3380271680401736,-1.1402119518198781,-0.7735489010810852,0.6066244840621948,-0.1833823323249817,-1.0721940994262695,0.9602593183517456,0.09800610691308975
3.69997501373291,0.15918004512786865,-0.15585458278656006,-0.02642969787120819,-0.658549441017158,-1.336998906903867,-1.1659400327063332,-0.7693637609481812,0.6119703054428101,-0.18322594463825226,-1.1102885007858276,0.7050129771232605,0.12491258978843689
3.719974994659424,0.1872100830078125,-0.11073696613311768,-0.03923279047012329,-0.6668565243670919,-1.3424942153846045,-1.1934573409507074,-0.7653809785842896,0.6185190081596375,-0.17783863842487335,-1.1810537576675415,0.4671071171760559,0.17889419198036194
3.7400190830230713,0.13108569383621216,-0.0408136248588562,-0.06180846691131592,-0.674950959182142,-1.3521122517013784,-1.2210700822274378,-0.7621435523033142,0.6248590350151062,-0.16937734186649323,-1.0557897090911865,0.31875407695770264,0.16012732684612274
3.759965181350708,0.11276417970657349,-0.008343219757080078,-0.06531782448291779,-0.6829512200793432,-1.35955299434663,-1.2437575592038517,-0.7584705948829651,0.6310850977897644,-0.16264840960502625,-0.8908373117446899,0.3810926079750061,0.25414225459098816
3.7799930572509766,0.1521037220954895,-0.07356095314025879,-0.002307713031768799,-0.6916193104917973,-1.3641905532637735,-1.2638563230887354,-0.7538341879844666,0.6377852559089661,-0.15800106525421143,-0.8288024663925171,0.3916723132133484,0.2807510495185852
3.7999799251556396,0.1971941590309143,-0.09631121158599854,-0.020541414618492126,-0.6995491959716413,-1.3690100501367204,-1.2814286633259393,-0.7496081590652466,0.643872857093811,-0.15334762632846832,-0.6354107856750488,0.233806312084198,0.2568548023700714
3.819978952407837,0.2202357053756714,-0.05564850568771362,-0.06899861991405487,-0.7061312230455119,-1.3745093092858542,-1.2934661659691378,-0.7462671995162964,0.6488949656486511,-0.14839327335357666,-0.39274871349334717,0.0011966924648731947,0.2030450850725174
3.8399760723114014,0.21386605501174927,-0.013611793518066406,-0.10052843391895294,-0.7109156554940856,-1.3799173310768424,-1.2992407644825803,-0.7440022826194763,0.6525278687477112,-0.1437646746635437,-0.12696439027786255,-0.1262950450181961,0.18177038431167603
3.8600120544433594,0.18354672193527222,0.018844783306121826,-0.07499575614929199,-0.7142212156381679,-1.381312017825716,-1.2985339570606638,-0.742079496383667,0.6550291776657104,-0.14231981337070465,0.08191269636154175,-0.04167886823415756,0.15325497090816498
3.879976987838745,0.1825253963470459,-0.014752566814422607,-0.025803446769714355,-0.7162593128878298,-1.3783374122472078,-1.2958600737920758,-0.740341067314148,0.6565678119659424,-0.14427094161510468,0.055110618472099304,0.18313470482826233,0.08145035803318024
3.9000210762023926,0.22855526208877563,-0.0678669810295105,0.044575273990631104,-0.7160753186067927,-1.3731040602028857,-1.2966516693837364,-0.7396942973136902,0.6564289927482605,-0.14816711843013763,-0.12928733229637146,0.39293766021728516,-0.12855839729309082
3.9201419353485107,0.3045322299003601,-0.09133988618850708,0.1049584150314331,-0.7121846792923557,-1.3683842112171756,-1.3042260330053717,-0.7414830327033997,0.6534889936447144,-0.15216900408267975,-0.3543296754360199,0.547344446182251,-0.34907588362693787
3.9400110244750977,0.41145139932632446,-0.06432884931564331,0.10133135318756104,-0.7062089736556415,-1.3671141008925398,-1.3180420619233075,-0.745100200176239,0.6489541530609131,-0.15389780700206757,-0.5373544692993164,0.4727794826030731,-0.45356249809265137
3.960045099258423,0.41626983880996704,0.02641540765762329,0.11539167165756226,-0.6984726614776279,-1.3661332298781848,-1.3333305776125508,-0.7498423457145691,0.6430487632751465,-0.15564429759979248,-0.4420316815376282,0.6706789135932922,-0.5320863127708435
3.979979991912842,0.4225282669067383,0.04877209663391113,0.17335903644561768,-0.6885284114952143,-1.358613993450853,-1.3475549568790453,-0.7548648118972778,0.6354015469551086,-0.16261674463748932,-0.4128666818141937,0.9831201434135437,-0.6745372414588928
3.9999849796295166,0.4915270209312439,0.04413050413131714,0.19334973394870758,-0.6768109817646133,-1.3450368328992761,-1.360823209998769,-0.7597918510437012,0.6263101100921631,-0.17450502514839172,-0.3514532148838043,1.1927814483642578,-0.6666233539581299
4.020025968551636,0.5329124331474304,-0.004914820194244385,0.18713541328907013,-0.6660768077229284,-1.3283620144852968,-1.3736858141054027,-0.7632591724395752,0.6179061532020569,-0.18875272572040558,-0.380498468875885,1.2236700057983398,-0.642426073551178
4.040022134780884,0.5171711444854736,0.026791751384735107,0.08091765642166138,-0.6546598380729709,-1.3145519377484607,-1.3866012594372992,-0.7673543691635132,0.6088894605636597,-0.2010500282049179,-0.3107805550098419,0.946886420249939,-0.7233800888061523
4.0591230392456055,0.3828701376914978,0.17095625400543213,-0.006767481565475464,-0.6415305352123412,-1.3030794787226205,-1.3968548059511607,-0.7726406455039978,0.5984223484992981,-0.2119366079568863,-0.13802462816238403,0.8773411512374878,-0.735937774181366
4.080132007598877,0.26680660247802734,0.17533105611801147,0.02506299316883087,-0.629987019108304,-1.2885752888497877,-1.4043388560313317,-0.7760687470436096,0.5891342759132385,-0.22502931952476501,-0.16529768705368042,1.0449533462524414,-0.5479013323783875
4.09995698928833,0.20284652709960938,0.18894553184509277,0.05755890905857086,-0.6214358059160318,-1.2706040027836387,-1.4119463392664577,-0.7766838669776917,0.5822031497955322,-0.2404201477766037,-0.1541242152452469,1.185518741607666,-0.4394848644733429
4.119969129562378,0.21950632333755493,0.16203945875167847,0.05155321955680847,-0.6147015945598591,-1.2491450808420426,-1.4163175674376158,-0.7750483751296997,0.5767147541046143,-0.2582639455795288,0.0016851050313562155,1.1882853507995605,-0.33387598395347595
4.139975070953369,0.2607875466346741,0.17987102270126343,0.05802139639854431,-0.6083353950705296,-1.2267318341737854,-1.4164532112805808,-0.7725063562393188,0.5715022683143616,-0.27680182456970215,0.19464252889156342,1.0478205680847168,-0.2811902165412903
4.159985065460205,0.28725868463516235,0.14532917737960815,0.06077048182487488,-0.6005416987430111,-1.206237692796671,-1.4132146643572945,-0.7708097696304321,0.5650894641876221,-0.2941536009311676,0.3219636380672455,0.8144416809082031,-0.36890915036201477
4.17998194694519,0.3199029564857483,0.09530764818191528,0.05983123183250427,-0.5905922811192293,-1.1907158653273213,-1.4104417512179843,-0.7713344693183899,0.5568530559539795,-0.3081527650356293,0.24302631616592407,0.5774633884429932,-0.5134104490280151
4.199975967407227,0.32887446880340576,0.044178664684295654,0.013590991497039795,-0.5773100874794639,-1.180408221043696,-1.4096757652931617,-0.7748889923095703,0.5457719564437866,-0.3188735544681549,0.3200780153274536,0.4406657814979553,-0.6582114100456238
4.2199790477752686,0.33348000049591064,0.03305286169052124,0.050079554319381714,-0.5628486251114146,-1.171070948987183,-1.408094201756395,-0.7790672183036804,0.5335975289344788,-0.32913216948509216,0.3727475106716156,0.4159127473831177,-0.6279377341270447
4.239983081817627,0.2524661421775818,0.08095204830169678,0.11106756329536438,-0.5476908403976923,-1.1600220065619422,-1.4042778016074264,-0.7827091217041016,0.520717203617096,-0.3409106135368347,0.5360621213912964,0.4806143343448639,-0.6632547974586487
4.260058164596558,0.18402087688446045,0.15266597270965576,0.11805498600006104,-0.5299867306331109,-1.1483762626816774,-1.398742768570321,-0.7869720458984375,0.5055218935012817,-0.35372692346572876,0.5593747496604919,0.3761948049068451,-0.7468926310539246
4.279989004135132,0.18602055311203003,0.1595044732093811,0.10147169232368469,-0.5133168595918967,-1.1430885192447253,-1.3983577785926193,-0.7926492094993591,0.49106931686401367,-0.3613288402557373,0.12409084290266037,0.12003777176141739,-0.758677065372467
4.299976110458374,0.14020609855651855,0.18425461649894714,0.09445565938949585,-0.5002096793070195,-1.1452800210624507,-1.4026280682221686,-0.7992333173751831,0.47960954904556274,-0.3622168004512787,0.22812457382678986,-0.09711798280477524,-0.5820077657699585
4.3199779987335205,0.05522340536117554,0.36729905009269714,0.07501566410064697,-0.4864366317418167,-1.144246255009238,-1.3958146478776878,-0.8047962188720703,0.46747884154319763,-0.3657412827014923,0.8788452744483948,-0.09283659607172012,-0.459783673286438
4.339985132217407,0.028142571449279785,0.4065885543823242,0.13606101274490356,-0.46915231085814973,-1.136336562213939,-1.3771818391086095,-0.8090875148773193,0.45213034749031067,-0.3754408061504364,1.3115084171295166,0.019194334745407104,-0.3939152657985687
4.360008001327515,0.07385742664337158,0.22336077690124512,0.14068827033042908,-0.45116831730645807,-1.1244914906898296,-1.3523981431129113,-0.8117877840995789,0.436017245054245,-0.3884451389312744,1.3913334608078003,0.02887137420475483,-0.3088078498840332
4.379986047744751,0.04197049140930176,0.14555153250694275,0.12219411134719849,-0.4334623297884975,-1.1157762557282043,-1.3299580902513908,-0.8151791095733643,0.420015424489975,-0.3988358676433563,1.1766847372055054,-0.11198161542415619,-0.4767445921897888
4.400009870529175,-0.05333667993545532,0.10422658920288086,0.08012190461158752,-0.41473237222232684,-1.114610783498937,-1.3166594515520407,-0.8216328620910645,0.40294501185417175,-0.40318092703819275,0.689169704914093,-0.3407447636127472,-0.6416218876838684
4.419977903366089,-0.0726388692855835,0.027007073163986206,0.04610395431518555,-0.3990582580621428,-1.1226098663545285,-1.315770176072381,-0.830422043800354,0.3885507583618164,-0.399283766746521,0.1091599389910698,-0.48511701822280884,-0.7042240500450134
4.439976930618286,-0.1637023687362671,-0.004866749048233032,-0.03613007068634033,-0.3862566155729492,-1.1353908081237656,-1.3235989462817463,-0.8398987650871277,0.3767234683036804,-0.3907039761543274,-0.19578927755355835,-0.4489445388317108,-0.7885110974311829
4.459977865219116,-0.27157604694366455,0.0059819817543029785,0.0037437081336975098,-0.37100075627083623,-1.1455282195374032,-1.3358080124545753,-0.8489532470703125,0.362548291683197,-0.38449621200561523,-0.13343368470668793,-0.008955810219049454,-1.0482678413391113
4.479979038238525,-0.31888216733932495,-0.09758991003036499,0.13307487964630127,-0.3496020974722501,-1.143461310949805,-1.3478027359418527,-0.8550223708152771,0.342523992061615,-0.389376699924469,0.23275122046470642,0.6733555793762207,-1.3037147521972656
4.499979019165039,-0.33956992626190186,-0.2611656188964844,0.18125855922698975,-0.3223690208407372,-1.121502610422733,-1.3507073021305143,-0.8543540835380554,0.3168144226074219,-0.4119561016559601,0.48948368430137634,1.528292179107666,-1.579315185546875
4.520025014877319,-0.7226617932319641,-0.05821645259857178,0.08636519312858582,-0.2824940510730715,-1.0934742499856551,-1.350132909042476,-0.8530218601226807,0.2787517011165619,-0.44119301438331604,1.2274610996246338,0.5102865695953369,-2.1943588256835938
4.539995908737183,-0.4353066086769104,-0.16650594770908356,-0.17556166648864746,-0.2316676994365599,-1.1086419479600345,-1.3429184390713174,-0.8711814284324646,0.22960099577903748,-0.4339658319950104,0.9246808886528015,-1.824714183807373,-1.5880403518676758
4.559170961380005,-0.408649206161499,-0.239920511841774,0.6288944482803345,-0.21325873464686143,-1.1434729250214755,-1.3552672976777895,-0.8894618153572083,0.2116459310054779,-0.4050479531288147,-0.7119156122207642,-0.9252578020095825,-0.7786746025085449
4.579984903335571,-1.197348952293396,-0.23881135880947113,0.5056045055389404,-0.2025967961054215,-1.1465467310597042,-1.3763704229825187,-0.8927084803581238,0.20121368765830994,-0.40321800112724304,-0.2390294075012207,0.7647384405136108,-0.9817801713943481
4.599980115890503,-0.8416191935539246,0.2207338958978653,0.05502474308013916,-0.1866281008210668,-1.132126971633951,-1.3696116125008613,-0.8895973563194275,0.1855466067790985,-0.4173599183559418,1.1897327899932861,0.40044838190078735,-0.0874258279800415
4.619976997375488,-0.41118520498275757,-0.03565658628940582,0.18654805421829224,-0.1813170025686883,-1.125752116609755,-1.3457778101227973,-0.887795627117157,0.18032513558864594,-0.42344072461128235,1.0635955333709717,-0.08627057075500488,0.5451211333274841
4.640027046203613,-0.5716964602470398,-0.3767922520637512,0.30778539180755615,-0.18783128179144246,-1.1219949509116305,-1.3232454681766876,-0.8851212859153748,0.18672876060009003,-0.4262545704841614,0.708561897277832,0.07817545533180237,0.9147219061851501
4.660027980804443,-0.5939909219741821,-0.3479052186012268,0.2525390386581421,-0.200954833286772,-1.116414036455085,-1.3033483461582915,-0.8804506659507751,0.1996050477027893,-0.4300750195980072,0.5053190588951111,-0.03346363827586174,1.070330262184143
4.679978132247925,-0.4644169807434082,-0.39298659563064575,0.11187326908111572,-0.2182158796352441,-1.1163510103987453,-1.2849800374356992,-0.8771969079971313,0.21648815274238586,-0.42855408787727356,0.316362589597702,-0.27546703815460205,1.3212631940841675
4.700000047683716,-0.4984228014945984,-0.3327162265777588,0.06320595741271973,-0.24246405936350118,-1.1174039414671642,-1.2670727154712775,-0.8726710677146912,0.2400953322649002,-0.42520540952682495,0.1796233057975769,-0.1865169256925583,1.6192381381988525
4.719978094100952,-0.6525945067405701,-0.17078667879104614,0.07417580485343933,-0.274105519793954,-1.1162591259561567,-1.2524805169860993,-0.8649225831031799,0.27068597078323364,-0.42265594005584717,-0.3219870328903198,-0.05246476083993912,1.8627876043319702
4.740012884140015,-0.708536684513092,-0.16745659708976746,0.13715744018554688,-0.3150530369713498,-1.1161767200183026,-1.2457019728988572,-0.8542075753211975,0.30986690521240234,-0.4175071120262146,-0.7124943733215332,-0.23388896882534027,2.040029764175415
4.76001501083374,-0.6661539673805237,-0.0863594114780426,0.08105665445327759,-0.3582724817397061,-1.121967984218117,-1.2397530227821225,-0.8437491059303284,0.3506569266319275,-0.4063586890697479,-0.5953510999679565,-0.5006811022758484,2.0918614864349365
4.780004024505615,-0.6610902547836304,-0.0553210973739624,0.07436498999595642,-0.39873464240630346,-1.1267478344729887,-1.227145035918165,-0.8321806192398071,0.3882525563240051,-0.39589810371398926,-0.09275571256875992,-0.4001445174217224,2.0642778873443604
4.799967050552368,-0.6847594380378723,-0.06963273882865906,0.010847210884094238,-0.4345440884890067,-1.1259414529259804,-1.2087805260995388,-0.8187806606292725,0.42099690437316895,-0.39033326506614685,0.004062256310135126,-0.3130492866039276,1.8764610290527344
4.819112062454224,-0.6111752986907959,-0.14014551043510437,-0.04197371006011963,-0.4684127687859466,-1.1254859587701707,-1.1943887508801787,-0.8052676916122437,0.45147058367729187,-0.3843415081501007,-0.4130200743675232,-0.27471283078193665,1.7240532636642456
4.839979887008667,-0.558285653591156,-0.18492171168327332,-0.024052679538726807,-0.5030696858963856,-1.1308981810675343,-1.1945227926786208,-0.7926971316337585,0.4821171760559082,-0.37308773398399353,-1.0594333410263062,-0.26123207807540894,1.4291681051254272
4.859982967376709,-0.5195217132568359,-0.15316152572631836,-0.06214913725852966,-0.5364312500881541,-1.143014489615244,-1.2072073173052889,-0.7820836901664734,0.5110718011856079,-0.35658249258995056,-1.2488908767700195,-0.3480212986469269,1.141005277633667
4.879986047744751,-0.44032561779022217,-0.03702843189239502,-0.09126046299934387,-0.5647233971176886,-1.1590058218059176,-1.2219405172068478,-0.7741215825080872,0.5351821780204773,-0.33810657262802124,-0.9972319006919861,-0.45623984932899475,0.9667168259620667
4.8999998569488525,-0.3807395100593567,-0.016250789165496826,-0.0805186927318573,-0.587492489561881,-1.1750079410844112,-1.233852494122502,-0.7679879665374756,0.5542756915092468,-0.3208942115306854,-0.8586471080780029,-0.483791321516037,0.7125033736228943
4.919980049133301,-0.33809173107147217,-0.023197412490844727,-0.0570448637008667,-0.6057028035642804,-1.1928478295511842,-1.2480420846192901,-0.7640811800956726,0.5693399906158447,-0.30336764454841614,-0.9718717932701111,-0.4989891052246094,0.5385051369667053
4.93997597694397,-0.2728279232978821,-0.008174300193786621,-0.054882973432540894,-0.6225144706576151,-1.2152228355768993,-1.2698531253684473,-0.761596143245697,0.5830798149108887,-0.28282448649406433,-1.282322645187378,-0.501947283744812,0.3832358121871948
4.959975957870483,-0.23348170518875122,0.053075969219207764,-0.08409896492958069,-0.637297895119238,-1.2417277000869495,-1.2977014294812745,-0.7605828642845154,0.595025897026062,-0.2597272992134094,-1.2955504655838013,-0.4919278621673584,0.2936710715293884
4.9799768924713135,-0.1731785535812378,0.11045187711715698,-0.11041435599327087,-0.6486577062128188,-1.2665999526505096,-1.3230559947103877,-0.7603086233139038,0.6041172742843628,-0.23869140446186066,-0.9927994012832642,-0.47403836250305176,0.17372027039527893
4.999975919723511,-0.11655962467193604,0.1422863006591797,-0.10803103446960449,-0.6566801647370394,-1.2881984676957132,-1.343442856168237,-0.7606071829795837,0.6104908585548401,-0.22085683047771454,-0.8313227891921997,-0.45225557684898376,0.09855680912733078
5.019981145858765,-0.11647135019302368,0.11484062671661377,-0.08285883069038391,-0.6617893578477655,-1.3090456730830908,-1.3635149530830546,-0.7620229125022888,0.6145294308662415,-0.20414361357688904,-0.8825021386146545,-0.4134727418422699,0.009242478758096695
5.040030002593994,-0.05343228578567505,0.09724730253219604,-0.07900196313858032,-0.6668670183148484,-1.331978970702102,-1.3871156571939156,-0.7634623646736145,0.6185272336006165,-0.1858752965927124,-1.0370526313781738,-0.41519269347190857,0.00998980738222599
5.060009002685547,-0.04565238952636719,0.1345556378364563,-0.10064840316772461,-0.6715939619581095,-1.3571446925870327,-1.4154050867166277,-0.7650319337844849,0.622234582901001,-0.16598358750343323,-1.1954575777053833,-0.33091065287590027,-0.037289321422576904
5.080008029937744,0.0013330578804016113,0.13738608360290527,-0.13800351321697235,-0.6745114091198805,-1.3820463591987817,-1.444976606445878,-0.7671412229537964,0.6245157718658447,-0.14654229581356049,-1.1471773386001587,-0.3072243332862854,-0.17607110738754272
5.1000120639801025,0.09759354591369629,0.17032670974731445,-0.09143340587615967,-0.6726997702939892,-1.4052724294810472,-1.4739159577311294,-0.7714522480964661,0.6230998635292053,-0.12887290120124817,-1.0845268964767456,-0.2240823209285736,-0.4071764051914215
5.119976043701172,0.19142872095108032,0.1540171504020691,-0.094596266746521,-0.6680430855661564,-1.4255669785105827,-1.5017774791498018,-0.7767711877822876,0.6194509267807007,-0.11360983550548553,-1.0588845014572144,-0.0842878520488739,-0.3809024393558502
5.140000104904175,0.3332670331001282,0.17019563913345337,-0.11247485131025314,-0.6632651368554905,-1.4463338313673457,-1.5322371807464592,-0.7818907499313354,0.6156930327415466,-0.09782171249389648,-1.2586586475372314,-0.09586834162473679,-0.4087493419647217
5.1599791049957275,0.4585198163986206,0.16446733474731445,-0.09959077090024948,-0.6575732492648819,-1.4702959267253215,-1.5668586472398651,-0.7874840497970581,0.6111979484558105,-0.07940999418497086,-1.347640872001648,-0.1812438666820526,-0.46868064999580383
5.179978132247925,0.6437349319458008,0.08565109968185425,-0.03634565323591232,-0.6506954541136318,-1.4932407958817742,-1.597997633639291,-0.7932710647583008,0.6057398915290833,-0.06164620444178581,-1.0700308084487915,-0.24081069231033325,-0.4929935038089752
5.199993848800659,0.8141782879829407,0.16120052337646484,0.0016071759164333344,-0.6402048694267162,-1.5148800731424459,-1.6224273630651633,-0.8007202744483948,0.5973597764968872,-0.04481999948620796,-0.7700706124305725,-0.36063864827156067,-0.5388091802597046
5.21998405456543,0.9919230937957764,0.03307616710662842,-0.044706765562295914,-0.6319300900291567,-1.533588801128287,-1.6407998181524497,-0.8063306212425232,0.5907032489776611,-0.03001542016863823,-0.7101052403450012,-0.4716428518295288,-0.38443610072135925
5.239978075027466,1.1354906558990479,-0.001600503921508789,-0.07379686832427979,-0.6315626150883817,-1.558533076311578,-1.663125886976475,-0.8070454001426697,0.5904066562652588,-0.009897495619952679,-1.0319671630859375,-0.6673305630683899,0.33909884095191956
5.259979963302612,1.2062908411026,-0.028581321239471436,-0.20941591262817383,-0.6347655305277708,-1.5791020505551678,-1.681937700683761,-0.8051831126213074,0.5929887294769287,0.00668778270483017,-0.477392315864563,-0.507239580154419,0.05408599227666855
5.279978036880493,1.3052430152893066,0.11964356899261475,-0.38098108768463135,-0.6426704674091491,-1.5893631457011486,-1.6847309888371997,-0.8003602027893066,0.599335253238678,0.014861850999295712,0.2911970615386963,-0.29032543301582336,0.8117893934249878
5.300030946731567,1.2894378900527954,-0.000671088695526123,-0.3756272792816162,-0.665240390312651,-1.5861206110561592,-1.6733088790097774,-0.7866761684417725,0.6172482967376709,0.012056193314492702,0.5348000526428223,-0.13011570274829865,1.319563865661621
5.319977045059204,1.2000465393066406,-0.1899479627609253,-0.2520226240158081,-0.6942876534865238,-1.5813507009541243,-1.661795131103407,-0.768467128276825,0.6398381590843201,0.00811099074780941,0.41096314787864685,-0.11402283608913422,1.5713657140731812
5.339979887008667,1.134137511253357,-0.2257402539253235,-0.17311561107635498,-0.7274667318384448,-1.578566361961976,-1.6516506115931326,-0.7468389868736267,0.6649797558784485,0.005803082138299942,0.4512239098548889,-0.2800658643245697,1.7319713830947876
5.359978914260864,1.012650966644287,-0.14099019765853882,-0.07631242275238037,-0.7632845719061853,-1.5738629510987139,-1.6340280146159742,-0.7225661873817444,0.6912984848022461,0.002215845976024866,0.9250749349594116,-0.4557030200958252,1.8413581848144531
5.38575291633606,0.7998263835906982,0.032200753688812256,-0.07644587755203247,-0.8008773684471442,-1.5622023731301415,-1.6027965905700023,-0.696051299571991,0.7179670929908752,-0.005981979891657829,1.2808016538619995,-0.46288245916366577,1.9613888263702393
5.39999794960022,0.5308021903038025,0.16990363597869873,-0.05645489692687988,-0.8375405718228652,-1.5397817751697345,-1.5627649342949033,-0.6689705848693848,0.7429993152618408,-0.020754478871822357,1.3462740182876587,-0.2581666111946106,1.6018717288970947
5.53711199760437,0.38437503576278687,0.0414203405380249,0.0003178715705871582,-0.8643496654255914,-1.5093396664306542,-1.5196235437428323,-0.6479096412658691,0.7606732845306396,-0.03986857086420059,1.391789436340332,0.022829106077551842,1.2633293867111206
5.608615159988403,0.5077198147773743,-0.10708409547805786,-0.013410627841949463,-0.8843154120649305,-1.4756043329362252,-1.4708407821469964,-0.630949854850769,0.7734812498092651,-0.060243453830480576,1.5577149391174316,-0.4588127136230469,1.0033677816390991
5.6362199783325195,0.10175824165344238,-0.28394651412963867,0.16011832654476166,-0.8643790400134574,-1.4081510303595874,-1.3388730687532204,-0.6405462026596069,0.7606923580169678,-0.10511031001806259,1.2990026473999023,-0.8777022361755371,-1.1460919380187988
5.645649194717407,0.20055949687957764,-0.24924468994140625,0.0753069519996643,-0.8358619355796031,-1.4103314908529625,-1.3131634432244406,-0.6619243621826172,0.7418747544288635,-0.10713671147823334,0.9213216304779053,-1.1242496967315674,-1.4056800603866577
5.663650035858154,-0.38336181640625,-0.06722021102905273,-0.18879413604736328,-0.754481965248236,-1.3914073587478561,-1.2443571223456986,-0.716934323310852,0.68491131067276,-0.13000768423080444,2.364694595336914,-0.7361113429069519,-2.351287841796875
5.680147886276245,-0.8262786269187927,-0.20173078775405884,-0.1051289290189743,-0.5698604546919183,-1.3892588378466646,-1.1306043459157458,-0.8281403183937073,0.5395145416259766,-0.15201209485530853,0.7951188683509827,-1.1173673868179321,-3.0761804580688477
5.6999499797821045,-0.47774243354797363,0.3356134593486786,0.044911712408065796,-0.4008171273738272,-1.4269619536243214,-1.1857053149407466,-0.9112345576286316,0.3901708424091339,-0.13197824358940125,-0.18184244632720947,0.30551353096961975,-0.4397244453430176
5.719933032989502,-0.3574367165565491,0.2490902841091156,0.06673391163349152,-0.4004754413624637,-1.4202633977605663,-1.1835664176841318,-0.9104619026184082,0.389856219291687,-0.13809919357299805,0.38486483693122864,0.28933462500572205,0.38014695048332214
5.739925146102905,-0.3722245693206787,0.07457917928695679,0.10651357471942902,-0.41131670411609933,-1.4086337703044003,-1.1690829593647933,-0.9045698642730713,0.3998165726661682,-0.14798682928085327,0.6697205305099487,0.29077523946762085,0.8175238370895386
5.759983062744141,-0.4280226230621338,-0.174961119890213,0.20499181747436523,-0.4268665750537736,-1.3946409144603804,-1.1524806659846119,-0.8961809873580933,0.4140205979347229,-0.15952056646347046,0.49215033650398254,0.4733879268169403,0.9652867317199707
5.779983043670654,-0.482446551322937,-0.3635302186012268,0.2997667193412781,-0.44391546531272663,-1.378695611329917,-1.1418266827391435,-0.886465311050415,0.4294787049293518,-0.17241673171520233,0.17003144323825836,0.673143208026886,0.8777282238006592
5.799986124038696,-0.4255831241607666,-0.36972323060035706,0.28629767894744873,-0.46064040068831047,-1.3629007191656486,-1.1369053636623623,-0.8764799237251282,0.44452184438705444,-0.18488769233226776,-0.04927363246679306,0.659603476524353,0.8276885151863098
5.819547891616821,-0.33644336462020874,-0.26635977625846863,0.2525055408477783,-0.4762532956840321,-1.3506057573847556,-1.1355199160818412,-0.867261528968811,0.45845264196395874,-0.19411006569862366,-0.14164040982723236,0.5212228894233704,0.7092657089233398
5.840031862258911,-0.2914811968803406,-0.24196329712867737,0.25904273986816406,-0.48983348435669566,-1.340694293372415,-1.1351683247835656,-0.859153687953949,0.47047895193099976,-0.2012576013803482,-0.1435188502073288,0.4399895668029785,0.654161810874939
5.860027074813843,-0.24742579460144043,-0.22299358248710632,0.2406182885169983,-0.5022003926664653,-1.3343510583708542,-1.136597939204208,-0.8521379232406616,0.4813553988933563,-0.20532463490962982,-0.2368028163909912,0.29381659626960754,0.543976366519928
5.8799779415130615,-0.20181190967559814,-0.20658904314041138,0.17763575911521912,-0.5147589822071549,-1.330630416041019,-1.1370454680564879,-0.8454293012619019,0.4923250675201416,-0.20703934133052826,-0.07408218085765839,0.0920417308807373,0.6817392110824585
5.8999879360198975,-0.17914074659347534,-0.16998660564422607,0.08979487419128418,-0.5282785696958354,-1.3326079399735375,-1.136065626116673,-0.8392919898033142,0.5040473341941833,-0.2037779539823532,-0.1259930431842804,-0.33269232511520386,0.5822045803070068
5.920046091079712,-0.18827253580093384,-0.1306220293045044,0.12834197282791138,-0.5397693095433064,-1.3384857192506863,-1.133976459928098,-0.8347836136817932,0.5139381289482117,-0.1974947452545166,-0.007592629641294479,-0.2991418242454529,0.6001561284065247
5.9400599002838135,-0.2951306700706482,-0.05334961414337158,0.1658145934343338,-0.5489530802460766,-1.3399088236338947,-1.1310330684562415,-0.8304339647293091,0.5217944383621216,-0.19521817564964294,0.08604620397090912,-0.0314289852976799,0.3272477090358734
5.96001410484314,-0.30434083938598633,-0.018575966358184814,0.12778647243976593,-0.5538448720252434,-1.33725000953179,-1.1263481258274217,-0.827418863773346,0.5259612202644348,-0.19683237373828888,0.15675806999206543,-0.01998191885650158,0.28387776017189026
5.979979038238525,-0.2823020815849304,0.018304824829101562,0.06707274913787842,-0.5581741159951156,-1.3365524127276025,-1.1207866667235502,-0.8250588178634644,0.5296383500099182,-0.19687919318675995,0.15285225212574005,-0.17727026343345642,0.255201131105423
5.999979019165039,-0.35237449407577515,0.0004107356071472168,0.04185909032821655,-0.5625281469245437,-1.3388365254801766,-1.1171165370530485,-0.8232542872428894,0.5333265066146851,-0.19446216523647308,0.029194094240665436,-0.20640407502651215,0.25399646162986755
6.020019054412842,-0.41501516103744507,-0.0122450590133667,0.07590001821517944,-0.5678658853511724,-1.341458473475646,-1.117239279310096,-0.8209773898124695,0.537834107875824,-0.1916530877351761,-0.15535832941532135,-0.04606039077043533,0.2684147357940674
6.039988994598389,-0.3878212571144104,-0.02984607219696045,0.10302713513374329,-0.5748407392242687,-1.3426531861815125,-1.1208816098658874,-0.8175317049026489,0.5437011122703552,-0.18981905281543732,-0.2831794321537018,0.11916948854923248,0.34673330187797546
6.0599658489227295,-0.3115667700767517,-0.04858666658401489,0.11397922039031982,-0.5847481211431976,-1.3432128542914203,-1.1270209562744542,-0.8123499751091003,0.5519893765449524,-0.18813683092594147,-0.5275855660438538,0.14321774244308472,0.48606258630752563
6.080024003982544,-0.24005943536758423,-0.09702658653259277,0.1437334567308426,-0.5974199630060619,-1.3444555656757702,-1.1363470415764167,-0.8057016730308533,0.5625112056732178,-0.18554246425628662,-0.47676149010658264,0.23500466346740723,0.6150665879249573
6.099980115890503,-0.1722506284713745,-0.08470261096954346,0.17250186204910278,-0.6126017564447633,-1.3434916798639316,-1.1424945776665398,-0.7971097826957703,0.5749980211257935,-0.18437311053276062,-0.3301653265953064,0.22727420926094055,0.7073978185653687
6.119976043701172,-0.16024160385131836,-0.08145219087600708,0.17071783542633057,-0.6265836569305834,-1.3391393651244454,-1.1432257823722394,-0.7883974313735962,0.5863808393478394,-0.1859765201807022,-0.04920264333486557,0.24080902338027954,0.6473187208175659
6.139999151229858,-0.10429996252059937,-0.12216192483901978,0.1583518534898758,-0.6394141994312953,-1.3327108376179138,-1.1395702347452739,-0.7798095941543579,0.5967254638671875,-0.18925081193447113,-0.03882215917110443,0.1982012838125229,0.6786178350448608
6.159978151321411,-0.03173375129699707,-0.18718254566192627,0.18528050184249878,-0.6527188433884227,-1.3270621705861536,-1.1367226036465758,-0.770954966545105,0.607348620891571,-0.1917196363210678,-0.059876177459955215,0.18995675444602966,0.6712454557418823
6.1799938678741455,0.014374077320098877,-0.24262112379074097,0.19182157516479492,-0.6663742964722813,-1.323379708748844,-1.1368827086322995,-0.7621310949325562,0.6181399822235107,-0.19250816106796265,-0.2973358929157257,0.19701218605041504,0.6485453844070435
6.2000250816345215,0.05568510293960571,-0.2800520658493042,0.1930854469537735,-0.6804497265728243,-1.3238713852215171,-1.1441172081235484,-0.7537137269973755,0.6291426420211792,-0.18998780846595764,-0.5973028540611267,0.19331349432468414,0.5651448369026184
6.220001935958862,0.1081465482711792,-0.3352919816970825,0.18603827059268951,-0.6932807147995617,-1.3292998019581697,-1.158556689904251,-0.7468336820602417,0.6390640139579773,-0.18394769728183746,-0.8141735196113586,0.19309218227863312,0.42032620310783386
6.239997148513794,0.18568497896194458,-0.42658793926239014,0.21051158010959625,-0.704866183812175,-1.3409661424563306,-1.1826426302514508,-0.7416695356369019,0.6479319334030151,-0.1735241413116455,-1.28951895236969,0.1634845733642578,0.2691277861595154
6.259983062744141,0.23934924602508545,-0.501264214515686,0.19681847095489502,-0.714541590622687,-1.363340548219502,-1.2185052647484378,-0.7391967177391052,0.6552712321281433,-0.15558914840221405,-1.5126632452011108,-0.07870754599571228,0.10332600027322769
6.2800209522247314,0.20949089527130127,-0.377885103225708,0.06946730613708496,-0.722288548251488,-1.3893598344631042,-1.252810342217827,-0.7379791736602783,0.6611034870147705,-0.13538521528244019,-1.1135189533233643,-0.27577435970306396,0.1634315699338913
6.29997992515564,0.07117927074432373,0.017632603645324707,-0.08156318962574005,-0.723109618556785,-1.4111374333078743,-1.2756580970759717,-0.7402162551879883,0.6617193222045898,-0.11919665336608887,-0.4553728997707367,-0.3102654814720154,-0.41622433066368103
6.319988012313843,-0.03515046834945679,0.15040814876556396,-0.11856621503829956,-0.7143193968441907,-1.4190966394279694,-1.2803071645282884,-0.746862530708313,0.655103325843811,-0.11417599767446518,0.011062255129218102,-0.13133160769939423,-0.26179054379463196
6.339978933334351,0.050425171852111816,-0.02190321683883667,0.025796175003051758,-0.7155438936839613,-1.4241692667146848,-1.288819643582979,-0.7466380000114441,0.6560280323028564,-0.11026871204376221,-0.7548348307609558,0.17554080486297607,0.2404896765947342
6.360005140304565,0.052621424198150635,-0.0995604395866394,0.042076475918293,-0.7250519932133773,-1.4372430955160715,-1.3173949591985248,-0.7417998909950256,0.6631743311882019,-0.09966302663087845,-1.4020888805389404,0.38002896308898926,0.42354264855384827
6.379976987838745,0.0546841025352478,0.02719569206237793,-0.03608006238937378,-0.7369167640636592,-1.4533167345953,-1.3534471375485941,-0.7354397773742676,0.6720078587532043,-0.08679885417222977,-1.2800766229629517,0.4233894646167755,0.39798420667648315
6.399980068206787,0.06507056951522827,0.11367851495742798,-0.09620893746614456,-0.745174618582732,-1.4614822800380587,-1.3780129913837318,-0.7305827736854553,0.6781001687049866,-0.08018259704113007,-0.6095467209815979,0.4241184592247009,0.282912939786911
6.419479131698608,0.06740403175354004,0.18666619062423706,-0.09282725304365158,-0.7511427134268499,-1.4602294710650519,-1.387744759253955,-0.7264463901519775,0.6824744343757629,-0.08064980804920197,-0.25771352648735046,0.39265215396881104,0.25774893164634705
6.440169095993042,0.05812859535217285,0.16743731498718262,-0.04635416716337204,-0.7568611306397756,-1.4579913304838312,-1.3957710049501306,-0.7223742604255676,0.6866428852081299,-0.0818348377943039,-0.43152880668640137,0.376377671957016,0.28631454706192017
6.460024118423462,0.05802440643310547,0.16419613361358643,-0.058937184512615204,-0.7647279917405748,-1.4611112816471554,-1.409556538371286,-0.7172346711158752,0.6923407316207886,-0.07898692786693573,-0.5962230563163757,0.25033843517303467,0.39471539855003357
6.479978084564209,0.0655527114868164,0.24615979194641113,-0.09774309396743774,-0.7734437918956653,-1.4665527543244599,-1.422247589174945,-0.7116251587867737,0.6986034512519836,-0.0744522288441658,-0.37098467350006104,0.10933035612106323,0.35402536392211914
6.499979019165039,0.07396888732910156,0.28510773181915283,-0.07955313473939896,-0.7795722365256444,-1.4685288462633141,-1.4270302372992665,-0.7074987292289734,0.7029752731323242,-0.07260741293430328,-0.05785630643367767,0.033424049615859985,0.23899675905704498
6.519978046417236,0.07643496990203857,0.24683505296707153,-0.06198912858963013,-0.783812726181483,-1.4671412298706559,-1.4260502410597573,-0.7044258117675781,0.7059848308563232,-0.0732799619436264,0.04454823210835457,0.04301906004548073,0.20468339323997498
6.5400941371917725,0.08714479207992554,0.20552074909210205,-0.029190540313720703,-0.7875810430029817,-1.4645847663483664,-1.4243360892241563,-0.7015857696533203,0.7086486220359802,-0.07479799538850784,0.016345620155334473,0.10767066478729248,0.196371391415596
6.559980154037476,0.1267196536064148,0.16673791408538818,0.0007724836468696594,-0.7915828326675494,-1.4623046802094057,-1.4245268181748925,-0.6985885500907898,0.7114664316177368,-0.07608979195356369,-0.08031141757965088,0.1323239952325821,0.1969567984342575
6.579982042312622,0.18437665700912476,0.11475300788879395,0.020922064781188965,-0.7947992447022496,-1.4620902199138774,-1.4277389426112488,-0.6962938904762268,0.7137230038642883,-0.0759909600019455,-0.18473833799362183,0.11067400872707367,0.08595311641693115
6.5999791622161865,0.2314956784248352,0.0697171688079834,0.012038283050060272,-0.7962919828645445,-1.4656588109029645,-1.434662275539692,-0.695500373840332,0.7147677540779114,-0.0733938068151474,-0.2837301194667816,0.018722599372267723,0.0303187258541584
6.6198320388793945,0.2788376212120056,0.06136959791183472,-0.0032086893916130066,-0.79731927773728,-1.4719857375889311,-1.4422667377610126,-0.6952195167541504,0.7154858112335205,-0.06891949474811554,-0.2362128347158432,-0.10491891205310822,0.013175626285374165
6.6400110721588135,0.29871344566345215,0.09578567743301392,0.01027107983827591,-0.7972429933606049,-1.4776889812554037,-1.4472140786982906,-0.6956556439399719,0.7154325246810913,-0.06495846807956696,-0.11133482307195663,-0.08177720010280609,-0.07573395222425461
6.660019159317017,0.3039354681968689,0.14486253261566162,0.006799094378948212,-0.79431451499352,-1.4804722703844082,-1.4493459133528486,-0.6979175806045532,0.7133833765983582,-0.06321074068546295,0.021779600530862808,-0.05489889159798622,-0.25098076462745667
6.679991006851196,0.3404046893119812,0.14111357927322388,-0.02166283130645752,-0.7902226876227568,-1.4787847430749723,-1.4461174629445166,-0.7007105350494385,0.7105100154876709,-0.06465605646371841,0.18723435699939728,-0.03595618158578873,-0.12190482765436172
6.6999900341033936,0.3779270648956299,0.11838585138320923,-0.04946184903383255,-0.788630000081318,-1.4772115468359839,-1.441655231110582,-0.7017340064048767,0.7093883156776428,-0.06586401164531708,0.14244204759597778,-0.10747519135475159,-0.09175628423690796
6.719998121261597,0.38609910011291504,0.08677661418914795,-0.054489850997924805,-0.7880356810281207,-1.477691715529852,-1.4396320638019187,-0.7021849751472473,0.7089693546295166,-0.06556621938943863,-0.02309669926762581,-0.10760648548603058,0.008635655976831913
6.73998498916626,0.41079604625701904,0.04754495620727539,-0.01617974042892456,-0.7887950599174512,-1.4806929845184669,-1.4414908297951174,-0.7018423080444336,0.7095046639442444,-0.06341002881526947,-0.06469923257827759,-0.06259196251630783,0.0029126694425940514
6.759979009628296,0.4015604853630066,0.09943586587905884,-0.05041825771331787,-0.7875676777747824,-1.4818869823924652,-1.4407014124165773,-0.7027843594551086,0.7086392045021057,-0.06264925748109818,0.22861821949481964,-0.09851347655057907,-0.13978615403175354
6.779979944229126,0.3918839693069458,0.13316375017166138,-0.04976844787597656,-0.7835878371394517,-1.4751331533019791,-1.428983421572735,-0.7051470279693604,0.7058255076408386,-0.06766313314437866,0.5670869946479797,-0.06886495649814606,-0.15040796995162964
6.800013065338135,0.4337806701660156,0.025610268115997314,-0.027479104697704315,-0.7784662144130696,-1.4668584607742308,-1.4138553566159153,-0.7081490159034729,0.7021881937980652,-0.07386969029903412,0.5311297178268433,-0.17373481392860413,-0.3014880120754242
6.820029973983765,0.4422088861465454,-0.01728111505508423,-0.018960103392601013,-0.7689083956381659,-1.46186433522988,-1.4011972789715554,-0.7144104242324829,0.6953511238098145,-0.07813143730163574,0.48531562089920044,-0.18903601169586182,-0.5574678182601929
6.840070009231567,0.45540177822113037,-0.004214465618133545,-0.03409366309642792,-0.7526375082996404,-1.4585981783274395,-1.3909389748287522,-0.7252992391586304,0.6835662126541138,-0.08172043412923813,0.45921921730041504,-0.18227504193782806,-0.9881273508071899
6.860069990158081,0.47168028354644775,-0.06594699621200562,-0.06825166195631027,-0.7311254502549688,-1.4543320775722124,-1.3799290267512525,-0.7393804788589478,0.6677078604698181,-0.08650285750627518,0.5656430721282959,-0.0989718958735466,-1.0139999389648438
6.879989862442017,0.5262543559074402,-0.1991979479789734,-0.052354104816913605,-0.7122166707251576,-1.4471697076227894,-1.3673572713254531,-0.7511385679244995,0.6535131931304932,-0.09333671629428864,0.5451046824455261,-0.06712190806865692,-0.7787789702415466
6.899983167648315,0.5935413241386414,-0.2026575207710266,-0.01225292682647705,-0.6947828280880871,-1.442005256215333,-1.3540420196248875,-0.7618306279182434,0.6402186155319214,-0.0986630991101265,0.7434448003768921,-0.29122576117515564,-0.8014636635780334
6.919977903366089,0.568617582321167,-0.012208282947540283,-0.05624169111251831,-0.6776964756927447,-1.4331511958420222,-1.3288943251445169,-0.7716511487960815,0.6270002126693726,-0.10688992589712143,1.3843520879745483,-0.4151354432106018,-0.6977006196975708
6.93980598449707,0.5024635195732117,0.0960119366645813,0.00663495808839798,-0.6580224167540657,-1.4198188251802402,-1.2918900662906831,-0.782202959060669,0.6115533709526062,-0.11900059878826141,1.7777103185653687,-0.5215516090393066,-0.7717514038085938
6.9600830078125,0.5158690810203552,0.06746429204940796,0.029670730233192444,-0.6387803402157743,-1.4049571958507343,-1.2490076210478513,-0.7918090224266052,0.5962167382240295,-0.13253013789653778,1.8437614440917969,-0.627894937992096,-0.633060097694397
6.980424165725708,0.49547380208969116,0.06284862756729126,0.009828135371208191,-0.6212086047044654,-1.3948344839482254,-1.2085618231612034,-0.8006192445755005,0.5820183753967285,-0.14235065877437592,1.616788625717163,-0.7079484462738037,-0.5251855850219727
6.9999799728393555,0.4218311309814453,0.07927191257476807,-0.021145805716514587,-0.6059175077553387,-1.3890603969030124,-1.1745618378744795,-0.8084431290626526,0.5695164799690247,-0.14856234192848206,1.4285131692886353,-0.6511592268943787,-0.5061380863189697
7.01996111869812,0.36977899074554443,0.12441438436508179,-0.00631384551525116,-0.5909680725851718,-1.3811840159629356,-1.1416606215897889,-0.8155187368392944,0.5571651458740234,-0.15651258826255798,1.5974549055099487,-0.41008833050727844,-0.4380341172218323
7.0400331020355225,0.3748295307159424,0.20381253957748413,0.0319366455078125,-0.5768409588668417,-1.3652994325088375,-1.1013988786959037,-0.8205540776252747,0.5453788042068481,-0.17103567719459534,2.0015876293182373,-0.24789133667945862,-0.2733972370624542
7.060044050216675,0.426952600479126,0.159618079662323,0.05193242430686951,-0.5648060512843588,-1.3429273575070273,-1.0524646903668722,-0.8228573799133301,0.5352519750595093,-0.19081784784793854,2.2061429023742676,-0.19923529028892517,-0.04668567329645157
7.079984903335571,0.4542173743247986,0.11849558353424072,0.01215982437133789,-0.5545246112941586,-1.3221175108275418,-1.0024389903203688,-0.8239989280700684,0.5265392065048218,-0.20924223959445953,2.1394989490509033,-0.35905876755714417,0.0685613602399826
7.099980115890503,0.42771780490875244,0.06980782747268677,-0.008820414543151855,-0.5455715761898624,-1.30568155542333,-0.9568769924229665,-0.824965238571167,0.5189067721366882,-0.22398284077644348,1.9073874950408936,-0.36521095037460327,0.024724937975406647
7.119662046432495,0.38944244384765625,0.06567734479904175,-0.010577544569969177,-0.5358484880583243,-1.2908501221293822,-0.9147306878503599,-0.8263626098632812,0.510570764541626,-0.23757602274417877,1.9139777421951294,-0.3518231511116028,0.02353648841381073
7.1399781703948975,0.3720884323120117,0.0841207504272461,-0.05904605984687805,-0.5246220600835552,-1.2761110000374305,-0.8695814268933223,-0.8282042145729065,0.5008859038352966,-0.2513786256313324,2.0863702297210693,-0.47792842984199524,-0.016113121062517166
7.160011053085327,0.2592529058456421,0.045691490173339844,-0.05697318911552429,-0.5103388748880687,-1.2651760590803092,-0.8265305077371119,-0.8321442008018494,0.48847296833992004,-0.26254573464393616,1.8683178424835205,-0.5237076282501221,-0.2887476682662964
7.179996013641357,0.1084364652633667,-0.07644572854042053,-0.00972813367843628,-0.49250947857176075,-1.2600647228724524,-0.7958364725407772,-0.8389511108398438,0.4728386104106903,-0.26941603422164917,1.1736291646957397,-0.4677216112613678,-0.5680934190750122
7.199977159500122,0.020071327686309814,-0.11605963110923767,0.0026367902755737305,-0.474450182749759,-1.263339591353596,-0.7822536629665819,-0.8478301763534546,0.45684942603111267,-0.26920774579048157,0.6803878545761108,-0.4655626714229584,-0.7770522236824036
7.219990968704224,-0.12218999862670898,-0.0037172436714172363,-0.0526982843875885,-0.45423588823126554,-1.2664021926859668,-0.7712163468832743,-0.8572869300842285,0.43877580761909485,-0.26932308077812195,0.9205160737037659,-0.3737542927265167,-0.8815831542015076
7.240010023117065,-0.22862982749938965,0.11510157585144043,-0.05745828151702881,-0.4295578515148444,-1.2680597455644085,-0.7561339411383533,-0.8678058385848999,0.41646885871887207,-0.27104806900024414,1.0348029136657715,-0.40254244208335876,-1.0459847450256348
7.260076999664307,-0.3119646906852722,-0.021285593509674072,0.017262667417526245,-0.403532157490386,-1.2714095965312715,-0.745409972157625,-0.8787702322006226,0.3926692306995392,-0.2712450921535492,0.6367062926292419,-0.3884880542755127,-1.2066607475280762
7.280051946640015,-0.3825256824493408,-0.18971684575080872,0.17819684743881226,-0.3748892494306256,-1.2790731080910371,-0.7482982251919564,-0.8912323117256165,0.3661694824695587,-0.2676285207271576,-0.11971494555473328,-0.1918705850839615,-1.5999411344528198
7.300004005432129,-0.4316530227661133,-0.4822286367416382,0.28838059306144714,-0.3424762151898254,-1.2907482673875417,-0.7716191740436894,-0.9052305817604065,0.3358205258846283,-0.2603500783443451,-1.0743448734283447,-0.26487430930137634,-2.134021520614624
7.320141077041626,-0.7444983124732971,-0.6662427186965942,0.025135308504104614,-0.3042141242461203,-1.3133796962919386,-0.8075394569025712,-0.9226465225219727,0.29954347014427185,-0.24289338290691376,-1.0394642353057861,-0.9642972350120544,-2.366309881210327
7.340229034423828,-1.1219327449798584,-0.3998585641384125,-0.07422322034835815,-0.2646465580791236,-1.3434725327237949,-0.8387574240802844,-0.9403538703918457,0.261568158864975,-0.2175247222185135,-1.2837854623794556,-0.8569623827934265,-2.3310062885284424
7.3600640296936035,-1.5107107162475586,0.09139223396778107,0.39797917008399963,-0.21708679893481644,-1.3649008508008418,-0.8922190886521417,-0.9559032917022705,0.21538572013378143,-0.19964535534381866,-2.326627492904663,0.04766548052430153,-3.1105189323425293
7.379978895187378,-0.9449582695960999,-0.02732408046722412,0.35692572593688965,-0.18530413056571346,-1.364196266029359,-0.9420172704069272,-0.9619784951210022,0.18424546718597412,-0.2016216516494751,-1.9245107173919678,0.8902691006660461,-0.766607940196991
7.399970054626465,-0.4563324451446533,-0.021250009536743164,0.18060097098350525,-0.1918118122101232,-1.3501073639636676,-0.9760019078224802,-0.9578521251678467,0.19063779711723328,-0.2148873656988144,-1.1880649328231812,1.0559484958648682,0.35874155163764954
7.41996693611145,-0.5940744876861572,0.2754213213920593,0.02011735737323761,-0.20559240714497778,-1.328430361055537,-0.9775361249274666,-0.9503286480903625,0.2041471302509308,-0.23494577407836914,0.7367510199546814,1.1849387884140015,0.9839428067207336
7.448965072631836,-0.5919608473777771,-0.44431018829345703,-0.012912184000015259,-0.23625088500328484,-1.2588873477850595,-0.8650080524714379,-0.9253121018409729,0.23405930399894714,-0.2983517646789551,3.5524466037750244,0.6321598291397095,1.7650244235992432
7.468695878982544,-0.5070541501045227,-0.6216752529144287,0.08693671226501465,-0.24721737628069365,-1.2382726382568943,-0.7950039504562916,-0.9164841175079346,0.2447068840265274,-0.3165051341056824,2.2658917903900146,-0.15939493477344513,1.5312941074371338
7.4887001514434814,-0.5862861275672913,-0.7927799224853516,0.06557896733283997,-0.27163289180609146,-1.2345285642635149,-0.7640635540531632,-0.9093804359436035,0.26830482482910156,-0.3178676962852478,-0.44611623883247375,-0.0735514909029007,1.7293975353240967
7.5084450244903564,-0.8202729821205139,-0.7016780376434326,0.09711074829101562,-0.3163489905707361,-1.2351128353865155,-0.7852871191874742,-0.8973327279090881,0.3110988140106201,-0.3130682706832886,-2.686577081680298,0.589996874332428,1.8893828392028809
7.528538942337036,-0.9023738503456116,-0.40368136763572693,-0.06425884366035461,-0.37446923304048385,-1.2407289417646832,-0.8331328057878074,-0.8804632425308228,0.3657785952091217,-0.3016468584537506,-3.1348376274108887,0.3181956112384796,2.0798583030700684
7.547424077987671,-0.7889819145202637,-0.10313284397125244,-0.059583961963653564,-0.4333073384085844,-1.252480234280365,-0.8745904364426956,-0.8619886636734009,0.41987478733062744,-0.2840438783168793,-2.355029821395874,0.30061739683151245,2.329005241394043
7.568521976470947,-0.8722184896469116,-0.0566459596157074,0.1172080934047699,-0.48594758107845004,-1.2555465473252372,-0.8957214658823067,-0.8406570553779602,0.46704643964767456,-0.2741599380970001,-0.8809165358543396,0.2246176302433014,2.05370831489563
7.588073015213013,-0.7678306698799133,0.032828688621520996,-0.07114890217781067,-0.526570920205695,-1.246863050775921,-0.8839383562366699,-0.819571852684021,0.5025717616081238,-0.27517974376678467,0.3072827160358429,0.05670389533042908,2.134382963180542
7.608488082885742,-0.7577471733093262,-0.00615459680557251,-0.08746236562728882,-0.5621541863004987,-1.2354217811641977,-0.8638482288632303,-0.7989698648452759,0.5330101251602173,-0.2784738540649414,-0.10845296084880829,0.08315858244895935,1.7933378219604492
7.62708306312561,-0.7555473446846008,-0.22302323579788208,-0.03559193015098572,-0.5978873997343773,-1.233353406060071,-0.8642747024348199,-0.7799143195152283,0.5628976225852966,-0.2736426293849945,-1.0893428325653076,0.11335793882608414,1.5775175094604492
7.6485888957977295,-0.6266763806343079,-0.1295143961906433,-0.08541682362556458,-0.633567507040367,-1.2431530873705618,-0.8850785637106798,-0.7630485892295837,0.5920236706733704,-0.25935542583465576,-1.5020798444747925,0.16535207629203796,1.2458908557891846
7.669541120529175,-0.5821826457977295,0.03816169500350952,-0.1484556794166565,-0.6625871931558537,-1.2526608687256857,-0.9071761402338588,-0.7488416433334351,0.6151586771011353,-0.24660956859588623,-1.0537751913070679,0.1702970266342163,0.9765819907188416
7.687144994735718,-0.4339367747306824,0.1388334035873413,-0.14922402799129486,-0.6865093133027144,-1.2595714183081055,-0.9230787253807698,-0.7363055944442749,0.6338411569595337,-0.23685377836227417,-0.9556927680969238,0.12496107071638107,0.8611834049224854
7.707826852798462,-0.3928382992744446,0.1191449761390686,-0.0633038729429245,-0.7064267518078394,-1.2691174211337901,-0.9426103750143016,-0.7263328433036804,0.6491197943687439,-0.22601790726184845,-1.0612295866012573,0.18025849759578705,0.6088253855705261
7.727889060974121,-0.2713899612426758,0.15705955028533936,-0.03592275083065033,-0.723038590342521,-1.2813822750039294,-0.9647393971856055,-0.7186155915260315,0.6616660356521606,-0.2139855921268463,-0.9792693257331848,0.003443423891440034,0.466293603181839
7.748058080673218,-0.11693716049194336,0.18568241596221924,-0.011430859565734863,-0.7358749696160413,-1.295612108753612,-0.9847381822049031,-0.7133547067642212,0.671235978603363,-0.20141392946243286,-0.8257418274879456,-0.04108871519565582,0.43152618408203125
7.766942024230957,-0.07308048009872437,0.1918584704399109,0.012572705745697021,-0.7488846687124865,-1.3102436709703704,-1.0051712324180782,-0.7077271342277527,0.6808222532272339,-0.18868952989578247,-1.0044368505477905,-0.07186207175254822,0.37048324942588806
7.787822961807251,-0.03724867105484009,0.2087441086769104,-0.012475118041038513,-0.7605599318893134,-1.3269373614702256,-1.027744471407305,-0.7030162811279297,0.6893271803855896,-0.17491793632507324,-0.8408858776092529,-0.023685043677687645,0.35868844389915466
7.806681871414185,0.05156344175338745,0.2163282036781311,-0.010627701878547668,-0.7699745307312063,-1.3406191850185607,-1.0466430720494764,-0.6989940404891968,0.6961169242858887,-0.16379542648792267,-0.7531331777572632,-0.05748845636844635,0.23232609033584595
7.829243898391724,0.16406893730163574,0.11903423070907593,0.006107151508331299,-0.7778100189649728,-1.3569192971199315,-1.0678787676198174,-0.6962193250656128,0.7017208337783813,-0.15121813118457794,-0.9637887477874756,-0.11900073289871216,0.21595993638038635
7.848549127578735,0.23331034183502197,0.08731812238693237,0.03153689205646515,-0.7855183708451146,-1.377587838366489,-1.0940333802228799,-0.6938664317131042,0.7071917653083801,-0.1357543170452118,-0.95377117395401,-0.06681697815656662,0.15740710496902466
7.866258859634399,0.27927595376968384,0.12598872184753418,0.023925796151161194,-0.7909866885315207,-1.391632560267478,-1.1139467448405698,-0.6918889284133911,0.7110474109649658,-0.12530505657196045,-0.5706827640533447,0.025273267179727554,0.11904206871986389
7.88647198677063,0.3938830494880676,0.0964270830154419,0.002904355525970459,-0.7939501351181988,-1.4021964728162464,-1.128864065569776,-0.6910938024520874,0.7131280303001404,-0.11763506382703781,-0.6012336015701294,0.0346488356590271,0.07006029039621353
7.907511949539185,0.5057961940765381,-0.02409052848815918,0.065269835293293,-0.7977718300617055,-1.4131979098744545,-1.147027018602816,-0.6896494030952454,0.7158019542694092,-0.10959652066230774,-0.7431086897850037,0.09809038788080215,0.07865634560585022
7.925215005874634,0.5934637784957886,-0.022816359996795654,0.04572165012359619,-0.8013071984846242,-1.4257772882106057,-1.167226199630766,-0.6884651184082031,0.7182661890983582,-0.10054638236761093,-0.6240468621253967,0.13151368498802185,0.08324483782052994
7.947282075881958,0.6760466694831848,-0.09227609634399414,0.03496956825256348,-0.8041429400855207,-1.4314284890388953,-1.1790230713472796,-0.6870025992393494,0.7202363610267639,-0.09637082368135452,-0.25708529353141785,0.12214211374521255,0.112223781645298
7.967452049255371,0.7347419261932373,-0.1316118836402893,0.04207230359315872,-0.8078211837040741,-1.4333312416999278,-1.1847001273793776,-0.6845558285713196,0.7227831482887268,-0.09469977766275406,-0.18241919577121735,0.10898511856794357,0.15836484730243683
7.987042188644409,0.7700566649436951,-0.19492828845977783,0.05261009931564331,-0.8107957082518653,-1.4364623108247245,-1.1904317843497565,-0.6827154755592346,0.7248355746269226,-0.09226758778095245,-0.2661975622177124,-0.009590085595846176,0.06712997704744339
8.009180068969727,0.8410665392875671,-0.23005259037017822,0.07417982816696167,-0.814677638755975,-1.4448210183352024,-1.197247890379092,-0.6806662082672119,0.7275044918060303,-0.08620363473892212,-0.25647690892219543,-0.27126145362854004,0.21982894837856293
8.029119968414307,0.7890719771385193,-0.18863815069198608,0.10978090763092041,-0.82267039335595,-1.4554358858659442,-1.2025208157549192,-0.6757450699806213,0.7329649925231934,-0.07830190658569336,-0.11811597645282745,-0.2900237739086151,0.5145984292030334
8.044335126876831,0.6491973400115967,-0.09758633375167847,0.06644260883331299,-0.8339732998688454,-1.4580963103027074,-1.1991960269243096,-0.6676758527755737,0.7406070232391357,-0.07556729018688202,0.27399879693984985,-0.14960461854934692,0.7044991850852966
8.064918041229248,0.4963586926460266,0.05297309160232544,-0.01435708999633789,-0.8470789747337418,-1.4438994395726767,-1.1819813604990506,-0.6568507552146912,0.7493493556976318,-0.08380261808633804,0.5764875411987305,0.2569778561592102,0.6299569010734558
8.086209058761597,0.5010401606559753,-0.055764973163604736,0.07758784294128418,-0.8573996788217184,-1.4289079697677496,-1.1712239190268514,-0.6478297710418701,0.7561434507369995,-0.09254136681556702,0.012490348890423775,0.39041227102279663,0.5159022212028503
8.106642961502075,0.6654565334320068,-0.2346779704093933,0.1467629075050354,-0.868741951606219,-1.427300741483094,-1.1783497175758841,-0.6391504406929016,0.7635170817375183,-0.09234999865293503,-0.5900042653083801,0.28052181005477905,0.4837828278541565
8.125727891921997,0.7399210929870605,-0.22890567779541016,0.15683317184448242,-0.8798664651250092,-1.435861432484991,-1.1954709193616893,-0.6314617395401001,0.7706537842750549,-0.08572714030742645,-0.5683740973472595,0.20042350888252258,0.47048673033714294
8.145567178726196,0.7988584041595459,-0.2289736270904541,0.12441116571426392,-0.8893419732785595,-1.4403624009774625,-1.2052515953954215,-0.6245726346969604,0.7766574025154114,-0.08193061500787735,-0.12212894856929779,0.09284111857414246,0.4127286374568939
8.165608167648315,0.9112468361854553,-0.23367059230804443,0.0817750096321106,-0.8975668603209411,-1.436278200549893,-1.199530004739736,-0.6178814768791199,0.7818121314048767,-0.08362124860286713,0.34353646636009216,-0.15371300280094147,0.4695839285850525
8.185522079467773,0.9509593844413757,-0.2304251790046692,0.08614027500152588,-0.9079945890455783,-1.4285910360279128,-1.1817572350835555,-0.609116792678833,0.7882713675498962,-0.08720827847719193,0.5084167718887329,-0.4918108880519867,0.6763778924942017
8.208226919174194,0.7444191575050354,-0.0886925458908081,0.010717399418354034,-0.9195469065715396,-1.4231204161339217,-1.1614758835079502,-0.5995827913284302,0.7953270673751831,-0.08919325470924377,0.6196008324623108,-0.49243804812431335,0.6156138777732849
8.22301697731018,0.5669318437576294,-0.03675264120101929,-0.043351829051971436,-0.9262487964812466,-1.4085706736144197,-1.132621154225968,-0.5929481387138367,0.7993717193603516,-0.0970442071557045,1.0436055660247803,-0.36523836851119995,0.3588908612728119
8.241142988204956,0.6900391578674316,-0.08436429500579834,-0.012837961316108704,-0.9284177846739639,-1.3842309991679134,-1.089993640059395,-0.5887056589126587,0.8006730079650879,-0.11112435162067413,1.3569103479385376,-0.6580063700675964,0.18867425620555878
8.262336015701294,0.5506922602653503,-0.1955142617225647,0.07854629307985306,-0.9242097255934336,-1.3624290708643971,-1.044128383446671,-0.5894343256950378,0.7981448769569397,-0.12462770938873291,1.314522624015808,-0.7325107455253601,0.028339261189103127
8.284785032272339,0.2533641457557678,-0.09764468669891357,0.011795595288276672,-0.9159729850528857,-1.3462267148692524,-1.0041061007560692,-0.5937266945838928,0.7931555509567261,-0.13562053442001343,1.4306576251983643,-0.8289600610733032,-0.39661723375320435
8.305186033248901,0.07684451341629028,0.07493692636489868,-0.09013195335865021,-0.8961024710165918,-1.3229896816699864,-0.9537210414384789,-0.6055769920349121,0.7808982133865356,-0.15321512520313263,2.0329794883728027,-0.8332186341285706,-0.7835165858268738
8.32745099067688,0.13885605335235596,-0.03193771839141846,-0.04130661487579346,-0.8668117795747132,-1.2972849498714862,-0.8942719525752385,-0.6232006549835205,0.7622691988945007,-0.17483405768871307,2.218428134918213,-1.207451581954956,-1.0916430950164795
8.347815036773682,-0.1035277247428894,-0.15687710046768188,0.13547711074352264,-0.8284646325237842,-1.2919171417626452,-0.8507869043887101,-0.6498904228210449,0.7368943095207214,-0.1860904097557068,1.6629947423934937,-1.40534245967865,-1.7567476034164429
8.366042852401733,-0.3331644535064697,-0.22634851932525635,0.16681042313575745,-0.7842989520490514,-1.3000378076750865,-0.8228937352607355,-0.6820945143699646,0.7063291072845459,-0.18933232128620148,1.5654408931732178,-1.4746958017349243,-2.054901361465454
8.387253046035767,-0.4533544182777405,-0.0894169807434082,0.04435551166534424,-0.7335494902080897,-1.3087102623607423,-0.7907891395506923,-0.7174373269081116,0.6695104241371155,-0.1924571990966797,1.9356045722961426,-1.6614956855773926,-2.282813310623169
