timestamp,acceleration_x,acceleration_y,acceleration_z,attitude_pitch,attitude_roll,attitude_yaw,gravity_x,gravity_y,gravity_z,rotation_x,rotation_y,rotation_z
0.0,-0.03226441144943237,-0.06065351516008377,0.1163187026977539,-0.08370026906861348,-1.5720203042078753,-1.2004712713086565,-0.9964982867240906,0.08360256999731064,0.001219692057929933,0.7151928544044495,0.0030899669509381056,0.11327672749757767
0.020062923431396484,-0.0253259539604187,-0.04173138737678528,0.1502523422241211,-0.08627179791526657,-1.5699089995908266,-1.1893549895291156,-0.9962804317474365,0.08616481721401215,-0.000884026987478137,0.4113906919956207,0.12699557840824127,0.14738743007183075
0.04655194282531738,0.03005737066268921,-0.02884674072265625,0.16849946975708008,-0.09178055997796512,-1.559276290432196,-1.1783930707179502,-0.995725154876709,0.09165176004171371,-0.011471297591924667,0.20285271108150482,0.24096670746803284,0.15828388929367065
0.0651559829711914,0.036363184452056885,-0.0072605907917022705,0.137745201587677,-0.09373185558449709,-1.5549137521373833,-1.17345316706392,-0.9954849481582642,0.09359466284513474,-0.015812193974852562,0.3165297508239746,0.17534171044826508,0.06711634993553162
0.08569192886352539,0.015933513641357422,-0.004555962979793549,0.11906850337982178,-0.09401921882907463,-1.5505751581919192,-1.1657561686074729,-0.9953800439834595,0.09388076514005661,-0.020130492746829987,0.423658549785614,0.18807747960090637,-6.463134195655584e-05
0.10058093070983887,0.015933513641357422,-0.004555962979793549,0.11906850337982178,-0.09401921882907463,-1.5505751581919192,-1.1657561686074729,-0.9953800439834595,0.09388076514005661,-0.020130492746829987,0.423658549785614,0.18807747960090637,-6.463134195655584e-05
0.1231849193572998,-0.012122690677642822,-0.12444748729467392,0.10794293880462646,-0.09137126463189635,-1.5453709241414393,-1.156640893033978,-0.9955065846443176,0.091244176030159,-0.025316612794995308,-0.16647259891033173,0.07096133381128311,-0.06726457923650742
0.1442718505859375,-0.04821610450744629,-0.1676740199327469,0.0828012228012085,-0.0901898679923139,-1.5439436066966459,-1.1644574271056087,-0.9955766797065735,0.09006764739751816,-0.02674037031829357,-0.5749921202659607,0.16422471404075623,-0.035559576004743576
0.16362380981445312,-0.04395502805709839,-0.14345046877861023,0.03816688060760498,-0.08998282555075066,-1.541770047076331,-1.178729293166884,-0.9955347776412964,0.0898614451289177,-0.028904790058732033,-0.8162336349487305,0.16145847737789154,-0.02330024540424347
0.18701505661010742,-0.016622602939605713,-0.08812234550714493,0.017994225025177002,-0.09002903981456108,-1.5410041254766365,-1.195339977459725,-0.9955081939697266,0.08990747481584549,-0.029667159542441368,-0.8204784393310547,0.07014267891645432,0.009133501909673214
0.20885801315307617,-0.008112490177154541,-0.015831172466278076,0.013996001332998276,-0.09073880492620807,-1.5414777860925744,-1.2105990827124022,-0.99545818567276,0.09061434119939804,-0.02919374778866768,-0.6845921277999878,0.04794514551758766,0.028835637494921684
0.2271878719329834,-0.018089652061462402,0.025638557970523834,0.010865390300750732,-0.09130938978700119,-1.5412335165642899,-1.2225295807994778,-0.9953991770744324,0.09118255972862244,-0.029435371980071068,-0.5093275308609009,0.09685729444026947,0.01929325982928276
0.24730587005615234,-0.0016983747482299805,0.023379884660243988,0.00552624836564064,-0.09173880997186444,-1.5401118018157973,-1.2315966468254356,-0.9953261017799377,0.09161018580198288,-0.030550697818398476,-0.41616567969322205,0.09207390248775482,0.02653427980840206
0.2682359218597412,0.02069157361984253,0.012966237962245941,0.004268050193786621,-0.09232829221363373,-1.5395652531818838,-1.2397385476417635,-0.995255172252655,0.09219717234373093,-0.031092997640371323,-0.40456196665763855,0.045584339648485184,0.0233311764895916
0.2871389389038086,0.017246007919311523,0.031393103301525116,-0.0028406959027051926,-0.09250263366339402,-1.5396855284308615,-1.2474777731200444,-0.9952428340911865,0.09237077087163925,-0.030972793698310852,-0.35624587535858154,0.02775208279490471,-0.00869511254131794
0.3077120780944824,0.014017820358276367,0.04608060419559479,0.008343994617462158,-0.09221820865275689,-1.540038941292257,-1.2542481970680452,-0.9952800869941711,0.09208755940198898,-0.03062186948955059,-0.32968032360076904,0.014254559762775898,-0.027018927037715912
0.3269648551940918,0.006283223628997803,0.030605114996433258,0.02511429786682129,-0.09142449837204843,-1.540208956494821,-1.2607654249265847,-0.9953579902648926,0.09129718691110611,-0.030454881489276886,-0.3239957392215729,0.02837037853896618,-0.04841841012239456
0.34688377380371094,0.0019106864929199219,0.0058688148856163025,0.025197209790349007,-0.09043037054818756,-1.5399751230078602,-1.2674934511598164,-0.9954409599304199,0.09030716866254807,-0.030690407380461693,-0.3474494516849518,0.06704799830913544,-0.058244235813617706
0.3677499294281006,0.01944863796234131,-0.004435591399669647,0.013343330472707748,-0.08910224009739527,-1.5392715843338136,-1.2741473901843647,-0.9955382943153381,0.08898438513278961,-0.031394489109516144,-0.3080127537250519,0.04496772959828377,-0.08250749856233597
0.3864779472351074,0.045778632164001465,-0.0006378740072250366,0.02307569608092308,-0.08737299858515804,-1.5395550235989595,-1.2799514453919174,-0.9956994652748108,0.0872618705034256,-0.031117072328925133,-0.2598167955875397,-0.01802188716828823,-0.0922105461359024
0.4075429439544678,0.04283064603805542,-0.02130778878927231,0.025627728551626205,-0.08551397956958612,-1.5412109833404604,-1.2847225341050312,-0.9959099888801575,0.08540979772806168,-0.029472939670085907,-0.2239798605442047,-0.10415268689393997,-0.09764371812343597
0.4265007972717285,0.016078591346740723,-0.032213374972343445,0.02958279848098755,-0.08338095748520877,-1.5444912984036816,-1.2893853755241853,-0.9961811900138855,0.08328437805175781,-0.026210620999336243,-0.24418169260025024,-0.1762937307357788,-0.12408038973808289
0.4454660415649414,-0.030347168445587158,-0.031454287469387054,0.017408424988389015,-0.08016974695782293,-1.5484313784692558,-1.2943214057003165,-0.9965390563011169,0.08008389919996262,-0.022291261702775955,-0.2426181584596634,-0.17255544662475586,-0.19194571673870087
0.46633386611938477,-0.04593682289123535,-0.015786074101924896,0.024030206725001335,-0.07611636431712639,-1.5518217466326032,-1.300241091533405,-0.9969252943992615,0.07604288309812546,-0.018918508663773537,-0.35273057222366333,-0.11278052628040314,-0.21642683446407318
0.48632001876831055,-0.02918154001235962,-0.0012070834636688232,0.0166627187281847,-0.0713051700174772,-1.5542892304346616,-1.3085248491079196,-0.9973229169845581,0.07124476134777069,-0.01646440103650093,-0.44845283031463623,-0.08016639202833176,-0.25685441493988037
0.5074038505554199,0.01752990484237671,0.005388081073760986,-0.0011016149073839188,-0.06646857380836993,-1.5567602644864271,-1.3175731150332097,-0.9976935982704163,0.06641963869333267,-0.014004609547555447,-0.4270703196525574,-0.1120726615190506,-0.22645044326782227
0.5284099578857422,0.04677551984786987,0.017096679657697678,-0.03277480602264404,-0.06195279518252291,-1.56003222703675,-1.3251086070343563,-0.9980238676071167,0.06191317364573479,-0.010743243619799614,-0.33549562096595764,-0.16966387629508972,-0.22989900410175323
0.5463168621063232,0.04925942420959473,0.04364124685525894,-0.056869685649871826,-0.05645569866579624,-1.5644386142525792,-1.3310617512193792,-0.9983865022659302,0.05642571300268173,-0.006347539834678173,-0.23586630821228027,-0.22779589891433716,-0.3190915286540985
0.5649290084838867,0.04570817947387695,0.06368961185216904,-0.05791640281677246,-0.04953545815903754,-1.5692320467330572,-1.335037704733398,-0.9987722635269165,0.04951520264148712,-0.0015623607905581594,-0.15850810706615448,-0.2247326374053955,-0.3553004562854767
0.5850610733032227,0.05493384599685669,0.05680140107870102,-0.044031739234924316,-0.04193508733498539,-1.573494344649563,-1.3368776745773778,-0.9991171956062317,0.04192279651761055,0.0026956426445394754,-0.022161155939102173,-0.1981276571750641,-0.3897266983985901
0.6056239604949951,0.08172738552093506,0.0519564189016819,-0.05642843246459961,-0.03417066461800315,-1.577912536325835,-1.336374180313044,-0.9993909597396851,0.03416401520371437,0.007111995946615934,0.08210393041372299,-0.25413089990615845,-0.38811129331588745
0.6311929225921631,0.10028254985809326,0.05969057232141495,-0.0854179859161377,-0.026234513701841093,-1.5835566774248093,-1.3327953309217364,-0.9995745420455933,0.02623150497674942,0.012755613774061203,0.26827579736709595,-0.31555768847465515,-0.40782707929611206
0.644183874130249,0.10994702577590942,0.06818054616451263,-0.11093342304229736,-0.018246086143858874,-1.5896166290090776,-1.3261690494351093,-0.9996566772460938,0.018245073035359383,0.018816061317920685,0.36843565106391907,-0.3060557246208191,-0.3952067792415619
0.6624588966369629,0.12900197505950928,0.05973690375685692,-0.1185683012008667,-0.010285699799326588,-1.5956643111098978,-1.319200691218117,-0.9996379613876343,0.010285518132150173,0.024864107370376587,0.30212438106536865,-0.30706557631492615,-0.4004170000553131
0.6829259395599365,0.14164447784423828,0.0477156825363636,-0.12868261337280273,-0.0024397893409184206,-1.6015529398320294,-1.3133448705492985,-0.9995241165161133,0.0024397869128733873,0.030751673504710197,0.24563272297382355,-0.29398176074028015,-0.40540817379951477
0.7035489082336426,0.15467196702957153,0.06075398996472359,-0.13007009029388428,0.006081936018387277,-1.6071097089390627,-1.3078287371652075,-0.9993223547935486,-0.0060818986967206,0.03630473464727402,0.338196337223053,-0.2494795173406601,-0.45962995290756226
0.7262639999389648,0.1899406909942627,0.08784176409244537,-0.16933810710906982,0.014493429274871482,-1.611457291609396,-1.3000889914811304,-0.9990684986114502,-0.014492921531200409,0.04064549133181572,0.4268922209739685,-0.17347824573516846,-0.3545589745044708
0.7460389137268066,0.25821155309677124,0.10806865990161896,-0.2140108346939087,0.020210079418437943,-1.6141142134629298,-1.2904606223576354,-0.9988579154014587,-0.020208703354001045,0.04329549893736839,0.5076388716697693,-0.11478172242641449,-0.3345828056335449
0.7665190696716309,0.3199627995491028,0.11831095814704895,-0.208016037940979,0.029310825424801703,-1.6176098813230837,-1.278343963178887,-0.9984755516052246,-0.029306627810001373,0.046776365488767624,0.7285386323928833,-0.2240472286939621,-0.6271649599075317
0.7866129875183105,0.3818165063858032,0.14726625382900238,-0.21897554397583008,0.039198429334571024,-1.623210157364773,-1.2606021471889688,-0.997859537601471,-0.03918839246034622,0.05234958976507187,0.8483684062957764,-0.2137477993965149,-0.28724050521850586
0.8041720390319824,0.43609052896499634,0.1489352285861969,-0.2203996181488037,0.040807670187339606,-1.6276539000195807,-1.2441279803481131,-0.9975529909133911,-0.040796346962451935,0.0567796416580677,0.9102519750595093,-0.2371959537267685,-0.13441815972328186
0.8260149955749512,0.40297555923461914,0.16495296359062195,-0.24989664554595947,0.04312507613206529,-1.6342251590069192,-1.2241053132987711,-0.9970612525939941,-0.043111711740493774,0.0633273795247078,0.8754978775978088,-0.2551378607749939,-0.10094661265611649
0.845890998840332,0.3939584493637085,0.20581018924713135,-0.21757318079471588,0.04250830586581394,-1.6390240962053635,-1.2104654375226196,-0.996772050857544,-0.04249550402164459,0.06811325252056122,0.6481674313545227,-0.1901460736989975,0.013149765320122242
0.8663740158081055,0.31720268726348877,0.09046633541584015,-0.22844743728637695,0.04009272610787593,-1.6414001281664234,-1.1985077045170855,-0.9967070817947388,-0.04008198529481888,0.07048847526311874,0.47984376549720764,-0.011281248182058334,0.17951875925064087
0.8859148025512695,0.26338905096054077,0.06122653931379318,-0.18883061408996582,0.03410316500950539,-1.6418845384478908,-1.1921343222089347,-0.9968942403793335,-0.034096553921699524,0.0709870457649231,0.24876518547534943,-0.041362542659044266,0.3148595988750458
0.9063348770141602,0.1472938060760498,0.05705101788043976,-0.21567177772521973,0.028383725130268805,-1.642760328935546,-1.1876961979476395,-0.9970101118087769,-0.028379913419485092,0.07187294960021973,0.2742631733417511,-0.032201267778873444,0.21991443634033203
0.927562952041626,-0.0097237229347229,0.11228219419717789,-0.1823272705078125,0.024852043723293755,-1.6415712158565594,-1.1824306261439235,-0.9971886873245239,-0.024849485605955124,0.07069399207830429,0.23701941967010498,0.2912481725215912,0.07886242866516113
0.9480888843536377,-0.08451598882675171,0.07094211876392365,-0.01990460604429245,0.02471067630530824,-1.6265592091592667,-1.1813671431932857,-0.9981409907341003,-0.024708161130547523,0.05571698024868965,-0.2033311128616333,1.2025768756866455,-0.05144565925002098
0.9617369174957275,0.05406159162521362,-0.04621206969022751,0.020026326179504395,0.02492717705725531,-1.5987864955857531,-1.1904126201671998,-0.9992978572845459,-0.024924594908952713,0.027977822348475456,-0.6321860551834106,1.3828339576721191,0.10755278170108795
0.9879450798034668,0.2102065086364746,-0.04252786934375763,-0.1260826587677002,0.020355184952075948,-1.5771750950162549,-1.201138769397104,-0.9997724890708923,-0.020353779196739197,0.006377403624355793,-0.3138923943042755,0.70392245054245,0.35181793570518494
1.004800796508789,0.14139395952224731,0.06664901226758957,-0.18259823322296143,0.01292333551892114,-1.5649022608100573,-1.2022339804653255,-0.9998992681503296,-0.012922976166009903,-0.005893540568649769,0.17602264881134033,0.7027612328529358,0.32930800318717957
1.0254230499267578,0.01581895351409912,0.07696205377578735,-0.06239926815032959,0.009732154401361286,-1.5459726292545999,-1.197073567839505,-0.9996446371078491,-0.009732000529766083,-0.02481997385621071,0.27265337109565735,1.19279944896698,-0.005891545210033655
1.046043872833252,0.05572420358657837,-0.008808371610939503,-0.05058092623949051,0.010646961154841787,-1.5209662087435707,-1.1925028810282325,-0.9987022876739502,-0.0106467604637146,-0.049806684255599976,0.19791650772094727,1.1774554252624512,0.02353336103260517
1.0654499530792236,0.10738319158554077,-0.0508011169731617,-0.07053624838590622,0.007609747370556576,-1.5016423480913743,-1.189063714526303,-0.9975809454917908,-0.007609673775732517,-0.0690968707203865,0.1277969628572464,0.82700514793396,0.28567662835121155
1.0855369567871094,-0.022788822650909424,-0.034735728055238724,0.029758095741271973,0.0014582757503345798,-1.484580663003615,-1.1884775138866988,-0.9962847232818604,-0.0014582752482965589,-0.08610880374908447,-0.10853312909603119,0.9784753918647766,0.260066956281662
1.1052160263061523,-0.2051413655281067,0.0038126157596707344,0.020268678665161133,-0.0012989033638663638,-1.460935963378128,-1.1893295793242173,-0.9939705729484558,0.0012989030219614506,-0.10963941365480423,0.0468442365527153,1.343651294708252,0.03903863579034805
1.1252598762512207,-0.17197483777999878,0.051322370767593384,-0.02523769438266754,-0.0018848665186979494,-1.4337553052078817,-1.1849178824971658,-0.9906229972839355,0.001884865458123386,-0.13661226630210876,0.37229010462760925,1.296586036682129,0.10238076746463776
1.1454200744628906,-0.08713734149932861,0.06040101870894432,0.06488502025604248,-0.0019157107026443985,-1.4093240240285727,-1.17659967131193,-0.9869898557662964,0.0019157095812261105,-0.1607712358236313,0.4315201938152313,1.2360692024230957,-0.019333379343152046
1.1651759147644043,-0.1387154459953308,-0.04832358658313751,0.10243606567382812,0.0008709046700790901,-1.3846764159706137,-1.1698189668389765,-0.9827292561531067,-0.0008709045359864831,-0.18504714965820312,0.2393999546766281,1.2277904748916626,-0.0961584523320198
1.1840038299560547,-0.19091582298278809,-0.09663316607475281,0.10747464001178741,0.003678293950794881,-1.3593619966831283,-1.165534299379796,-0.9777242541313171,-0.00367828574962914,-0.20986106991767883,0.3081658184528351,1.2667633295059204,-0.1048813909292221
1.2048687934875488,-0.2048490047454834,-0.04660291224718094,0.07536762952804565,0.009336108165763706,-1.3362613889841233,-1.1560156736351148,-0.9725802540779114,-0.009335972368717194,-0.23238056898117065,0.8474360704421997,1.062945008277893,-0.2600676417350769
1.2248330116271973,-0.2142673134803772,0.008013861253857613,0.09007254242897034,0.02277125956932495,-1.3169140888951545,-1.1359084516007736,-0.9676938056945801,-0.022769290953874588,-0.25109854340553284,1.3553522825241089,0.9464117288589478,-0.5871785879135132
1.2448277473449707,-0.25493723154067993,-0.054805733263492584,0.13570520281791687,0.04469662269788379,-1.300328476825996,-1.1127356092653378,-0.9626837372779846,-0.044681742787361145,-0.266915500164032,1.2717514038085938,0.781032145023346,-0.8718591928482056
1.264969825744629,-0.25774383544921875,-0.11301452666521072,0.18355673551559448,0.06692147400234527,-1.2861168957101483,-1.0985409321215467,-0.9576034545898438,-0.0668715313076973,-0.280221164226532,0.7819175720214844,0.6929376125335693,-0.8446241021156311
1.284742832183838,-0.25396668910980225,-0.09443676471710205,0.16562888026237488,0.08454284052715923,-1.2745352738262132,-1.0922822742677503,-0.9530187249183655,-0.08444216847419739,-0.2909034788608551,0.3257908523082733,0.5230222344398499,-0.6793922781944275
1.3037688732147217,-0.2539932131767273,-0.016405627131462097,0.21066617965698242,0.09805516577928881,-1.2653504802342779,-1.0907943799544746,-0.9491317868232727,-0.09789811074733734,-0.29927390813827515,0.32071518898010254,0.5832465887069702,-0.559687077999115
1.3248047828674316,-0.340786874294281,0.0888059213757515,0.1846611201763153,0.1133712844553353,-1.249989596976981,-1.0837064327073793,-0.9428891539573669,-0.11312858015298843,-0.31330791115760803,0.9103057980537415,0.8450483679771423,-0.816735029220581
1.3443808555603027,-0.2457658052444458,0.04100143909454346,0.0720720887184143,0.13733439756689975,-1.240246198819778,-1.0672673126136512,-0.9369581937789917,-0.13690310716629028,-0.3215075135231018,1.203195333480835,0.2931423783302307,-0.7803264856338501
1.3644280433654785,-0.03308993577957153,-0.21746499836444855,0.13238900899887085,0.1547030143033962,-1.2431888361055867,-1.0443608780291578,-0.9355074763298035,-0.1540866643190384,-0.3179358243942261,1.3721638917922974,-0.2755148410797119,-0.20751580595970154
1.383523941040039,-0.13087934255599976,-0.042472004890441895,0.11369746923446655,0.17388778503698366,-1.2555952927243255,-1.0168908519331052,-0.936396598815918,-0.17301280796527863,-0.30533257126808167,1.864862084388733,-0.2797108292579651,-0.8237463235855103
1.404222011566162,-0.3094157576560974,0.07323037087917328,0.24783432483673096,0.19685980467095943,-1.2543052225124414,-0.9921602650590488,-0.9319782853126526,-0.19559074938297272,-0.3052225708961487,1.1379903554916382,0.8295746445655823,-0.6373990774154663
1.424259901046753,-0.3979988694190979,-0.32727861404418945,0.036041587591171265,0.2106842091602348,-1.2380551964612443,-0.9731002338756918,-0.9242514371871948,-0.20912903547286987,-0.319412499666214,0.7531431317329407,1.1728355884552002,-0.012267069891095161
1.4441449642181396,-0.19569170475006104,-0.10090236365795135,-0.042497456073760986,0.20908970149380396,-1.2211255805227312,-0.9705644633828205,-0.919023871421814,-0.20756950974464417,-0.3351270258426666,-0.667149543762207,0.5036669373512268,0.31310486793518066
1.4642179012298584,-0.16751348972320557,-0.11866916716098785,-0.06435081362724304,0.19302854662512828,-1.209519688300648,-0.9883969533788209,-0.9180729389190674,-0.1918320655822754,-0.3469040095806122,-1.335059642791748,0.29551082849502563,0.4789765477180481
1.4842548370361328,-0.2422063946723938,0.062008991837501526,-0.13200032711029053,0.17857253424831046,-1.2024879750087794,-1.002772390420621,-0.9181024432182312,-0.17762498557567596,-0.354312539100647,-0.2795419692993164,-0.0015772227197885513,0.5500383377075195
1.5038189888000488,-0.14712274074554443,0.09425634145736694,-0.16962653398513794,0.1795085606041548,-1.2126403529618226,-0.97801006333011,-0.9214960336685181,-0.17854605615139008,-0.3449150621891022,1.3689680099487305,-0.4148840308189392,0.3270207345485687
1.5243768692016602,-0.15722894668579102,-0.26488596200942993,0.1612950563430786,0.18697689072516546,-1.2262769241645968,-0.946876429751573,-0.924832820892334,-0.185889333486557,-0.33185774087905884,1.8607397079467773,-0.2955431640148163,0.32532501220703125
1.5425899028778076,-0.18426579236984253,-0.20609788596630096,0.04115009307861328,0.19262859844621827,-1.2380654029955978,-0.9210013372947317,-0.9276727437973022,-0.19143953919410706,-0.3205842673778534,1.2114243507385254,-0.5988828539848328,-0.34265562891960144
1.5635359287261963,-0.0808153748512268,0.05174940824508667,0.1230168342590332,0.20895222140501016,-1.2590669102784577,-0.8925306831000996,-0.9311017394065857,-0.2074350267648697,-0.3000339865684509,2.137791156768799,-0.8033482432365417,-0.31818661093711853
1.5805387496948242,-0.09426701068878174,0.13234342634677887,0.05303168296813965,0.2328144913101737,-1.2876152675104182,-0.8407660278096086,-0.9342669248580933,-0.2307169884443283,-0.2718731462955475,2.985761880874634,-0.739967405796051,-0.2817535400390625
1.6043200492858887,-0.16099709272384644,-0.03826850652694702,0.0710000991821289,0.25028629894623144,-1.3047943834852995,-0.7875322187475136,-0.9347670674324036,-0.24768134951591492,-0.25468531250953674,2.0510196685791016,0.08903692662715912,-0.07877117395401001
1.6237969398498535,-0.18853509426116943,-0.2545059323310852,0.1508479118347168,0.25806915263331187,-1.304555205374968,-0.7685150592036352,-0.9328180551528931,-0.255214124917984,-0.25439396500587463,0.5515081286430359,0.36268267035484314,-0.15645669400691986
1.6437649726867676,0.07174187898635864,-0.06582915782928467,-0.14530426263809204,0.26040738490341475,-1.3129309058812733,-0.7531418978103905,-0.9343364834785461,-0.25747421383857727,-0.246419295668602,1.3975032567977905,-1.046753168106079,0.21734373271465302
1.6644959449768066,0.43149930238723755,0.5771365761756897,0.1337708830833435,0.2623723296485801,-1.3577145134594313,-0.7153154164158423,-0.943935215473175,-0.25937241315841675,-0.20423586666584015,1.544716477394104,-2.0030250549316406,0.6084607243537903
1.6819210052490234,-0.03434973955154419,-0.023724377155303955,0.05871617794036865,0.2598133837270893,-1.4007386307166894,-0.6871571183777212,-0.9524971842765808,-0.25690019130706787,-0.1635592132806778,0.6649829745292664,-1.2161513566970825,0.11362448334693909
1.7034687995910645,-0.407500684261322,-0.27203622460365295,0.17171035706996918,0.2549162688175523,-1.4015487523424062,-0.6953882131587376,-0.9538580775260925,-0.25216439366340637,-0.16299748420715332,-1.2785935401916504,0.7193610668182373,0.2904512584209442
1.7232708930969238,-0.02553337812423706,0.020069584250450134,0.004370570182800293,0.24632327912347643,-1.3823508319070645,-0.7188609675037587,-0.9526465535163879,-0.24383987486362457,-0.18167762458324432,-0.9488084316253662,0.4293917417526245,0.18311350047588348
1.7432198524475098,0.34418559074401855,0.24679745733737946,-0.040060222148895264,0.24158772337733542,-1.3814525701315048,-0.7304158778433344,-0.953606367111206,-0.23924453556537628,-0.18274855613708496,-0.058791179209947586,-0.4936147928237915,0.030794203281402588
1.7633137702941895,0.14721369743347168,0.16562750935554504,-0.13600319623947144,0.24731908646980544,-1.3948416795446652,-0.7194020532760919,-0.9546020030975342,-0.2448054999113083,-0.1697218120098114,1.0765774250030518,-0.43750515580177307,-0.4039298892021179
1.7835159301757812,-0.15596646070480347,-0.025365978479385376,0.014548420906066895,0.25925160693689225,-1.4004050691255627,-0.6974965075436332,-0.9525845646858215,-0.25635725259780884,-0.16390135884284973,0.9007302522659302,0.40936005115509033,-0.3316923975944519
1.803389072418213,-0.04057431221008301,-0.009068518877029419,0.09182220697402954,0.2718716286463263,-1.3971891356857242,-0.6878731927414922,-0.9487903118133545,-0.268534779548645,-0.16639183461666107,0.4727858603000641,0.09525158256292343,-0.9003914594650269
1.8231399059295654,0.0010536909103393555,0.07673525810241699,-0.0699419379234314,0.29653141266042166,-1.4033429898106493,-0.6715337988999925,-0.9429787397384644,-0.29220476746559143,-0.15939758718013763,1.5764397382736206,-0.24352771043777466,-1.0040984153747559
1.8420279026031494,0.0041040778160095215,-0.09566348791122437,-0.025917351245880127,0.31860461138222007,-1.4183458219807439,-0.6411723120007263,-0.9386590719223022,-0.3132416903972626,-0.1442180573940277,1.3677364587783813,-0.3014915883541107,-0.9211323261260986
1.8615748882293701,0.04274648427963257,-0.3260214626789093,0.16959130764007568,0.3375321501494504,-1.4337639675337055,-0.6275648422627216,-0.9347295165061951,-0.3311595022678375,-0.12889599800109863,-0.42303407192230225,-0.9026700854301453,-0.5225830078125
1.8809728622436523,0.059110403060913086,-0.2529658377170563,0.06751923263072968,0.3429996354581498,-1.4498746714415087,-0.6364597776175336,-0.9348734617233276,-0.33631351590156555,-0.11360067874193192,-0.5800072550773621,-0.936916172504425,0.11296458542346954
1.9022088050842285,-0.14577215909957886,0.39451271295547485,0.06833989173173904,0.34013570330428206,-1.4515506501347952,-0.6642658396808824,-0.9360148310661316,-0.3336150348186493,-0.11214779317378998,-0.647525429725647,-0.07667197287082672,-0.7371922731399536
1.9227869510650635,-0.3187933564186096,0.11401090025901794,0.014071032404899597,0.34801378082657747,-1.4415697749596308,-0.6657204243755566,-0.9322137832641602,-0.34103134274482727,-0.12114186584949493,0.06722566485404968,0.8957215547561646,0.02923477068543434
1.9428467750549316,0.00329434871673584,0.023421555757522583,0.08875346183776855,0.34473909499938765,-1.4302477280309764,-0.6674214931559657,-0.9318831562995911,-0.337951123714447,-0.131844162940979,-0.4238973557949066,0.11756549775600433,0.5289536714553833
1.965317964553833,-0.03778481483459473,-0.04538077116012573,0.07943861186504364,0.3286366825961317,-1.424567714314897,-0.6802166302026458,-0.9363821744918823,-0.322752982378006,-0.13791023194789886,-0.714544415473938,0.08556504547595978,0.7458010911941528
1.982320785522461,-0.3273017406463623,0.1405438482761383,-0.1252691149711609,0.3147201063754333,-1.4184133047153251,-0.6936469604958455,-0.9398643970489502,-0.30955034494400024,-0.14433830976486206,-0.7120595574378967,0.048439960926771164,0.37115585803985596
2.0009219646453857,-0.3185065984725952,0.26412734389305115,-0.07675886154174805,0.3101688486559488,-1.4148417528772117,-0.7010757468090894,-0.9407249093055725,-0.305219441652298,-0.1479114592075348,-0.001899027731269598,0.057143524289131165,0.02801540307700634
2.020576000213623,-0.24828338623046875,-0.07819703221321106,-0.06404983997344971,0.3079812976782375,-1.4172382211817096,-0.6969208636036102,-0.9417343139648438,-0.30313554406166077,-0.14575840532779694,0.13475225865840912,-0.10249753296375275,0.31895148754119873
2.0400068759918213,-0.2826862931251526,-0.1516479253768921,0.004198193550109863,0.30107673218651876,-1.416850960522801,-0.6964577424387459,-0.9437235593795776,-0.29654866456985474,-0.1464405506849289,-0.13118299841880798,0.17931240797042847,0.27494266629219055
2.0599260330200195,-0.3680717945098877,0.009491294622421265,-0.033864498138427734,0.2977138978900234,-1.4086314840369758,-0.6987905161594764,-0.9434669017791748,-0.2933354377746582,-0.1543525606393814,-0.09700082987546921,0.6355152726173401,0.04337375983595848
2.079983949661255,-0.33541518449783325,-0.019405126571655273,-0.08974011242389679,0.29956982282737626,-1.3915682105223746,-0.7015832409293511,-0.9401586055755615,-0.29510921239852905,-0.17033059895038605,-0.015948254615068436,0.8149038553237915,-0.29666391015052795
2.0999927520751953,-0.24738341569900513,-0.18656185269355774,-0.1296876072883606,0.3043039078192323,-1.378411672991122,-0.6992306469068762,-0.9364544749259949,-0.2996291518211365,-0.18241555988788605,0.2396010160446167,0.53517085313797,-0.08456358313560486
2.1199140548706055,-0.10978871583938599,-0.1409401297569275,-0.06210756301879883,0.3059975022033317,-1.373872508224808,-0.6963030427454235,-0.9351179003715515,-0.30124449729919434,-0.1865648478269577,0.028713129460811615,0.027067294344305992,-0.06567250192165375
2.139908790588379,-0.15820181369781494,-0.17650526762008667,-0.05662642419338226,0.3049607226363583,-1.3732328333743984,-0.6992823875244732,-0.9353039860725403,-0.3002557158470154,-0.18722416460514069,-0.41855937242507935,0.05767615884542465,0.1446799635887146
2.1599109172821045,-0.27508431673049927,-0.1759597659111023,-0.023779332637786865,0.3019987466059591,-1.3666716457930974,-0.7109095814736801,-0.9349223971366882,-0.29742908477783203,-0.19353625178337097,-0.6026341319084167,0.2274591624736786,-0.03889808431267738
2.180069923400879,-0.25044316053390503,-0.13825678825378418,-0.017619669437408447,0.2993931330552778,-1.3573765116671581,-0.723870423526034,-0.9338372945785522,-0.29494038224220276,-0.202381432056427,-0.5762798190116882,0.2880891263484955,-0.05838225036859512
2.1999340057373047,-0.22284430265426636,-0.09865632653236389,-0.04048745334148407,0.3001797658150098,-1.3492043955538016,-0.731425773820683,-0.9319255352020264,-0.29569193720817566,-0.20995494723320007,-0.15297271311283112,0.3248235285282135,-0.061102986335754395
2.220277786254883,-0.18778204917907715,0.012508958578109741,0.025570988655090332,0.29724733014074617,-1.3395130797342307,-0.7377455435726845,-0.9306871891021729,-0.2928893566131592,-0.21917438507080078,-0.6259499788284302,0.46600142121315,0.046582456678152084
2.2399919033050537,-0.26364248991012573,-0.021703064441680908,0.12738759815692902,0.29446979940970114,-1.3234201547410833,-0.7555201050136583,-0.9278247356414795,-0.29023250937461853,-0.23432110249996185,-1.0678951740264893,0.659608006477356,-0.05474786087870598
2.259942054748535,-0.22432106733322144,-0.08494719862937927,0.09709775447845459,0.2908081728017272,-1.30532426076762,-0.7752659689479547,-0.9244521260261536,-0.28672656416893005,-0.2513487935066223,-0.6926199793815613,0.5279944539070129,-0.07507481426000595
2.28108286857605,-0.14027661085128784,0.054408907890319824,-0.040567606687545776,0.28927694493275374,-1.2920115682041893,-0.7890102290270801,-0.9214451313018799,-0.28525927662849426,-0.26375359296798706,-0.597410261631012,0.39066043496131897,-0.161722332239151
2.2999868392944336,-0.10208207368850708,-0.012781292200088501,0.006889760494232178,0.28604066022669244,-1.28013568262071,-0.8053080676081921,-0.9191276431083679,-0.28215599060058594,-0.2749408483505249,-1.1060807704925537,0.40018582344055176,0.06051412969827652
2.3218297958374023,-0.13530069589614868,-0.04863741993904114,0.2011541724205017,0.2762116149993639,-1.2612907064768903,-0.833258688875733,-0.9163808226585388,-0.2727128267288208,-0.29304254055023193,-1.6839009523391724,0.821888267993927,-0.04509584978222847
2.341449737548828,-0.15964537858963013,-0.022593975067138672,0.21070381999015808,0.2697748782299697,-1.2363365282414518,-0.8651355619487672,-0.9104228615760803,-0.26651445031166077,-0.3163861334323883,-1.4365527629852295,0.7869672775268555,-0.21551233530044556
2.3614978790283203,-0.07776749134063721,-0.008047908544540405,0.11644512414932251,0.26580800952565237,-1.2161560507265983,-0.8906410341774299,-0.9048374891281128,-0.2626889944076538,-0.33505773544311523,-1.1471022367477417,0.5760158896446228,-0.17516198754310608
2.381560802459717,-0.05435359477996826,-0.026843160390853882,0.14595559239387512,0.25863897580402806,-1.19919157148544,-0.9169822514380914,-0.900754988193512,-0.25576502084732056,-0.35103365778923035,-1.5310183763504028,0.46966779232025146,-0.09634042531251907
2.401787757873535,-0.10354185104370117,0.07277017831802368,0.1811530888080597,0.2471538931841702,-1.1802322528400773,-0.948844896218142,-0.8965953588485718,-0.24464532732963562,-0.36914128065109253,-1.6703808307647705,0.5805278420448303,0.010194390080869198
2.4206128120422363,-0.08627241849899292,0.1996147483587265,0.17914864420890808,0.23381343038197086,-1.160090944460694,-0.9770764722830915,-0.8918921947479248,-0.23168887197971344,-0.3883923590183258,-1.3424854278564453,0.7700534462928772,0.1866610199213028
2.44126296043396,-0.06568658351898193,0.14085893332958221,0.20317330956459045,0.21834989988444647,-1.1399571132262518,-0.9992941052077143,-0.8870416879653931,-0.21661899983882904,-0.4077172875404358,-1.311370611190796,0.8046894669532776,0.34851738810539246
2.4611740112304688,-0.05520594120025635,0.04597321152687073,0.1940940022468567,0.1996718085743116,-1.1196444850315992,-1.0208643222190537,-0.8820651769638062,-0.19834767282009125,-0.4273398220539093,-1.3833245038986206,0.7761046290397644,0.43605685234069824
2.4811649322509766,-0.00736004114151001,0.061410337686538696,0.18497878313064575,0.17869296457452388,-1.1026560510987597,-1.0416682820541685,-0.87819904088974,-0.17774350941181183,-0.44404247403144836,-1.4157897233963013,0.5517413020133972,0.5225691199302673
2.5011987686157227,0.0343090295791626,0.03372594714164734,0.26970213651657104,0.156279212545962,-1.0893530038523564,-1.064956431291107,-0.8755260705947876,-0.15564385056495667,-0.45741575956344604,-1.6275627613067627,0.3586729168891907,0.4544796049594879
2.5212998390197754,0.05736386775970459,-0.09146372973918915,0.2919989824295044,0.131079435782505,-1.0807598108614276,-1.0887732732628692,-0.8747466802597046,-0.1307043880224228,-0.466620534658432,-1.6465963125228882,0.12285498529672623,0.642626166343689
2.542649745941162,0.1313227415084839,0.0265977680683136,0.2730153799057007,0.10502270799328108,-1.0788244603769812,-1.1143762167479143,-0.8765468597412109,-0.10482975095510483,-0.46976223587989807,-1.819325566291809,-0.18780195713043213,0.4386633038520813
2.5608818531036377,0.14810031652450562,0.04156652092933655,0.22587990760803223,0.08059432749077619,-1.0809274669794358,-1.1446525092476214,-0.8795303702354431,-0.08050710707902908,-0.4689829349517822,-1.9160609245300293,-0.28060638904571533,0.3730716407299042
2.5807080268859863,0.21027988195419312,-0.015561778098344803,0.2082729935646057,0.05442679629078171,-1.0850329211863556,-1.17461391136046,-0.8830093741416931,-0.05439992994070053,-0.4661922752857208,-1.9337512254714966,-0.298117995262146,0.4555128514766693
2.600951910018921,0.21592789888381958,0.03605668991804123,0.08780866861343384,0.03127067869663857,-1.089982703752308,-1.2024264599749643,-0.8861855268478394,-0.031265582889318466,-0.46227461099624634,-1.5771201848983765,-0.37107518315315247,0.3633316159248352
2.620684862136841,0.2545797824859619,0.06025048345327377,0.04838162660598755,0.012094196362801065,-1.0972235440453377,-1.224271841754329,-0.8898794651031494,-0.012093901634216309,-0.45603540539741516,-1.23557710647583,-0.4117271900177002,0.3064904808998108
2.640676975250244,0.21666598320007324,-0.00036959489807486534,0.016030311584472656,-0.004504567232215605,-1.1062226864870235,-1.241083222132323,-0.8940036296844482,0.004504552111029625,-0.44803711771965027,-1.026548147201538,-0.48122167587280273,0.4040660858154297
2.6612720489501953,0.14837950468063354,0.00870673730969429,-0.04981046915054321,-0.018805801259788656,-1.1162192203063004,-1.2535146983220635,-0.8982878923416138,0.01880469359457493,-0.4390047490596771,-0.8046649098396301,-0.4704030156135559,0.37132105231285095
2.6814870834350586,0.12286067008972168,0.016547664999961853,-0.06746548414230347,-0.03350727556027003,-1.1258143983374875,-1.2656234004607227,-0.9021117687225342,0.03350100666284561,-0.4301999509334564,-1.017284631729126,-0.4865534007549286,0.32490020990371704
2.700281858444214,0.13285213708877563,-0.04741378873586655,0.0029225945472717285,-0.046912027490400535,-1.1374066093921924,-1.2846090319176928,-0.9065490365028381,0.046894822269678116,-0.41948753595352173,-1.235744833946228,-0.58127361536026,0.20637211203575134
2.719973087310791,0.13387399911880493,-0.11209401488304138,0.03174096345901489,-0.06197786909815834,-1.1511061226999024,-1.3029166124263296,-0.9114617705345154,0.061938196420669556,-0.4066951870918274,-1.0157802104949951,-0.720917284488678,0.33146756887435913
2.7406089305877686,0.05940157175064087,0.024169400334358215,-0.06996232271194458,-0.07199245212749068,-1.1662885646044634,-1.3133454245771403,-0.9169149994850159,0.07193028181791306,-0.3925468325614929,-0.21973420679569244,-0.7115909457206726,0.23078253865242004
2.760395050048828,0.07979857921600342,0.03726433217525482,-0.1594407558441162,-0.07656457508840457,-1.1804511126894435,-1.3055809739603108,-0.9220685958862305,0.07648979127407074,-0.37939298152923584,0.6832719445228577,-0.7850257158279419,0.45334407687187195
2.7802999019622803,0.13710486888885498,-0.051205508410930634,-0.08736938238143921,-0.07763525059637506,-1.1967266638698453,-1.2852315609261022,-0.9280441999435425,0.0775572881102562,-0.3643060624599457,1.1272703409194946,-0.9812008738517761,0.4211861491203308
2.8002779483795166,0.09666788578033447,-0.09581802040338516,-0.0597665011882782,-0.07763102863877462,-1.2148156641735228,-1.2584262112339932,-0.9344821572303772,0.07755307853221893,-0.3474600613117218,1.3240602016448975,-1.0017625093460083,0.5041210651397705
2.8202648162841797,0.0533103346824646,-0.1144447773694992,-0.037265002727508545,-0.07810126363521151,-1.2328085277775092,-1.229943017133106,-0.9405479431152344,0.07802188396453857,-0.33057862520217896,1.2773956060409546,-1.0486276149749756,0.5160956382751465
2.8399739265441895,0.08255720138549805,-0.11067914962768555,0.01185724139213562,-0.0795586606679484,-1.2521691172115381,-1.2029507780626643,-0.9466625452041626,0.07947476208209991,-0.312272310256958,1.317213535308838,-1.1087815761566162,0.49415862560272217
2.859975814819336,0.0650743842124939,-0.10870661586523056,-0.10649767518043518,-0.0769066264154357,-1.2734928669431522,-1.1665715574873727,-0.9533037543296814,0.07683083415031433,-0.2920771539211273,2.3373680114746094,-1.3222019672393799,0.4857769310474396
2.880056858062744,0.08379256725311279,-0.04696471989154816,-0.04630756378173828,-0.07413205009158114,-1.2950178122785885,-1.1121251480499523,-0.9595708250999451,0.07406417280435562,-0.2715482711791992,2.858978033065796,-1.2785049676895142,0.6410079598426819
2.8999719619750977,0.06949996948242188,-0.11687886714935303,0.10081878304481506,-0.07229444187677188,-1.3153491202518184,-1.0562615522900565,-0.9650229811668396,0.0722314864397049,-0.2520180940628052,2.520353078842163,-1.1856722831726074,0.6791762113571167
2.9199788570404053,0.11770296096801758,-0.17220596969127655,0.10565066337585449,-0.07602658546202924,-1.3364666118577602,-1.008535924520696,-0.9698606133460999,0.07595336437225342,-0.2315203696489334,2.0679311752319336,-1.2841683626174927,0.8099077343940735
2.940070867538452,0.10330432653427124,-0.1318618655204773,-0.0544133186340332,-0.08170538122640823,-1.3587309028988277,-0.9612928477588887,-0.974337100982666,0.08161450177431107,-0.2097773551940918,2.45515775680542,-1.2145721912384033,0.8577470183372498
2.960000991821289,0.06620168685913086,-0.051118895411491394,-0.07567280530929565,-0.0890323373021306,-1.3742452455009158,-0.9080221657842594,-0.9768615365028381,0.08891475945711136,-0.19451451301574707,2.496695041656494,-0.8207274675369263,0.9002134203910828
2.980074882507324,0.10771703720092773,-0.1938093900680542,-0.000571131706237793,-0.09869348366495487,-1.3840628099505174,-0.8652107163697098,-0.9778342843055725,0.09853333979845047,-0.18474678695201874,1.3514612913131714,-0.5997768640518188,0.836060643196106
2.9999728202819824,0.18712443113327026,-0.24543559551239014,0.03084254264831543,-0.11135758993982027,-1.3958023132607646,-0.8494125543581891,-0.978628396987915,0.1111275851726532,-0.17302389442920685,0.0821307897567749,-0.7476720809936523,0.710538923740387
3.021023750305176,0.18364191055297852,-0.1754036694765091,-0.06065577268600464,-0.12522394904467762,-1.4114578070455381,-0.8480573865190806,-0.9796014428138733,0.12489692866802216,-0.1574227660894394,-0.08337881416082382,-0.8109700679779053,0.7345736622810364
3.0399749279022217,0.13853967189788818,-0.08934666216373444,-0.09386807680130005,-0.13918817704943354,-1.4278610539662784,-0.846078687529737,-0.9802297949790955,0.1387391835451126,-0.14107143878936768,0.11400403082370758,-0.8054820895195007,0.6724256277084351
3.059717893600464,0.10489082336425781,-0.07684728503227234,-0.12464498728513718,-0.15027275152113373,-1.4442305060388219,-0.8390304103586295,-0.9808216094970703,0.14970780909061432,-0.12480562180280685,0.4751422703266144,-0.9101869463920593,0.5741725564002991
3.081207752227783,0.09586912393569946,-0.02825586497783661,-0.14813728630542755,-0.1603661558468534,-1.4613320193045902,-0.8237325421368044,-0.9812605381011963,0.15967968106269836,-0.10784409195184708,0.8878030776977539,-1.0132312774658203,0.6106825470924377
3.0998120307922363,0.040890276432037354,0.019015908241271973,-0.10711676627397537,-0.1692295067744937,-1.476989962802319,-0.8023374416433541,-0.9813811779022217,0.1684229075908661,-0.09233078360557556,1.0575695037841797,-0.8446171283721924,0.4677724242210388
3.119980812072754,-0.006629288196563721,-0.02506859600543976,-0.06827723979949951,-0.17685254666898517,-1.4877671058143973,-0.7801102595378894,-0.9810112118721008,0.17593209445476532,-0.08164028823375702,0.9935345649719238,-0.6182557344436646,0.5312402844429016
3.1399738788604736,0.02258455753326416,-0.001073598861694336,-0.07795178890228271,-0.1858418959940415,-1.4961340419998268,-0.7631599964268736,-0.9800431132316589,0.1847739964723587,-0.07330852746963501,0.6621617674827576,-0.5494486689567566,0.45738089084625244
3.1599738597869873,0.016959786415100098,-0.001989513635635376,-0.1562875509262085,-0.19406205301092788,-1.5061454339173332,-0.7495542993292834,-0.9791790246963501,0.19284628331661224,-0.06339314579963684,0.5925108790397644,-0.7099232077598572,0.49246132373809814
3.1799728870391846,-0.02725905179977417,0.053396835923194885,-0.17840534448623657,-0.20184654574623612,-1.5175666667721166,-0.7369812532003953,-0.9783104658126831,0.20047873258590698,-0.05212436988949776,0.6305406093597412,-0.635551929473877,0.33644041419029236
3.199971914291382,-0.05534332990646362,-0.006008937954902649,-0.07755976915359497,-0.20766294092556628,-1.5237474200064367,-0.7254769259270348,-0.9774327278137207,0.2061736136674881,-0.046021103858947754,0.39384204149246216,-0.21124504506587982,0.26767638325691223
3.220004081726074,-0.03262686729431152,-0.05440540611743927,-0.035669922828674316,-0.21124632250170106,-1.524253786887978,-0.720047395919819,-0.9767115712165833,0.20967867970466614,-0.04549149051308632,0.1852109432220459,0.02806846611201763,0.15525270998477936
3.2400779724121094,-6.335973739624023e-05,-0.04415780305862427,-0.11612045764923096,-0.21465607423046185,-1.5217241816187392,-0.7163867934641763,-0.9758736491203308,0.21301141381263733,-0.04792669042944908,0.12866702675819397,0.1532970368862152,0.18631087243556976
3.260056972503662,0.03436070680618286,0.0004376024007797241,-0.14937293529510498,-0.21722419201080012,-1.5189464830427961,-0.7166905230698768,-0.9751871228218079,0.21551987528800964,-0.05060866102576256,-0.2016982138156891,0.08112644404172897,0.08129002153873444
3.280028820037842,0.07829660177230835,-0.018522053956985474,-0.09613627195358276,-0.219827308743153,-1.5202640974313373,-0.7260119408241306,-0.9746894836425781,0.21806108951568604,-0.049295198172330856,-0.7738584280014038,0.0025370949879288673,0.1587706059217453
3.3000378608703613,0.055128395557403564,-0.06297054886817932,-0.070750892162323,-0.22345572229422228,-1.5257894768438285,-0.7459377598158996,-0.9741500020027161,0.221600741147995,-0.043873049318790436,-1.0793262720108032,-0.11275967210531235,0.103235624730587
3.319972038269043,0.019339561462402344,-0.0346786230802536,-0.05599087476730347,-0.2265999188596938,-1.5319429487027973,-0.7682243081447941,-0.9737005829811096,0.22466567158699036,-0.037850603461265564,-1.068158507347107,-0.008094421587884426,0.10803928226232529
3.3400068283081055,0.00110626220703125,0.047511905431747437,-0.0889386534690857,-0.2273760991811691,-1.536438087495908,-0.7853377548561191,-0.9736863970756531,0.2254219353199005,-0.03346731886267662,-0.5459703207015991,-0.035872966051101685,-0.07993975281715393
3.360142946243286,0.03131687641143799,0.09098823368549347,-0.11434996128082275,-0.22546159523205445,-1.5386674384074341,-0.7906388813689847,-0.9741880297660828,0.2235562950372696,-0.03131035342812538,0.023093674331903458,-0.07480642944574356,-0.136109858751297
3.3799779415130615,0.03897911310195923,0.09609992802143097,-0.10363274812698364,-0.22106477429124102,-1.539851668370016,-0.7851104733762349,-0.9751975536346436,0.21926860511302948,-0.030186790972948074,0.49604088068008423,-0.1827213615179062,-0.27127805352211
3.399960994720459,0.045928120613098145,0.07292704284191132,-0.058561742305755615,-0.21508912668141855,-1.541255645670679,-0.7732674332085138,-0.9765312075614929,0.21343450248241425,-0.028855791315436363,0.6002223491668701,-0.21138398349285126,-0.278299480676651
3.4199748039245605,0.04014104604721069,0.046529024839401245,-0.026978913694620132,-0.20890859577604054,-1.5437632939807522,-0.7641494852349057,-0.9779005646705627,0.2073923498392105,-0.026442060247063637,0.32244187593460083,-0.2485407590866089,-0.3346938192844391
3.440001964569092,0.039943575859069824,0.05917076766490936,-0.03529012203216553,-0.20235432007843304,-1.5477374344895671,-0.7591762800396733,-0.9793357253074646,0.20097616314888,-0.02258639968931675,0.20793816447257996,-0.2335824966430664,-0.28157758712768555
3.4599759578704834,0.07305788993835449,0.11694405972957611,-0.053667306900024414,-0.19710421498539218,-1.5513472975831948,-0.7544103430235224,-0.9804523587226868,0.19583043456077576,-0.019071251153945923,0.2923736572265625,-0.24773594737052917,-0.2556896209716797
3.4794769287109375,0.10261774063110352,0.1461324840784073,-0.06151193380355835,-0.19225347055189682,-1.555611993352051,-0.7472390472744112,-0.9814630150794983,0.19107133150100708,-0.014904007315635681,0.4378928542137146,-0.32080456614494324,-0.19923515617847443
3.4999749660491943,0.10111731290817261,0.14074499905109406,-0.05775165557861328,-0.18891348151095244,-1.5608041698448984,-0.7373139963171099,-0.9821597933769226,0.1877918243408203,-0.009814221411943436,0.5377463698387146,-0.37506115436553955,-0.13333407044410706
3.519976854324341,0.07675439119338989,0.13623769581317902,-0.04362910985946655,-0.18638794776235715,-1.566002617760747,-0.7253910286077083,-0.9826686382293701,0.18531061708927155,-0.004710663575679064,0.6202521324157715,-0.36930346488952637,-0.12378071248531342
3.5399858951568604,0.05780559778213501,0.15256498754024506,-0.03308761119842529,-0.1835312072561416,-1.570709989709976,-0.7118774474272624,-0.9832054376602173,0.1825026124715805,-8.48870913614519e-05,0.7210292220115662,-0.3565041720867157,-0.15797556936740875
3.560004949569702,0.0527302622795105,0.14492829144001007,-0.02642381191253662,-0.18049769038893154,-1.5751039730372753,-0.6968049646209163,-0.9837454557418823,0.17951920628547668,0.004237653687596321,0.7464312314987183,-0.3650025725364685,-0.1570565104484558
3.5800628662109375,0.04663658142089844,0.1258029192686081,-0.01592540740966797,-0.1770150485108236,-1.5796738042176603,-0.6818315300187994,-0.9843350052833557,0.17609205842018127,0.008738641627132893,0.7284922003746033,-0.3640507459640503,-0.20651131868362427
3.5999770164489746,0.052202045917510986,0.1198834776878357,-0.007967116311192513,-0.17262899763663445,-1.5841968149928214,-0.6662883580585333,-0.9850479960441589,0.17177286744117737,0.013200914487242699,0.8013251423835754,-0.3572276532649994,-0.2400527447462082
3.620011806488037,0.06819796562194824,0.13142986595630646,-0.0055235642939805984,-0.16788039685131204,-1.5885796241427468,-0.6500439888394155,-0.985785186290741,0.1670929193496704,0.017532357946038246,0.8026918768882751,-0.36438435316085815,-0.2724809944629669
3.6399738788604736,0.061596035957336426,0.12833265960216522,-0.030576584860682487,-0.1624503535051883,-1.5926134652049668,-0.6329421431751419,-0.9865992665290833,0.16173678636550903,0.02152818813920021,0.8739309906959534,-0.3298066556453705,-0.2987160384654999
3.6600208282470703,0.08083575963973999,0.13677749037742615,-0.007349018007516861,-0.15723489066575597,-1.5962075323782365,-0.6153908888162885,-0.9873450398445129,0.15658780932426453,0.025095028802752495,0.8528604507446289,-0.3070971965789795,-0.2667490839958191
3.679978847503662,0.09414029121398926,0.13765102624893188,-0.0195537768304348,-0.15235097469673908,-1.599305413068912,-0.5974388447522497,-0.9880155324935913,0.15176229178905487,0.028175054118037224,0.933809220790863,-0.3058065176010132,-0.2716369330883026
3.6999759674072266,0.09591025114059448,0.1568029224872589,-0.0273669995367527,-0.1472872081072697,-1.6035902909838924,-0.5766007691447197,-0.9886409640312195,0.14675524830818176,0.03243308141827583,1.1487332582473755,-0.4278278648853302,-0.3133796751499176
3.719974994659424,0.06467169523239136,0.16891948878765106,-0.008142475038766861,-0.14134976747581177,-1.6072339167482392,-0.5514823826350389,-0.9893695116043091,0.1408795416355133,0.0360662043094635,1.2721360921859741,-0.3174419701099396,-0.38631564378738403
3.739974021911621,0.06101018190383911,0.1542752981185913,0.004422783851623535,-0.1336742024217524,-1.6096375224047332,-0.5236107832515617,-0.9903315305709839,0.13327646255493164,0.03848501667380333,1.4584429264068604,-0.24860849976539612,-0.4350527822971344
3.759974956512451,0.1020662784576416,0.15284350514411926,0.02227317914366722,-0.12748490853715563,-1.6088848052505345,-0.4948871903532736,-0.9911653399467468,0.1271398663520813,0.03777024522423744,1.3478139638900757,-0.09166858345270157,-0.338401734828949
3.7799768447875977,0.1164061427116394,0.1452312469482422,0.009205937385559082,-0.12208521793810317,-1.606911083424312,-0.47009503033498645,-0.9919096827507019,0.12178216874599457,0.035838160663843155,1.107301115989685,-0.06727412343025208,-0.30649515986442566
3.800023078918457,0.11644572019577026,0.16125860810279846,-0.011500835418701172,-0.11740740784840517,-1.6051694136180332,-0.44855761406257383,-0.9925291538238525,0.1171378567814827,0.034129731357097626,1.0279794931411743,-0.05365382879972458,-0.230910524725914
3.8199799060821533,0.1116478443145752,0.15651394426822662,-0.01784980297088623,-0.11292131001368304,-1.6038929847813788,-0.42708076818339996,-0.9930870532989502,0.11268148571252823,0.032879870384931564,1.1017664670944214,-0.07160264998674393,-0.2787516713142395
3.8399739265441895,0.1091814637184143,0.13965429365634918,-0.004082918167114258,-0.10859048047304681,-1.6043495734656916,-0.40305662049667856,-0.9935503602027893,0.10837718844413757,0.033349357545375824,1.319432258605957,-0.1348860114812851,-0.2183907926082611
3.859975814819336,0.09971851110458374,0.1388075351715088,0.016021007671952248,-0.10634196045655096,-1.6014622602926285,-0.37492098595446516,-0.9938834309577942,0.10614164173603058,0.030487921088933945,1.4342237710952759,0.06935110688209534,-0.11216215789318085
3.8799867630004883,0.1655842661857605,0.15732130408287048,0.0408167839050293,-0.1067514636696669,-1.5969037235285055,-0.34472454621165427,-0.993968665599823,0.10654882341623306,0.02595583163201809,1.5316952466964722,0.04923899844288826,0.11318959295749664
3.9000048637390137,0.19786405563354492,0.164397731423378,0.06457340717315674,-0.111605790139139,-1.594983647655727,-0.31416230076263224,-0.9934877753257751,0.11137424409389496,0.024034494534134865,1.514907956123352,-0.1856166571378708,0.27378931641578674
3.919987916946411,0.1380312442779541,0.12203171849250793,0.1305309534072876,-0.11863320394697245,-1.5958089144400105,-0.2867370327882222,-0.9926608204841614,0.11835513263940811,0.024834195151925087,1.222487449645996,-0.16713999211788177,0.3355043828487396
3.939971923828125,0.08963382244110107,0.05358755588531494,0.16236674785614014,-0.12502146378552872,-1.5963609383386472,-0.2651140926767323,-0.9918708801269531,0.1246960312128067,0.025362320244312286,1.0088400840759277,-0.1327000856399536,0.26794999837875366
3.9600329399108887,0.10655665397644043,0.02736625075340271,0.14552366733551025,-0.13242892509054824,-1.594904565443247,-0.24511697401631866,-0.9909560084342957,0.13204218447208405,0.023894833400845528,0.9760417938232422,-0.03687964007258415,0.39694780111312866
3.979975938796997,0.09976881742477417,0.06106299161911011,0.09390997886657715,-0.14001653456237967,-1.5944758219706288,-0.2261276459981964,-0.9899361729621887,0.13955949246883392,0.023445570841431618,0.9083282947540283,-0.14785650372505188,0.34588125348091125
3.9999749660491943,0.0718153715133667,0.07330963015556335,0.10067951679229736,-0.14813292626728938,-1.593552304423535,-0.21119096128062928,-0.9887924790382385,0.14759176969528198,0.02250482328236103,0.5804733037948608,-0.01231810636818409,0.3514847159385681
4.019978046417236,0.0590747594833374,0.03114229440689087,0.1325995922088623,-0.15415985662232634,-1.590269201009911,-0.202972464776657,-0.9879534840583801,0.15354996919631958,0.01924072578549385,0.2425159364938736,0.21651019155979156,0.2776436507701874
4.039974927902222,0.16750192642211914,0.023755788803100586,0.11058878898620605,-0.15993903251639474,-1.5856727632982797,-0.20004517059784174,-0.9871277809143066,0.15925802290439606,0.01468602754175663,0.08863697201013565,0.1855168491601944,0.31150123476982117
4.059974908828735,0.27506983280181885,0.024468258023262024,0.04205823317170143,-0.16730536470160876,-1.5831716618433649,-0.1974066925323005,-0.9859618544578552,0.1665259450674057,0.012202231213450432,0.18433606624603271,-0.015119841322302818,0.4289429187774658
4.0799760818481445,0.276508092880249,0.029985710978507996,-0.005464198067784309,-0.17711549288020473,-1.5838814754731916,-0.19060454770362353,-0.9842717051506042,0.17619092762470245,0.01288007665425539,0.452526718378067,-0.11828732490539551,0.5615779161453247
4.100069999694824,0.18202942609786987,0.004841715097427368,-0.020074009895324707,-0.18884454065807763,-1.583761822571054,-0.1796589024583653,-0.9821393489837646,0.18772409856319427,0.012734637595713139,0.5813473463058472,-0.05561143159866333,0.5880321264266968
4.119977951049805,0.09877526760101318,-0.03642253577709198,0.011970877647399902,-0.19953276005119688,-1.581063220270397,-0.16905015589240152,-0.9801077246665955,0.19821138679981232,0.010063014924526215,0.4600495994091034,0.11703970283269882,0.4696604907512665
4.139975070953369,0.0858069658279419,-0.07429438829421997,0.024831175804138184,-0.20863225629922344,-1.5774355997742089,-0.16239060437154657,-0.9782934784889221,0.20712201297283173,0.006495252717286348,0.209321990609169,0.0899675190448761,0.4434271454811096
4.159973859786987,0.0937798023223877,-0.06069444119930267,0.0305178165435791,-0.21662030793213094,-1.5774832813234976,-0.15959289378268668,-0.9766075015068054,0.21493014693260193,0.006530627142637968,0.1915300488471985,-0.148306205868721,0.3457420766353607
4.1799750328063965,0.006357789039611816,-0.017155230045318604,0.013115763664245605,-0.22390096273943252,-1.5775953873439788,-0.15328643008202852,-0.9750162959098816,0.22203488647937775,0.0066292970441281796,0.4241792857646942,-0.03162948414683342,0.36468666791915894
4.200021743774414,-0.10584104061126709,0.02693866193294525,-0.010589122772216797,-0.2292761559931099,-1.5743214911528058,-0.1436751289148932,-0.9738251566886902,0.22727267444133759,0.0034329078625887632,0.4550645649433136,0.18504644930362701,0.16430100798606873
4.2199718952178955,-0.08252263069152832,0.0036749541759490967,0.04730623960494995,-0.23160533092115007,-1.5675471898066715,-0.13710752178590213,-0.9732940793037415,0.22954028844833374,-0.0031623768154531717,0.17549960315227509,0.31649351119995117,0.09478571265935898
4.239977836608887,0.02453082799911499,-0.0672082006931305,0.061566054821014404,-0.233775602377643,-1.5616236043395006,-0.13688210691104988,-0.9727578163146973,0.23165206611156464,-0.008923087269067764,-0.12060747295618057,0.2438773661851883,0.11598411947488785
4.26000189781189,0.07522571086883545,-0.08780436217784882,0.042125582695007324,-0.23637690633730585,-1.5587306257953881,-0.1400500782371479,-0.972122073173523,0.23418182134628296,-0.011729903519153595,-0.1504250019788742,0.14112338423728943,0.1497737020254135
4.279972076416016,0.054792821407318115,-0.09138984978199005,0.0025501856580376625,-0.23912413019831036,-1.5567060026504027,-0.1416113613838166,-0.9714493155479431,0.236851766705513,-0.013688941486179829,-0.013390220701694489,0.13539740443229675,0.12797477841377258
4.299973964691162,0.03791308403015137,-0.09877172112464905,-0.002263842150568962,-0.2414457500896286,-1.5536567348170485,-0.14022245853543858,-0.9708506464958191,0.239106684923172,-0.016641613095998764,0.14812983572483063,0.13362036645412445,0.12160889059305191
4.319972991943359,0.03985971212387085,-0.08334954082965851,-0.0007111430168151855,-0.24435861703852632,-1.5499204413942471,-0.1355510354869547,-0.9700813293457031,0.24193404614925385,-0.02025424875319004,0.3168976604938507,0.13573552668094635,0.1776457279920578
4.3399999141693115,0.009022891521453857,-0.07567994296550751,0.005161341279745102,-0.2480144926647964,-1.5454634532959208,-0.12813626730266747,-0.9690908193588257,0.24547968804836273,-0.024555107578635216,0.3897387683391571,0.1305791288614273,0.19078753888607025
4.359978914260864,-0.04019540548324585,-0.09686478972434998,0.01336527056992054,-0.2512641476277154,-1.5403890678112475,-0.11948633173921162,-0.9681511521339417,0.2486286163330078,-0.029447898268699646,0.4327145218849182,0.16644826531410217,0.16754759848117828
4.37997579574585,-0.07961499691009521,-0.11634615063667297,-0.015802565962076187,-0.254001993063139,-1.5348870752640134,-0.1093832551301967,-0.9672906994819641,0.2512795627117157,-0.03474962338805199,0.5141766667366028,0.18171216547489166,0.15001624822616577
4.399975776672363,-0.12158644199371338,-0.1059671938419342,-0.011239171028137207,-0.25617502815158866,-1.5285355776588019,-0.09923095848537307,-0.9665026068687439,0.25338226556777954,-0.04086945950984955,0.49156737327575684,0.1667361557483673,0.09587739408016205
4.420018911361694,-0.19239693880081177,-0.09849047660827637,-0.028845246881246567,-0.2574687431340711,-1.5225637927416968,-0.08923861955793605,-0.965912938117981,0.2546335458755493,-0.04662458971142769,0.4579574763774872,0.1873285174369812,0.07088495790958405
4.44001579284668,-0.2601523995399475,-0.09408390522003174,-0.008518099784851074,-0.25821378704612075,-1.5158355021087633,-0.08062548919076064,-0.9653878211975098,0.2553539574146271,-0.05311200022697449,0.35588040947914124,0.2828347086906433,0.053132474422454834
4.460024833679199,-0.27488791942596436,-0.09860619902610779,0.0004608668386936188,-0.25851951891003966,-1.5081558607279255,-0.07521540738029091,-0.9648734331130981,0.25564953684806824,-0.060519296675920486,0.16094520688056946,0.3367724120616913,0.015883535146713257
4.479973793029785,-0.2453014850616455,-0.11374485492706299,0.015792079269886017,-0.25899504956408154,-1.50098551351854,-0.07389136405761951,-0.9642932415008545,0.25610923767089844,-0.06742766499519348,-0.03250288963317871,0.3430016338825226,0.017664672806859016
4.499972820281982,-0.2142001986503601,-0.1213771402835846,0.010696172714233398,-0.2591874915958423,-1.4952200906562922,-0.07469660084979098,-0.9638394117355347,0.25629526376724243,-0.07298235595226288,0.010820003226399422,0.22869566082954407,0.01666673645377159
4.519976854324341,-0.20896965265274048,-0.11468061804771423,-0.02848021686077118,-0.25980528930086966,-1.4911767051581943,-0.07188818420027304,-0.9633782505989075,0.2568923830986023,-0.07686630636453629,0.2556513249874115,0.12386929243803024,0.05795244500041008
4.539979934692383,-0.2863866686820984,-0.10219582915306091,-0.03165173530578613,-0.25988109498382006,-1.485738706343854,-0.06435812715646316,-0.9629267454147339,0.25696563720703125,-0.08210235089063644,0.4878477454185486,0.23230060935020447,0.02468971349298954
4.559974908828735,-0.3006715774536133,-0.09942257404327393,-0.049010276794433594,-0.2601850893035374,-1.4772281247987227,-0.05318168122906859,-0.9621153473854065,0.25725942850112915,-0.09028704464435577,0.5895358920097351,0.3142687976360321,0.06644046306610107
4.579974889755249,-0.27901554107666016,-0.10669183731079102,-0.10559546202421188,-0.26017554556255196,-1.4679045029308506,-0.03857573396943471,-0.9612340927124023,0.25725018978118896,-0.09925363212823868,0.8026526570320129,0.24137213826179504,0.08621049672365189
4.599977016448975,-0.2698701024055481,-0.10113728046417236,-0.09008729457855225,-0.26052261072263705,-1.4585182407374553,-0.0212132888717687,-0.9601714611053467,0.2575855553150177,-0.10826152563095093,0.8461650609970093,0.2633031904697418,0.10485544800758362
4.619997978210449,-0.3166782259941101,-0.1377592384815216,-0.06562547385692596,-0.2610130569476586,-1.449389427903029,-0.0029799085836668847,-0.9590175151824951,0.25805944204330444,-0.11700678616762161,0.9086086750030518,0.21107716858386993,0.17094112932682037
4.639973878860474,-0.379006564617157,-0.06789526343345642,-0.02886734902858734,-0.26154052347589146,-1.4401057420736765,0.016794234072867745,-0.957754909992218,0.25856900215148926,-0.12588708102703094,1.0122021436691284,0.16260071098804474,0.1096506118774414
4.660069942474365,-0.4355173707008362,-0.06973838806152344,-0.03482724726200104,-0.26040015863469185,-1.4314698900606226,0.03970151777296213,-0.9569236040115356,0.25746724009513855,-0.13419419527053833,1.192797303199768,0.11019457876682281,0.08550330996513367
4.679987907409668,-0.4551091194152832,-0.0558035671710968,-0.0035826414823532104,-0.2587387162872655,-1.4224784856030561,0.06461195301302765,-0.9560999870300293,0.25586146116256714,-0.14285574853420258,1.1629431247711182,0.15098346769809723,0.08386517316102982
4.699978828430176,-0.45267152786254883,-0.06635463237762451,0.0023608803749084473,-0.25589036164868817,-1.4130388631932707,0.08586033032952768,-0.9554248452186584,0.25310689210891724,-0.15198837220668793,0.8860169053077698,0.2244681566953659,-0.041596394032239914
4.719974994659424,-0.3634781241416931,-0.05336570739746094,0.017565608024597168,-0.2533165235350811,-1.4045776895151894,0.09980416165347282,-0.9547439813613892,0.25061601400375366,-0.16017410159111023,0.48709413409233093,0.25230538845062256,0.016889110207557678
4.740010738372803,-0.2736663818359375,-0.06325492262840271,0.05090342462062836,-0.25306592973171127,-1.3992192979870148,0.1067366574581589,-0.9539338946342468,0.2503734230995178,-0.16529838740825653,0.22174745798110962,0.10420148819684982,0.0714244544506073
4.759997844696045,-0.29004913568496704,-0.04119202494621277,0.04832112789154053,-0.2532564073673506,-1.3967825141688435,0.11214822563220571,-0.9534811973571777,0.2505578100681305,-0.1676141619682312,0.3361060619354248,0.009106313809752464,0.034147709608078
4.779026031494141,-0.3425360918045044,-0.00418265163898468,0.022266462445259094,-0.25206740501537495,-1.394524526251877,0.12095348977488905,-0.9533928036689758,0.24940656125545502,-0.16981877386569977,0.5157381892204285,0.008821090683341026,-0.004154033958911896
4.799975872039795,-0.3724207282066345,-0.03393875062465668,0.023223519325256348,-0.25009985246238453,-1.3908744419471075,0.13103905224544413,-0.9532477259635925,0.2475007027387619,-0.1733851134777069,0.38316887617111206,0.09748996794223785,-0.006198550574481487
4.819974899291992,-0.38822227716445923,-0.033353179693222046,0.11017407476902008,-0.24754345665014876,-1.38728984405561,0.13411634804508685,-0.9532389044761658,0.24502304196357727,-0.17691585421562195,-0.04788064584136009,0.17933911085128784,-0.18827103078365326
4.839975833892822,-0.36874598264694214,-0.0880134254693985,0.2096506804227829,-0.24603624868589896,-1.3833377881278208,0.12984661375984768,-0.9528942108154297,0.2435614913702011,-0.18075037002563477,-0.35619595646858215,0.21223598718643188,-0.08506931364536285
4.860023021697998,-0.37921053171157837,-0.09989012777805328,0.19234752655029297,-0.24484625399245075,-1.381872967767628,0.12058921119418982,-0.9529123306274414,0.2424071729183197,-0.18220028281211853,-0.551602303981781,0.20418907701969147,-0.17767441272735596
4.88003396987915,-0.3888014554977417,-0.07418258488178253,0.15969747304916382,-0.24238134550991827,-1.3798894083037219,0.10918424812533799,-0.9531328082084656,0.24001504480838776,-0.1842028796672821,-0.4907976984977722,0.26230210065841675,-0.22119662165641785
4.899963855743408,-0.31765973567962646,-0.06319750845432281,0.12442004680633545,-0.2419897059744811,-1.377281249294521,0.09658965987312568,-0.9527413249015808,0.23963482677936554,-0.18670625984668732,-0.7605239748954773,0.284035861492157,-0.0809871107339859
4.9199748039245605,-0.2917526960372925,-0.03354567289352417,0.06994813680648804,-0.24362043815939402,-1.375982189069866,0.08001700716165391,-0.9521133303642273,0.2412177324295044,-0.18786786496639252,-0.8003235459327698,0.2840903699398041,-0.010507847182452679
4.939975738525391,-0.27497291564941406,0.04299803078174591,0.03076443076133728,-0.24735845316068608,-1.3729240792134534,0.06503734448690526,-0.9506434798240662,0.24484367668628693,-0.19060002267360687,-0.6929810047149658,0.36229801177978516,0.07037357240915298
4.959450960159302,-0.22225773334503174,0.006616070866584778,0.010389164090156555,-0.25213507864788853,-1.3690029720697112,0.05284369312262677,-0.948732316493988,0.24947209656238556,-0.19408953189849854,-0.5786342024803162,0.3003479242324829,0.16285745799541473
4.979982852935791,-0.18474406003952026,-0.026873856782913208,-0.004376649856567383,-0.2583925079393452,-1.3657950731072233,0.042958764398496885,-0.946557879447937,0.25552675127983093,-0.19681033492088318,-0.5404536128044128,0.2698991894721985,0.2357226014137268
4.999974966049194,-0.18623298406600952,-0.045252591371536255,0.0009932518005371094,-0.2659516565313164,-1.3629503274405652,0.03292290933146869,-0.9440771341323853,0.2628275752067566,-0.19909796118736267,-0.616401731967926,0.29679074883461,0.3499584496021271
5.0199737548828125,-0.15227246284484863,-0.06897249817848206,0.04291081428527832,-0.2775864644145732,-1.3600413402843576,0.019261741165432007,-0.9404399991035461,0.2740353047847748,-0.20119008421897888,-0.9270528554916382,0.3591306209564209,0.49489259719848633
5.04000186920166,-0.14737051725387573,-0.04388132691383362,0.015777558088302612,-0.2917144485852908,-1.3580338583804223,0.0005624549517614346,-0.9361562728881836,0.28759467601776123,-0.20223982632160187,-1.1083295345306396,0.3886098563671112,0.5230596661567688
5.059985876083374,-0.09604799747467041,-0.028062909841537476,0.020678728818893433,-0.3071780968341897,-1.356799986251976,-0.020828128156434818,-0.9314482808113098,0.3023700416088104,-0.2024259865283966,-1.2054251432418823,0.3298009932041168,0.5543226003646851
5.0799689292907715,-0.037306249141693115,-0.03717523813247681,0.02800089120864868,-0.32276415837039785,-1.3583135084733382,-0.03947381984849053,-0.9270340800285339,0.31718918681144714,-0.19999779760837555,-0.7498806715011597,0.11651994287967682,0.5873399376869202
5.099974870681763,-0.04364156723022461,0.08516550064086914,-0.012702271342277527,-0.3361856984741231,-1.357395768102202,-0.04086130920689232,-0.9226059913635254,0.3298887312412262,-0.19992880523204803,0.31102126836776733,0.04154512286186218,0.7160717844963074
5.119976043701172,0.0016064643859863281,0.12405064702033997,0.006677404046058655,-0.34886413326590704,-1.350759307984565,-0.02701054964352514,-0.9171033501625061,0.3418305814266205,-0.20511776208877563,0.5304630398750305,0.1533125787973404,0.8049706220626831
5.140021800994873,0.05454587936401367,-0.058949291706085205,0.05163070559501648,-0.36405708868707815,-1.343074158578377,-0.015813944931637174,-0.9103350639343262,0.35606834292411804,-0.21096280217170715,0.13223084807395935,0.18194298446178436,0.8870354890823364
5.159973859786987,0.072162926197052,-0.03691074252128601,-6.149709224700928e-05,-0.38135316793713175,-1.3391491269398084,-0.01247178373299517,-0.9033702611923218,0.37217676639556885,-0.21308836340904236,-0.19021983444690704,0.1194550171494484,0.8604094982147217
5.180003881454468,0.05646681785583496,0.03476586937904358,-0.022376567125320435,-0.39848720265644866,-1.3373362625523773,-0.013944172537969366,-0.8966462016105652,0.3880245089530945,-0.21321897208690643,-0.28850269317626953,0.14012886583805084,0.7833884358406067
5.200008869171143,0.08568757772445679,-0.0013217329978942871,-0.051783591508865356,-0.414535782875036,-1.3338736467674706,-0.01531157246389416,-0.8897342085838318,0.40276506543159485,-0.21483302116394043,-0.1736650913953781,0.2688291370868683,0.7856868505477905
5.219985008239746,0.1613357663154602,0.02609112858772278,-0.039317786693573,-0.4311593280782437,-1.3266294183418765,-0.012425409892469961,-0.8815354108810425,0.41792431473731995,-0.21962369978427887,0.04536048695445061,0.3149544894695282,0.8860461115837097
5.2399797439575195,0.16270333528518677,0.059119224548339844,-0.048678308725357056,-0.4478432464574001,-1.3172847342368843,-0.004137725711940268,-0.8725728988647461,0.43302246928215027,-0.2260712832212448,0.2429482340812683,0.2982083261013031,0.9180138111114502
5.259974956512451,0.1366664171218872,0.033509135246276855,-0.007883727550506592,-0.463124824429734,-1.304807846567064,0.006285052366961347,-0.8631985187530518,0.44674593210220337,-0.23517335951328278,0.24789874255657196,0.48586657643318176,0.8130468726158142
5.280007839202881,0.19304603338241577,-0.02028411626815796,0.020132258534431458,-0.4768574533650887,-1.2896239055078982,0.016022223073368005,-0.8535532355308533,0.4589894711971283,-0.24652676284313202,0.22361987829208374,0.5507071614265442,0.7862846255302429
5.299982070922852,0.2787367105484009,-0.015949219465255737,0.015470027923583984,-0.4911643427902203,-1.2755000625737065,0.0278235572861016,-0.8436172008514404,0.47165289521217346,-0.25661981105804443,0.48336997628211975,0.2918234169483185,0.8873694539070129
5.319974899291992,0.27340418100357056,-0.025682568550109863,0.02188032865524292,-0.5050230913865463,-1.2578951534792513,0.05111354042854223,-0.8326694369316101,0.4838276505470276,-0.2693929970264435,1.0395290851593018,0.41746196150779724,1.039776086807251
5.339972019195557,0.2195766568183899,-0.01216176152229309,-0.03210529685020447,-0.5155833329810784,-1.2301895437213115,0.08704517932468171,-0.8200253248214722,0.4930424392223358,-0.2906331717967987,1.5830169916152954,0.6331092715263367,0.9926275014877319
5.359984874725342,0.22082644701004028,-0.03720921277999878,-0.026219874620437622,-0.5235730002902349,-1.1942388103710013,0.13204597910712357,-0.8053601384162903,0.4999776780605316,-0.31846076250076294,1.715980887413025,0.7062499523162842,1.0891125202178955
5.379993915557861,0.2314450740814209,-0.13480335474014282,0.05987495183944702,-0.5312709433818619,-1.158587234120153,0.1750778322464864,-0.7899473905563354,0.5066295266151428,-0.3454124927520752,1.3134874105453491,0.6407341361045837,1.0769189596176147
5.400012969970703,0.2071736454963684,-0.20137816667556763,0.09439742565155029,-0.5413365963955844,-1.1290988344860602,0.20429353525612315,-0.774770200252533,0.5152819156646729,-0.36635467410087585,0.5415135622024536,0.8265581727027893,0.8391838073730469
5.419978857040405,0.17070502042770386,-0.2643982172012329,0.0813731849193573,-0.5523959291152274,-1.106159549265347,0.2180927667745885,-0.7610218524932861,0.5247282981872559,-0.381452351808548,0.11468110233545303,0.8045472502708435,0.7194894552230835
5.439974784851074,0.19759869575500488,-0.24915027618408203,0.06731808185577393,-0.5649511913218009,-1.0840829065836606,0.22715222213452155,-0.7465337514877319,0.5353745818138123,-0.3950461745262146,0.027548037469387054,0.9466809034347534,0.730040431022644
5.460012912750244,0.23096561431884766,-0.22953957319259644,0.062308549880981445,-0.5772080368891925,-1.0635171568973023,0.2322041183447477,-0.732461154460907,0.5456864237785339,-0.4070960581302643,-0.21548298001289368,0.8213481307029724,0.517473042011261
5.47951078414917,0.2201792597770691,-0.26034265756607056,0.06830140948295593,-0.5883323458476518,-1.0465501499742509,0.23184004440365807,-0.7201488614082336,0.5549745559692383,-0.4163999855518341,-0.45263928174972534,0.8944463729858398,0.5018944144248962
5.499979019165039,0.21161359548568726,-0.23380988836288452,0.09501105546951294,-0.6026194290072219,-1.032558264198043,0.22587360267283374,-0.7073717713356018,0.566802442073822,-0.4223271906375885,-0.676376223564148,0.8410899043083191,0.4572865664958954
5.519988059997559,0.17643821239471436,-0.17090117931365967,0.07230043411254883,-0.6163574195378239,-1.0220091882221412,0.21567865898086663,-0.6961680054664612,0.5780667066574097,-0.4256633222103119,-0.6923651099205017,0.806728184223175,0.30542516708374023
5.53998589515686,0.12062382698059082,-0.16190922260284424,0.07139122486114502,-0.6275037696543486,-1.0101361244186797,0.20661742291674096,-0.6855653524398804,0.5871258974075317,-0.43044567108154297,-0.5093249082565308,0.9369692802429199,0.248675137758255
5.559977054595947,0.10345685482025146,-0.14902263879776,0.08732181787490845,-0.6364007097847026,-0.9956609244519057,0.19961338983567986,-0.6748528480529785,0.594304621219635,-0.4374651312828064,-0.6048647165298462,0.9136781096458435,0.1717955321073532
5.580021858215332,0.1132851243019104,-0.13001561164855957,0.11045941710472107,-0.6435411114304437,-0.9862817884994266,0.18592759982887203,-0.6671639680862427,0.6000319719314575,-0.44142240285873413,-0.6462606191635132,0.8437264561653137,-0.10659480839967728
5.599968910217285,0.10970169305801392,-0.19200944900512695,0.0967290997505188,-0.6500581439225028,-0.9809125515322058,0.1693669186283491,-0.6615207195281982,0.6052327156066895,-0.44281357526779175,-0.7570004463195801,0.7514185905456543,-0.07385976612567902
5.619986057281494,0.060843706130981445,-0.16823559999465942,0.0409964919090271,-0.6562825802038491,-0.9745391800921664,0.15387047133475917,-0.6555551290512085,0.6101759076118469,-0.44489651918411255,-0.6524879336357117,0.8732049465179443,-0.047087542712688446
5.639997959136963,0.020261049270629883,-0.08938539028167725,-0.060033559799194336,-0.6581804092945545,-0.9653362279802464,0.13991863849103336,-0.6504796743392944,0.6116783618927002,-0.4502507150173187,-0.3530242443084717,0.9016659259796143,-0.4304077625274658
5.659937858581543,-0.013509631156921387,-0.1437166929244995,-0.06365320086479187,-0.6548220837549216,-0.9534167856261465,0.1270628677327913,-0.6467382907867432,0.6090181469917297,-0.4591585397720337,-0.32869434356689453,1.0629379749298096,-0.4380823075771332
5.67994499206543,-0.012461960315704346,-0.19388437271118164,-0.02984929084777832,-0.6523195397872295,-0.9425981737919317,0.11049826420445574,-0.6429641842842102,0.6070313453674316,-0.467022567987442,-0.6947296857833862,1.0342766046524048,-0.47263309359550476
5.6999430656433105,0.03233820199966431,-0.20490676164627075,-0.04368245601654053,-0.6550944225743911,-0.9394453889109257,0.0852266036456289,-0.6401264667510986,0.609234094619751,-0.46805140376091003,-0.9503540396690369,0.8089072704315186,-0.48204705119132996
5.719989776611328,0.002619147300720215,-0.0907663106918335,-0.08783382177352905,-0.6580551604175829,-0.938790376848972,0.059834492229785013,-0.6383614540100098,0.6115792989730835,-0.4674028754234314,-0.8753818869590759,0.8411394953727722,-0.5056471228599548
5.739980936050415,-0.04700326919555664,-0.04225599765777588,-0.06035435199737549,-0.6581482538684501,-0.9356289250798396,0.03484570713811005,-0.6368347406387329,0.6116529107093811,-0.46938490867614746,-0.755843997001648,1.012232780456543,-0.6144983172416687
5.759974956512451,-0.010729551315307617,-0.09954524040222168,-0.03737276792526245,-0.6583702400416844,-0.9303608826604305,0.009274302604161004,-0.6342443823814392,0.6118285655975342,-0.4726521372795105,-0.9067975878715515,1.0416896343231201,-0.5834974050521851
5.780009746551514,0.034668028354644775,-0.13169080018997192,-0.05383068323135376,-0.6595029776375985,-0.9273818805117922,-0.01815528119505712,-0.6322786808013916,0.6127241253852844,-0.47412341833114624,-0.8685635328292847,0.939185619354248,-0.6011818051338196
5.79997992515564,0.04671138525009155,-0.12104403972625732,-0.06672030687332153,-0.6601838127783513,-0.9256501188022327,-0.04552710153947287,-0.6311231851577759,0.6132620573043823,-0.4749666750431061,-0.9369415640830994,0.9692455530166626,-0.7034249305725098
5.819976806640625,0.04611331224441528,-0.18379902839660645,-0.06454265117645264,-0.6588073295372179,-0.9256385745536226,-0.07718804666684924,-0.6317915320396423,0.6121742129325867,-0.4754810929298401,-0.9972957372665405,0.9339343309402466,-0.8569531440734863
5.839978933334351,0.09329009056091309,-0.21028244495391846,-0.0615311861038208,-0.6570258491703574,-0.9283268090940302,-0.11077013422154197,-0.6339396238327026,0.6107645630836487,-0.47443369030952454,-1.0318070650100708,0.8454963564872742,-0.8799955248832703
5.860001087188721,0.10727769136428833,-0.15479904413223267,-0.056692302227020264,-0.654462224687835,-0.9347316653702484,-0.1461528751686177,-0.6382226943969727,0.6087327003479004,-0.4712922275066376,-1.0465357303619385,0.72052001953125,-0.9988875985145569
5.879986763000488,0.08386683464050293,-0.16796237230300903,-0.033734679222106934,-0.6503657804005517,-0.9418220018604363,-0.18184490934458222,-0.6435593366622925,0.6054775714874268,-0.4682183563709259,-1.022961974143982,0.7153539061546326,-0.9938726425170898
5.9000420570373535,0.10622483491897583,-0.14819800853729248,-0.000507354736328125,-0.6454996088861775,-0.9499397021287066,-0.21766564762943524,-0.6497277617454529,0.6015976071357727,-0.4646872580051422,-0.9795423150062561,0.6455673575401306,-1.0890233516693115
5.919975757598877,0.15360766649246216,-0.1456649899482727,0.012843847274780273,-0.6388875169677939,-0.9591867959092518,-0.25302337475205244,-0.6572393774986267,0.5963027477264404,-0.4609333872795105,-0.973552942276001,0.5404440760612488,-1.0682026147842407
5.939974784851074,0.2049601674079895,-0.17480546236038208,0.03159266710281372,-0.6328327483632202,-0.9712376356208675,-0.2902025941492191,-0.665714681148529,0.5914313197135925,-0.45500877499580383,-1.1316686868667603,0.46988752484321594,-1.1781163215637207
5.960017919540405,0.23245996236801147,-0.17822319269180298,-0.019096553325653076,-0.6251710811570651,-0.9874835251063108,-0.33081393880199744,-0.6767807602882385,0.5852360129356384,-0.4466167986392975,-1.1489753723144531,0.2859484553337097,-1.2716879844665527
5.980001926422119,0.27432912588119507,-0.15216445922851562,-0.024546325206756592,-0.6146953383080563,-1.0068268283252688,-0.37095758134116297,-0.6904364824295044,0.5767096281051636,-0.436696320772171,-1.019654393196106,0.09473519772291183,-1.4110027551651
5.999974966049194,0.29563844203948975,-0.14843851327896118,-0.044975876808166504,-0.5992541943653896,-1.0295231587958524,-0.4075304545054402,-0.7077174186706543,0.5640267729759216,-0.4254525303840637,-0.755666971206665,-0.2676457166671753,-1.4276111125946045
6.0199737548828125,0.3004853129386902,-0.09681397676467896,-0.024051129817962646,-0.5827296145247964,-1.0552044154717621,-0.4399629819857517,-0.7264193296432495,0.5503051280975342,-0.4116787910461426,-0.7357257604598999,-0.44949737191200256,-1.3760851621627808
6.039984941482544,0.2555220127105713,-0.09090608358383179,0.007583320140838623,-0.5669633294600512,-1.0812503000748286,-0.4716183508124353,-0.7444595098495483,0.537073016166687,-0.39665186405181885,-0.8859747648239136,-0.40367797017097473,-1.31452476978302
6.059764862060547,0.2071179747581482,-0.061933159828186035,-0.0022306740283966064,-0.5518806082382084,-1.106900921003087,-0.5065671042690815,-0.7615461349487305,0.5242895483970642,-0.38100898265838623,-1.0332075357437134,-0.3062175512313843,-1.3831747770309448
6.080008029937744,0.20523440837860107,-0.06738150119781494,-0.0607607364654541,-0.5354251420573485,-1.1310673987674529,-0.5425319950803796,-0.7782325744628906,0.5102067589759827,-0.36611905694007874,-0.9883195161819458,-0.2657535672187805,-1.4565160274505615
6.099987030029297,0.22185564041137695,-0.07633566856384277,-0.08310207724571228,-0.5162621420093629,-1.1542212969801928,-0.5759312080858651,-0.7952962517738342,0.49363288283348083,-0.35189536213874817,-0.8386242985725403,-0.36050769686698914,-1.468298316001892
6.11997389793396,0.21485191583633423,-0.07090526819229126,-0.04884803295135498,-0.49573130944895993,-1.1755574237774506,-0.605753842716049,-0.8118063807487488,0.4756750464439392,-0.33867937326431274,-0.7958981990814209,-0.30615290999412537,-1.4316328763961792
6.139975070953369,0.21171438694000244,-0.09595876932144165,-0.029834449291229248,-0.4766584275905617,-1.1973759115325222,-0.6380546159256204,-0.8272997736930847,0.4588126540184021,-0.3241388499736786,-1.1870582103729248,-0.37774595618247986,-1.4553025960922241
6.160023927688599,0.20111709833145142,-0.10896673798561096,-0.00809258222579956,-0.45934708980638306,-1.2230443065077028,-0.6783104361140941,-0.842688262462616,0.4433629810810089,-0.30546021461486816,-1.5840401649475098,-0.35202842950820923,-1.4017382860183716
6.179986953735352,0.1955435872077942,-0.12849771976470947,0.00970083475112915,-0.44518138935727347,-1.2510875589469115,-0.7261489121541975,-0.8567985892295837,0.43062159419059753,-0.2836570739746094,-2.011592388153076,-0.39089035987854004,-1.3763213157653809
6.199976921081543,0.15705645084381104,-0.08539441227912903,-0.004393547773361206,-0.43168529185797005,-1.2821796580975748,-0.7801295897773931,-0.8706948161125183,0.4184020757675171,-0.25851529836654663,-2.2440476417541504,-0.42551368474960327,-1.3683321475982666
6.220011949539185,0.11571961641311646,-0.0022002756595611572,0.005832940340042114,-0.4179988296644462,-1.3137530631336158,-0.836414579861615,-0.8838775753974915,0.40593239665031433,-0.23233433067798615,-2.3006114959716797,-0.4192787706851959,-1.337000846862793
6.239980936050415,0.08602803945541382,0.05983787775039673,-0.030992984771728516,-0.40322494728442565,-1.3431580104871297,-0.8891093583555028,-0.8960714936256409,0.39238667488098145,-0.2075781673192978,-1.9450947046279907,-0.4290126860141754,-1.2626941204071045
6.25998592376709,0.05583459138870239,0.11920049786567688,-0.05326691269874573,-0.38665400932851524,-1.3663851895550927,-0.9287761270370423,-0.9068937301635742,0.37709155678749084,-0.18800503015518188,-1.2699841260910034,-0.3800196945667267,-1.1678379774093628
6.279975891113281,0.041990697383880615,0.1412944197654724,-0.05434626340866089,-0.36833590086281326,-1.3828701675758532,-0.9526986600252244,-0.9165025353431702,0.36006343364715576,-0.17429141700267792,-0.6019115447998047,-0.38018906116485596,-1.0467464923858643
6.299983024597168,0.07454383373260498,0.14023756980895996,-0.0063512325286865234,-0.35045859785350025,-1.394773601429826,-0.9641279320711222,-0.9247026443481445,0.3433285653591156,-0.1644708514213562,-0.1244998574256897,-0.4107486605644226,-0.9614046216011047
6.319999933242798,0.04648292064666748,0.11654588580131531,-0.005972966551780701,-0.3310413806790266,-1.4032019514292815,-0.9644454514870542,-0.9324540495872498,0.32502803206443787,-0.1577538102865219,0.4348779618740082,-0.4547206461429596,-0.9310997128486633
6.339974880218506,0.014002740383148193,0.09544637799263,-0.02093958854675293,-0.31104954974259985,-1.41054213096884,-0.9525976085526937,-0.939814567565918,0.30605798959732056,-0.1519118994474411,1.0272066593170166,-0.6832214593887329,-0.8871291875839233
6.359976768493652,-0.0779462456703186,0.11750298738479614,-0.0731843113899231,-0.2894928773905886,-1.4185781630667915,-0.9278636221159072,-0.9473071694374084,0.2854662537574768,-0.14532147347927094,1.6788015365600586,-0.8324852585792542,-0.8647066950798035
6.380066871643066,-0.16132092475891113,0.14490264654159546,-0.030813142657279968,-0.2679445127239995,-1.4235561266337367,-0.8901634271556584,-0.9538829326629639,0.2647498548030853,-0.14147375524044037,2.1129307746887207,-0.6283323764801025,-0.7549278736114502
6.400022983551025,-0.23405450582504272,0.1720171868801117,0.08720600605010986,-0.24502358874127877,-1.4218927184835268,-0.8503053733977808,-0.959396481513977,0.24257920682430267,-0.14392288029193878,2.0659215450286865,-0.13035792112350464,-0.9632794857025146
6.419977903366089,-0.18200230598449707,0.0010563284158706665,0.15869736671447754,-0.2224377326681022,-1.4090759291450534,-0.8133442382033366,-0.9626358151435852,0.2206079512834549,-0.15704937279224396,1.7334020137786865,0.40189141035079956,-0.6469714641571045
6.439975738525391,-0.07870495319366455,-0.10780289769172668,0.19320285320281982,-0.20634024647247914,-1.39885994353684,-0.7877319090574598,-0.9643554091453552,0.20487916469573975,-0.16746121644973755,1.0397826433181763,0.04518149420619011,-0.6358112096786499
6.459974765777588,-0.12417316436767578,-0.03242987394332886,0.14629942178726196,-0.18928928081825733,-1.3970373513196646,-0.7731498563449158,-0.9673491716384888,0.18816091120243073,-0.1697978973388672,0.6833757758140564,-0.08129451423883438,-0.7462761402130127
6.479997873306274,-0.156427264213562,0.14212335646152496,0.21583251655101776,-0.17362794708853346,-1.3939080698210506,-0.7652957179551862,-0.9695952534675598,0.1727568805217743,-0.17332150042057037,0.3643677830696106,0.21031887829303741,-0.7124943137168884
6.499974966049194,-0.10720866918563843,0.16243834793567657,0.2588428258895874,-0.15793464803946214,-1.3881626110570375,-0.762896079351132,-0.9711300134658813,0.1572788953781128,-0.17935971915721893,0.18777260184288025,0.27933236956596375,-0.7713695764541626
6.519991874694824,-0.044837117195129395,0.16762030124664307,0.22850419580936432,-0.1432942150039177,-1.3813294215255536,-0.7579577559007283,-0.9720390439033508,0.1428043395280838,-0.18640509247779846,0.5766924619674683,0.34053823351860046,-0.5090694427490234
6.539979934692383,-0.012687146663665771,0.1697428822517395,0.1480412632226944,-0.13357126086606574,-1.3739998259115171,-0.7431041746616165,-0.9719625115394592,0.13317443430423737,-0.19378702342510223,1.031715750694275,0.14086878299713135,-0.18875516951084137
6.559990882873535,-0.06564503908157349,0.1414988934993744,0.08955211937427521,-0.1261232685148454,-1.3693632007688232,-0.7223272464219528,-0.971998393535614,0.12578916549682617,-0.19848449528217316,1.0467662811279297,0.13306288421154022,-0.17995427548885345
6.580019950866699,-0.14569616317749023,0.07526864111423492,0.1727205067873001,-0.11870483867263638,-1.3626827460013584,-0.7068146998217999,-0.9715371131896973,0.11842626333236694,-0.20516057312488556,0.5929720401763916,0.33389532566070557,-0.22432279586791992
6.600087881088257,-0.13912850618362427,-0.02375911921262741,0.2155996859073639,-0.11295779161821218,-1.35364705336426,-0.6994618615842273,-0.9702924489974976,0.11271773278713226,-0.21407371759414673,0.27501213550567627,0.4677944481372833,-0.1457708477973938
6.619983911514282,-0.08814680576324463,-0.059310056269168854,0.15609581768512726,-0.11005375499342665,-1.3446016730254167,-0.6967053053550505,-0.9686311483383179,0.10983172804117203,-0.2229139357805252,0.07720231264829636,0.36470356583595276,-0.12827074527740479
6.640006065368652,-0.08123815059661865,-0.005138486623764038,0.11327415704727173,-0.10599894401832079,-1.3388471334008298,-0.6967415306083026,-0.9677578806877136,0.105800561606884,-0.22858475148677826,0.04548304155468941,0.23082663118839264,-0.21805748343467712
6.660058975219727,-0.15807253122329712,0.012006178498268127,0.08292180299758911,-0.10292135725777903,-1.334163278770621,-0.6974844720428381,-0.9669885635375977,0.10273975133895874,-0.23319029808044434,-0.0444217175245285,0.2495981901884079,-0.12867914140224457
6.680144786834717,-0.22406882047653198,0.03979989141225815,0.09431135654449463,-0.10058247263710313,-1.3293523578132789,-0.6991103998263459,-0.9660862684249878,0.10041296482086182,-0.23789650201797485,-0.04285337030887604,0.2570917010307312,-0.12534914910793304
6.700060844421387,-0.23757803440093994,0.08690416812896729,0.13103915750980377,-0.09881855282758212,-1.3239283226940517,-0.7003876102656015,-0.9649518132209778,0.09865780174732208,-0.2431759387254715,-0.01752145029604435,0.3068417012691498,-0.10682188719511032
6.720027923583984,-0.26262563467025757,0.051193274557590485,0.11522173881530762,-0.09676940508836343,-1.317533026475674,-0.701315310051192,-0.9635707139968872,0.09661844372749329,-0.24939224123954773,-0.004678582306951284,0.3152908384799957,-0.08022712916135788
6.740031957626343,-0.25742948055267334,0.0035898759961128235,0.05532190203666687,-0.09540104711435206,-1.3126968719498595,-0.7014702905420924,-0.9624801874160767,0.09525640308856964,-0.2540827691555023,0.07209738343954086,0.14947202801704407,-0.07961050420999527
6.768285751342773,-0.31225085258483887,0.046432867646217346,0.046345025300979614,-0.0982102714591075,-1.3083138286857419,-0.6969791815277611,-0.9610952734947205,0.09805247187614441,-0.25822851061820984,-0.0676862969994545,0.1255260407924652,0.13738210499286652
6.788275957107544,-0.35295796394348145,0.03319653868675232,0.014466136693954468,-0.10228120868034808,-1.3040910697634398,-0.6961385495864713,-0.9596030712127686,0.10210296511650085,-0.2621772289276123,0.07294470816850662,0.276041179895401,0.319144070148468
6.808159828186035,-0.3694235682487488,0.061815083026885986,-0.02883020043373108,-0.1085331998444375,-1.2988700236404194,-0.6895054076532493,-0.9575875401496887,0.10832025110721588,-0.26700708270072937,0.41053465008735657,0.15419825911521912,0.4252164363861084
6.828128814697266,-0.43443530797958374,0.08704012632369995,-0.003918379545211792,-0.11447301825196322,-1.294845479406223,-0.6759043756936113,-0.9558693766593933,0.1142231747508049,-0.27067872881889343,0.6838328242301941,0.13119547069072723,0.5080358982086182
6.84830379486084,-0.5027464628219604,0.06403671950101852,0.04656130075454712,-0.12113465208371146,-1.288845947424687,-0.6593234307980895,-0.9534761309623718,0.12083861976861954,-0.27619072794914246,0.6745539307594299,0.27311569452285767,0.6025442481040955
6.868193864822388,-0.4718078374862671,-0.019630461931228638,0.08770751953125,-0.13132028554052053,-1.2815963766437974,-0.6451919723100644,-0.9502198100090027,0.1309431791305542,-0.28273001313209534,0.3939129710197449,0.2570757269859314,0.7489103078842163
6.887178897857666,-0.4700735807418823,-0.02779601514339447,0.109957754611969,-0.1446017640457873,-1.2748273753202821,-0.6347415661125884,-0.9465371966362,0.14409835636615753,-0.28862279653549194,0.23343630135059357,0.31666016578674316,0.8208401799201965
6.9081339836120605,-0.5025713443756104,-0.013278841972351074,0.16772758960723877,-0.15949234521754418,-1.2653109649932412,-0.6272125463231971,-0.9415968060493469,0.15881700813770294,-0.2969389259815216,0.01389270555227995,0.5111904740333557,0.8277400135993958
6.928149938583374,-0.47324204444885254,-0.028231889009475708,0.21155256032943726,-0.17784948475343373,-1.2544028876896405,-0.6267258861611843,-0.9353731274604797,0.17691339552402496,-0.3062332570552826,-0.5614678859710693,0.558139443397522,0.9282276034355164
6.94730806350708,-0.46119529008865356,-0.023866474628448486,0.20152145624160767,-0.20176135611803928,-1.2447086275050405,-0.6346700235648224,-0.9280869960784912,0.20039527118206024,-0.3138413429260254,-0.9014856219291687,0.5593411326408386,1.1285392045974731
6.970530986785889,-0.48107874393463135,0.09223221242427826,0.17725923657417297,-0.22899281615111897,-1.235645504767113,-0.6446697920290883,-0.9197086691856384,0.2269967496395111,-0.3203255534172058,-0.7830470204353333,0.5877323746681213,1.0467255115509033
6.989812850952148,-0.5244826674461365,0.11376206576824188,0.132051020860672,-0.25136425069407986,-1.223676828239674,-0.6459591172976038,-0.9108048677444458,0.24872556328773499,-0.3294996917247772,-0.06246592849493027,0.5975271463394165,1.1190739870071411
7.006419897079468,-0.4634290933609009,0.06102469563484192,0.1546701192855835,-0.27429573902179116,-1.2100191755990806,-0.6363138289820726,-0.9006456732749939,0.27086907625198364,-0.3398049473762512,0.010427933186292648,0.515899658203125,1.2859430313110352
7.024402856826782,-0.45966511964797974,0.019305765628814697,0.1779595911502838,-0.2980927586751352,-1.1984653499097262,-0.6293102007843192,-0.8904020190238953,0.29369762539863586,-0.34774404764175415,-0.25560784339904785,0.45808523893356323,1.1944763660430908
7.043619871139526,-0.4476977586746216,0.050811946392059326,0.14238768815994263,-0.3227105533953915,-1.1883921622246054,-0.6266689411685651,-0.879878044128418,0.31713834404945374,-0.35388967394828796,-0.4251370131969452,0.45240405201911926,1.2073824405670166
7.062151908874512,-0.3973855972290039,0.09546160697937012,0.09869024157524109,-0.3482570748532344,-1.180577528311159,-0.6279254406198118,-0.8693075776100159,0.34126004576683044,-0.3575555086135864,-0.6180266737937927,0.41040679812431335,1.1225093603134155
7.081315040588379,-0.3433343172073364,0.10323452949523926,0.09749338030815125,-0.3747765717030084,-1.172881443723633,-0.63233613737333,-0.8578833341598511,0.3660646080970764,-0.3606005907058716,-0.7990160584449768,0.4966488182544708,1.1576001644134521
7.101913928985596,-0.29719460010528564,0.1243659257888794,0.07109808921813965,-0.4017836542157174,-1.1661131166316911,-0.6395828276457188,-0.8460245132446289,0.39106059074401855,-0.36237308382987976,-0.9027990102767944,0.4673873484134674,1.0523502826690674
7.122099876403809,-0.24847590923309326,0.18686088919639587,0.05183866620063782,-0.42600558328913185,-1.1604339045821472,-0.6465360437245755,-0.8350203633308411,0.41323670744895935,-0.36328577995300293,-0.6347509026527405,0.40989235043525696,0.9504806399345398
7.142762899398804,-0.2012615203857422,0.24613434076309204,0.026393085718154907,-0.4470946112322694,-1.1533267789870711,-0.6473941245962069,-0.8242664933204651,0.4323475658893585,-0.36559587717056274,-0.3583155572414398,0.3538459241390228,0.981194794178009
7.1640119552612305,-0.1299493908882141,0.24860084056854248,0.061513543128967285,-0.4665515607914798,-1.1457501460995854,-0.6468056153310721,-0.8136542439460754,0.44980907440185547,-0.3682914674282074,-0.3622991442680359,0.36190369725227356,0.8305985331535339
7.182074069976807,-0.02391219139099121,0.17763617634773254,0.07685980200767517,-0.4851378677850675,-1.1382238759470598,-0.6463879902155978,-0.8031294345855713,0.46633031964302063,-0.3708355724811554,-0.41384342312812805,0.3565294146537781,0.837008535861969
7.203571796417236,0.03903931379318237,0.16735431551933289,0.04034578800201416,-0.5032652426182163,-1.133148373777284,-0.6467320536312692,-0.7934492230415344,0.48228850960731506,-0.3712631165981293,-0.42642685770988464,0.20295016467571259,0.8368483185768127
7.22625994682312,0.07930940389633179,0.17929178476333618,0.06557333469390869,-0.5214316393080043,-1.1315222935566605,-0.6489778650818083,-0.7847843766212463,0.49812203645706177,-0.3687654435634613,-0.4789171516895294,0.11198963969945908,0.6888478994369507
7.245515823364258,0.14499622583389282,0.13897806406021118,0.11008819937705994,-0.5382487990355416,-1.129062278119457,-0.6511001979726808,-0.7761915326118469,0.512633204460144,-0.36706146597862244,-0.3886045217514038,0.1909407377243042,0.7743505239486694
7.267082929611206,0.25470203161239624,0.13246369361877441,0.06479018926620483,-0.55460679905699,-1.1263106051305953,-0.6487128999159003,-0.7675042748451233,0.5266090631484985,-0.36554086208343506,-0.04112296923995018,-0.044735345989465714,0.7770843505859375
7.2869789600372314,0.300761342048645,0.15682142972946167,0.041499972343444824,-0.5681744699235576,-1.122031376715778,-0.6362196410847877,-0.7594254016876221,0.5380942225456238,-0.3656882047653198,0.36427175998687744,-0.2063031941652298,0.9275587797164917
7.3071417808532715,0.3074965476989746,0.03540986776351929,0.07319912314414978,-0.581534362008088,-1.117812113637075,-0.6197204855589082,-0.7513442635536194,0.5493067502975464,-0.3657100200653076,0.24401962757110596,-0.230767622590065,0.8356425166130066
7.32696795463562,0.32297998666763306,-0.07189953327178955,0.10473179817199707,-0.5943276351061695,-1.1154544252786605,-0.6087530172282809,-0.7441074252128601,0.5599517822265625,-0.3643600642681122,-0.010211978107690811,-0.14183960855007172,0.7415390014648438
7.346675872802734,0.4279424548149109,-0.13706809282302856,0.06678378582000732,-0.6080363219193349,-1.1164786329899867,-0.6025499240628256,-0.7375128865242004,0.5712568163871765,-0.36019498109817505,-0.11410598456859589,-0.3264101445674896,0.7274690270423889
7.366704940795898,0.4857178330421448,-0.15086102485656738,0.07625240087509155,-0.6231927693640938,-1.1209855041630894,-0.5971063006863534,-0.7312471270561218,0.5836307406425476,-0.3530620336532593,-0.1259406954050064,-0.40217551589012146,0.8054494857788086
7.384777069091797,0.446960985660553,-0.14678335189819336,0.08012902736663818,-0.63784803110342,-1.1236990922818269,-0.5903428970503044,-0.72441166639328,0.5954679846763611,-0.3473408818244934,-0.06045624986290932,-0.24006134271621704,0.792847752571106
7.40645694732666,0.42984896898269653,-0.10265505313873291,-0.013738125562667847,-0.651555437256452,-1.1234920829581825,-0.5823897162004457,-0.7169127464294434,0.6064239144325256,-0.34392786026000977,0.14908728003501892,-0.2897011637687683,0.7223832011222839
7.426555871963501,0.44410932064056396,-0.0480189323425293,-0.07611605525016785,-0.6633794136922407,-1.1206586055299232,-0.5657731175217654,-0.7094292044639587,0.6157830357551575,-0.3428138792514801,0.5297780632972717,-0.4261418282985687,0.8968406319618225
7.446363925933838,0.38145965337753296,-0.011495530605316162,-0.0116347074508667,-0.6739468349456089,-1.1118852111395412,-0.5388852083860657,-0.7005211114883423,0.6240747570991516,-0.3461228013038635,0.8614764213562012,-0.34808725118637085,0.977817952632904
7.466265916824341,0.30481594800949097,-0.0538671612739563,0.03516501188278198,-0.6832549672543455,-1.0961608495960553,-0.5054287828014045,-0.6897953152656555,0.6313206553459167,-0.3544246256351471,1.0222059488296509,-0.20246052742004395,1.0151941776275635
7.485231876373291,0.2724769115447998,-0.06155663728713989,0.03252518177032471,-0.6919814308585347,-1.0776938255518922,-0.47047496277001377,-0.6782540082931519,0.6380640864372253,-0.3644801080226898,0.9581527709960938,-0.19583430886268616,0.9905182123184204
7.506124973297119,0.2430974245071411,-0.0863349437713623,0.017595380544662476,-0.6997724621175132,-1.0610089088034096,-0.43716781364562574,-0.6677191853523254,0.6440436244010925,-0.3733082115650177,0.9362922310829163,-0.2694064676761627,0.9460933804512024
7.525509834289551,0.21592992544174194,-0.10853880643844604,0.01556745171546936,-0.7067372192790841,-1.0447245686967654,-0.4024459592599973,-0.6576566696166992,0.649355947971344,-0.3818698525428772,1.0389337539672852,-0.33135974407196045,0.9773006439208984
7.546280860900879,0.18864786624908447,-0.0778968334197998,-0.0032852888107299805,-0.7125070183890232,-1.0260342842566978,-0.36245424611597393,-0.6471899151802063,0.65373295545578,-0.39214617013931274,1.320985198020935,-0.3912051320075989,1.0817875862121582
7.566291809082031,0.1769532561302185,-0.03681910037994385,-0.013490498065948486,-0.7163634216666821,-1.0031640295543665,-0.3151579698099065,-0.6359224915504456,0.6566463112831116,-0.40548527240753174,1.537017583847046,-0.43586981296539307,1.109015703201294
7.586155891418457,0.16161203384399414,-0.07420909404754639,-0.0065250396728515625,-0.7176061464485193,-0.977775838136587,-0.2628721519061973,-0.6247469782829285,0.6575830578804016,-0.4210413992404938,1.6592663526535034,-0.4638592004776001,1.1833467483520508
7.605062007904053,0.1549670696258545,-0.13146352767944336,-0.014138340950012207,-0.717833531635821,-0.9516599652896023,-0.20875444236518376,-0.6134175062179565,0.6577543616294861,-0.43712499737739563,1.6824860572814941,-0.5025305151939392,1.1544487476348877
7.625017881393433,0.13824403285980225,-0.13461047410964966,-0.025462985038757324,-0.7160772484845689,-0.9248514233363152,-0.15297575792535256,-0.6024012565612793,0.6564304828643799,-0.454105406999588,1.8217358589172363,-0.45203226804733276,1.183651089668274
7.646138906478882,0.11630451679229736,-0.11934375762939453,-0.03564488887786865,-0.713541200906611,-0.8953232339897,-0.09467877654785116,-0.5900290608406067,0.6545152068138123,-0.4727321267127991,1.8036949634552002,-0.37486380338668823,1.2853301763534546
7.664001941680908,0.06783074140548706,-0.12074851989746094,-0.0695020854473114,-0.7106398327127376,-0.8681323125821803,-0.04333586078131109,-0.5784052014350891,0.6523188352584839,-0.48982396721839905,1.3794903755187988,-0.33846497535705566,0.9493725895881653
7.686485767364502,0.05430877208709717,-0.11333131790161133,-0.02531278133392334,-0.70848588086281,-0.8467784127640631,-0.00043790683394402284,-0.5688658356666565,0.6506847739219666,-0.5029921531677246,1.2669954299926758,-0.28250768780708313,1.0320817232131958
7.704698085784912,0.05669558048248291,-0.09858685731887817,-0.02933526039123535,-0.7077367220731297,-0.8230387618652911,0.047513282863899935,-0.5571230053901672,0.6501157283782959,-0.5166851282119751,1.5169789791107178,-0.3968375623226166,1.2463080883026123
7.7247278690338135,-0.013682782649993896,-0.0994524359703064,-0.0077495574951171875,-0.7030215514556557,-0.7971537555747825,0.09879714210312174,-0.5457503795623779,0.6465257406234741,-0.5330676436424255,1.5633684396743774,-0.3689148426055908,1.0407124757766724
7.744680881500244,-0.054845988750457764,-0.14642208814620972,0.05275166034698486,-0.6976177509253343,-0.7757329019926662,0.14405112330341754,-0.5366458892822266,0.6423938274383545,-0.5471211075782776,1.2858690023422241,-0.4030267596244812,1.038551926612854
7.765420913696289,-0.05730736255645752,-0.13219767808914185,0.028590798377990723,-0.695484931201458,-0.7589684765875857,0.18481278064671797,-0.5283403396606445,0.6407577991485596,-0.557033121585846,1.1190006732940674,-0.523618221282959,1.0575810670852661
7.784574031829834,-0.056995272636413574,-0.07458549737930298,-0.008378863334655762,-0.6933072540888382,-0.7438893332412753,0.22537848149109266,-0.5208247303962708,0.6390843987464905,-0.5659618973731995,1.2126038074493408,-0.6044620871543884,1.0223376750946045
7.805156946182251,-0.08817505836486816,-0.04335165023803711,0.02629488706588745,-0.6890307098612355,-0.7276918038089787,0.2683419017096175,-0.5134027600288391,0.6357893347740173,-0.5763588547706604,1.3321171998977661,-0.49748221039772034,1.1438331604003906
7.825362920761108,-0.12035179138183594,-0.063357412815094,0.04380005598068237,-0.6875706069320162,-0.7088845727788448,0.31091439367612844,-0.5030766725540161,0.6346616744995117,-0.586616039276123,0.9418625235557556,-0.3772220313549042,1.167680263519287
7.845344066619873,-0.1481287181377411,-0.133714497089386,-0.02853769063949585,-0.6883789190718259,-0.6937940712595422,0.3471474261164585,-0.49383917450904846,0.6352860927581787,-0.5937460660934448,0.8179784417152405,-0.41091588139533997,1.0735085010528564
7.865264892578125,-0.13506671786308289,-0.07694923877716064,-0.03803819417953491,-0.6895023865682797,-0.6791171222667193,0.3823447493402747,-0.48462337255477905,0.6361533403396606,-0.600374162197113,0.8540750741958618,-0.3514988124370575,1.1044613122940063
7.885183811187744,-0.1749224066734314,-0.09534800052642822,-0.12108337879180908,-0.6927061083295714,-0.6619596182709359,0.4178910079454047,-0.47299644351005554,0.6386219263076782,-0.6069896221160889,0.5169652700424194,-0.2536300718784332,1.1825544834136963
7.905130863189697,-0.16455546021461487,-0.08852571249008179,-0.08048051595687866,-0.6999036439901224,-0.6485838415754999,0.448963662987413,-0.46204686164855957,0.6441439986228943,-0.6095828413963318,0.4809577465057373,-0.33509767055511475,1.0982189178466797
7.9251580238342285,-0.0967898964881897,0.07693314552307129,-0.05099612474441528,-0.6973030557789363,-0.6379333361994225,0.4821574953554397,-0.456524521112442,0.6421526074409485,-0.6158128976821899,1.296413779258728,-0.7771828174591064,0.9454582929611206
7.945132732391357,-0.027304857969284058,0.10072273015975952,-0.03890758752822876,-0.6827592659454962,-0.6280645833961068,0.5266608618031385,-0.455864816904068,0.6309361457824707,-0.6277793049812317,1.8609342575073242,-1.0705814361572266,0.9103413820266724
7.964871883392334,-0.0654105544090271,-0.02639240026473999,0.14200997352600098,-0.6613804056863269,-0.616929668859578,0.5765115980486519,-0.45654699206352234,0.6142067909240723,-0.6436730623245239,2.053086519241333,-0.8206717371940613,1.1113417148590088
7.9849958419799805,-0.12935739755630493,-0.11144429445266724,0.221815824508667,-0.6434441755229362,-0.5954004316819538,0.631812248449215,-0.4486914277076721,0.5999544262886047,-0.6623675227165222,1.9096909761428833,-0.4858829081058502,1.4310063123703003
8.004761934280396,-0.18677568435668945,0.004761755466461182,0.11447733640670776,-0.6330010276895598,-0.572856984141428,0.6827981292742064,-0.437019020318985,0.5915670394897461,-0.6775417923927307,1.1019811630249023,-0.3013114035129547,1.231955885887146
8.025449752807617,-0.2711581289768219,-0.0007141828536987305,0.02838236093521118,-0.6278417111710812,-0.558604970941094,0.7133585144985682,-0.42893052101135254,0.587399423122406,-0.6862801909446716,0.7888974547386169,-0.10824809223413467,0.7511441111564636
8.044893741607666,-0.19226032495498657,-0.19898205995559692,0.03991353511810303,-0.6239007629418851,-0.5428180255805486,0.7419708664659659,-0.41923579573631287,0.5842055082321167,-0.6949427127838135,0.754740297794342,-0.014692669734358788,1.0018717050552368
8.063509941101074,-0.10055148601531982,-0.19727718830108643,0.06897467374801636,-0.6208822065622268,-0.5272614849563408,0.7722211585994488,-0.4092600345611572,0.5817529559135437,-0.7029009461402893,0.7820886373519897,-0.19663485884666443,0.9365049004554749
8.08385705947876,-0.1048092246055603,-0.21835970878601074,0.04555928707122803,-0.6165677439185805,-0.5152154125914947,0.8008077429257504,-0.40199634432792664,0.578238308429718,-0.7099573612213135,0.7558504343032837,-0.22936351597309113,0.8644084334373474
8.103625774383545,-0.1481444239616394,-0.24056494235992432,0.04715186357498169,-0.6117738800670662,-0.5052994177798187,0.8249761633357166,-0.39627406001091003,0.5743204951286316,-0.7163259387016296,0.5709272027015686,-0.1636260449886322,0.6135613322257996
8.124330997467041,-0.11933034658432007,-0.17252087593078613,0.08414584398269653,-0.6095139866827776,-0.49961386977386973,0.8407590785301489,-0.3928157687187195,0.5724690556526184,-0.719704806804657,0.27908387780189514,-0.18791326880455017,0.4383987784385681
