timestamp,acceleration_x,acceleration_y,acceleration_z,attitude_pitch,attitude_roll,attitude_yaw,gravity_x,gravity_y,gravity_z,rotation_x,rotation_y,rotation_z
0.0,0.036860525608062744,-0.005933701992034912,0.003535449504852295,-0.5912896208945663,-1.047665307075532,0.6001170055605077,-0.7191879153251648,0.5574321746826172,-0.41477492451667786,0.7042068243026733,0.02015843242406845,1.0008671283721924
0.019613027572631836,0.016846418380737305,-0.03958427906036377,0.05495327711105347,-0.601790632850691,-1.031415257487683,0.6271948514480138,-0.7072914838790894,0.5661194324493408,-0.4233766198158264,0.6636237502098083,0.08186157047748566,1.0227197408676147
0.03961801528930664,-0.004295647144317627,-0.0632818341255188,0.03938782215118408,-0.6123065402929565,-1.0167725523368945,0.6505717944199125,-0.6959149837493896,0.5747565031051636,-0.43053147196769714,0.4255754053592682,0.06505444645881653,0.8724914789199829
0.059976816177368164,-0.030551433563232422,-0.10960370302200317,0.021251916885375977,-0.6232523037547447,-1.0053285345725809,0.6677227987692566,-0.6855894327163696,0.5836790800094604,-0.43507012724876404,0.17842845618724823,0.07216579467058182,0.7850072383880615
0.08000302314758301,-0.051612794399261475,-0.1076960563659668,0.012286663055419922,-0.6344408204402823,-0.9974880288745354,0.6786702991987337,-0.6766282916069031,0.5927272439002991,-0.4368623197078705,0.0010838459711521864,0.07830926775932312,0.6520470976829529
0.10000014305114746,-0.07678753137588501,-0.09113126993179321,-0.006708323955535889,-0.6451764507081861,-0.9915665257682108,0.6856454044030005,-0.6686654090881348,0.6013394594192505,-0.4373528063297272,-0.10987511277198792,0.1010473370552063,0.5570655465126038
0.11952710151672363,-0.06371551752090454,-0.06976664066314697,-0.012607216835021973,-0.6552572246464743,-0.9866762285986526,0.6903593905875545,-0.6614280343055725,0.6093631982803345,-0.4372522532939911,-0.0877910926938057,0.10336073487997055,0.5024946928024292
0.1393280029296875,-0.03371983766555786,-0.06844395399093628,-0.02481222152709961,-0.6637781740990223,-0.9821683223629736,0.6958041340713592,-0.6551077961921692,0.6160972118377686,-0.43733057379722595,-0.021303804591298103,0.013525741174817085,0.441998153924942
0.15947890281677246,-0.004133403301239014,-0.09066444635391235,0.015563488006591797,-0.6702502124787098,-0.9782594001083634,0.7019759417818752,-0.6500719785690308,0.6211820840835571,-0.43765196204185486,0.05347283184528351,-6.348185706883669e-05,0.3752802312374115
0.17996501922607422,0.016437828540802002,-0.12067830562591553,0.03373965620994568,-0.6750880232018819,-0.9748738780181515,0.7075810908771338,-0.6460918188095093,0.624966025352478,-0.43815842270851135,0.036792442202568054,-0.02194250375032425,0.26220378279685974
0.20001792907714844,0.041089773178100586,-0.12573391199111938,0.014536023139953613,-0.6783041700169424,-0.9739607584297093,0.7107781945620822,-0.6440256834030151,0.6274734735488892,-0.4376162886619568,-0.014757474884390831,-0.09929552674293518,0.14745594561100006
0.22007107734680176,0.06707727909088135,-0.09988677501678467,0.0010575950145721436,-0.6797370219841432,-0.9763350176393331,0.7116279419576418,-0.6443172693252563,0.6285884976387024,-0.43558192253112793,-0.007245429791510105,-0.16815173625946045,0.0417386032640934
0.23996496200561523,0.07406061887741089,-0.0758277177810669,-0.014187902212142944,-0.6802524513611146,-0.9803863305281963,0.7113214610357762,-0.6458074450492859,0.6289892792701721,-0.43278762698173523,-0.024391300976276398,-0.21541929244995117,-0.02200334146618843
0.2599790096282959,0.09662741422653198,-0.048497796058654785,-0.012985050678253174,-0.6793481365961046,-0.9848399397057566,0.7113851803344237,-0.6482022404670715,0.6282860040664673,-0.4302215576171875,0.08544241636991501,-0.2218874990940094,-0.04198127239942551
0.27915501594543457,0.09625822305679321,-0.027518093585968018,-0.026711463928222656,-0.6774485814301234,-0.9883093307130791,0.7126408163000977,-0.6506864428520203,0.6268070936203003,-0.4286258816719055,0.07866965234279633,-0.21372170746326447,-0.08375988900661469
0.3000028133392334,0.10191088914871216,-0.014205634593963623,-0.03302037715911865,-0.674759835360557,-0.9926348975248814,0.712476090134176,-0.6539434194564819,0.6247097849845886,-0.426726758480072,0.04894132912158966,-0.2111504226922989,-0.14287148416042328
0.3200099468231201,0.10237389802932739,0.035890042781829834,-0.07597646117210388,-0.6718307109539547,-0.9974364766272795,0.7113576670444194,-0.6575192213058472,0.6224198937416077,-0.4245726466178894,0.01679961383342743,-0.22845102846622467,-0.1585499346256256
0.33999085426330566,0.10346400737762451,0.03406524658203125,-0.07613340020179749,-0.6692908131083785,-1.0019552102694087,0.7100194305655774,-0.6607608199119568,0.6204299330711365,-0.4224473536014557,0.029505128040909767,-0.1592811793088913,-0.08808328956365585
0.35999393463134766,0.11462223529815674,0.05079448223114014,-0.07767176628112793,-0.6683307592333729,-1.0044646776784392,0.7097653649924132,-0.6623213291168213,0.6196767091751099,-0.42110735177993774,-0.0211479552090168,-0.12383327633142471,-0.061748020350933075
0.3800840377807617,0.10728275775909424,0.09145241975784302,-0.10295239090919495,-0.6687670774696167,-1.0067509689874627,0.7082557242774371,-0.6630536913871765,0.6200191378593445,-0.4194473326206207,-0.1361147165298462,-0.0961475819349289,-0.027324898168444633
0.3999969959259033,0.10895448923110962,0.1045295000076294,-0.11009770631790161,-0.6713755424843291,-1.0089521882904744,0.705918250217367,-0.6626045107841492,0.6220635771751404,-0.41712379455566406,-0.19560764729976654,-0.0701712891459465,0.062331072986125946
0.41999101638793945,0.11206018924713135,0.1055607795715332,-0.10930916666984558,-0.6758543323771592,-1.010771697359034,0.7038624495940589,-0.6609951853752136,0.6255640983581543,-0.4144333004951477,-0.21455563604831696,-0.11661956459283829,0.11680484563112259
0.4400320053100586,0.10993176698684692,0.087513267993927,-0.07482904195785522,-0.6812988674514061,-1.012818621285823,0.7025884585770408,-0.6589430570602417,0.6298024654388428,-0.41127005219459534,-0.21203887462615967,-0.13168489933013916,0.16990940272808075
0.4599888324737549,0.08611905574798584,0.06542813777923584,-0.07208302617073059,-0.688793765131372,-1.01147810905781,0.7041836611757805,-0.6543716192245483,0.6356064081192017,-0.4096367657184601,-0.17901891469955444,-0.12911245226860046,0.2524920105934143
0.47999000549316406,0.08439487218856812,0.0979001522064209,-0.10504072904586792,-0.695769433986391,-1.0103305002078753,0.7076789964084437,-0.6501298546791077,0.6409761905670166,-0.40802061557769775,-0.02686779946088791,-0.21003881096839905,0.27073001861572266
0.49998903274536133,0.07518994808197021,0.10642886161804199,-0.11420023441314697,-0.7015297786601371,-1.0089195594365152,0.7152039691492258,-0.646418035030365,0.6453869938850403,-0.4069635272026062,0.16386008262634277,-0.2588644325733185,0.3687276840209961
0.5200340747833252,0.058816492557525635,0.1070902943611145,-0.11103284358978271,-0.7064271100030189,-1.0074432569747365,0.7254365757998837,-0.6431366205215454,0.6491200923919678,-0.40622466802597046,0.20722965896129608,-0.24493128061294556,0.4636249244213104
0.5400431156158447,0.059845685958862305,0.06751745939254761,-0.11221140623092651,-0.7124089781840381,-1.0057221229378985,0.7363089462548102,-0.6391457915306091,0.6536587476730347,-0.40524452924728394,0.18405455350875854,-0.27740082144737244,0.5006993412971497
0.5600359439849854,0.009516656398773193,0.06236189603805542,-0.14116960763931274,-0.7184912997582686,-1.0050209448826863,0.7473659494711996,-0.635493278503418,0.6582496762275696,-0.40355369448661804,0.20978602766990662,-0.38244494795799255,0.4368545413017273
0.57999587059021,-0.06224316358566284,0.11285817623138428,-0.19221794605255127,-0.7220170586207583,-1.004558518349107,0.7603789340679067,-0.6333439946174622,0.6608997583389282,-0.402599960565567,0.4695887565612793,-0.35448575019836426,0.4016531705856323
0.5999901294708252,-0.09762805700302124,0.1539095640182495,-0.21287015080451965,-0.723047481419239,-1.0005386141227053,0.7769493206353667,-0.6311469674110413,0.6616727113723755,-0.40477487444877625,0.5243107676506042,-0.30132949352264404,0.38207530975341797
0.6199910640716553,-0.09340238571166992,0.13212811946868896,-0.17419183254241943,-0.7235863302066066,-0.9917957158229372,0.7949646046542057,-0.6272855997085571,0.6620766520500183,-0.41008231043815613,0.5849233269691467,0.028727596625685692,0.4316297471523285
0.6399929523468018,-0.0639183521270752,0.08494991064071655,-0.11139106750488281,-0.727274995032245,-0.9800489023704205,0.8116477795568829,-0.6203927397727966,0.664836585521698,-0.41605937480926514,0.292559415102005,0.13574281334877014,0.5979520082473755
0.6600489616394043,-0.015298962593078613,-0.018515348434448242,-0.03822219371795654,-0.7356342450972391,-0.9688801584315074,0.8234278785943473,-0.6111049652099609,0.6710575222969055,-0.41980069875717163,-0.0006102840416133404,0.19922210276126862,0.623051643371582
0.6800179481506348,0.045725464820861816,-0.0653943419456482,-0.013650238513946533,-0.74562558028686,-0.957762413792849,0.8340202740823104,-0.6008860468864441,0.678431510925293,-0.42268994450569153,0.14892339706420898,0.20133692026138306,0.6611819267272949
0.6999919414520264,0.09740465879440308,-0.09057772159576416,0.04612159729003906,-0.7535977251572901,-0.9441112902749522,0.8497173832657718,-0.5906603336334229,0.6842667460441589,-0.4276674687862396,0.31338581442832947,0.12419508397579193,0.6534615159034729
0.7199900150299072,0.12093889713287354,-0.16996878385543823,0.10820376873016357,-0.7593038834310035,-0.9316358479104975,0.866478917463907,-0.5821358561515808,0.6884167194366455,-0.43266651034355164,0.37095317244529724,-0.00011905323481187224,0.5757472515106201
0.7413480281829834,0.1146700382232666,-0.15084397792816162,0.11249983310699463,-0.7622245102371732,-0.9214176186738802,0.8848374291444739,-0.5760806798934937,0.6905321478843689,-0.4373745620250702,0.5467352867126465,-0.22614046931266785,0.4853753447532654
0.7599709033966064,0.03712087869644165,-0.08664184808731079,0.11237320303916931,-0.7611585359635091,-0.913041398638496,0.9060743301627255,-0.5729790329933167,0.6897607445716858,-0.4426342248916626,0.7632313966751099,-0.3720476031303406,0.3665502667427063
0.779994010925293,-0.09311753511428833,-0.03458547592163086,0.08850574493408203,-0.7554090874186655,-0.9042335117839918,0.9305669084087195,-0.5721657276153564,0.6855865120887756,-0.4501083493232727,0.9875953793525696,-0.39384371042251587,0.2751849889755249
0.8000409603118896,-0.2336941957473755,0.03643375635147095,0.09580400586128235,-0.7459078849619184,-0.8926371990266033,0.9564915288638132,-0.571954607963562,0.6786389350891113,-0.46077877283096313,1.0195231437683105,-0.1955087035894394,0.16194066405296326
0.819990873336792,-0.2784246802330017,0.05132579803466797,0.1318892240524292,-0.737176691758389,-0.8809792383424576,0.9762049241260679,-0.5710932016372681,0.6722003221511841,-0.47116824984550476,0.6126095056533813,0.039124224334955215,0.09327564388513565
0.8399908542633057,-0.272749662399292,0.04326349496841431,0.15963131189346313,-0.7344671604978986,-0.8724935341710561,0.9842678435022039,-0.5684674382209778,0.670191764831543,-0.4771665632724762,0.04426953196525574,0.27872270345687866,0.09941999614238739
0.8600270748138428,-0.21373069286346436,0.040992021560668945,0.17262926697731018,-0.7377380081824001,-0.8663295461081569,0.9828835268076813,-0.5638419985771179,0.6726157665252686,-0.47923919558525085,-0.25912952423095703,0.4372898042201996,0.09907860308885574
0.88002610206604,-0.0989266037940979,0.017123043537139893,0.1756664216518402,-0.7430352781752573,-0.8601209694262465,0.9793062366386517,-0.5581474304199219,0.6765262484550476,-0.4803995192050934,-0.23601393401622772,0.42952996492385864,0.152624249458313
0.9000308513641357,-0.022575676441192627,-0.011309146881103516,0.2061464786529541,-0.7473815214522767,-0.8527263260290899,0.9785806472350734,-0.5523602962493896,0.6797205209732056,-0.48257455229759216,-0.044334035366773605,0.38326865434646606,0.15853501856327057
0.919989824295044,0.026574373245239258,-0.019517838954925537,0.19458159804344177,-0.7493379543888162,-0.8434873506731879,0.9824823048412619,-0.5468838214874268,0.681154191493988,-0.48677197098731995,0.10381647944450378,0.2688380181789398,0.16869837045669556
0.940018892288208,0.08023780584335327,-0.012285411357879639,0.16605710983276367,-0.7493800543104508,-0.8361286052782314,0.9874820792468906,-0.5432658195495605,0.6811850070953369,-0.49076399207115173,0.15283310413360596,0.1483553797006607,0.10473540425300598
0.9599988460540771,0.11144673824310303,0.011848211288452148,0.15128964185714722,-0.7486795490282498,-0.8314524028572138,0.9917324906246705,-0.5413174629211426,0.6806719899177551,-0.4936204254627228,0.13770121335983276,0.057730309665203094,0.056661590933799744
0.9800159931182861,0.13777899742126465,0.034564971923828125,0.1381523609161377,-0.7473314050534724,-0.8288721578455202,0.9948516905221763,-0.5407178997993469,0.6796837449073792,-0.49563509225845337,0.1356876790523529,-0.004793078172951937,0.01729745790362358
1.00006103515625,0.13393020629882812,0.05953580141067505,0.11588233709335327,-0.7447656018444848,-0.8281852992319104,0.9974010802740807,-0.5416603684425354,0.6777994632720947,-0.49718406796455383,0.18574950098991394,-0.08853316307067871,-0.08697938919067383
1.0199909210205078,0.14376282691955566,0.06845426559448242,0.09533882141113281,-0.7404061602876642,-0.829166161768054,0.9997583851410548,-0.5443213582038879,0.6745877861976624,-0.498643696308136,0.2205965220928192,-0.18107792735099792,-0.11111504584550858
1.039989948272705,0.17032086849212646,0.06657224893569946,0.10791823267936707,-0.7355250833317527,-0.8333437033219446,1.0008246849695863,-0.5488304495811462,0.6709765791893005,-0.49857357144355774,0.1774895042181015,-0.3013792037963867,-0.19096103310585022
1.0599899291992188,0.19310563802719116,0.07986676692962646,0.10865628719329834,-0.7304482635464469,-0.8400847502029264,1.000974158703527,-0.5547084808349609,0.6672036051750183,-0.4971296489238739,0.1814865618944168,-0.36737287044525146,-0.17045584321022034
1.0800080299377441,0.22533994913101196,0.07590323686599731,0.08714622259140015,-0.7249871510889485,-0.8475758136734984,1.0023211600908863,-0.561140239238739,0.6631258130073547,-0.4953644871711731,0.27426427602767944,-0.4778847396373749,-0.18904320895671844
1.1000120639801025,0.25726455450057983,0.10438531637191772,0.08076328039169312,-0.7171939814394753,-0.855795640881103,1.005693572091765,-0.5690780282020569,0.6572725176811218,-0.4941084682941437,0.4463740289211273,-0.5576019287109375,-0.2033172845840454
1.1199958324432373,0.2699463367462158,0.05098092555999756,0.10494634509086609,-0.7084786148043805,-0.8629066587673664,1.0127231178339715,-0.5769073963165283,0.6506792306900024,-0.49375537037849426,0.4950111508369446,-0.6294964551925659,-0.13543911278247833
1.1399970054626465,0.2688068151473999,0.05732595920562744,0.09911367297172546,-0.6996735969515318,-0.872609606592099,1.0188927672257009,-0.5860370397567749,0.6439679861068726,-0.49179843068122864,0.4772075414657593,-0.7436137795448303,-0.23158369958400726
1.1599900722503662,0.2618212103843689,0.06925690174102783,0.08246156573295593,-0.6893686477463711,-0.8843536085865319,1.0250459384666506,-0.5968737602233887,0.6360501050949097,-0.4890623092651367,0.5453516244888306,-0.8089131712913513,-0.2656405568122864
1.1800401210784912,0.27142632007598877,0.043367087841033936,0.041379719972610474,-0.6788881925727824,-0.8940851189162347,1.0337612530880476,-0.6067687273025513,0.6279281377792358,-0.48737868666648865,0.6005880236625671,-0.7445206046104431,-0.09437303245067596
1.1999900341033936,0.2581579089164734,0.15766167640686035,0.02491089701652527,-0.670536364431726,-0.9045681870753001,1.0408623079604689,-0.6159459948539734,0.6214063167572021,-0.48421552777290344,0.37780120968818665,-0.7108332514762878,-0.2555025517940521
1.2199890613555908,0.26910316944122314,0.18084508180618286,0.006888747215270996,-0.6628988887073124,-0.9161484218516115,1.0436048403967297,-0.6252586245536804,0.6154043674468994,-0.47992628812789917,0.23162470757961273,-0.6525333523750305,-0.20185445249080658
1.240034818649292,0.33859020471572876,0.12412679195404053,-0.0136796236038208,-0.6570290101265679,-0.93077792943098,1.0429512540987456,-0.6350990533828735,0.6107670664787292,-0.47287723422050476,0.1393890380859375,-0.7896102070808411,-0.30441561341285706
1.2601220607757568,0.3830171823501587,0.13095802068710327,-0.056505292654037476,-0.6492343280204816,-0.9455053825113061,1.0446205121579863,-0.6458345651626587,0.6045767068862915,-0.4662453830242157,0.4907692074775696,-0.7552117705345154,-0.21691489219665527
1.2800581455230713,0.41045933961868286,0.11823511123657227,-0.01860964298248291,-0.639287726949511,-0.9556142528936189,1.0528891339392663,-0.6553934812545776,0.596623957157135,-0.46314066648483276,0.551628053188324,-0.768367350101471,-0.26986584067344666
1.2999918460845947,0.4149857759475708,0.05719780921936035,0.04628509283065796,-0.6274210015039856,-0.9691597417973227,1.0577510443152756,-0.6673967242240906,0.5870589017868042,-0.45819592475891113,0.4274764955043793,-0.8938308358192444,-0.4763099253177643
1.3199961185455322,0.3583366274833679,0.015976548194885254,-0.007986485958099365,-0.613551272708811,-0.988788451771951,1.0575933762027665,-0.6829979419708252,0.575774610042572,-0.4494413435459137,0.3952723443508148,-1.0661380290985107,-0.6749072074890137
1.340090036392212,0.3498082756996155,0.014071881771087646,0.03516635298728943,-0.5977900808405061,-1.012868117556025,1.0547105909750332,-0.701233446598053,0.5628171563148499,-0.4376167356967926,0.2180490791797638,-1.1432275772094727,-0.7917925715446472
1.3600518703460693,0.363514244556427,0.031223416328430176,0.04964125156402588,-0.5817605286922212,-1.0387472477371178,1.048430727666847,-0.720005452632904,0.5494956970214844,-0.42384767532348633,0.23490950465202332,-1.1298737525939941,-0.8250020742416382
1.379992961883545,0.3668491244316101,0.04469865560531616,0.013413071632385254,-0.5639276409631268,-1.0624175194278827,1.045580744375439,-0.7382786273956299,0.5345097780227661,-0.4113926589488983,0.5019895434379578,-1.0973622798919678,-0.8860481977462769
1.400115966796875,0.37714773416519165,-0.09346729516983032,0.00869661569595337,-0.5409619940773412,-1.0824913804541427,1.0509525828070603,-0.7570304870605469,0.5149608850479126,-0.40214428305625916,0.9409103393554688,-1.1605448722839355,-0.915103018283844
1.4199998378753662,0.33505916595458984,-0.17547360062599182,0.0925213098526001,-0.5142651570842975,-1.1033279134970109,1.0579272674911073,-0.7772436738014221,0.4918951988220215,-0.39234107732772827,0.7034271359443665,-1.2769290208816528,-1.19310462474823
1.4400031566619873,0.18885916471481323,-0.1451796293258667,0.07279446721076965,-0.4863469210701958,-1.1303755877547925,1.0541247128104483,-0.7996837496757507,0.467399537563324,-0.37688666582107544,0.23616784811019897,-1.2844936847686768,-1.4785351753234863
1.4600131511688232,0.17413586378097534,-0.13316059112548828,0.0480724573135376,-0.45459602291008305,-1.160882947802591,1.0459591439124831,-0.8240076899528503,0.43909940123558044,-0.35805460810661316,0.6480390429496765,-1.3960551023483276,-1.624391794204712
1.479990005493164,0.25557613372802734,-0.10774785280227661,0.11996757984161377,-0.419738998556725,-1.1857596973952365,1.0573235542980033,-0.8463354706764221,0.4075221121311188,-0.34298986196517944,1.6941630840301514,-1.4216289520263672,-1.1633223295211792
1.4999969005584717,0.10762685537338257,-0.07766154408454895,0.1315014362335205,-0.3872564091757027,-1.1960873945324952,1.0899899023067299,-0.8617009520530701,0.3776494264602661,-0.33889874815940857,2.0840420722961426,-1.032702088356018,-0.9114000797271729
1.5200419425964355,0.038934946060180664,-0.09623661637306213,0.16052848100662231,-0.3542724573566068,-1.2087540350811912,1.1150795558132927,-0.8771002888679504,0.3469080924987793,-0.3321897089481354,1.4480096101760864,-1.0618326663970947,-1.3126484155654907
1.5399911403656006,0.03146129846572876,-0.16280004382133484,0.09539985656738281,-0.3223290997109223,-1.2219045698016118,1.1351953891443458,-0.8913550972938538,0.3167765736579895,-0.3242509961128235,1.361598014831543,-0.9773610830307007,-0.9415448307991028
1.5599920749664307,-0.044143617153167725,-0.06502601504325867,0.08188557624816895,-0.29545655499562656,-1.23463350535879,1.154402152317779,-0.903122067451477,0.2911766469478607,-0.3155737817287445,1.4213836193084717,-0.8964834809303284,-1.0245387554168701
1.5799939632415771,-0.13809627294540405,0.07073700428009033,0.04315119981765747,-0.26553286586109376,-1.2450097998344085,1.180574143631697,-0.9141956567764282,0.26242348551750183,-0.30883705615997314,1.8913625478744507,-0.8379092216491699,-1.009442687034607
1.5999889373779297,-0.21830803155899048,0.11291956901550293,0.03186905384063721,-0.23380950205613837,-1.2541810741205435,1.211765205933855,-0.9244379997253418,0.23168504238128662,-0.3028802275657654,1.8061662912368774,-0.8362565040588379,-0.9871313571929932
1.6200180053710938,-0.13225889205932617,0.0049836039543151855,0.2576168477535248,-0.2099964933208733,-1.2631701924973646,1.2332471390227548,-0.9321181178092957,0.20845647156238556,-0.29614514112472534,0.9690243005752563,-0.45735639333724976,-0.6170707941055298
1.6399900913238525,-0.11320555210113525,-0.04678314924240112,0.2545522451400757,-0.19708934574255538,-1.2649593148852938,1.2462382555171057,-0.9351342916488647,0.19581586122512817,-0.29526251554489136,0.7102660536766052,-0.011345875449478626,-0.24819664657115936
1.659999132156372,-0.07984381914138794,0.012931883335113525,0.14476102590560913,-0.18932330195104205,-1.2615311886228116,1.2610151650276777,-0.9355370998382568,0.18819433450698853,-0.2989203929901123,0.9609304666519165,0.024907026439905167,-0.07552950084209442
1.6799919605255127,-0.11255210638046265,0.0028692930936813354,0.17107388377189636,-0.18265402071724768,-1.2588122094138212,1.279045230226431,-0.9358945488929749,0.18164008855819702,-0.30184152722358704,0.9016158580780029,-0.05094565823674202,-0.06981410086154938
1.700119972229004,-0.10362565517425537,-0.0576796680688858,0.2436513900756836,-0.17566249968332645,-1.255661759201049,1.2952743471491492,-0.9361235499382019,0.17476047575473785,-0.30517467856407166,0.8946495056152344,0.057553742080926895,-0.040806639939546585
1.7200038433074951,-0.029189109802246094,-0.06046883761882782,0.26141926646232605,-0.1716159101086969,-1.2500495780914744,1.3153585332727775,-0.9350595474243164,0.17077474296092987,-0.3106439411640167,1.0971953868865967,0.10807967931032181,0.21570837497711182
1.7400059700012207,-0.09658730030059814,-0.07847742736339569,0.2870499789714813,-0.1686930070941831,-1.244654021205016,1.3379382051309607,-0.9338387250900269,0.16789405047893524,-0.3158431649208069,1.1649693250656128,0.04199608787894249,0.17643609642982483
1.7600619792938232,-0.24145084619522095,-0.0683981329202652,0.28756827116012573,-0.164058135880387,-1.24112771914011,1.3634275095241557,-0.9334454536437988,0.16332317888736725,-0.3193826973438263,1.25741446018219,-0.09692628681659698,0.19798828661441803
1.7800800800323486,-0.41554373502731323,-0.09509307146072388,0.4101574420928955,-0.1564453196056343,-1.2400951310232293,1.3854141603322427,-0.9342640042304993,0.15580792725086212,-0.32074078917503357,1.1937974691390991,0.05348505452275276,-0.14548492431640625
1.7999918460845947,-0.268376886844635,-0.07308708131313324,0.5199711322784424,-0.15372427271803712,-1.2326933911621323,1.4017890342441075,-0.9322608709335327,0.1531195342540741,-0.32778653502464294,0.5241572856903076,0.2667231261730194,0.2928006052970886
1.8199899196624756,-0.25297456979751587,-0.07106423377990723,0.38497042655944824,-0.1517239498619718,-1.225534213741075,1.4178486371283332,-0.9301766753196716,0.15114250779151917,-0.3345552980899811,1.0249974727630615,0.22189350426197052,0.05488085001707077
1.8400371074676514,-0.26784610748291016,-0.055649206042289734,0.2952844500541687,-0.1448239019393106,-1.2196822332213288,1.4353950530773296,-0.9291601181030273,0.14431817829608917,-0.34034350514411926,0.7364040613174438,0.0036710689309984446,-0.13899339735507965
1.8600108623504639,-0.29349154233932495,-0.15402260422706604,0.3047522008419037,-0.13580884460242454,-1.221779807132362,1.4450046206997587,-0.931056797504425,0.13539175689220428,-0.33882495760917664,0.5320916771888733,-0.20136569440364838,-0.30317002534866333
1.8799889087677002,-0.3990802764892578,-0.16794463992118835,0.23240292072296143,-0.1311961970442325,-1.2245503664949327,1.4507617245748499,-0.9325695633888245,0.1308201551437378,-0.3364524841308594,0.07920822501182556,-0.22928495705127716,-0.0273290928453207
1.8999910354614258,-0.5097554922103882,-0.1573210060596466,0.23648610711097717,-0.12857659155074444,-1.2288316539014499,1.4524078733875982,-0.9343210458755493,0.12822261452674866,-0.3325705826282501,0.2835575342178345,-0.17179591953754425,-0.08689481765031815
1.9193179607391357,-0.561054527759552,-0.20703710615634918,0.2379985749721527,-0.12321177934651707,-1.2310614538489317,1.4603460571550364,-0.9356952905654907,0.12290026992559433,-0.33071085810661316,0.7051275372505188,-0.11505895107984543,-0.1483542025089264
1.9400269985198975,-0.5563467741012573,-0.3649389445781708,0.33586385846138,-0.11657622950703561,-1.2336288660434032,1.4724489801197644,-0.9372903108596802,0.11631236225366592,-0.32857000827789307,0.5718778371810913,-0.2924245297908783,-0.07291515171527863
1.9600269794464111,-0.6982483863830566,-0.5003304481506348,0.4061378240585327,-0.1136580411606767,-1.2364070273535708,1.481697476436668,-0.9385161995887756,0.1134134903550148,-0.32607483863830566,0.4307880699634552,0.019629882648587227,0.13506712019443512
1.9799931049346924,-0.8416525721549988,-0.4281957149505615,0.36043742299079895,-0.11507993190318516,-1.2280778836010877,1.489646654967891,-0.9356148838996887,0.11482609063386917,-0.3338259160518646,0.27733564376831055,0.8015475273132324,0.23353269696235657
1.9999969005584717,-0.7545917630195618,-0.3022781312465668,0.04166620969772339,-0.11997925410189757,-1.2119792154792488,1.4963242854190413,-0.929581880569458,0.11969161033630371,-0.3486424386501312,0.20051774382591248,0.4343838393688202,0.3992559313774109
2.0199921131134033,-0.5580889582633972,-0.17160210013389587,0.12018892168998718,-0.13065282982489504,-1.2103553636602136,1.5062039119376809,-0.9277661442756653,0.13028143346309662,-0.34968096017837524,0.2931385338306427,-0.20667311549186707,0.9418410062789917
2.0400359630584717,-0.7898890376091003,0.0512009859085083,0.11161887645721436,-0.1511871984936685,-1.2070705719815862,1.5222051829314676,-0.9239171147346497,0.15061189234256744,-0.3517005741596222,0.5094360709190369,0.4154244363307953,1.4839444160461426
2.0599889755249023,-1.024878978729248,0.1847373992204666,0.05845743417739868,-0.17921182629827698,-1.1893477052383818,1.5459227844377108,-0.9132620096206665,0.17825408279895782,-0.36630338430404663,0.5583652257919312,0.9911032915115356,1.9428555965423584
2.0799920558929443,-0.996773898601532,0.1365146040916443,0.03466618061065674,-0.2178035732729561,-1.1660423524630181,1.5671561412791049,-0.8974826335906982,0.21608561277389526,-0.3844890296459198,-0.14738480746746063,0.7441889047622681,2.4559154510498047
2.100008010864258,-0.883943498134613,0.13462349772453308,0.14277875423431396,-0.2693479721219113,-1.1532972562375028,1.5820275938735835,-0.8811474442481995,0.26610296964645386,-0.3908560574054718,-0.4888922870159149,0.4240359663963318,2.8493306636810303
2.1200389862060547,-0.891669750213623,0.2509332597255707,0.06415843963623047,-0.3241568478481441,-1.1387149861996508,1.6026968206525267,-0.860802173614502,0.31850966811180115,-0.3969525098800659,0.10340334475040436,0.338577002286911,2.8392739295959473
2.1400039196014404,-0.8327948451042175,0.33176758885383606,0.07117849588394165,-0.3689275544353834,-1.1204533677373065,1.6335190250468838,-0.8397210240364075,0.3606153428554535,-0.4059867560863495,0.519831120967865,0.525564432144165,2.5505456924438477
2.1600189208984375,-0.7806823253631592,0.15920883417129517,0.07234138250350952,-0.4105962684496015,-1.1000580534683113,1.6612198576835169,-0.8171569108963013,0.3991560935974121,-0.4158470928668976,-0.12804053723812103,0.4580203890800476,2.3136239051818848
2.180000066757202,-0.6030347347259521,0.09346479177474976,0.07046934962272644,-0.4561231245715686,-1.0868447854344787,1.6750910311162996,-0.7946702837944031,0.4404709041118622,-0.4177134931087494,-0.7974579930305481,0.2846674919128418,2.2695324420928955
2.19999098777771,-0.4672163128852844,0.1951923370361328,0.026750683784484863,-0.4997088728613431,-1.0787540853045068,1.6832476897849564,-0.7735978364944458,0.479170024394989,-0.4146595001220703,-0.5296880602836609,0.20649342238903046,1.95925772190094
2.2200238704681396,-0.2932266592979431,0.18488073348999023,-0.031445711851119995,-0.5351547139252504,-1.070122723597647,1.6935487049712037,-0.7546095848083496,0.5099741220474243,-0.41290533542633057,-0.38306212425231934,0.04294133186340332,1.5161923170089722
2.2401058673858643,-0.10210573673248291,-0.008950412273406982,0.01688253879547119,-0.5647935945376384,-1.0678654188979002,1.6973109825854469,-0.7401030659675598,0.5352414846420288,-0.40714123845100403,-0.8453971743583679,0.03349962830543518,1.2989012002944946
2.260303020477295,-0.009970247745513916,-0.02201378345489502,-0.07523530721664429,-0.5952433554275735,-1.0729886041023968,1.6886840383835275,-0.7275174856185913,0.5607102513313293,-0.39537617564201355,-1.1553348302841187,-0.028216911479830742,1.02924382686615
2.2799971103668213,0.14925998449325562,0.017914295196533203,-0.05899938941001892,-0.6223878155049313,-1.0795642501263862,1.6756069894460688,-0.7164138555526733,0.5829768776893616,-0.38326120376586914,-1.0668174028396606,0.0961681604385376,0.8697086572647095
2.3000071048736572,0.2618141174316406,-0.04715651273727417,-0.04170644283294678,-0.6434030388790939,-1.0865900974867977,1.6613413363004104,-0.7080879211425781,0.5999215245246887,-0.3724322021007538,-0.9137402772903442,0.05777709186077118,0.4476165175437927
2.320089101791382,0.41906511783599854,-0.1346178650856018,0.007465362548828125,-0.6575897535782451,-1.0969175343591233,1.6450497467156422,-0.7042518258094788,0.6112110018730164,-0.3611792027950287,-0.950056791305542,-0.12121201306581497,0.2106681913137436
2.3400790691375732,0.5508126616477966,-0.19155412912368774,0.08631390333175659,-0.6684778593695401,-1.1145637875547725,1.623104774082776,-0.7044991850852966,0.6197921633720398,-0.34574368596076965,-1.0971107482910156,-0.26540684700012207,0.04113665223121643
2.359982967376709,0.6594371199607849,-0.2048933506011963,0.05250230431556702,-0.6800847218119127,-1.1380761136658386,1.5974756889259376,-0.7058542966842651,0.6288589239120483,-0.3260464370250702,-1.1770756244659424,-0.4986213445663452,0.0763828307390213
2.3799920082092285,0.6513845324516296,-0.13811403512954712,-0.07339611649513245,-0.6883066914746215,-1.1632871563283471,1.573004796114492,-0.7090780735015869,0.635230302810669,-0.3060898780822754,-0.8523948788642883,-0.4262624680995941,-0.025316549465060234
2.407550096511841,0.826518177986145,-0.12371432781219482,-0.13807427883148193,-0.6970570359556627,-1.1929196916805673,1.5558486505698261,-0.7126417756080627,0.6419640183448792,-0.2828850746154785,-0.2502950429916382,-0.4464312195777893,0.18942891061306
2.428318977355957,0.8534318208694458,-0.0981835126876831,-0.17303118109703064,-0.7049803730955541,-1.2044979816412615,1.5534327319773038,-0.7110978960990906,0.6480188965797424,-0.2727847695350647,-0.2128290832042694,-0.5626033544540405,0.5059213638305664
2.439993143081665,0.8534318208694458,-0.0981835126876831,-0.17303118109703064,-0.7049803730955541,-1.2044979816412615,1.5534327319773038,-0.7110978960990906,0.6480188965797424,-0.2727847695350647,-0.2128290832042694,-0.5626033544540405,0.5059213638305664
2.4683659076690674,0.6967046856880188,0.03667318820953369,-0.11358886957168579,-0.7334171896231567,-1.211674856978256,1.572460999571563,-0.6954991817474365,0.6694121360778809,-0.2610905170440674,0.6467669606208801,-0.37571966648101807,1.1214540004730225
2.4883368015289307,0.6197248101234436,0.1429392695426941,-0.15110397338867188,-0.7510111679848073,-1.1970902158548125,1.606239520977514,-0.6805462837219238,0.6823782920837402,-0.2668646275997162,1.113325595855713,-0.49444133043289185,1.4597877264022827
2.5082359313964844,0.49770599603652954,0.16093116998672485,-0.11493590474128723,-0.7713888970408986,-1.1760243327367126,1.6507522192778288,-0.661798894405365,0.6971316933631897,-0.27573469281196594,1.210262417793274,-0.42013898491859436,1.630599856376648
2.5280489921569824,0.44702571630477905,0.13789403438568115,-0.1754024624824524,-0.7899409116696324,-1.1463798768054767,1.7083122436054357,-0.6414378881454468,0.7103117108345032,-0.28985312581062317,1.6772496700286865,-0.7576034665107727,1.58687424659729
2.5480189323425293,0.4767757058143616,-0.18565189838409424,0.1715041995048523,-0.8059368460343732,-1.1243128778286964,1.7651278395192087,-0.6245570182800293,0.7214796543121338,-0.29899123311042786,1.289355754852295,-1.114560604095459,1.5001243352890015
2.568147897720337,0.4512075185775757,-0.4419487714767456,0.36449873447418213,-0.8206530791865251,-1.1122012348213854,1.8135968131798097,-0.6113026738166809,0.7315912246704102,-0.3018002510070801,1.1405272483825684,-1.1399892568588257,1.1109185218811035
2.5880258083343506,0.4960818886756897,-0.606194019317627,0.36921417713165283,-0.8215931051525783,-1.103537587217053,1.860412096723628,-0.6080508232116699,0.7322317361831665,-0.3067750930786133,1.6499378681182861,-1.3443565368652344,0.40344732999801636
2.607806921005249,0.5826358199119568,-0.6704381704330444,0.36410748958587646,-0.8092027604831995,-1.0978565350132679,1.9095490439518774,-0.6143282651901245,0.7237372398376465,-0.3143332004547119,1.9374668598175049,-1.8588701486587524,0.10980774462223053
2.628016948699951,0.24000900983810425,-0.4166242480278015,0.11211559176445007,-0.7924133617568573,-1.1070225979670267,1.9582140411651876,-0.6279637217521667,0.7120498418807983,-0.3140808641910553,1.780504822731018,-2.198859691619873,-0.07518850266933441
2.6477129459381104,-0.2958490252494812,-0.24981647729873657,-0.07769069075584412,-0.7711496817725655,-1.1173529322490972,1.997671465170259,-0.6446415781974792,0.6969601511955261,-0.3141396641731262,1.7434215545654297,-1.6732333898544312,-0.7058559656143188
2.667799949645996,-0.2561073899269104,-0.22400838136672974,-0.022703170776367188,-0.7485983895834413,-1.1209014814207783,2.024772106586175,-0.6597403287887573,0.6806125640869141,-0.31860533356666565,-0.3578323423862457,0.5393308997154236,0.2126268893480301
2.6877589225769043,-1.7979028224945068,0.18774199485778809,-1.4063231945037842,-0.7835913633870867,-1.1295787092517544,2.0203167573091263,-0.6405429840087891,0.7058280110359192,-0.30250850319862366,-0.6418607234954834,-0.6762986183166504,1.6481815576553345
2.7075159549713135,-0.009197533130645752,0.9509775042533875,0.24062886834144592,-0.7501431996540479,-1.1383686538853581,2.0190438319495683,-0.6642490029335022,0.6817435026168823,-0.30659249424934387,2.3341102600097656,-0.5285574197769165,-2.771752119064331
2.727678060531616,0.5245374441146851,-0.7183612585067749,0.601647675037384,-0.7086115857487827,-1.1280815987669544,2.0665432625583944,-0.6860668659210205,0.650780200958252,-0.32526513934135437,2.0037248134613037,-1.7485934495925903,0.1952730268239975
2.7476718425750732,-0.15553271770477295,-0.7878618240356445,0.6056714057922363,-0.7047351088090732,-1.161472989583298,2.0854404524571293,-0.6988525390625,0.6478320360183716,-0.30318108201026917,-0.21320980787277222,-2.077925682067871,-0.02558145299553871
2.7673308849334717,-1.3055760860443115,0.3445155620574951,-0.257126122713089,-0.7054065766105619,-1.1728479435864998,2.089633212563219,-0.7018547654151917,0.6483434438705444,-0.29504355788230896,0.9439398646354675,-0.13180029392242432,-0.265536904335022
2.7874228954315186,-0.6678501963615417,0.17311334609985352,-0.22860845923423767,-0.6706410693783609,-1.1646511716054104,2.1154743464751933,-0.7196925282478333,0.6214883327484131,-0.30950796604156494,1.8587729930877686,-0.6605335474014282,-1.6194311380386353
2.8074700832366943,-0.38223642110824585,-0.7240477204322815,0.1900307536125183,-0.6417018022240614,-1.1625387351902916,2.137581376430605,-0.7352408766746521,0.598559558391571,-0.3180367052555084,0.6423947215080261,-0.27279016375541687,-0.39161035418510437
2.827256917953491,-0.7984334826469421,-0.7610417008399963,0.2807123064994812,-0.6393692906064056,-1.1643272551713375,2.1273602726894496,-0.7370888590812683,0.5966894626617432,-0.3172723054885864,-1.087814211845398,0.7800682783126831,-0.23795247077941895
2.8472111225128174,-0.7346243858337402,-0.30383771657943726,0.11985918879508972,-0.6446405633783028,-1.1565179804116528,2.100475986729162,-0.7316992878913879,0.6009112000465393,-0.32174813747406006,-0.8341634273529053,1.4735629558563232,-0.19040179252624512
2.8671059608459473,-0.5693748593330383,-0.16211193799972534,0.102047860622406,-0.6439317603122824,-1.1332090618660036,2.085762689145649,-0.7243872880935669,0.6003444790840149,-0.33889472484588623,-0.3224300444126129,1.8283326625823975,-0.35033929347991943
2.887115955352783,-0.47573500871658325,-0.37197405099868774,0.15152209997177124,-0.6394654877127659,-1.101858476449306,2.071585216019025,-0.715793251991272,0.5967666506767273,-0.3626426160335541,-0.6096936464309692,2.1789567470550537,-0.4925006031990051
2.906986951828003,-0.2796364426612854,-0.4639616012573242,0.07171934843063354,-0.638676495478821,-1.07454277363149,2.046229374642972,-0.7060354948043823,0.5961333513259888,-0.3822813928127289,-1.0674325227737427,2.0218231678009033,-0.5244188904762268
2.9270260334014893,-0.10482203960418701,-0.3645177483558655,0.01064997911453247,-0.6367934820733558,-1.0547359383936517,2.016248007510526,-0.6993008255958557,0.5946204662322998,-0.3967430293560028,-0.8221113681793213,1.8092191219329834,-0.845588207244873
2.946969985961914,0.06339800357818604,-0.34326785802841187,-0.009342551231384277,-0.6249337532243052,-1.0364138141475687,1.9889313483483873,-0.6979347467422485,0.5850435495376587,-0.41305118799209595,-0.581439197063446,1.6156436204910278,-1.221633791923523
2.965830087661743,0.19810926914215088,-0.39348918199539185,-0.0072304606437683105,-0.6070667412772,-1.0300364104144564,1.953090682740404,-0.7041364312171936,0.5704607367515564,-0.4228079319000244,-0.9753845930099487,1.1705418825149536,-1.7635666131973267
2.9866111278533936,0.31882578134536743,-0.3769877552986145,0.05048555135726929,-0.5889280257099423,-1.0334156539530965,1.907351263354736,-0.7143335938453674,0.5554699301719666,-0.4256533086299896,-1.4041895866394043,1.0320305824279785,-1.733778476715088
3.0065948963165283,0.36260002851486206,-0.20402318239212036,0.041394591331481934,-0.5727127565272737,-1.0437877043628172,1.8541103471801232,-0.7264000773429871,0.5419139266014099,-0.4226963520050049,-1.4910610914230347,0.9091331958770752,-1.9250173568725586
3.0268990993499756,0.3760545253753662,-0.02206045389175415,-0.04708504676818848,-0.5505895419743173,-1.0527336443914634,1.8038961848909814,-0.7403886318206787,0.5231897234916687,-0.4220157861709595,-0.9969748258590698,0.8823142051696777,-2.155351400375366
3.0467939376831055,0.4214261770248413,0.07058316469192505,-0.06847071647644043,-0.5182027844365718,-1.0547710265521242,1.7664729141297704,-0.7555935978889465,0.495319664478302,-0.4286452829837799,-0.3127126097679138,0.8356191515922546,-2.1905481815338135
3.066581964492798,0.4721188545227051,0.046578288078308105,0.0131378173828125,-0.48319021913677723,-1.053347597182813,1.7368189219166703,-0.7695889472961426,0.46460652351379395,-0.43803396821022034,-0.2523171901702881,0.7006679773330688,-2.1330032348632812
3.0867860317230225,0.42214369773864746,0.01057252287864685,-0.03908276557922363,-0.4511056011211526,-1.0553699219162462,1.707326235944364,-0.7830445766448975,0.4359607994556427,-0.4435984194278717,-0.4585649073123932,0.4511106014251709,-1.9808005094528198
3.1075949668884277,0.32721370458602905,0.08636462688446045,-0.0769687294960022,-0.42342889415650453,-1.06173479526066,1.6732604358001657,-0.796085774898529,0.4108889400959015,-0.44431719183921814,-0.8475291728973389,0.36511313915252686,-1.938409447669983
3.121835947036743,0.3325434923171997,0.14362233877182007,-0.07591608166694641,-0.40019305000541877,-1.068062136719102,1.6362342620499855,-0.8070307970046997,0.3895961344242096,-0.44375231862068176,-0.9533991813659668,0.49549388885498047,-1.7806634902954102
3.1465959548950195,0.3690677881240845,0.2284579575061798,-0.12421318888664246,-0.3753567089816641,-1.0674956585442203,1.6063618849637924,-0.815005898475647,0.36660441756248474,-0.4487389624118805,-0.2545664310455322,0.7188605666160583,-1.7083934545516968
3.166348934173584,0.4773980975151062,0.2003433108329773,-0.14016222953796387,-0.3453446386670049,-1.057336023929537,1.5898661183469196,-0.8196222186088562,0.33852097392082214,-0.4621935784816742,0.35019102692604065,0.8584356307983398,-1.6639965772628784
3.1860978603363037,0.5477949976921082,0.14907613396644592,-0.17173710465431213,-0.31352423654795775,-1.0433334703562451,1.5811723762867769,-0.8219648599624634,0.30841296911239624,-0.4788059890270233,0.46379679441452026,0.7559080719947815,-1.5143694877624512
3.206211805343628,0.5043764710426331,0.33424636721611023,-0.385409414768219,-0.28536422174817405,-1.034962380444602,1.5726401021616419,-0.8250704407691956,0.2815069556236267,-0.48991093039512634,0.16020485758781433,0.40632033348083496,-1.366762638092041
3.226240873336792,0.3607543110847473,0.523808479309082,-0.3722444772720337,-0.2622533479912938,-1.028543316905735,1.5588576327955908,-0.8272613286972046,0.2592574954032898,-0.49842190742492676,-0.024772506207227707,0.6596210598945618,-1.3117773532867432
3.245866060256958,0.3847566843032837,0.6063602566719055,-0.2665461301803589,-0.24036923712536257,-1.0139707070126978,1.5471544116948857,-0.824530303478241,0.23806126415729523,-0.5132999420166016,0.18991969525814056,1.0957330465316772,-1.0960949659347534
3.265866994857788,0.4069048762321472,0.41815024614334106,-0.04951274394989014,-0.22288130509336695,-0.9923815740970874,1.5376455706937302,-0.8166186213493347,0.22104057669639587,-0.533174455165863,-0.10268326103687286,1.1545922756195068,-0.9359126091003418
3.285820960998535,0.3458595871925354,0.2613462805747986,-0.026827216148376465,-0.21052723431359008,-0.9763541771417146,1.5232025979376633,-0.8101693391799927,0.20897552371025085,-0.5476813316345215,-0.33204221725463867,0.7263108491897583,-0.8347972631454468
3.305873155593872,0.1586703658103943,0.3715282082557678,-0.0617908239364624,-0.19954136657125,-0.9696582270366773,1.509637011563583,-0.8083285689353943,0.19821982085704803,-0.5543588995933533,-0.19161970913410187,0.27300533652305603,-0.9702588319778442
3.325788974761963,-0.09274232387542725,0.4375244081020355,-0.09461230039596558,-0.17999265432869957,-0.9690312046554665,1.4949663939178395,-0.8110204935073853,0.17902234196662903,-0.5569530725479126,0.10065791010856628,0.10621732473373413,-1.3946559429168701
3.345811128616333,-0.15273451805114746,0.1645239293575287,0.055200397968292236,-0.15727554765053822,-0.9695056746624429,1.4771859932784766,-0.8144286274909973,0.15662796795368195,-0.5587250590324402,-0.3323207199573517,0.08111153542995453,-1.463472604751587
3.3646328449249268,-0.2545738220214844,-0.014066487550735474,0.05769515037536621,-0.1372849304858049,-0.9734468695596651,1.4538587877746147,-0.8190498948097229,0.13685409724712372,-0.5571609139442444,-0.2621813118457794,-0.015168754383921623,-1.4912381172180176
3.385530948638916,-0.447787880897522,0.16107095777988434,-0.03612273931503296,-0.10945708268346144,-0.9747029198287608,1.4406156616096761,-0.8225828409194946,0.1092386469244957,-0.5580542087554932,0.7430947422981262,0.0198847483843565,-1.5915968418121338
3.408099889755249,-0.5378819704055786,0.11651694029569626,0.1099591851234436,-0.07220559354129767,-0.9750666096229177,1.4335445845877406,-0.8255824446678162,0.07214286923408508,-0.5596508383750916,0.5978394746780396,0.011616433039307594,-1.9322926998138428
3.4252851009368896,-0.4248223900794983,-0.21547041833400726,0.2169485092163086,-0.04041746703857001,-0.9745340149506794,1.4169078347862567,-0.8267645239830017,0.04040646553039551,-0.5610950589179993,-0.2688031494617462,0.007954763248562813,-1.5143373012542725
3.442157030105591,-0.5054441094398499,-0.21977242827415466,0.14363038539886475,-0.025927814788968828,-0.976666144319522,1.3954568106766412,-0.8283572793006897,0.025924909859895706,-0.5596001148223877,-0.5781874060630798,-0.03099130466580391,-0.9103285074234009
3.463063955307007,-0.5835956931114197,0.051864493638277054,0.17083603143692017,-0.02020427515414306,-0.9745997921865741,1.3757691689110298,-0.8273084163665771,0.02020290121436119,-0.5613847374916077,-0.715889036655426,0.3307415843009949,-0.752133309841156
3.4822540283203125,-0.5194868445396423,0.03164690360426903,0.12052321434020996,-0.020265020224118052,-0.9648707962779433,1.3567297609797238,-0.8218066096305847,0.020263632759451866,-0.5694061517715454,-0.802209734916687,0.5898911952972412,-0.2673466205596924
3.5023810863494873,-0.42515844106674194,-0.05730748921632767,0.26699769496917725,-0.03176974106847914,-0.9502813820970227,1.3461956883974655,-0.8131686449050903,0.03176439553499222,-0.5811607837677002,-0.7038869261741638,0.9106938242912292,0.5495350360870361
3.5241758823394775,-0.44768601655960083,-0.19856131076812744,0.3814657926559448,-0.04634107900183737,-0.9309687144875379,1.3463259310041007,-0.8013375401496887,0.04632449522614479,-0.5964162349700928,-0.016821637749671936,1.0322219133377075,0.5534509420394897
3.5441839694976807,-0.44717758893966675,-0.36895889043807983,0.5455836057662964,-0.049887894957544844,-0.9105038059651341,1.3561078871453238,-0.7888302206993103,0.04986720532178879,-0.6125848293304443,0.4827463924884796,0.9827297925949097,0.3679310381412506
3.5652639865875244,-0.509097158908844,-0.6212351322174072,0.6992515325546265,-0.054382758908773025,-0.8887609587629259,1.3664912353801086,-0.7751436233520508,0.05435595661401749,-0.6294424533843994,0.0009914878755807877,1.2387158870697021,0.7322938442230225
3.58518385887146,-0.6719388365745544,-0.6366251111030579,0.5927384495735168,-0.07195950513864902,-0.8609239437743595,1.3751006782146733,-0.7564821839332581,0.07189741730690002,-0.6500502824783325,-0.3668511211872101,1.3099217414855957,0.9495165944099426
3.6049249172210693,-0.49486076831817627,-0.6261240243911743,0.3256160020828247,-0.08778469453068197,-0.852800911606697,1.3724320030595138,-0.7502260208129883,0.08767198771238327,-0.6553430557250977,-0.851614773273468,-0.7548682689666748,0.13060860335826874
3.6248860359191895,-0.30768293142318726,-0.770703911781311,0.7437710762023926,-0.10368390853257284,-0.8831073930199418,1.3607416274434325,-0.76856529712677,0.10349823534488678,-0.6313442587852478,-0.8137272596359253,-1.6336687803268433,0.5063486099243164
3.644850969314575,-0.6830490231513977,-0.41639113426208496,0.600703239440918,-0.12653702349298804,-0.9022061331902549,1.3601733462677212,-0.7784225940704346,0.1261996179819107,-0.6149243116378784,-0.6913225650787354,-0.21570603549480438,1.1265045404434204
3.6649279594421387,-0.8843405842781067,-0.1220402717590332,0.1303815245628357,-0.14994540426509076,-0.8995477507279717,1.3664544611887204,-0.7742593884468079,0.14938415586948395,-0.6149852871894836,-0.15636184811592102,0.1126166358590126,1.0178598165512085
3.684839963912964,-0.719715416431427,0.0032759904861450195,0.09803903102874756,-0.16448757155077448,-0.8999386160158503,1.3806903344187136,-0.772716224193573,0.16374683380126953,-0.6132671236991882,0.17108291387557983,-0.3011888861656189,1.120629906654358
3.7036049365997314,-0.7543495297431946,-0.0027966052293777466,0.24046850204467773,-0.18672599907258816,-0.9038867158765499,1.3964552945998374,-0.7720787525177002,0.185642808675766,-0.6078084707260132,-0.3766483664512634,-0.30350467562675476,1.5776867866516113
3.7245218753814697,-0.8764355182647705,0.09021684527397156,0.25338101387023926,-0.2232793915139029,-0.9072106685555651,1.406256486741877,-0.7682331204414368,0.2214287966489792,-0.6006556749343872,-1.0063749551773071,-0.16869714856147766,1.8815345764160156
3.7449119091033936,-0.8498575687408447,0.3028811514377594,0.10973381996154785,-0.26221684362640857,-0.9078778153628027,1.4159249674563168,-0.761256992816925,0.25922223925590515,-0.5943833589553833,-0.6922327280044556,-0.095313660800457,1.7645251750946045
3.7644219398498535,-0.7061207890510559,0.3596256673336029,0.07790166139602661,-0.2958876665200433,-0.9059357645667796,1.4264674163279396,-0.7528026103973389,0.29158905148506165,-0.5901390910148621,-0.5820390582084656,0.06955456733703613,1.5746026039123535
3.784273862838745,-0.590752899646759,0.3937763571739197,-0.03247535228729248,-0.3277104955400205,-0.8999825179376894,1.438097613975327,-0.7416293025016785,0.32187619805336,-0.5885419249534607,-0.646490216255188,0.15363571047782898,1.5183449983596802
3.8045990467071533,-0.41642624139785767,0.4270729422569275,-0.158733069896698,-0.3572413190151659,-0.8964726788095498,1.443989167306635,-0.7318128347396851,0.3496910631656647,-0.5849496126174927,-0.6703006029129028,-0.10891903936862946,1.236469030380249
3.824291944503784,-0.17874878644943237,0.39017900824546814,-0.07589584589004517,-0.3842854366499288,-0.9010208283952095,1.4485249079560398,-0.7267840504646301,0.3748967945575714,-0.5755321979522705,-0.9018611907958984,-0.3535526692867279,1.1445116996765137
3.8442299365997314,-0.14718466997146606,0.24365311861038208,-0.008015275001525879,-0.4147749696446254,-0.9093063039065883,1.44305273428016,-0.7221696376800537,0.40298399329185486,-0.5622055530548096,-1.2936979532241821,-0.2657245397567749,0.9791247248649597
3.8623220920562744,-0.007681429386138916,0.23680779337882996,-0.01159822940826416,-0.4456609152520825,-0.9175147484357958,1.4304950431663044,-0.7165313363075256,0.43105432391166687,-0.5484297871589661,-1.4548908472061157,-0.06851036101579666,0.6712577939033508
3.883159875869751,0.2101258635520935,0.23766154050827026,-0.15046298503875732,-0.4679518461015335,-0.9290474342103119,1.4156035238441216,-0.7149324417114258,0.4510592818260193,-0.5342445373535156,-1.0370392799377441,-0.42192211747169495,0.34738028049468994
3.904006004333496,0.4152149558067322,0.16504967212677002,-0.08661741018295288,-0.48596415187909453,-0.94315772742551,1.4017768562886743,-0.7157064080238342,0.4670611023902893,-0.5192480087280273,-0.9892289638519287,-0.4553765654563904,0.48595520853996277
3.924452066421509,0.5253607630729675,0.15646961331367493,-0.13865405321121216,-0.5060779561787757,-0.9607602752038539,1.3931688342775774,-0.7168890833854675,0.48475056886672974,-0.5010857582092285,-0.9518669843673706,-0.7718802094459534,0.6803109049797058
3.943912982940674,0.4046497344970703,0.10615313053131104,-0.19296002388000488,-0.5292136432362832,-0.9800029762371235,1.3818852872866079,-0.7168903946876526,0.5048547387123108,-0.4808221459388733,-1.246073842048645,-0.5594334602355957,0.5768821835517883
3.963711977005005,0.38393551111221313,-0.009899675846099854,-0.21319863200187683,-0.5510556231336533,-1.0006362479994042,1.3589950743945698,-0.7172027230262756,0.5235868692398071,-0.45986637473106384,-1.4671342372894287,-0.4310024678707123,0.24818579852581024
3.983644962310791,0.561510443687439,0.004478752613067627,-0.17247357964515686,-0.5710181603186274,-1.0235081123063086,1.334538037341382,-0.7184622883796692,0.5404889583587646,-0.4378167390823364,-1.370296597480774,-0.5610439777374268,0.3634270429611206
4.003833055496216,0.5397846698760986,0.10897225141525269,-0.2212720513343811,-0.590417367534359,-1.0470055817422521,1.314543382991745,-0.7193348407745361,0.5567077994346619,-0.41549229621887207,-0.9687914252281189,-0.6565844416618347,0.4664795398712158
4.023555040359497,0.45499593019485474,0.2444016933441162,-0.30052995681762695,-0.6064200435755878,-1.062925762839244,1.3065879366562387,-0.7179811596870422,0.5699294805526733,-0.3996041715145111,-0.508285403251648,-0.45804426074028015,0.5901898145675659
4.043658971786499,0.4755900502204895,0.0653722882270813,-0.23604178428649902,-0.6228911166307503,-1.0756093265824338,1.2990985458397484,-0.7146342396736145,0.5833857655525208,-0.3859521150588989,-0.7877188920974731,-0.4442933201789856,0.6033795475959778
4.063756942749023,0.563948929309845,0.024569153785705566,-0.1910262405872345,-0.6432386461805155,-1.0908263631297543,1.2908319543437619,-0.7097466588020325,0.5997900366783142,-0.36947470903396606,-0.7447574138641357,-0.5561094880104065,0.8551576137542725
4.083845853805542,0.46335017681121826,0.0343436598777771,-0.2025003731250763,-0.6635014300066198,-1.1023264776165167,1.289312924865139,-0.702958881855011,0.6158791780471802,-0.35572701692581177,-0.18780064582824707,-0.44781294465065,0.9193710684776306
4.102272033691406,0.4141693711280823,-0.08477401733398438,-0.19893556833267212,-0.6805922840001323,-1.101765687402306,1.2999018249104388,-0.6932678818702698,0.6292534470558167,-0.35131144523620605,-0.05455949902534485,-0.19980446994304657,0.9167100787162781
4.1231160163879395,0.4118461012840271,-0.26773619651794434,-0.2062475085258484,-0.6955577115503996,-1.1037179411481304,1.3061167221974836,-0.6854667067527771,0.6408137083053589,-0.3456780016422272,-0.1205519363284111,-0.35785171389579773,0.758521556854248
4.1449949741363525,0.351884663105011,-0.19391518831253052,-0.2219688892364502,-0.7103793992711717,-1.1059609574102232,1.3136387803838712,-0.6776750683784485,0.6521214246749878,-0.339844286441803,-0.03279128670692444,-0.3429493010044098,0.7462451457977295
4.161769151687622,0.2075190544128418,-0.1268811821937561,-0.19408190250396729,-0.7215610198710014,-1.1048190879671604,1.321452000168062,-0.6707301139831543,0.6605574488639832,-0.3373205363750458,0.16948941349983215,-0.008046218194067478,0.5060615539550781
4.181423902511597,0.2620941996574402,-0.1785273551940918,-0.19230520725250244,-0.7272187976001037,-1.0928747245136916,1.3364919635265329,-0.6633240580558777,0.6647945642471313,-0.34358328580856323,0.4338909089565277,0.08512500673532486,0.5363764762878418
4.200873136520386,0.31275689601898193,-0.3315708637237549,-0.09711110591888428,-0.7302020722179805,-1.0837303058255874,1.3522838544762243,-0.6583989858627319,0.6670202016830444,-0.3487047553062439,0.48969802260398865,-0.14723215997219086,0.3301182687282562
4.223297834396362,0.24795812368392944,-0.2905641198158264,0.008907675743103027,-0.7312794634591742,-1.0743090403458442,1.368339608115757,-0.6544522643089294,0.667822539806366,-0.3545495867729187,0.5573224425315857,-0.04180773347616196,0.22964134812355042
4.243160963058472,0.23128753900527954,-0.3226199150085449,0.02532300353050232,-0.7290636495782712,-1.0666454252609163,1.3846477253975578,-0.6530098915100098,0.6661716103553772,-0.3602685034275055,0.5757988691329956,-0.2885659337043762,0.18542282283306122
4.263097047805786,0.18265902996063232,-0.3786531090736389,0.14249011874198914,-0.7291698625145401,-1.0660165360611007,1.3974620300661855,-0.6527212262153625,0.6662508249282837,-0.3606448471546173,0.3461553454399109,-0.5379236340522766,0.24899537861347198
4.283008813858032,-0.2742956280708313,-0.3152352571487427,0.1126776933670044,-0.7399614624677608,-1.0555174876845972,1.3948034883561045,-0.6426050066947937,0.6742594242095947,-0.36391350626945496,-2.240342855453491,2.903630256652832,1.0524306297302246
4.303010940551758,-1.5338282585144043,0.11942905187606812,-1.5561472177505493,-0.7680503521223946,-1.0437057648308867,1.394687649791631,-0.6216435432434082,0.6947342157363892,-0.36180612444877625,0.3742063641548157,-0.5111106634140015,-0.5258378386497498
4.322951078414917,0.4460199475288391,0.5156753659248352,0.40060412883758545,-0.7353725412787449,-1.0425378828950327,1.388754024886306,-0.6404932141304016,0.6708634495735168,-0.3737789988517761,0.9002068042755127,0.26495417952537537,-0.21860353648662567
4.342646837234497,0.2953256368637085,-0.8933684229850769,0.28380024433135986,-0.7398485817133797,-1.021656193555008,1.4196697184393519,-0.6299814581871033,0.6741760969161987,-0.3854999542236328,0.06422186642885208,-0.2019704133272171,0.8902764916419983
4.362587928771973,-0.4223804473876953,-0.06752395629882812,0.19915729761123657,-0.7597916621894814,-1.0253840721943481,1.4068931436511807,-0.6197948455810547,0.6887704133987427,-0.376098096370697,-0.9995635151863098,0.8807596564292908,0.5830974578857422
4.382764101028442,-0.3940214514732361,0.3751705288887024,-0.3131456971168518,-0.7610251485079653,-1.009591826030475,1.4089254535789828,-0.6130586266517639,0.6896641254425049,-0.38538628816604614,0.6424840092658997,0.47189828753471375,-0.41729432344436646
4.4027698040008545,0.02388608455657959,-0.21728426218032837,0.06200152635574341,-0.7547878526697116,-0.996121043226604,1.4151709004058728,-0.6114104986190796,0.6851341724395752,-0.3959399461746216,0.06228284910321236,0.4968603551387787,0.23605409264564514
4.422452926635742,-0.0722082257270813,-0.4395742416381836,0.1093243956565857,-0.7629468785087411,-0.9910991937694373,1.4064309410396458,-0.6047174334526062,0.6910544633865356,-0.39593008160591125,-1.0225318670272827,0.6391767859458923,0.0328318290412426
4.442469835281372,-0.10212725400924683,-0.21944546699523926,0.06109216809272766,-0.7741031577210116,-0.9972993367929333,1.3772196011288491,-0.6006467342376709,0.6990750432014465,-0.38796576857566833,-1.2179447412490845,0.7907947897911072,-0.1580304354429245
4.462660074234009,-0.039534687995910645,-0.16877174377441406,0.06431785225868225,-0.7837741443468642,-1.002165231051479,1.3464034721283809,-0.5968025326728821,0.7059574723243713,-0.3813800513744354,-1.2005589008331299,0.9053690433502197,-0.27546775341033936
4.4827659130096436,-0.029770731925964355,-0.11994153261184692,0.04046425223350525,-0.7896051329406143,-1.0102603353891342,1.3083852695730527,-0.5963736176490784,0.710075318813324,-0.37434160709381104,-1.2969739437103271,0.9808182716369629,-0.6313344240188599
4.5022289752960205,0.10869735479354858,-0.1785542368888855,-0.1357162892818451,-0.7909982051951524,-1.0180477995059896,1.2699381005129007,-0.5984281301498413,0.7110555171966553,-0.3691663146018982,-1.0897952318191528,0.9190765023231506,-0.6486966609954834
4.522269010543823,0.25437623262405396,-0.3770885467529297,-0.29771238565444946,-0.7898735866368675,-1.027015702201213,1.2342475954504784,-0.602398693561554,0.710264265537262,-0.3641984462738037,-1.0713167190551758,0.7573509216308594,-0.8132614493370056
4.542281866073608,0.32476937770843506,-0.5557536482810974,-0.30718183517456055,-0.7868650702990883,-1.039066785807927,1.193789901724745,-0.6085828542709351,0.7081432938575745,-0.35799440741539,-1.2592723369598389,0.9519762992858887,-0.8632413744926453
4.5624659061431885,0.39855802059173584,-0.5797455310821533,-0.4111247658729553,-0.7842822314723673,-1.0521634765203123,1.147289532751123,-0.6148055791854858,0.7063172459602356,-0.35089901089668274,-1.3047441244125366,1.0331809520721436,-1.145527958869934
4.582047939300537,0.48596280813217163,-0.5944949984550476,-0.6259498596191406,-0.7700405387467952,-1.0561533202600286,1.1095876145073418,-0.6248940229415894,0.6961643695831299,-0.35335904359817505,-0.34621623158454895,1.0515124797821045,-1.1753134727478027
4.601841926574707,0.5260829925537109,-0.3801161050796509,-0.482460081577301,-0.7527649919432593,-1.0541764302208576,1.0831714515387787,-0.6345577836036682,0.6836592555046082,-0.36048105359077454,-0.3375699520111084,1.0408644676208496,-1.3728809356689453
4.622031927108765,0.4352845549583435,-0.21604591608047485,-0.43848690390586853,-0.7345514010738097,-1.0497326070933015,1.0589389517198302,-0.6436432600021362,0.6702542901039124,-0.36943522095680237,-0.3454780876636505,1.0241326093673706,-1.0872951745986938
4.640920877456665,0.35155385732650757,-0.040403664112091064,-0.44071418046951294,-0.7199079702909486,-1.0432987737416606,1.0388691499707394,-0.6496648788452148,0.6593154668807983,-0.3784690201282501,-0.30026063323020935,0.9884900450706482,-0.9579498171806335
4.661242961883545,0.256957471370697,0.01226121187210083,-0.31142890453338623,-0.7062409766478507,-1.0369292248025659,1.018133471017065,-0.6549372673034668,0.6489784717559814,-0.38714882731437683,-0.3436312973499298,0.9899420142173767,-1.061739206314087
4.680877923965454,0.22159385681152344,0.009553968906402588,-0.21438241004943848,-0.6882557300129167,-1.0294790454112093,0.999236742236949,-0.6619320511817932,0.6351909637451172,-0.3979678750038147,0.11468631774187088,0.9702585339546204,-1.18873929977417
4.701627016067505,0.2065582275390625,0.06700056791305542,-0.08538538217544556,-0.6643499402828534,-1.013488437848146,0.9939720287980429,-0.6681824326515198,0.6165474653244019,-0.4164149761199951,0.6643614172935486,0.9349994659423828,-1.1181670427322388
4.721611976623535,0.14575481414794922,0.046494483947753906,0.08774203062057495,-0.6354257211446325,-0.9959117684706129,0.9928384321088778,-0.6754484176635742,0.5935202240943909,-0.43761059641838074,0.7495107650756836,0.9052014350891113,-1.3447065353393555
4.741564035415649,0.1768081784248352,-0.042082130908966064,0.2093026340007782,-0.6058258857286604,-0.9815070319597082,0.9882077804003025,-0.6833847761154175,0.5694411993026733,-0.4568610191345215,0.6462185382843018,0.7812075018882751,-1.3634463548660278
4.7630109786987305,0.21348100900650024,-0.0021070241928100586,0.16892701387405396,-0.5709203486735948,-0.9670752793937641,0.9892040014424008,-0.692668080329895,0.5404066443443298,-0.477673202753067,1.4588242769241333,0.5973644256591797,-1.4834439754486084
4.781989812850952,0.3102394938468933,0.0012131333351135254,0.4087916612625122,-0.5231671736399074,-0.9505537676304405,0.9986451514147492,-0.7048928737640381,0.49962618947029114,-0.5034875273704529,1.8019682168960571,0.5799887180328369,-2.033987283706665
4.801594972610474,0.474554181098938,-0.2962726354598999,0.4257752299308777,-0.46820674724367495,-0.946231042929552,0.9977999322156471,-0.7239133715629578,0.45128676295280457,-0.5218138694763184,1.3515516519546509,-0.3388504087924957,-2.393091917037964
4.822268962860107,0.3882881999015808,-0.33016905188560486,0.02331298589706421,-0.41332502147028216,-0.9722583046198335,0.9905677494888082,-0.7565896511077881,0.4016565680503845,-0.5159886479377747,1.3173940181732178,-1.8887876272201538,-2.5358388423919678
4.841331958770752,0.034571945667266846,0.02280905842781067,-0.04815942049026489,-0.3532025407688401,-1.0206906008260874,0.9765694518345583,-0.7998461723327637,0.3459044098854065,-0.49050623178482056,0.886430025100708,-2.3055436611175537,-3.3189139366149902
4.861289024353027,-0.1483440399169922,-0.006936013698577881,0.0052721500396728516,-0.28219682457008877,-1.073046231741556,0.9525073690974744,-0.8439045548439026,0.27846625447273254,-0.458564817905426,0.8048914074897766,-2.1362979412078857,-3.8236382007598877
4.881274938583374,-0.29715442657470703,0.05191373825073242,0.061848342418670654,-0.20972165659749195,-1.1165824127194928,0.935821268942409,-0.8789168000221252,0.20818766951560974,-0.42914247512817383,1.0415257215499878,-1.798340082168579,-3.359395980834961
4.901625871658325,-0.7973292469978333,0.24537810683250427,0.003255605697631836,-0.13941149363541092,-1.1482193094023483,0.9287337268411864,-0.903186559677124,0.1389603465795517,-0.4061332643032074,1.1843551397323608,-1.1772645711898804,-3.3963003158569336
4.92098593711853,-0.9901202321052551,0.338980108499527,-0.02202659845352173,-0.07362307978583318,-1.167327487876025,0.9138715956173954,-0.9172133207321167,0.07355658710002899,-0.3915475010871887,0.04452929645776749,-0.6298837065696716,-3.0850636959075928
4.940861940383911,-0.5733246803283691,0.23121851682662964,0.1135830283164978,-0.037497601068462894,-1.1743945916396394,0.8803738635651717,-0.9218078255653381,0.03748881444334984,-0.38583019375801086,-1.8861809968948364,0.1077403873205185,-1.4155433177947998
4.961143970489502,-0.40574073791503906,0.40898072719573975,0.1012425422668457,-0.04350190488367728,-1.1645990037335643,0.8297546208896353,-0.917760968208313,0.04348818585276604,-0.3947451710700989,-2.5150370597839355,1.0807510614395142,-0.16062882542610168
4.980993032455444,-0.12075114250183105,0.9248533844947815,-0.02078959345817566,-0.060657508752220445,-1.1383105870480679,0.802965175874292,-0.9062569737434387,0.06062031909823418,-0.4183581471443176,-0.37767520546913147,1.4702341556549072,0.6255034804344177
5.000837087631226,0.09151577949523926,0.7864089012145996,-0.10214793682098389,-0.06757013911733122,-1.1103793201112773,0.8248479888280791,-0.893822968006134,0.06751873344182968,-0.4433078169822693,1.8232595920562744,1.142616868019104,0.8253158926963806
5.020458936691284,-0.1987197995185852,0.04012170061469078,0.09842890501022339,-0.056939767834094004,-1.0888739453254823,0.8696276842129267,-0.8846695423126221,0.05690900608897209,-0.46273234486579895,2.4016945362091064,0.8600401878356934,0.23375411331653595
5.040684938430786,-0.30267876386642456,-0.35712510347366333,0.30963778495788574,-0.04271555354423385,-1.064111011104705,0.9006935331577557,-0.87356036901474,0.0427025631070137,-0.4848390519618988,0.7627223134040833,1.4394950866699219,0.00812319666147232
5.060588121414185,-0.13401472568511963,-0.35322222113609314,0.24176472425460815,-0.04322290552822977,-1.0357156194772896,0.8978228853308627,-0.8594239950180054,0.04320944845676422,-0.5094342231750488,-0.9822751879692078,1.3576840162277222,-0.026194412261247635
5.080794095993042,-0.03783947229385376,-0.03909419849514961,0.1398797631263733,-0.05835343802441147,-1.0173031858830537,0.8746385829562712,-0.849245548248291,0.05832032859325409,-0.5247673392295837,-1.5516383647918701,0.581284761428833,0.12576605379581451
5.100430965423584,-0.24034667015075684,0.19828540086746216,0.16279935836791992,-0.07487112351503032,-1.0090269968007486,0.8550166480968623,-0.8439429402351379,0.07480119168758392,-0.5311921238899231,-0.8748458623886108,0.5242910981178284,0.28298723697662354
5.121888875961304,-0.4466645121574402,0.1473797857761383,0.2834681272506714,-0.08727386631684896,-0.9941482260983828,0.8530376743584165,-0.8351043462753296,0.08716312050819397,-0.5431420803070068,0.15148892998695374,1.0534788370132446,0.5600389838218689
5.140655994415283,-0.3954553008079529,0.02709583193063736,0.3028159737586975,-0.09019873190524229,-0.9691737948705116,0.8719602962871371,-0.8210670351982117,0.09007647633552551,-0.563680112361908,1.2657736539840698,1.197421669960022,0.8710904717445374
5.160268068313599,-0.36819469928741455,-0.15718288719654083,0.36885541677474976,-0.0882820724866263,-0.9551961553977816,0.9055899443779637,-0.8132476210594177,0.08816744387149811,-0.5751999020576477,1.2928510904312134,-0.049177058041095734,0.9061571359634399
5.180158853530884,-0.4838372468948364,-0.4609526991844177,0.7456636428833008,-0.09971350641599426,-0.9558513260829213,0.9269371299313118,-0.8127478957176208,0.0995483472943306,-0.5740479230880737,-0.2651876211166382,-0.02407880313694477,1.1765800714492798
5.2002880573272705,-0.6642589569091797,-0.5108863711357117,0.5751336216926575,-0.12341260291538582,-0.9491169884099735,0.9332278430996069,-0.8067188858985901,0.12309956550598145,-0.5779715180397034,-0.28553739190101624,0.6314277648925781,1.1972907781600952
5.220006942749023,-0.4836941361427307,0.0023256242275238037,0.2630666494369507,-0.14350648594430454,-0.9343890003780769,0.9520303168717384,-0.7959690690040588,0.14301443099975586,-0.5882008075714111,0.49862203001976013,0.4814889430999756,1.5564481019973755
5.240343809127808,-0.5449848175048828,0.05702318251132965,0.10664618015289307,-0.16500761987105367,-0.9236229909584386,0.9833620699975737,-0.786954939365387,0.16425985097885132,-0.5947441458702087,0.7368766069412231,0.09977629780769348,1.91646146774292
5.260038137435913,-0.8652145266532898,0.01107814908027649,0.2467637062072754,-0.19029415494125546,-0.9113274195625162,1.0204828577732625,-0.77605140209198,0.18914775550365448,-0.6016371846199036,0.4642857611179352,0.5552180409431458,2.3992693424224854
5.280038118362427,-0.9965843558311462,0.07237838208675385,0.2396579384803772,-0.22836860107433962,-0.8937637790344369,1.053837776173724,-0.7591987252235413,0.22638878226280212,-0.6102174520492554,-0.2515065670013428,0.38485923409461975,2.514152765274048
5.299983024597168,-0.9166663289070129,0.17131301760673523,0.1992846131324768,-0.27485309017355286,-0.8798294829590987,1.0796237299703746,-0.7417046427726746,0.27140554785728455,-0.613362193107605,-0.6914094686508179,0.374339759349823,2.630317449569702
5.320600986480713,-0.8104264140129089,0.18298029899597168,0.10942333936691284,-0.3211861269973883,-0.8661038291115933,1.101944860169687,-0.7228530645370483,0.3156922459602356,-0.6146721839904785,-0.6430114507675171,0.3453490436077118,2.355924606323242
5.3399739265441895,-0.5484083890914917,0.2307872474193573,-0.025231540203094482,-0.36087225668772166,-0.8558744633239471,1.1277812361976003,-0.7065050601959229,0.35309043526649475,-0.6133334040641785,-0.23903827369213104,-0.14151887595653534,2.255986452102661
5.35998797416687,-0.5409443378448486,0.22169741988182068,0.02976083755493164,-0.3987896948125398,-0.8507335466102608,1.153061218417845,-0.6927746534347534,0.388303279876709,-0.6076873540878296,-0.5655118823051453,-0.23320405185222626,2.1860969066619873
5.379990816116333,-0.5158582925796509,0.15902402997016907,0.09712117910385132,-0.4434236501118883,-0.8479674636219545,1.1680435889770373,-0.6774095296859741,0.4290345013141632,-0.5975329875946045,-1.3640495538711548,-0.09557473659515381,2.055579900741577
5.400007963180542,-0.3146672248840332,0.25590476393699646,0.04566836357116699,-0.4890852814131704,-0.8501134874144255,1.170913634944054,-0.6632686257362366,0.4698185920715332,-0.5825334191322327,-1.1590147018432617,-0.32294318079948425,1.6044539213180542
5.419989824295044,-0.07960116863250732,0.38494765758514404,-0.07602798938751221,-0.5209944255475618,-0.856414187807617,1.1833276813273035,-0.6552622318267822,0.4977428615093231,-0.5682284235954285,-0.45338985323905945,-0.8253442049026489,1.4673073291778564
5.441184997558594,-0.1067247986793518,0.103451669216156,0.016848742961883545,-0.5494696945144135,-0.8709981018966529,1.1899474741017795,-0.652369499206543,0.5222350358963013,-0.5492582321166992,-0.9703187346458435,-0.8686962723731995,1.1913281679153442
5.460036993026733,0.014760136604309082,0.05497664213180542,0.049427151679992676,-0.5836667163333435,-0.8907294948954037,1.1835229160962497,-0.6488086581230164,0.5510873198509216,-0.5247382521629333,-1.4838511943817139,-0.8305447101593018,1.0387822389602661
5.480077028274536,0.1681891679763794,0.15889334678649902,-0.033311545848846436,-0.6150787334293966,-0.9191001808203569,1.1701503644709546,-0.6493445634841919,0.5770228505134583,-0.49537473917007446,-1.2572821378707886,-1.2515215873718262,0.7563967704772949
5.49999213218689,0.2506065368652344,0.09056907892227173,0.08115869760513306,-0.6404884581903573,-0.952989437808902,1.1555450766636415,-0.6535912156105042,0.5975871682167053,-0.4644440710544586,-1.249483585357666,-1.2941974401474,0.5698168277740479
5.52000093460083,0.3197486996650696,-0.05175888538360596,0.10706222057342529,-0.6617752939841692,-0.9938975793960935,1.1340916942402484,-0.6612251996994019,0.6145183444023132,-0.43028897047042847,-1.3181076049804688,-1.4681414365768433,0.28878167271614075
5.539992094039917,0.3452565670013428,-0.008230328559875488,-0.008597373962402344,-0.68005513189192,-1.0404045350094449,1.1095041905208805,-0.67071133852005,0.628835916519165,-0.3933342397212982,-1.2368358373641968,-1.6762884855270386,0.21195924282073975
5.56011700630188,0.3004356026649475,0.07756298780441284,-0.10160356760025024,-0.6962032775764814,-1.0914486495204605,1.0831111901591899,-0.6808067560195923,0.6413091421127319,-0.35387107729911804,-1.2939560413360596,-1.7244168519973755,0.2393609583377838
5.5800700187683105,0.2782580256462097,0.1627415418624878,-0.20031791925430298,-0.7123362904599931,-1.1444943657572288,1.0529282048773225,-0.689100980758667,0.653603732585907,-0.3129570782184601,-1.5594089031219482,-1.5834180116653442,0.2399885654449463
5.600045919418335,0.3642260432243347,0.09220027923583984,-0.28750213980674744,-0.7323697008203067,-1.1998721092748987,1.0130166139265782,-0.6930225491523743,0.6686335802078247,-0.26953503489494324,-1.8789716958999634,-1.3780806064605713,0.4377301335334778
5.620167016983032,0.4399793744087219,0.19835597276687622,-0.39749300479888916,-0.7527493774066335,-1.2554514127420084,0.9714157056742494,-0.6938246488571167,0.683647871017456,-0.22634711861610413,-1.7012983560562134,-1.3140853643417358,0.4508243799209595
5.640092134475708,0.42377769947052,0.16662448644638062,-0.5244824886322021,-0.7693877127795797,-1.303382797806976,0.9377312293483552,-0.6928054690361023,0.6956955194473267,-0.18981175124645233,-1.1266156435012817,-1.1443989276885986,0.4177934527397156
5.660108804702759,0.438373863697052,0.0862472653388977,-0.4934988021850586,-0.783021907328835,-1.3399056322371519,0.9130457650159416,-0.6899760365486145,0.7054245471954346,-0.1622016876935959,-0.9098402261734009,-0.8285248875617981,0.4739067852497101
5.680101156234741,0.44453340768814087,-0.018104195594787598,-0.42829418182373047,-0.7965420425078423,-1.3711984727622832,0.8904855481462916,-0.6853018403053284,0.7149426341056824,-0.138630673289299,-0.9683571457862854,-0.6829144954681396,0.5219345688819885
5.700042009353638,0.37939590215682983,-0.01752793788909912,-0.4460721015930176,-0.810195480206391,-1.3982818272474504,0.8705339401677205,-0.6791242957115173,0.7244219183921814,-0.11833506077528,-0.5908905863761902,-0.605056643486023,0.5353094935417175
5.720111131668091,0.3091052174568176,0.007604658603668213,-0.4143673777580261,-0.8214829664988321,-1.4150334777425726,0.8618705216220616,-0.6728900074958801,0.7321567535400391,-0.10566721856594086,-0.1689029484987259,-0.4333716928958893,0.4381520748138428
5.7399938106536865,0.28750503063201904,-0.08742940425872803,-0.4148966073989868,-0.8300159115718446,-1.4224198472961158,0.8652892926318467,-0.6674488186836243,0.737942099571228,-0.09976692497730255,0.17848052084445953,-0.48351484537124634,0.4392571747303009
5.760042905807495,0.23651784658432007,-0.1573520302772522,-0.29984891414642334,-0.839047135953814,-1.4230757079643845,0.8745150834179826,-0.6608953475952148,0.7440067529678345,-0.09834424406290054,0.29451075196266174,-0.3452000916004181,0.46352532505989075
5.779994964599609,0.18864500522613525,-0.15826475620269775,-0.2712898254394531,-0.8460815004597443,-1.4202758833372147,0.8874430298455079,-0.6554266810417175,0.7486885190010071,-0.09940698742866516,0.48051026463508606,-0.34723448753356934,0.38863250613212585
5.7999818325042725,0.15001022815704346,-0.1362578272819519,-0.2194364070892334,-0.8513624966480458,-1.4138972945936603,0.906759880826429,-0.6508647203445435,0.7521789073944092,-0.10296635329723358,0.6992552280426025,-0.4564395248889923,0.3390318751335144
5.819996118545532,0.08734506368637085,-0.07674533128738403,-0.00721915066242218,-0.8566998702874292,-1.4009556597807808,0.9274626810961438,-0.6455116271972656,0.7556853294372559,-0.1107005923986435,-0.540526807308197,0.8757861852645874,0.563129186630249
5.840083837509155,-0.7711309790611267,-0.37629878520965576,-1.1463123559951782,-0.8788029171819067,-1.37914531167443,0.9444527273490185,-0.6263909339904785,0.7699756026268005,-0.12154017388820648,1.027318000793457,-0.14498694241046906,1.350917100906372
5.859992980957031,0.10859006643295288,1.0057933330535889,0.08773243427276611,-0.8882843909956514,-1.3736259195493006,0.9528872019635659,-0.6185235381126404,0.7759907841682434,-0.12355988472700119,0.738110363483429,-0.3861553370952606,0.08828597515821457
5.879990816116333,0.12739628553390503,0.09412258863449097,-0.1513712853193283,-0.8906890188531684,-1.3381828580884227,1.0116623122899282,-0.6119390726089478,0.7775052189826965,-0.14496946334838867,1.9962096214294434,-0.33964547514915466,0.9074140191078186
5.8999950885772705,0.04435461759567261,-0.11174190044403076,0.0836285948753357,-0.9023110012335892,-1.3026788979059511,1.0641718575191892,-0.5976535677909851,0.784761369228363,-0.16419480741024017,1.019763708114624,-0.206883504986763,0.9917097687721252
5.919230937957764,-0.13960224390029907,0.03200453519821167,-0.09276914596557617,-0.9155299924011902,-1.2755772943327466,1.1008899151248919,-0.5830081701278687,0.7928856611251831,-0.1772959977388382,0.912162184715271,-0.05424806848168373,0.8507625460624695
5.939990997314453,-0.05262768268585205,0.16962486505508423,-0.1031418889760971,-0.922343908822657,-1.2455827311410124,1.1413251326697214,-0.5722959637641907,0.7970194220542908,-0.19296996295452118,1.1754614114761353,-0.17831525206565857,0.6092343330383301
5.9599997997283936,0.0015485882759094238,0.1025802493095398,0.006823241710662842,-0.9253524021386105,-1.210815036134847,1.1875877246721895,-0.5629957318305969,0.7988327741622925,-0.21190117299556732,1.276757001876831,-0.03601118549704552,0.6175366640090942
5.979996919631958,-0.09360074996948242,0.2147793173789978,-0.012146025896072388,-0.9260865766335311,-1.1760346216975637,1.2339070722908512,-0.5547452569007874,0.799274206161499,-0.23112471401691437,1.2650656700134277,-0.1467459499835968,0.39610326290130615
5.9999940395355225,-0.19100481271743774,0.0970194935798645,0.07830056548118591,-0.9200802359528951,-1.1383506004067174,1.2802427888146972,-0.5499924421310425,0.7956502437591553,-0.2538679838180542,1.5598233938217163,0.22328251600265503,0.27563050389289856
6.019992113113403,-0.13340091705322266,-0.03682488203048706,0.0952732264995575,-0.912950295091876,-1.0949138857790486,1.328004604686582,-0.5434789061546326,0.7913110256195068,-0.28010275959968567,1.3673052787780762,0.3022020161151886,0.30853891372680664
6.039989948272705,-0.12975949048995972,-0.043461501598358154,0.023766785860061646,-0.9058687216934347,-1.0546451341947543,1.3717434896204008,-0.5366224050521851,0.7869614362716675,-0.3045130670070648,1.3180766105651855,0.31601274013519287,0.35283270478248596
6.059993028640747,-0.18445396423339844,-0.065216064453125,0.047482699155807495,-0.8973261098378986,-1.0149603767071478,1.4121772586839214,-0.5298098921775818,0.7816619873046875,-0.32909873127937317,1.2917146682739258,0.4729689657688141,0.16842146217823029
6.079992055892944,-0.115669846534729,-0.12841808795928955,0.11199373006820679,-0.8858611608705809,-0.9764323936917717,1.4478218263479654,-0.524131178855896,0.7744600772857666,-0.35425737500190735,1.2160661220550537,0.624260663986206,0.11524078249931335
6.100039958953857,-0.06345784664154053,-0.14982640743255615,0.14758595824241638,-0.8732473639034115,-0.9374622682235936,1.4800635638341104,-0.5177646279335022,0.7664188742637634,-0.38016021251678467,1.196921467781067,0.808730959892273,0.032321155071258545
6.119995832443237,-0.03039497137069702,-0.06668132543563843,0.16914036870002747,-0.8614058379030335,-0.8969965804733676,1.5071395324397259,-0.5090184211730957,0.7587590217590332,-0.40642961859703064,0.861307680606842,1.1147199869155884,0.04197484254837036
6.139992952346802,0.018367409706115723,-0.08770334720611572,0.14502251148223877,-0.8498803010842969,-0.862112532106353,1.5245398381574033,-0.5011402368545532,0.7512013912200928,-0.42959877848625183,0.7754959464073181,1.087780237197876,-0.10863357037305832
6.159992933273315,0.07704710960388184,-0.12020927667617798,0.15049898624420166,-0.8404142092361242,-0.8300697652599192,1.5385408555496172,-0.49234557151794434,0.7449195384979248,-0.4502120018005371,0.6007537245750427,1.0197585821151733,-0.03212349861860275
6.179991960525513,0.08539289236068726,-0.0826500654220581,0.05924198031425476,-0.8307121810059158,-0.8026123687300776,1.551286726183003,-0.48497477173805237,0.7384118437767029,-0.46855881810188293,0.6913316249847412,0.790056586265564,-0.08033964782953262
6.199991941452026,0.047126948833465576,-0.0479547381401062,0.12163656949996948,-0.8197629254762973,-0.7783928461307849,1.5627675545255997,-0.4791337847709656,0.730984091758728,-0.48589423298835754,0.596157431602478,0.8211939930915833,-0.18228447437286377
6.2199928760528564,-0.03911784291267395,-0.1534954309463501,0.1379481554031372,-0.8084654280188555,-0.7585668237572986,1.5674810532719146,-0.47505757212638855,0.7232282161712646,-0.5012597441673279,0.512982964515686,0.8105404376983643,-0.3208381235599518
6.240031957626343,-0.07213178277015686,-0.14174741506576538,0.1161649227142334,-0.7976575162581724,-0.7385819008421975,1.5717895924483303,-0.47018083930015564,0.7157220840454102,-0.5164027810096741,0.3992805480957031,0.9123084545135498,-0.24391455948352814
6.260013818740845,-0.08109381794929504,-0.13526242971420288,0.1408909559249878,-0.7858215561026113,-0.719450517190388,1.5695263439864466,-0.46576592326164246,0.7074061036109924,-0.5316379070281982,0.3840777277946472,1.0774846076965332,-0.6245508193969727
6.280035018920898,-0.04812979698181152,-0.24726742506027222,0.1167299747467041,-0.7730653375915452,-0.7036626055196235,1.5617808397788853,-0.463115930557251,0.6983326077461243,-0.5457611680030823,0.1562855988740921,1.098315715789795,-0.7084548473358154
6.299997091293335,-0.16035425662994385,-0.30725938081741333,0.08699309825897217,-0.761335627693413,-0.6967172797539957,1.5432872930823955,-0.46453896164894104,0.6898889541625977,-0.5552089214324951,-0.17373402416706085,0.8967102766036987,-1.0320249795913696
6.319999933242798,-0.2690015435218811,-0.30072498321533203,0.06275385618209839,-0.7501551617287124,-0.6982744694728548,1.5142051750957952,-0.4703325629234314,0.6817522644996643,-0.5603580474853516,-0.26245275139808655,0.8335043787956238,-1.2083200216293335
6.340000867843628,-0.17717719078063965,-0.3313872218132019,0.09361827373504639,-0.7416060437852586,-0.7001229224866939,1.4886813818189044,-0.47510555386543274,0.6754730343818665,-0.5639244914054871,-0.32560232281684875,0.572265088558197,-0.6522666215896606
6.359992980957031,-0.17528358101844788,-0.34175705909729004,0.12453746795654297,-0.7387869954361994,-0.6936582899514847,1.4781791966050806,-0.4726656377315521,0.6733916401863098,-0.5684459209442139,-0.00409013032913208,0.9654080271720886,-0.6256734728813171
6.3799920082092285,-0.1898273527622223,-0.28992265462875366,0.18946146965026855,-0.7255532827714631,-0.6896907929643962,1.4533473420816565,-0.4760357141494751,0.6635494828224182,-0.5771414041519165,-0.1172410249710083,0.9751734733581543,-1.4568947553634644
6.400032997131348,-0.09700071811676025,-0.1392383575439453,0.1992005705833435,-0.7102123113239015,-0.6945444933036504,1.4155440365560266,-0.48528993129730225,0.6519947648048401,-0.5825774669647217,-0.47835102677345276,1.0528790950775146,-1.8815288543701172
6.4200029373168945,-0.10753506422042847,-0.340315580368042,0.13401633501052856,-0.6888297872472747,-0.707663203419445,1.3624367462860372,-0.5018399357795715,0.6356342434883118,-0.5866222977638245,-0.5609229803085327,1.0591784715652466,-2.3701260089874268
6.439993143081665,-0.09730511903762817,-0.2960803508758545,0.10338175296783447,-0.6738407248768964,-0.720330003850241,1.308677791569164,-0.5154573321342468,0.623991847038269,-0.5873141288757324,-1.0255887508392334,1.0843417644500732,-1.8069788217544556
6.460011959075928,-0.199660062789917,-0.11857891082763672,0.038773298263549805,-0.6647596540424867,-0.7281339106969659,1.2572388340750453,-0.5237743854522705,0.6168699860572815,-0.5874791741371155,-0.9767065644264221,1.3701096773147583,-1.8744564056396484
6.480065107345581,-0.13727253675460815,-0.14155519008636475,0.1493992805480957,-0.6551944989255274,-0.7300658177292166,1.204766823968217,-0.5288194417953491,0.6093134880065918,-0.5908359289169312,-1.0484274625778198,1.6494239568710327,-1.7579703330993652
6.499990940093994,-0.09247255325317383,-0.1919073462486267,0.2988762855529785,-0.6557310596609035,-0.7245325404063184,1.1548252594441752,-0.5253254175186157,0.609738826751709,-0.5935081243515015,-1.8323527574539185,1.959334373474121,-1.2367844581604004
6.519990921020508,-0.17725712060928345,-0.22988653182983398,0.38353604078292847,-0.6740735616034175,-0.7231281412826301,1.088679631342526,-0.5170026421546936,0.6241737604141235,-0.5857606530189514,-2.989290952682495,2.2981832027435303,-1.544072151184082
6.540001153945923,-0.14957600831985474,-0.3586384057998657,0.47577375173568726,-0.7055448305153368,-0.731571407334725,0.9982584326676396,-0.5085508823394775,0.6484487056732178,-0.5664718151092529,-4.065610885620117,2.6110496520996094,-1.435801386833191
6.560033082962036,-0.11129409074783325,-0.2182140350341797,0.5504601001739502,-0.7546606786228591,-0.7489010343084603,0.8901214940701231,-0.4959905445575714,0.6850414872169495,-0.5335837602615356,-4.747722625732422,2.883333683013916,-1.3666239976882935
6.579993009567261,-0.18300393223762512,0.07912534475326538,0.323652982711792,-0.793164408908635,-0.7666004716002279,0.7789889075309933,-0.48668918013572693,0.7125769853591919,-0.5053392052650452,-3.287402629852295,3.066257953643799,-1.7052805423736572
6.599991083145142,-0.14528021216392517,0.44480252265930176,0.10855579376220703,-0.80141975040344,-0.7683002638567329,0.695415162640011,-0.4834430515766144,0.718344509601593,-0.500264048576355,-1.3171340227127075,2.7624130249023438,-1.8819067478179932
6.620023012161255,-0.08727315068244934,0.2774088382720947,0.10165143013000488,-0.7863218724391825,-0.7517097515457917,0.6438277086865931,-0.4824291169643402,0.7077596187591553,-0.5160800218582153,-0.40941861271858215,2.5809497833251953,-1.7578599452972412
6.639991998672485,-0.04830607771873474,0.07816386222839355,0.2715364098548889,-0.7738230393965966,-0.7373306311843467,0.5931518863898122,-0.4808688759803772,0.6988747715950012,-0.5294708609580994,-1.297019362449646,2.47952938079834,-1.772501826286316
6.659986972808838,0.01383906602859497,0.019222915172576904,0.3146800994873047,-0.7785005254436588,-0.7381451478560594,0.5217588179068,-0.479094922542572,0.7022126317024231,-0.5266550779342651,-2.4321136474609375,2.455451250076294,-1.6811127662658691
6.6799938678741455,0.03529837727546692,0.05688363313674927,0.2638011574745178,-0.796838670294277,-0.7501783196353902,0.4347251636574505,-0.47653689980506897,0.715149998664856,-0.511344313621521,-3.0392258167266846,2.5386569499969482,-1.587177038192749
6.700089931488037,0.04381841421127319,0.05763113498687744,0.22127169370651245,-0.8224570836070737,-0.7685799041849506,0.33831548349375967,-0.47297200560569763,0.7328199148178101,-0.4891548454761505,-3.3762869834899902,2.617933750152588,-1.4792927503585815
6.71999192237854,0.05634918808937073,0.08025097846984863,0.0831725001335144,-0.8518227758813741,-0.7904623517766741,0.23880695882024308,-0.46806201338768005,0.7524821758270264,-0.46334514021873474,-3.345313310623169,2.5393807888031006,-1.2119369506835938
6.740001916885376,0.04879602789878845,0.23721599578857422,-0.07632818818092346,-0.875954575797865,-0.8072930778520541,0.1524363913711925,-0.4625382423400879,0.768155038356781,-0.4427146315574646,-2.338543653488159,2.3449556827545166,-1.0234153270721436
6.760020971298218,0.04857859015464783,0.28145450353622437,-0.08490419387817383,-0.8865508554245951,-0.81204623561462,0.08759161590029485,-0.45870447158813477,0.7748962044715881,-0.4348863661289215,-1.500006914138794,2.2068302631378174,-0.9721733927726746
6.7799928188323975,0.05061492323875427,0.07767564058303833,-0.15112486481666565,-0.8951625520056677,-0.8194135305655388,0.02774855149943263,-0.4570024013519287,0.7803107500076294,-0.4269237220287323,-1.9133532047271729,1.7146050930023193,-1.0024025440216064
6.799991846084595,0.03549638390541077,-0.12243050336837769,-0.11203104257583618,-0.910166219400172,-0.8425123118599209,-0.04288187537422501,-0.4579513669013977,0.7896057367324829,-0.40841567516326904,-2.349714994430542,1.566706895828247,-0.8384674191474915
6.820035934448242,0.039534181356430054,0.046731770038604736,0.02626436948776245,-0.9294239019752569,-0.8745072313086405,-0.12172932778698303,-0.459028959274292,0.801275372505188,-0.3837319314479828,-2.407472610473633,1.6268538236618042,-0.829616904258728
6.840000867843628,0.05005452036857605,0.11359870433807373,-0.053712546825408936,-0.946759646577146,-0.8957212478549332,-0.19451716097424357,-0.456152081489563,0.811526358127594,-0.3651717007160187,-2.163498640060425,2.0119683742523193,-0.5866072773933411
6.860016107559204,0.041461408138275146,-0.046528637409210205,-0.36638912558555603,-0.9587972993023807,-0.9110313757966338,-0.259130010959484,-0.4539371132850647,0.8185011744499207,-0.3521319031715393,-1.2041995525360107,1.812967300415039,-0.8191009759902954
6.880019903182983,0.1685796082019806,0.058018267154693604,-0.4079831838607788,-0.9608831412897975,-0.9144413801653151,-0.3030767430635483,-0.45378178358078003,0.8196977376937866,-0.3495393991470337,-0.8753370642662048,1.4076132774353027,-0.5091030597686768
6.899992942810059,0.10659918189048767,0.06643635034561157,-0.6334741115570068,-0.9579405816550364,-0.9054068421992515,-0.32492070124850625,-0.4525007903575897,0.8180087208747864,-0.3551122546195984,-0.06388702243566513,1.365012526512146,-0.5866835713386536
6.919992923736572,0.07876044511795044,-0.06385457515716553,-0.36882784962654114,-0.9488930639637778,-0.8895808172433572,-0.34220670868078673,-0.4525551497936249,0.8127711415290833,-0.3668745756149292,-0.28185346722602844,1.6402126550674438,-0.6896189451217651
6.940004110336304,0.10491150617599487,-0.2232683300971985,-0.20211279392242432,-0.9450621140595198,-0.8848591871002595,-0.3759831036838392,-0.4532240331172943,0.810533344745636,-0.3709767758846283,-1.075149416923523,1.5584698915481567,-0.9710556864738464
6.959995985031128,0.14931288361549377,-0.23026812076568604,-0.04265314340591431,-0.9531245175843962,-0.9140548338949759,-0.44966386654562795,-0.4586697518825531,0.8152289986610413,-0.3535870611667633,-2.736999034881592,1.49481201171875,-0.9333674311637878
6.980001926422119,0.1758994460105896,-0.10521054267883301,-0.09127315878868103,-0.9742339508254585,-0.9644917722333132,-0.5414621459036844,-0.4616662561893463,0.8272717595100403,-0.32013434171676636,-2.540454626083374,0.9805015325546265,-0.47022831439971924
6.999995946884155,0.11089533567428589,0.1849050521850586,-0.13947904109954834,-0.9892290665344087,-1.0042661843680136,-0.6115925951563361,-0.4635108411312103,0.8356027007102966,-0.2948318123817444,-1.3279021978378296,0.9523288011550903,-0.5512983798980713
7.019992113113403,0.0679563581943512,0.16409927606582642,-0.1559581756591797,-0.9822255311877748,-1.010032381525661,-0.6367928754464027,-0.4701476991176605,0.8317349553108215,-0.2952594459056854,0.31859874725341797,0.49245911836624146,-0.7418526411056519
7.039987802505493,0.09114161133766174,0.056882619857788086,-0.018282413482666016,-0.963135835050352,-1.0010482413214032,-0.6341242916997063,-0.4807596802711487,0.8209859728813171,-0.3079809844493866,0.7507687211036682,0.2519811987876892,-0.7717448472976685
7.060003995895386,0.06796270608901978,0.07422596216201782,0.07208335399627686,-0.9433813300430334,-0.9892160151430506,-0.625261731820098,-0.4905397593975067,0.8095477223396301,-0.3224952816963196,0.6749920845031738,0.2622811496257782,-0.568633496761322
7.079519033432007,-0.055134207010269165,0.13420534133911133,0.07549715042114258,-0.9288969175486967,-0.9784475095006928,-0.6207631589711935,-0.4967153072357178,0.8009600043296814,-0.3342709243297577,0.3165521025657654,0.4876408576965332,-0.5372712016105652
7.099977970123291,-0.08373820781707764,0.08894538879394531,0.12201258540153503,-0.9194289921173336,-0.9738003364380058,-0.629964266223931,-0.5014059543609619,0.7952555418014526,-0.34082359075546265,-0.2615205943584442,0.6837018132209778,-0.5606702566146851
7.120048999786377,-0.0594027042388916,0.08822065591812134,0.12195175886154175,-0.9148244743236154,-0.9776265389468981,-0.6531128221774505,-0.5057372450828552,0.7924555540084839,-0.34094592928886414,-0.6095288991928101,0.7505452632904053,-0.6259331107139587
7.1399970054626465,-0.055049777030944824,0.13133525848388672,0.14614874124526978,-0.9117893537230566,-0.9883540954179526,-0.6856986208326554,-0.511371910572052,0.7906006574630737,-0.3368225693702698,-0.8742574453353882,0.7623410224914551,-0.7317321300506592
7.159994840621948,-0.06200540065765381,0.11434334516525269,0.154911071062088,-0.9088443040376475,-1.0027213296886763,-0.7239077366918715,-0.518118679523468,0.7887939214706421,-0.3306923806667328,-0.9239080548286438,0.8297485709190369,-0.7731439471244812
7.179992914199829,-0.014354050159454346,0.08134746551513672,0.23086485266685486,-0.9063015512092508,-1.0133978612534167,-0.7609611985760736,-0.5233200192451477,0.7872284650802612,-0.32620173692703247,-0.9070438146591187,1.0388718843460083,-0.6172425150871277
7.1999969482421875,0.014601290225982666,0.0248258113861084,0.25297680497169495,-0.9075200018764263,-1.02279145277729,-0.7992545686586846,-0.5255419611930847,0.787979245185852,-0.32077160477638245,-1.1760467290878296,1.016810655593872,-0.5837568640708923
7.219990968704224,0.030051052570343018,-0.023723363876342773,0.2401096522808075,-0.9100449944124904,-1.0374728672895757,-0.8437037769137875,-0.5284795165061951,0.7895313501358032,-0.3120090961456299,-1.287293791770935,1.0097769498825073,-0.5837319493293762
7.240020036697388,0.029277384281158447,-0.0073642730712890625,0.19638478755950928,-0.9127322462887871,-1.0535007838499946,-0.8884716856923401,-0.531566321849823,0.7911776900291443,-0.30244866013526917,-1.1782423257827759,0.9367722272872925,-0.5898827910423279
7.260004997253418,0.02979755401611328,0.0018519759178161621,0.15827089548110962,-0.9119343041848422,-1.0679031107353272,-0.9292189853314414,-0.5364199876785278,0.7906894087791443,-0.2950659394264221,-0.9675647020339966,0.8533592224121094,-0.6912826299667358
7.279980897903442,0.044838011264801025,-0.010759353637695312,0.10981786251068115,-0.9087629361358741,-1.0800311310733783,-0.965261418705069,-0.5421678423881531,0.7887439131736755,-0.28971901535987854,-0.8579517602920532,0.7533568739891052,-0.6436458826065063
7.299930810928345,0.013830244541168213,-0.011831939220428467,0.12252205610275269,-0.9045124014180206,-1.0928302479842085,-0.9984791395320586,-0.5488035082817078,0.7861238718032837,-0.28429579734802246,-0.7749395966529846,0.6248683333396912,-0.6958980560302734
7.320008039474487,-0.06138277053833008,0.10538500547409058,0.11706799268722534,-0.8993711176735458,-1.1055788450967479,-1.031312659188007,-0.5559879541397095,0.7829358577728271,-0.2790858745574951,-0.7987183332443237,0.7236455678939819,-0.6790974140167236
7.340050935745239,-0.08997780084609985,0.14634007215499878,0.08692118525505066,-0.8954554395199195,-1.1143451510822053,-1.0637352449652147,-0.5611605644226074,0.7804939150810242,-0.27555036544799805,-0.8783425092697144,0.8901950716972351,-0.5710501074790955
7.359998941421509,-0.027161478996276855,0.12607747316360474,0.07966411113739014,-0.8941856232348543,-1.124425541281826,-1.0988692273119107,-0.5648033618927002,0.7796993851661682,-0.2703074514865875,-1.0213500261306763,0.8528139591217041,-0.49662595987319946
7.379992961883545,0.05074566602706909,0.1000514030456543,0.07342299818992615,-0.8948593852988341,-1.1367770111324502,-1.13532242141075,-0.5676219463348389,0.7801210880279541,-0.2630898058414459,-1.097941279411316,0.7513600587844849,-0.432151734828949
7.400085926055908,0.10739099979400635,0.02966088056564331,0.09665346145629883,-0.8968892179079285,-1.15296519640889,-1.1753186552605177,-0.5703580379486084,0.7813894152641296,-0.2532239556312561,-1.2453047037124634,0.7313751578330994,-0.4370645582675934
7.420001983642578,0.1451217532157898,-0.008228600025177002,0.04543748497962952,-0.8974306273647042,-1.1736525419034531,-1.2182101071794904,-0.5750840902328491,0.7817271947860718,-0.2412078082561493,-1.1877660751342773,0.5576011538505554,-0.5747483372688293
7.439993143081665,0.20639127492904663,-0.0005949735641479492,0.008623838424682617,-0.8941029639944196,-1.192824963439039,-1.254873524755335,-0.5820170044898987,0.7796476483345032,-0.2310970425605774,-0.7594045996665955,0.40923506021499634,-0.5775620341300964
7.459997892379761,0.23358553647994995,0.0047373175621032715,-0.018606171011924744,-0.8869354926261104,-1.2059220469550762,-1.2796020231846252,-0.5901987552642822,0.7751392722129822,-0.22544293105602264,-0.489764004945755,0.1731276512145996,-0.7163295149803162
7.479994058609009,0.22330176830291748,-0.0023161768913269043,-0.02954280376434326,-0.874382655060213,-1.2201464558202573,-1.3000629544678164,-0.6024370193481445,0.7671476602554321,-0.2203504592180252,-0.3098832964897156,0.006644843146204948,-0.8788517713546753
7.499983072280884,0.199384868144989,0.10764890909194946,-0.08209899067878723,-0.8597229471173361,-1.2360567717006608,-1.3185373180993307,-0.6164230108261108,0.757661759853363,-0.21440987288951874,-0.30136093497276306,-0.19412989914417267,-0.918029248714447
7.519992113113403,0.12077581882476807,0.4008491635322571,-0.13233380019664764,-0.8454117320149342,-1.2527918207695365,-1.3337891213703228,-0.6301600337028503,0.7482443451881409,-0.20743370056152344,-0.166950985789299,-0.23951014876365662,-0.6693417429924011
7.540003061294556,-0.009531974792480469,0.6443678736686707,-0.18943624198436737,-0.8403376649487825,-1.256494624084074,-1.3398383179075295,-0.6345263123512268,0.7448684573173523,-0.2062700241804123,-0.13036426901817322,0.282156765460968,0.041314952075481415
7.5599939823150635,-0.04830765724182129,0.5446367859840393,-0.16255298256874084,-0.844830813380016,-1.2520499484089278,-1.3438518201803609,-0.6304185390472412,0.7478588223457336,-0.20803730189800262,-0.26463615894317627,0.4535098671913147,0.25933969020843506
7.579365015029907,0.07188308238983154,0.3529738783836365,-0.18662205338478088,-0.853953067839262,-1.248372454255266,-1.3505526658799536,-0.6231527924537659,0.7538834810256958,-0.2081838995218277,-0.3941795229911804,0.33793187141418457,0.425195574760437
7.600034952163696,0.14299815893173218,0.22105282545089722,-0.13134747743606567,-0.8657516063771635,-1.243673641569555,-1.3530888787042865,-0.6137014031410217,0.7615825533866882,-0.2082369476556778,-0.12327484041452408,0.3908448815345764,0.6033737659454346
7.619992971420288,0.17004156112670898,0.1132422685623169,-0.1057269275188446,-0.879219639074286,-1.2277049088859762,-1.3448029478636427,-0.600583553314209,0.7702414393424988,-0.21453982591629028,0.1465391367673874,0.48403671383857727,0.7358927130699158
7.639991998672485,0.17604786157608032,-0.02742290496826172,-0.06735110282897949,-0.8902668924905015,-1.2074552612610618,-1.3308904563824606,-0.5881268382072449,0.7772396802902222,-0.22361882030963898,0.29653340578079224,0.47695446014404297,0.5664296746253967
7.660021066665649,0.18240422010421753,-0.1596050262451172,-0.021808087825775146,-0.8969559868233652,-1.1853819372124512,-1.3148453718467095,-0.5782173275947571,0.7814310789108276,-0.23458538949489594,0.3621099591255188,0.45088621973991394,0.35678479075431824
7.679992914199829,0.1323680877685547,-0.20673847198486328,0.009770944714546204,-0.8980800430698661,-1.1682974183500843,-1.3043987798318417,-0.5733166337013245,0.7821320295333862,-0.2440849393606186,0.16550877690315247,0.43325287103652954,-0.05987883731722832
7.69999098777771,0.06372112035751343,-0.17010897397994995,-0.003916949033737183,-0.8921141189193177,-1.1600287466204249,-1.3039400736613627,-0.5755468606948853,0.7784006595611572,-0.2506760358810425,0.0972469300031662,0.35479578375816345,-0.43012627959251404
7.719990968704224,0.012985646724700928,-0.06727480888366699,0.0646752119064331,-0.8824649902457071,-1.1550330835157891,-1.3078007488888619,-0.5811314582824707,0.7723070979118347,-0.2565698027610779,0.144338920712471,0.5542042255401611,-0.4733571708202362
7.739990949630737,-0.11430954933166504,-0.0715363621711731,0.018585026264190674,-0.8745352022111722,-1.1376221664453758,-1.3044415212464806,-0.5821169018745422,0.7672454714775085,-0.26921069622039795,0.36229172348976135,0.8443088531494141,-0.21504826843738556
7.759994983673096,-0.2545395493507385,-0.03669893741607666,-0.040431588888168335,-0.8663879387664983,-1.1127119716874936,-1.2941891486647774,-0.5808181166648865,0.7619947791099548,-0.28638118505477905,0.5936459898948669,0.8873817920684814,-0.2256173938512802
7.779991865158081,-0.40354228019714355,0.14168572425842285,-0.0945875346660614,-0.8563477500125968,-1.0797457075441408,-1.2750445395548664,-0.5777809619903564,0.7554546594619751,-0.3089616894721985,0.9200232028961182,0.970485270023346,-0.07790069282054901
7.799994945526123,-0.4476030468940735,0.1808263659477234,0.009693831205368042,-0.8497561746468152,-1.0472251104160837,-1.2588487841794458,-0.5717300176620483,0.7511194348335266,-0.3300674557685852,0.28977835178375244,1.1247007846832275,-0.0392787866294384
7.820038080215454,-0.4144439101219177,0.03486931324005127,0.08270630240440369,-0.8514552865935866,-1.0176664976680414,-1.257010827218539,-0.5606386661529541,0.7522400617599487,-0.34614941477775574,-0.4178135395050049,1.618410348892212,0.24717198312282562
7.839993953704834,-0.2771400213241577,-0.08319109678268433,0.13610777258872986,-0.8646439866251837,-1.0002651878610063,-1.2766530966410863,-0.5461327433586121,0.7608643174171448,-0.350463330745697,-1.2903817892074585,1.603094220161438,0.11542113125324249
7.859992027282715,-0.1076817512512207,-0.1732165813446045,0.1353607177734375,-0.8810729831665747,-0.9965407952584446,-1.31398708485166,-0.5342555642127991,0.7714220881462097,-0.34565743803977966,-1.5763763189315796,1.6059991121292114,0.009816734120249748
7.878996133804321,0.0503121018409729,-0.21462708711624146,0.16432827711105347,-0.8983003374795074,-1.0026884538350438,-1.3594856314976818,-0.5250893831253052,0.7822692394256592,-0.33516576886177063,-1.7206737995147705,1.2971484661102295,-0.1642189472913742
7.899991989135742,0.15024453401565552,-0.2498735785484314,0.11367511749267578,-0.9103678652033222,-1.0181388755351664,-1.406955084716595,-0.5221318006515503,0.7897294759750366,-0.32203397154808044,-1.321441411972046,0.9066523313522339,-0.3143240213394165
7.919173002243042,0.23415809869766235,-0.21252936124801636,0.09145528078079224,-0.9157745247280922,-1.0288744205024665,-1.4387077508459123,-0.5218931436538696,0.7930346727371216,-0.3142032325267792,-0.6578695774078369,0.5553364157676697,-0.28542983531951904
7.939996004104614,0.2573133111000061,-0.22106146812438965,0.0754709243774414,-0.9129532993986699,-1.0349544497329246,-1.4560489396714609,-0.5257154703140259,0.7913128733634949,-0.31216534972190857,-0.13177897036075592,0.21359437704086304,-0.4900173246860504
7.959993124008179,0.27041733264923096,-0.2464541792869568,0.08275827765464783,-0.9044678905173921,-1.0413548051908073,-1.4656322784846003,-0.533478856086731,0.7860963940620422,-0.3121742606163025,-0.02702600508928299,-0.09373990446329117,-0.5478212237358093
7.980001926422119,0.23926782608032227,-0.2450854778289795,0.05999794602394104,-0.8951984043722728,-1.0548413165582384,-1.4777331212728158,-0.5439553260803223,0.7803331613540649,-0.3085331916809082,-0.1454959511756897,-0.3113495409488678,-0.6116499304771423
7.9999940395355225,0.2035103440284729,-0.12829989194869995,0.007329970598220825,-0.88697713497228,-1.0730579282330688,-1.4902338252817253,-0.5551034212112427,0.7751655578613281,-0.3016262948513031,-0.08259134739637375,-0.48025450110435486,-0.46575647592544556
8.019992113113403,0.14938366413116455,0.02369898557662964,-0.08005905151367188,-0.879155403972494,-1.084437875672269,-1.492803691155207,-0.5638429522514343,0.7702004909515381,-0.2981148362159729,0.3478998839855194,-0.46216586232185364,-0.30560287833213806
8.040037870407104,0.10898822546005249,0.07790088653564453,-0.11520680785179138,-0.8699201992929751,-1.0857620882341612,-1.482077755063298,-0.5705057382583618,0.764277458190918,-0.30067160725593567,0.6451843976974487,-0.46767106652259827,-0.2028588205575943
8.060022115707397,0.09573757648468018,0.05330049991607666,-0.08550426363945007,-0.8611451578636609,-1.0812716820478376,-1.4657465836258143,-0.5750467777252197,0.7585892081260681,-0.30637210607528687,0.6257253885269165,-0.3478086590766907,-0.04758891090750694
8.079209089279175,0.11575227975845337,0.04515635967254639,-0.0713343620300293,-0.8576097585524632,-1.079232477756764,-1.45371904483325,-0.5767814517021179,0.7562808990478516,-0.30880796909332275,0.23237912356853485,-0.35335150361061096,0.09053149074316025
8.100036859512329,0.13047897815704346,0.021611690521240234,-0.08827531337738037,-0.859361288435458,-1.0837928133853152,-1.4497949847803095,-0.5770122408866882,0.7574256658554077,-0.3055541217327118,-0.048316020518541336,-0.4267662465572357,0.18049098551273346
8.119998931884766,0.15087664127349854,0.030814290046691895,-0.1064659059047699,-0.8633644756657154,-1.0915610047256434,-1.4472985683723947,-0.5766732096672058,0.760033369064331,-0.2996620535850525,0.0607357919216156,-0.546602189540863,0.24808765947818756
8.140018939971924,0.1570855975151062,0.07560282945632935,-0.1410474181175232,-0.8658978664366977,-1.096281296636788,-1.437163617263541,-0.5763667225837708,0.7616773247718811,-0.29605597257614136,0.4270515441894531,-0.7072363495826721,0.2807636857032776
8.160003900527954,0.15264463424682617,0.06958425045013428,-0.14640316367149353,-0.8659315210365023,-1.0969754054682739,-1.4172775191803484,-0.5765491127967834,0.7616991400718689,-0.29564404487609863,0.6930789351463318,-0.8820659518241882,0.3040301203727722
8.180002927780151,0.13256508111953735,0.04908186197280884,-0.1404058039188385,-0.8640883082221594,-1.0976068565348738,-1.3926080750594414,-0.5779844522476196,0.7605035901069641,-0.2959192991256714,0.8015862703323364,-1.068950891494751,0.25557228922843933
8.199992895126343,0.08390820026397705,0.0909225344657898,-0.1640337109565735,-0.8597737857462516,-1.1001871370549976,-1.365883610828758,-0.5816652774810791,0.7576949596405029,-0.2959120273590088,0.975104808807373,-1.203382968902588,0.1378195583820343
8.220019102096558,0.016109466552734375,0.1065865159034729,-0.173854798078537,-0.8511758070699965,-1.1013946603152749,-1.335248805292759,-0.5878105759620667,0.7520558834075928,-0.2981453835964203,1.177035927772522,-1.2442888021469116,-0.010834896005690098
8.240028142929077,-0.03617364168167114,0.05862945318222046,-0.10591858625411987,-0.8382807677111176,-1.1048353312209878,-1.306972932169341,-0.5974476933479309,0.7434945106506348,-0.3004535138607025,1.0294564962387085,-1.2356146574020386,-0.336911141872406
8.25999402999878,-0.06482785940170288,-0.01741647720336914,-0.03199794888496399,-0.8214107023239716,-1.1177322926209017,-1.2905713614823737,-0.6124640703201294,0.7321075201034546,-0.2981717884540558,0.6688464283943176,-1.327439546585083,-0.668097734451294
8.27999997138977,-0.14545434713363647,-0.05895519256591797,-0.08946415781974792,-0.8067919553198356,-1.1674405886673616,-1.3065699437490308,-0.6362992525100708,0.7220715284347534,-0.2715435326099396,-1.0072203874588013,-2.129605770111084,-1.099514365196228
8.300019025802612,-0.22298729419708252,0.2722718119621277,-0.32298046350479126,-0.7938594183274736,-1.2114440750102073,-1.3347863997344658,-0.656315803527832,0.713064432144165,-0.24655389785766602,-0.19289670884609222,-0.7038462162017822,-0.5002055764198303
