timestamp,acceleration_x,acceleration_y,acceleration_z,attitude_pitch,attitude_roll,attitude_yaw,gravity_x,gravity_y,gravity_z,rotation_x,rotation_y,rotation_z
0.0,0.06586934626102448,-0.03179764747619629,0.020200252532958984,0.4552464178100246,-0.028848241027414876,-1.799884553332047,-0.025906531140208244,-0.4396836459636688,-0.8977789878845215,-0.1888202279806137,-0.013585716485977173,0.004414613824337721
0.02037811279296875,0.03480387479066849,-0.03967466950416565,0.03600287437438965,0.45116920643833686,-0.029606779144554927,-1.8006949348995958,-0.02664037048816681,-0.43601804971694946,-0.8995435237884521,-0.22072049975395203,-0.07559892535209656,-0.05624062195420265
0.04026913642883301,0.012713752686977386,-0.038398951292037964,0.05291759967803955,0.4471987660468541,-0.029843082441226607,-1.802429585800267,-0.026904379948973656,-0.43244147300720215,-0.901260495185852,-0.16547630727291107,-0.012210281565785408,-0.08447657525539398
0.06043529510498047,-0.004541385918855667,-0.023358672857284546,0.061408281326293945,0.4449945448854511,-0.028004864051312636,-1.8047968423313547,-0.02527425065636635,-0.43045294284820557,-0.902259111404419,-0.08349249511957169,0.05943887308239937,-0.11113881319761276
0.08045005798339844,-0.010402493178844452,-0.012451797723770142,0.07761597633361816,0.44453464881762783,-0.024649147435473764,-1.8078019891995116,-0.02225126512348652,-0.43003779649734497,-0.9025366306304932,-0.02560005895793438,0.07309263199567795,-0.13778701424598694
0.10043907165527344,-0.014254005625844002,-0.02537524700164795,0.08714354038238525,0.4448058947132833,-0.022464188220665156,-1.8114925532883017,-0.020276587456464767,-0.43028268218040466,-0.9024664163589478,-0.056778684258461,-0.06016795337200165,-0.16346034407615662
0.1205132007598877,0.008549220860004425,-0.031938016414642334,0.10238325595855713,0.4423715436354913,-0.02371216011173562,-1.8150289935909651,-0.021427595987915993,-0.4280839264392853,-0.9034849405288696,-0.24667420983314514,-0.2225802093744278,-0.13894201815128326
0.1404411792755127,0.005259344354271889,-0.022524476051330566,0.110653817653656,0.43542544951131446,-0.02786710347387165,-1.8176611070591628,-0.025263572111725807,-0.42179620265960693,-0.906338632106781,-0.47908681631088257,-0.27418428659439087,-0.08176730573177338
0.16047000885009766,-0.030620217323303223,-0.005912423133850098,0.11883753538131714,0.4246929781050192,-0.03169413191978229,-1.81930753551426,-0.028873758390545845,-0.4120410680770874,-0.9107076525688171,-0.6270124912261963,-0.1535698026418686,-0.021283665671944618
0.18042230606079102,-0.04419643431901932,-0.0038416385650634766,0.14587128162384033,0.4112643351921596,-0.03390850122980895,-1.8203431987125092,-0.031075123697519302,-0.39976856112480164,-0.9160892367362976,-0.7150887250900269,-0.1449590027332306,-0.06794251501560211
0.20026111602783203,-0.06837202608585358,-0.03787878155708313,0.1872568130493164,0.3968818057661908,-0.03632661468013848,-1.8239105167344578,-0.03349560871720314,-0.386544406414032,-0.9216623306274414,-0.7279630303382874,-0.23955422639846802,-0.19321273267269135
0.22046113014221191,-0.05792173743247986,-0.040996015071868896,0.2297959327697754,0.38106230903402294,-0.03939596983613823,-1.8296449977994573,-0.03656063973903656,-0.3719067871570587,-0.9275498390197754,-0.9277639985084534,-0.2709933817386627,-0.2926785945892334
0.24036931991577148,-0.1203840970993042,-0.01257622241973877,0.296974778175354,0.3576721464910453,-0.041151319962118106,-1.8398641446534174,-0.038536153733730316,-0.35009464621543884,-0.935921311378479,-1.47317373752594,-0.3140561580657959,-0.6284246444702148
0.2604382038116455,-0.195734903216362,-0.08708420395851135,0.36548811197280884,0.32145375648793584,-0.04827156194662028,-1.8640510476914667,-0.04578116908669472,-0.31594619154930115,-0.9476719498634338,-2.4030399322509766,-1.2338656187057495,-1.5486124753952026
0.2804272174835205,-0.1463354080915451,-0.3265463709831238,0.3418731689453125,0.27643282914382417,-0.05517269245150375,-1.901589883109129,-0.053051143884658813,-0.27292564511299133,-0.9605712890625,-2.4879488945007324,-0.6229445338249207,-1.705547571182251
0.3003702163696289,-0.24148572981357574,-0.036810994148254395,0.3940523862838745,0.22201209310527598,-0.05756551472395002,-1.935938538272411,-0.05612163990736008,-0.2201927751302719,-0.973840594291687,-2.9616570472717285,-0.4609363079071045,-1.2955116033554077
0.32043933868408203,-0.2460094690322876,0.04339757561683655,0.32343894243240356,0.16496380993657359,-0.05818805043798467,-1.9654851095077757,-0.057365722954273224,-0.16421663761138916,-0.9847548007965088,-2.844050884246826,-0.15296810865402222,-1.436354160308838
0.3403661251068115,-0.21998398005962372,-0.05432983487844467,0.3403542637825012,0.11021504408161396,-0.05511260700485183,-2.0033725779930522,-0.054750483483076096,-0.10999204218387604,-0.9924233555793762,-2.9939870834350586,-0.13389109075069427,-1.9745677709579468
0.3603701591491699,-0.14364582300186157,-0.1656796932220459,0.38744401931762695,0.046541068983795,-0.05596784744343835,-2.048463877406079,-0.055878061801195145,-0.04652426764369011,-0.9973530769348145,-3.6387040615081787,-0.3095918893814087,-2.126220703125
0.3803842067718506,-0.14315763115882874,-0.14832818508148193,0.35918325185775757,-0.02859638640063127,-0.06343850171051654,-2.0961856801080567,-0.06337004154920578,0.028592489659786224,-0.9975804090499878,-4.092127323150635,-0.4593920409679413,-2.2353274822235107
0.4003720283508301,-0.16766679286956787,0.007344506680965424,0.22657442092895508,-0.10513852624501353,-0.07563562794157719,-2.1486074992576207,-0.07514627277851105,0.10494492948055267,-0.9916347861289978,-3.818016290664673,-0.3891102373600006,-2.444788932800293
0.4200572967529297,-0.08659674972295761,0.0905160903930664,0.13055425882339478,-0.17273172758646285,-0.09076467194624166,-2.2030907587545725,-0.0892912745475769,0.1718740612268448,-0.9810639023780823,-3.2467586994171143,-0.4147002100944519,-2.4079997539520264
0.44039106369018555,-0.03228801488876343,-0.024491697549819946,0.09063035249710083,-0.22781209395836693,-0.11216587615068284,-2.2598840987369804,-0.10903885215520859,0.22584669291973114,-0.9680412411689758,-2.9725663661956787,-0.6696354746818542,-2.5955843925476074
0.4603919982910156,0.02265302836894989,-0.05781155824661255,0.040778517723083496,-0.27929347062400833,-0.14543424459254625,-2.3217862702384315,-0.13930644094944,0.27567657828330994,-0.951102614402771,-2.8977298736572266,-1.1169425249099731,-2.695162534713745
0.4803581237792969,0.035831987857818604,0.03081655502319336,-0.08199715614318848,-0.3251640345182739,-0.18991481367881435,-2.387890008882656,-0.17888310551643372,0.31946423649787903,-0.930560827255249,-2.673445701599121,-1.273875117301941,-2.789180278778076
0.5004839897155762,0.01682308316230774,0.1068098247051239,-0.12995761632919312,-0.36307454510037646,-0.23623720181055202,-2.4573248040371722,-0.21878838539123535,0.3551500141620636,-0.9088454842567444,-2.445507049560547,-1.0320210456848145,-2.7825958728790283
0.5205941200256348,0.08812442421913147,0.09039559960365295,-0.1692315936088562,-0.395728293472739,-0.28261271310882635,-2.525678852925304,-0.2573138177394867,0.38548028469085693,-0.8861120343208313,-2.4007980823516846,-1.1368651390075684,-2.482100009918213
0.5404400825500488,0.17056748270988464,0.08658680319786072,-0.24320751428604126,-0.42938572758640653,-0.3326024011644586,-2.588837839509304,-0.29686442017555237,0.4163123667240143,-0.859392523765564,-2.559303045272827,-1.331484079360962,-2.0331735610961914
0.5604152679443359,0.19224199652671814,0.13930261135101318,-0.33856093883514404,-0.4655092883240782,-0.38548056966723404,-2.647117923602723,-0.33599501848220825,0.4488779604434967,-0.8280193209648132,-2.5821855068206787,-1.4569352865219116,-1.7182481288909912
0.5795350074768066,0.14921948313713074,0.2349993884563446,-0.4100695848464966,-0.4946429399515294,-0.442641064471162,-2.707225369615846,-0.37698739767074585,0.4747174084186554,-0.7953136563301086,-2.231947422027588,-1.4073303937911987,-1.9897634983062744
0.6005063056945801,0.13025498390197754,0.31102776527404785,-0.4540451765060425,-0.5136631281377807,-0.496498695256455,-2.766524998255058,-0.41487714648246765,0.49137094616889954,-0.765788197517395,-1.816094994544983,-1.1395639181137085,-1.6999307870864868
0.6206402778625488,0.24751484394073486,0.314736008644104,-0.4843659996986389,-0.5277523832689258,-0.5425788114636739,-2.8144419420260944,-0.4460926651954651,0.5035927891731262,-0.7398618459701538,-1.5112403631210327,-1.1450573205947876,-1.2520191669464111
0.640449047088623,0.33611154556274414,0.3107348084449768,-0.5109776854515076,-0.5396490028775934,-0.5874406284713782,-2.853818353236912,-0.47547003626823425,0.5138348937034607,-0.7140741944313049,-1.2846568822860718,-1.3513622283935547,-0.9851695895195007
0.6604170799255371,0.33978819847106934,0.33724188804626465,-0.552081823348999,-0.5487420241401,-0.6314363644859733,-2.884230451544443,-0.5036370158195496,0.5216143727302551,-0.688671350479126,-0.9027662873268127,-1.4489256143569946,-0.6208020448684692
0.6804232597351074,0.2903525233268738,0.3561071753501892,-0.5978842973709106,-0.5538586331695848,-0.6695363339697898,-2.9016963367661512,-0.527840256690979,0.5259729027748108,-0.6668862104415894,-0.4409245252609253,-1.4526621103286743,-0.2693573534488678
0.7001333236694336,0.23040765523910522,0.3370005488395691,-0.5910524725914001,-0.5573819792677962,-0.7012879543369964,-2.9088553017000662,-0.5475462675094604,0.5289662480354309,-0.6483731865882874,-0.2618097960948944,-1.3364828824996948,-0.0012465923791751266
0.7205181121826172,0.16081923246383667,0.2400190830230713,-0.4578184485435486,-0.5615187519436046,-0.7255416279345566,-2.9092698827135983,-0.5616523623466492,0.5324723720550537,-0.6332612633705139,-0.0853872150182724,-1.0561672449111938,0.2738087773323059
0.7405133247375488,0.16431063413619995,0.18614929914474487,-0.32902687788009644,-0.5690431614073512,-0.7405088667333369,-2.9024051506142117,-0.5683480501174927,0.5388262271881104,-0.6218093037605286,-0.08715325593948364,-0.8484695553779602,0.638939380645752
0.7604150772094727,0.2190415859222412,0.17320019006729126,-0.2736319303512573,-0.5785205173498031,-0.7499893220166187,-2.8895337069467226,-0.5707108378410339,0.546785831451416,-0.6126290559768677,0.16989903151988983,-0.831375002861023,0.7815423607826233
0.7804241180419922,0.23904943466186523,0.14633536338806152,-0.23096150159835815,-0.5845393784457823,-0.7555029355295806,-2.868886877804794,-0.5718131065368652,0.5518152713775635,-0.6070664525032043,0.5858147740364075,-0.8621925711631775,0.8861632943153381
0.8009932041168213,0.22963076829910278,0.11398959159851074,-0.16300660371780396,-0.5852679872401618,-0.7570585580414744,-2.839955130715248,-0.5724804401397705,0.5524227619171143,-0.605883777141571,1.0057878494262695,-0.914380669593811,0.9137524962425232
0.8205032348632812,0.19995719194412231,0.06920731067657471,-0.09317183494567871,-0.5811703131988949,-0.7570268864857927,-2.805068846039535,-0.5740110278129578,0.549002468585968,-0.6075422167778015,1.2663832902908325,-1.0183839797973633,0.9127269387245178
0.8404140472412109,0.1328427791595459,0.07328581809997559,-0.06018644571304321,-0.5736620220184773,-0.7568551487737045,-2.767806646639137,-0.5767208337783813,0.5427114963531494,-0.610620379447937,1.4005223512649536,-0.9654752612113953,0.825701117515564
0.8604040145874023,0.0300864577293396,0.11209982633590698,0.00032699108123779297,-0.5635808947273576,-0.7545606813324907,-2.733162222047612,-0.5790365934371948,0.5342167019844055,-0.6158970594406128,1.3345719575881958,-0.668052613735199,0.5771682262420654
0.8805060386657715,-0.010321259498596191,0.06351715326309204,0.08124881982803345,-0.5515491804119966,-0.7497534809087879,-2.7054667544488193,-0.580407440662384,0.5240073204040527,-0.6233325600624084,1.114018201828003,-0.343092143535614,0.3552156388759613
0.9005031585693359,0.06825435161590576,-0.025375425815582275,0.1710314154624939,-0.542894950998706,-0.7440081626366392,-2.6851170090161594,-0.5798662304878235,0.5166168808937073,-0.6299699544906616,0.6963140368461609,-0.17678529024124146,0.3605451285839081
0.9195911884307861,0.14903253316879272,-0.060214459896087646,0.21264636516571045,-0.5412600392901318,-0.7399612039099176,-2.6703634917750056,-0.5778807997703552,0.5152163505554199,-0.6329344511032104,0.29419779777526855,-0.2059747725725174,0.4474235773086548
0.9404520988464355,0.1496427059173584,-0.02237534523010254,0.2290133237838745,-0.5440071838643047,-0.7393980523746881,-2.660788665025382,-0.5765683054924011,0.517568826675415,-0.6322115659713745,0.1045248806476593,-0.21913541853427887,0.2983746826648712
0.9604220390319824,0.11722934246063232,0.02125263214111328,0.22153639793395996,-0.5440035587725761,-0.7406701533003871,-2.6554418686781593,-0.5773733854293823,0.5175657272338867,-0.631479024887085,0.2640409767627716,-0.20219700038433075,0.06358612328767776
0.9805870056152344,0.13186579942703247,0.07792037725448608,0.17071634531021118,-0.5386661875568782,-0.7421063691436856,-2.6483090522885786,-0.5801384449005127,0.5129914879798889,-0.6326761841773987,0.5186042785644531,-0.3292892575263977,0.037882592529058456
1.000420093536377,0.10236138105392456,0.14233726263046265,0.17755019664764404,-0.5293838392271492,-0.7444146463266634,-2.6390993208092173,-0.5847984552383423,0.5050016045570374,-0.6348103284835815,0.679876983165741,-0.31771180033683777,-0.08591527491807938
1.0195822715759277,0.046591103076934814,0.08742955327033997,0.23698151111602783,-0.5202405395007129,-0.7449316430357475,-2.6311002512848667,-0.5882322788238525,0.49708887934684753,-0.6378757357597351,0.35439980030059814,-0.13229461014270782,-0.010525383986532688
1.0404391288757324,0.03386169672012329,0.07874718308448792,0.25297415256500244,-0.5183249391504114,-0.7454940026830567,-2.6301551625099617,-0.589235782623291,0.4954257905483246,-0.6382433176040649,-0.10831297188997269,0.008079543709754944,-0.09822116047143936
1.0604209899902344,0.058782994747161865,0.1044972836971283,0.2008466124534607,-0.5187367956588536,-0.7480393509125066,-2.6356483317182966,-0.5907195806503296,0.4957835078239441,-0.6365917921066284,-0.1825297772884369,-0.025370556861162186,-0.19262301921844482
1.0795581340789795,0.10552167892456055,0.14813578128814697,0.1330019235610962,-0.5179833354194697,-0.7527318782759465,-2.640688383000802,-0.5939555168151855,0.4951290190219879,-0.6340852975845337,-0.05989712476730347,-0.20258653163909912,-0.19787296652793884
1.100405216217041,0.09205329418182373,0.18145781755447388,0.06485629081726074,-0.5139171122242923,-0.7602359553356381,-2.6448284268626296,-0.600079357624054,0.491592139005661,-0.6310641765594482,0.09848544001579285,-0.3151656985282898,-0.36740195751190186
1.120469093322754,0.06771105527877808,0.17542004585266113,0.02504265308380127,-0.5056952545050144,-0.7689734410882626,-2.650481704458546,-0.6083604693412781,0.48441579937934875,-0.6286803483963013,0.13948863744735718,-0.26765474677085876,-0.5200983285903931
1.1404380798339844,0.11052572727203369,0.12571433186531067,0.018365859985351562,-0.4986018098394514,-0.7767711191615173,-2.6581157621550595,-0.6156373620033264,0.4781980514526367,-0.6263523697853088,-0.13103964924812317,-0.13759544491767883,-0.4630599617958069
1.1604852676391602,0.16698795557022095,0.0899934470653534,0.013904869556427002,-0.495182347520206,-0.7834661887640725,-2.6695929409524077,-0.6209673881530762,0.4751920998096466,-0.623371422290802,-0.3029756546020508,-0.008417762815952301,-0.4859502613544464
1.1804370880126953,0.262149453163147,0.0750669538974762,-0.030253291130065918,-0.4944406849948045,-0.790912910774364,-2.6833924703885996,-0.6258426308631897,0.4745393991470337,-0.6189776659011841,-0.5246737003326416,-0.13181817531585693,-0.4532791078090668
1.200432300567627,0.3189270496368408,0.08090713620185852,-0.08756226301193237,-0.4949478751115268,-0.8050498500113609,-2.7008157077612895,-0.6343566179275513,0.4749857783317566,-0.6099017262458801,-0.5796518325805664,-0.4919620454311371,-0.5854995846748352
1.2205100059509277,0.2976052761077881,0.12371072173118591,-0.17124438285827637,-0.49428606477077053,-0.8266475641620346,-2.7203541324538034,-0.6476113200187683,0.4744032919406891,-0.5962727069854736,-0.6202830076217651,-0.6704313158988953,-0.6456260085105896
1.2404401302337646,0.2526814937591553,0.137090265750885,-0.16343718767166138,-0.4926775113764535,-0.8469211406347079,-2.738879268861089,-0.6601368188858032,0.4729866683483124,-0.5835263133049011,-0.5199474692344666,-0.47792914509773254,-0.5219969749450684
1.260810136795044,0.35023242235183716,0.10614991188049316,-0.06407010555267334,-0.4940237798641219,-0.86309539106973,-2.753199151624221,-0.6690037250518799,0.4741723835468292,-0.5723587274551392,-0.5108501315116882,-0.5310699343681335,-0.1875804215669632
1.2804360389709473,0.43599289655685425,0.07067406177520752,0.02501535415649414,-0.4995423250228153,-0.8801214874321855,-2.760068736051743,-0.6766240000724792,0.47902384400367737,-0.5592102408409119,-0.2518150508403778,-0.8538303375244141,0.21690228581428528
1.300429344177246,0.37934476137161255,0.050987958908081055,0.037442922592163086,-0.504627791758932,-0.8975762468633229,-2.7555721444209933,-0.6843678951263428,0.48348164558410645,-0.5457894206047058,0.27362608909606934,-1.112532377243042,0.3568309247493744
1.3200440406799316,0.2749793529510498,0.02875363826751709,-0.008475661277770996,-0.5026964845116738,-0.9161575476076141,-2.7429997302278646,-0.6951299905776978,0.4817901849746704,-0.5335469841957092,0.7076298594474792,-1.3573851585388184,0.12114324420690536
1.3399243354797363,0.23939001560211182,-0.035855770111083984,0.022871971130371094,-0.4919362682342905,-0.9382198104966388,-2.7281235747379604,-0.7108712792396545,0.4723334312438965,-0.5211172699928284,0.9182266592979431,-1.54877507686615,-0.1496267020702362
1.3604612350463867,0.29979878664016724,-0.07203748822212219,0.1430690884590149,-0.4784676136049388,-0.9630634715612562,-2.7119991071485434,-0.7287538051605225,0.4604194164276123,-0.5068843960762024,1.095632553100586,-1.702158808708191,-0.0791422501206398
1.3818283081054688,0.32435745000839233,-0.0871434211730957,0.16010624170303345,-0.46389408541152066,-0.9865463413168136,-2.687484831498864,-0.7459731101989746,0.44743403792381287,-0.4932819604873657,1.5574371814727783,-1.7511115074157715,0.07705271989107132
1.400400161743164,0.2958652377128601,-0.04674813151359558,0.13723424077033997,-0.4452062011216199,-1.0054923150770974,-2.6526434118811744,-0.7621126770973206,0.4306439757347107,-0.48345616459846497,2.0518083572387695,-1.6508952379226685,0.007552378810942173
1.5919580459594727,0.2899813652038574,-0.06853753328323364,0.13221475481987,-0.4211146869604914,-1.0199781166279263,-2.612866870182583,-0.7776521444320679,0.40877801179885864,-0.4776584804058075,2.238804578781128,-1.4770658016204834,-0.12309817969799042
1.6031701564788818,0.33599942922592163,-0.16117215156555176,0.16587486863136292,-0.3965509983100389,-1.0316429295722622,-2.573887785664082,-0.7915504574775696,0.38623929023742676,-0.4735683500766754,2.033332586288452,-1.2456753253936768,-0.09890218079090118
1.6262791156768799,0.29273492097854614,-0.10781100392341614,0.12220722436904907,-0.3643054767445497,-1.0469243188782595,-2.4969333671920557,-0.8090617656707764,0.3563004434108734,-0.4674068093299866,1.1213338375091553,-0.26356571912765503,0.09783724695444107
1.6427881717681885,0.23213332891464233,-0.08148649334907532,0.27993881702423096,-0.3247436680946511,-1.0483168647808723,-2.4516352383398856,-0.8212903738021851,0.3190658688545227,-0.47294729948043823,-0.11738845705986023,-0.2780078947544098,-0.19761601090431213
1.6611323356628418,-0.12775635719299316,-0.014898434281349182,0.3394499719142914,-0.20996500079081906,-1.0842125061432017,-2.3753804266686793,-0.8645225763320923,0.20842567086219788,-0.4573393762111664,1.3424888849258423,-1.345797061920166,-0.9573749303817749
1.680422306060791,-0.6001503467559814,0.09258680045604706,0.2280900478363037,-0.17152823597061784,-1.1089723310366755,-2.3615773430219593,-0.8821036219596863,0.17068836092948914,-0.439042866230011,1.7182856798171997,-1.3293638229370117,-1.8816910982131958
1.700425148010254,-0.905903697013855,0.1553775668144226,0.23952829837799072,-0.11981121951107969,-1.133182138496859,-2.3491007772057193,-0.8992719650268555,0.11952478438615799,-0.4207416772842407,1.4350155591964722,-1.0948408842086792,-2.0308964252471924
1.7204279899597168,-0.7893705368041992,0.021156571805477142,0.6144675016403198,-0.08435115886180777,-1.1451749076850195,-2.349003645861818,-0.9075441360473633,0.08425116539001465,-0.4114188551902771,0.053252413868904114,-0.17681884765625,-1.1514800786972046
1.7404212951660156,-0.7762761116027832,-0.06025373935699463,0.6424235105514526,-0.0744215704328213,-1.1429256195440356,-2.3587383710301957,-0.9073328375816345,0.07435289025306702,-0.413785845041275,-0.27838367223739624,0.3468189835548401,-0.140902578830719
1.7604191303253174,-0.585910439491272,0.22826290130615234,0.4355888366699219,-0.07631556717571733,-1.1381308001127133,-2.355956163734272,-0.9052088856697083,0.07624150812625885,-0.41807177662849426,0.5883909463882446,0.05793986842036247,0.2343563735485077
1.7804181575775146,-0.410352885723114,0.2312242090702057,0.34091585874557495,-0.07092877709148607,-1.14145404527359,-2.334264572995654,-0.9069535732269287,0.0708693191409111,-0.41522619128227234,1.5080803632736206,-0.5494895577430725,0.12650148570537567
1.800410270690918,-0.5463412404060364,-0.06370140612125397,0.411296546459198,-0.058546895835064956,-1.152009118693849,-2.3033531338216617,-0.9120174646377563,0.05851345509290695,-0.4059560298919678,1.6319551467895508,-0.4966307580471039,0.11002952605485916
1.8204421997070312,-0.852300763130188,-0.29803532361984253,0.7770072817802429,-0.05700788349480592,-1.1429426935354479,-2.2799118418865865,-0.908380389213562,0.056977011263370514,-0.4142448306083679,0.34971439838409424,1.1829555034637451,1.0311148166656494
1.840665340423584,-0.9417555928230286,-0.4571535587310791,0.7615059018135071,-0.09260081217713033,-1.112179071336737,-2.276330319713549,-0.8928238749504089,0.09246852993965149,-0.4408119320869446,-1.359737753868103,1.8189520835876465,2.113011121749878
1.8604471683502197,-0.8593804836273193,-0.3276587724685669,0.4943959712982178,-0.14877899459144142,-1.073498278488276,-2.284745637715382,-0.8691655993461609,0.14823073148727417,-0.47178250551223755,-1.9533181190490723,2.016103506088257,2.57291579246521
1.8804371356964111,-0.872225284576416,0.02437463402748108,0.115958571434021,-0.2140887316183635,-1.0451309889284608,-2.2920501327771645,-0.8452429175376892,0.21245704591274261,-0.4903329908847809,-1.591355562210083,0.8650951981544495,2.715656280517578
1.9004240036010742,-0.869531512260437,0.22037824988365173,-0.11321943998336792,-0.27406776015072226,-1.0361067236895958,-2.2775777001249558,-0.828313946723938,0.27064961194992065,-0.49055561423301697,-0.38139060139656067,-0.1833716481924057,3.2715213298797607
1.9204161167144775,-1.1506953239440918,0.2774861752986908,0.04001110792160034,-0.33395725453075353,-1.0253778037305323,-2.243563946641793,-0.8076786398887634,0.3277842104434967,-0.49011489748954773,-0.009720681235194206,0.4554697573184967,3.420311689376831
1.9404141902923584,-1.5608818531036377,0.06153446435928345,0.19152480363845825,-0.39210022637727193,-0.9949334529399406,-2.204679466428833,-0.7750707864761353,0.38213008642196655,-0.5032312870025635,0.04752359166741371,1.0320236682891846,3.5141513347625732
1.9604783058166504,-1.2494454383850098,-0.016684889793395996,-0.030129432678222656,-0.45095872212784055,-0.9582244629137412,-2.1583289570587403,-0.736379086971283,0.43582862615585327,-0.5174933075904846,0.05359359085559845,0.6114010810852051,3.629859685897827
1.9804141521453857,-1.0017588138580322,0.0591280460357666,-0.14635157585144043,-0.5060669733933008,-0.9355831119817802,-2.119484199848773,-0.7040516138076782,0.4847409427165985,-0.5189774632453918,-0.5456169843673706,-0.02895970083773136,2.8176801204681396
2.0004451274871826,-0.9746059775352478,0.012796878814697266,-0.06911325454711914,-0.5585153172972683,-0.9276057245133205,-2.1018456807139563,-0.6785922050476074,0.5299277305603027,-0.5086150169372559,-1.3442353010177612,0.10942409187555313,2.431673765182495
2.0204241275787354,-0.9257281422615051,0.05372357368469238,0.0015781521797180176,-0.6157964447114649,-0.9184414007405143,-2.0990606905259885,-0.6486889123916626,0.5776088833808899,-0.4955509305000305,-1.7785701751708984,0.5706272125244141,2.2024688720703125
2.040396213531494,-0.7434470653533936,0.30605584383010864,-0.1735559105873108,-0.6672461607602529,-0.9103947180413267,-2.102779717049196,-0.6203681826591492,0.6188251376152039,-0.4818701446056366,-1.549524188041687,0.3440275490283966,1.6645644903182983
2.06042218208313,-0.430678129196167,0.5089298486709595,-0.2624990940093994,-0.7049043937401309,-0.9130542255486245,-2.1100950310013027,-0.6027690768241882,0.6479610204696655,-0.4656350910663605,-1.2457767724990845,-0.07187262922525406,1.0525195598602295
2.0803933143615723,-0.22855424880981445,0.39926058053970337,-0.2183762788772583,-0.7344336289872888,-0.9221819443021328,-2.120060965946244,-0.5914835333824158,0.6701669096946716,-0.4483565390110016,-1.2181791067123413,-0.1601831465959549,0.82921302318573
2.100119113922119,-0.09684443473815918,0.3919101357460022,-0.19498127698898315,-0.7615299262530716,-0.9398468106499991,-2.139414194554598,-0.584429919719696,0.6900295615196228,-0.42696699500083923,-1.5861694812774658,-0.2985628545284271,0.5109520554542542
2.120450019836426,0.0540042519569397,0.3264995813369751,-0.14315086603164673,-0.7881548629958607,-0.9648423325844917,-2.1697820555346903,-0.5796084403991699,0.7090533971786499,-0.40161845088005066,-1.6488796472549438,-0.07403174787759781,0.3932613432407379
2.1404380798339844,0.23684412240982056,0.346032977104187,-0.17345672845840454,-0.8093030992356952,-0.988900170616147,-2.2005134858864888,-0.576443612575531,0.7238065004348755,-0.37923184037208557,-1.2576026916503906,-0.18163108825683594,0.2176876962184906
2.1604270935058594,0.42694878578186035,0.34502077102661133,-0.17807042598724365,-0.824267127067347,-1.0144137806647098,-2.226534628288998,-0.5766679644584656,0.7340502738952637,-0.35864225029945374,-1.162188172340393,-0.4905534088611603,-0.0426185317337513
2.1804580688476562,0.49013084173202515,0.19720274209976196,-0.04689463973045349,-0.8331492636419972,-1.0470233229539139,-2.2560359445944194,-0.5823853611946106,0.7400530576705933,-0.3363756537437439,-1.0588661432266235,-0.5338168144226074,-0.11118563264608383
2.200416088104248,0.5103686451911926,-0.017524659633636475,0.024267345666885376,-0.841408589897347,-1.0816461937463624,-2.288196649775634,-0.5882647633552551,0.7455825805664062,-0.31313157081604004,-1.2463738918304443,-0.542330801486969,-0.2567330002784729
2.220417022705078,0.5506983399391174,-0.12415480613708496,0.0804789662361145,-0.8489301118958731,-1.1216691469198956,-2.3274776203036525,-0.5952539443969727,0.7505738735198975,-0.2868999242782593,-1.333942174911499,-0.54945307970047,-0.20735405385494232
2.2404513359069824,0.5702190399169922,-0.13517868518829346,0.023966699838638306,-0.8575267788628123,-1.1582271711171581,-2.3618698912252447,-0.5994089841842651,0.7562265992164612,-0.2623547911643982,-1.2411803007125854,-0.46663743257522583,0.03326674923300743
2.2605090141296387,0.5688466429710388,-0.08354049921035767,0.0770992636680603,-0.8653946334340485,-1.198248323108401,-2.4047593921352095,-0.6038655042648315,0.7613511681556702,-0.2359890639781952,-1.5157749652862549,-0.32478880882263184,-0.48788222670555115
2.280104160308838,0.565783679485321,-0.17174506187438965,-0.016270041465759277,-0.8633160782618946,-1.2344935825505043,-2.4461960520300514,-0.6135131120681763,0.7600018978118896,-0.2144733965396881,-0.8950693011283875,-0.08110741525888443,-0.47842133045196533
2.300471305847168,0.6699522733688354,-0.19186198711395264,-0.12139807641506195,-0.8619643007469184,-1.2511792104511843,-2.4688704169004074,-0.6179807186126709,0.7591226696968079,-0.20452970266342163,-0.6090473532676697,0.05399874225258827,-0.16278588771820068
2.320420265197754,0.743549644947052,-0.2824926972389221,-0.14722317457199097,-0.8674100405998398,-1.2680592368552976,-2.4926593583571983,-0.617389976978302,0.7626562714576721,-0.19283421337604523,-1.054979920387268,0.09746286273002625,0.22299829125404358
2.3406171798706055,0.7882264256477356,-0.27647334337234497,-0.2005860060453415,-0.879157612641182,-1.2933333816745232,-2.5290303927518707,-0.6134063601493835,0.7702018618583679,-0.1747039556503296,-1.505690574645996,0.1738409847021103,0.12694047391414642
2.3608601093292236,0.8352891802787781,-0.10592937469482422,-0.30639857053756714,-0.8884745045154994,-1.322707513402528,-2.571830374442433,-0.6112900972366333,0.7761106491088867,-0.15484412014484406,-1.1985894441604614,0.1899319887161255,0.17419210076332092
2.38057804107666,0.9011659622192383,-0.0920553207397461,-0.44046807289123535,-0.8994067435874938,-1.3383459955518424,-2.5948624914874574,-0.6053436994552612,0.7829579710960388,-0.14330272376537323,-0.49208691716194153,0.0668969675898552,0.6183803677558899
2.400512218475342,0.8989757299423218,-0.102100670337677,-0.4060481786727905,-0.9190112616418235,-1.3362707346484857,-2.595331543981242,-0.5900003910064697,0.7950022220611572,-0.14096416532993317,-0.02392740733921528,0.19066959619522095,1.2325878143310547
2.420631170272827,0.7934224605560303,-0.13224506378173828,-0.4887123703956604,-0.9453929861197927,-1.3188116242468233,-2.5774904962170635,-0.5669361352920532,0.810727059841156,-0.145961731672287,0.4024045467376709,0.08496491611003876,1.5837173461914062
2.440415143966675,0.6696266531944275,-0.0957871675491333,-0.5048204064369202,-0.9771853992711999,-1.2916072888486847,-2.546186060364181,-0.5376991629600525,0.8289262652397156,-0.1541457176208496,0.41027820110321045,0.13205865025520325,1.9409600496292114
2.4604640007019043,0.5176057815551758,-0.09286588430404663,-0.45418769121170044,-1.0148411227171041,-1.2609387030857884,-2.515333868130689,-0.5026216506958008,0.8493967056274414,-0.16092464327812195,0.0882558599114418,0.2998155355453491,2.0652897357940674
2.4884982109069824,0.38158008456230164,-0.10351419448852539,-0.3231498599052429,-1.0764476751434608,-1.1928172131145809,-2.441790608935954,-0.4409671723842621,0.8802779316902161,-0.17509542405605316,0.8878733515739441,0.01395128108561039,1.52328622341156
2.5088143348693848,0.2898816764354706,-0.16015112400054932,-0.22646155953407288,-1.0946959115810628,-1.1297291639476856,-2.3730812780413806,-0.4144544303417206,0.8887889385223389,-0.1956576704978943,1.3319506645202637,0.10292065143585205,1.3795075416564941
2.5204031467437744,0.2898816764354706,-0.16015112400054932,-0.22646155953407288,-1.0946959115810628,-1.1297291639476856,-2.3730812780413806,-0.4144544303417206,0.8887889385223389,-0.1956576704978943,1.3319506645202637,0.10292065143585205,1.3795075416564941
2.5487890243530273,0.1663503646850586,-0.10861635208129883,-0.16755998134613037,-1.098458752870135,-1.0055431268872916,-2.2119082222840367,-0.3842000663280487,0.8905072212219238,-0.2436949610710144,1.503883957862854,-0.49738946557044983,0.37503552436828613
2.5686821937561035,0.09191054105758667,-0.1524985432624817,-0.031663715839385986,-1.0769705679723867,-0.9623126650310396,-2.142660920682287,-0.3889228105545044,0.8805258870124817,-0.270948588848114,2.421236991882324,-1.2591016292572021,-0.299961119890213
2.588494300842285,0.05681738257408142,-0.2763151526451111,0.19911882281303406,-1.0407558155405132,-0.9143405207441964,-2.0677414979017383,-0.40049099922180176,0.862786591053009,-0.30855488777160645,2.615368127822876,-0.5061228275299072,-0.537000834941864
2.599985122680664,0.05681738257408142,-0.2763151526451111,0.19911882281303406,-1.0407558155405132,-0.9143405207441964,-2.0677414979017383,-0.40049099922180176,0.862786591053009,-0.30855488777160645,2.615368127822876,-0.5061228275299072,-0.537000834941864
2.6286771297454834,0.024711817502975464,-0.59287029504776,0.06574326753616333,-0.9312869809956741,-0.8879586208650704,-1.970652275929149,-0.4629899859428406,0.8023886680603027,-0.3765800893306732,2.7250726222991943,-2.711055040359497,-2.041293144226074
2.648287296295166,-0.19059723615646362,-0.42386287450790405,0.1767062544822693,-0.8580681856456309,-0.9369959835466682,-1.949726984678753,-0.5269014835357666,0.7565807700157166,-0.3872470557689667,2.9014670848846436,-3.708468198776245,-3.055216073989868
2.6683061122894287,-0.7374732494354248,-0.366088330745697,0.5051989555358887,-0.7714473173949216,-0.9862868364073563,-1.9353050231501165,-0.5978843569755554,0.697173535823822,-0.39557987451553345,2.574422597885132,-1.913203477859497,-3.0915017127990723
2.688162326812744,-1.684154748916626,-0.362352192401886,0.31134283542633057,-0.7091257749406572,-1.0188353017729674,-1.9430659875245764,-0.6462284326553345,0.651170551776886,-0.39795175194740295,-0.0013170493766665459,-0.9911515116691589,-2.5970728397369385
2.7079672813415527,-1.6969950199127197,-0.16749459505081177,0.21547648310661316,-0.6862037707765366,-1.0636928956997573,-2.005530431066853,-0.6762958765029907,0.6336047649383545,-0.37572431564331055,-2.7396936416625977,0.6184638142585754,-1.596508502960205
2.728541135787964,-1.3275737762451172,0.19669020175933838,0.14020150899887085,-0.70380185427074,-1.0902096853826462,-2.0907613377771854,-0.676027238368988,0.6471208333969116,-0.3524513244628906,-3.6664552688598633,2.0526864528656006,0.047689955681562424
2.747972011566162,-0.9469335079193115,0.3054124712944031,0.14646732807159424,-0.75017955954403,-1.0925034220992256,-2.1682682310911443,-0.6494714617729187,0.6817701458930969,-0.3367139399051666,-3.478670120239258,2.742064952850342,1.2896642684936523
2.7679381370544434,-0.6288676261901855,0.1168256402015686,0.12770336866378784,-0.8053822064550071,-1.074543603526763,-2.220643080489299,-0.6092609763145447,0.7210955023765564,-0.3298823833465576,-2.2774643898010254,2.5673153400421143,1.764381766319275
2.7882533073425293,-0.4385353922843933,-0.10370326042175293,0.04345595836639404,-0.851049874698401,-1.0388792597121164,-2.2316887801958525,-0.5681173801422119,0.7519729137420654,-0.3343343138694763,-0.7462995052337646,1.809990644454956,1.838762879371643
2.807880163192749,-0.32512909173965454,-0.2515227198600769,0.09589919447898865,-0.8853010464317573,-0.9945538455495725,-2.2131361358230484,-0.5308278799057007,0.7741056084632874,-0.34493789076805115,-0.1739913672208786,1.2713314294815063,1.6863621473312378
2.8277812004089355,-0.34156250953674316,-0.4269680976867676,0.10654038190841675,-0.9132104205300146,-0.9514643507267727,-2.188953960278893,-0.49768611788749695,0.7914700508117676,-0.3548009395599365,-0.2577616274356842,1.222973108291626,1.504467487335205
2.8480031490325928,-0.30658435821533203,-0.4956662654876709,0.012984633445739746,-0.9409801152973184,-0.9145499392834597,-2.1741722854546404,-0.4666547179222107,0.8081357479095459,-0.35937443375587463,-0.6268599033355713,1.284200668334961,1.2034432888031006
2.8680520057678223,-0.1641874611377716,-0.4507066607475281,-0.10306918621063232,-0.9630922823396244,-0.8845316835646249,-2.1684603072367845,-0.4417237341403961,0.8209611177444458,-0.36180511116981506,-0.43023908138275146,1.2550405263900757,0.8048386573791504
2.8891773223876953,-0.019967228174209595,-0.2699124813079834,-0.1366361677646637,-0.9810284286861112,-0.8533308276092383,-2.1616153727268763,-0.4190586805343628,0.8310697674751282,-0.3656679391860962,-0.4892023503780365,1.3443052768707275,0.8574967384338379
2.9065980911254883,-0.016989916563034058,-0.22286391258239746,-0.14224916696548462,-0.99991428370993,-0.819907530094728,-2.155817614329848,-0.39505839347839355,0.8414246439933777,-0.3686913847923279,-0.5672369003295898,1.4929895401000977,0.7355044484138489
2.9280011653900146,-0.03934505581855774,-0.22764724493026733,-0.08804616332054138,-1.0161731665782645,-0.7830762231528582,-2.1506112457757087,-0.3715130388736725,0.8500989675521851,-0.3732423186302185,-0.35396796464920044,1.8005412817001343,0.7916510701179504
2.9474310874938965,-0.01976490020751953,-0.19508785009384155,-0.1151723861694336,-1.035518391259283,-0.7335850292360199,-2.136952350228866,-0.3415173888206482,0.8601269125938416,-0.3788767158985138,-0.6306654810905457,1.880063533782959,0.9596774578094482
2.967372179031372,0.0163152813911438,-0.2710944414138794,-0.16949135065078735,-1.0585583997667385,-0.6848021252105927,-2.1203036258065406,-0.310016393661499,0.8716498017311096,-0.37962672114372253,-0.6705873608589172,1.5257741212844849,1.261039137840271
2.9874231815338135,0.04724642634391785,-0.1820182204246521,-0.07759743928909302,-1.0871625076286833,-0.6341332670527362,-2.0953790724220385,-0.27550262212753296,0.8853110671043396,-0.3745967745780945,-0.7678292393684387,1.4680440425872803,1.3658404350280762
3.008063316345215,-0.013952791690826416,-0.09988725185394287,-0.0628354549407959,-1.1104360638630126,-0.5748540113782078,-2.064007549261636,-0.2415555864572525,0.8958925008773804,-0.3728640377521515,-0.3484092354774475,1.6660149097442627,1.1174975633621216
3.027285099029541,-0.06849534809589386,0.1011926531791687,-0.0011780858039855957,-1.128916899978641,-0.5314120143350485,-2.0507576530286618,-0.21670663356781006,0.9039495587348938,-0.3686644732952118,-1.030146837234497,1.4144935607910156,0.237116277217865
3.047168254852295,-0.09462089836597443,0.13355505466461182,0.010820150375366211,-1.142239146425578,-0.5240603921679702,-2.076124034121946,-0.2079455852508545,0.9095662832260132,-0.3597886562347412,-0.4053777754306793,1.7789193391799927,-0.3331732153892517
3.067399024963379,-0.008321017026901245,0.0658423900604248,-0.03228950500488281,-1.1408684629300359,-0.5050882957223424,-2.093927010597133,-0.20168565213680267,0.9089958071708679,-0.3647594451904297,-0.02815401926636696,1.6196084022521973,-0.3879811465740204
3.0873770713806152,0.09245289862155914,0.14275968074798584,-0.03083503246307373,-1.135161850563189,-0.49244867845393153,-2.1138284842790322,-0.19950851798057556,0.9066025018692017,-0.37184444069862366,0.15397049486637115,1.5135457515716553,-0.609750509262085
3.106633186340332,0.08303630352020264,0.02181851863861084,-0.005040764808654785,-1.125180191276101,-0.48535661906228644,-2.139071522239645,-0.20107825100421906,0.9023452997207642,-0.3812355101108551,0.15326134860515594,1.4908287525177002,-0.8251007795333862
3.127573013305664,0.0950121283531189,-0.08541136980056763,0.09134897589683533,-1.1161465183724544,-0.4909496129659636,-2.1778755479613916,-0.20704209804534912,0.8984148502349854,-0.3872779309749603,-0.1620001345872879,1.4413498640060425,-1.0754951238632202
3.1469972133636475,0.13973267376422882,-0.03680068254470825,0.14552345871925354,-1.1108330716199124,-0.5107193502519976,-2.231357166049699,-0.21698786318302155,0.896068811416626,-0.38726842403411865,-0.44927242398262024,1.4130152463912964,-1.221379280090332
3.167163133621216,0.15460312366485596,0.020535945892333984,0.0939178466796875,-1.1057851972237907,-0.5315862937369494,-2.287368941092958,-0.22731123864650726,0.8938165903091431,-0.3865509629249573,-0.3568374514579773,1.5029178857803345,-1.207472562789917
3.1839113235473633,0.15115590393543243,0.0024628043174743652,0.09451234340667725,-1.0981341587436648,-0.5479315599257528,-2.339137387163168,-0.23715439438819885,0.8903594613075256,-0.38861024379730225,-0.21024413406848907,1.5006036758422852,-1.190686583518982
3.20693302154541,0.16629593074321747,-0.0091477632522583,0.12784606218338013,-1.0894567543577114,-0.56278940196449,-2.389223222539052,-0.24701489508152008,0.8863755464553833,-0.39156368374824524,-0.2957538962364197,1.4556819200515747,-1.2533811330795288
3.224975109100342,0.1652335524559021,-0.05804091691970825,0.13306549191474915,-1.0811919717720813,-0.580605891585645,-2.442205598373691,-0.25796112418174744,0.882519006729126,-0.39321258664131165,-0.3264741897583008,1.4697868824005127,-1.2702447175979614
3.2457470893859863,0.16990849375724792,-0.1260669231414795,0.14298811554908752,-1.071868975766817,-0.5961452840394531,-2.4936235941859164,-0.26864805817604065,0.8780962824821472,-0.39594829082489014,-0.26067066192626953,1.502785563468933,-1.2882634401321411
3.2664880752563477,0.18940657377243042,-0.15281611680984497,0.16050657629966736,-1.0609141494171133,-0.6100363113880185,-2.5434277298424828,-0.27961644530296326,0.8728020191192627,-0.40003901720046997,-0.2069413661956787,1.4629801511764526,-1.328171730041504
3.286330223083496,0.19927749037742615,-0.18435019254684448,0.17899620532989502,-1.0490233758805432,-0.6248883104032853,-2.5931171380221842,-0.29157787561416626,0.8669368624687195,-0.4042311906814575,-0.2536679804325104,1.38448166847229,-1.3550559282302856
3.3056020736694336,0.1869802176952362,-0.18541383743286133,0.17709806561470032,-1.037676305689137,-0.6410561147350287,-2.6432713478484557,-0.30393874645233154,0.8612256050109863,-0.4073226749897003,-0.3649822473526001,1.344268560409546,-1.369208812713623
3.3265700340270996,0.17036914825439453,-0.09169363975524902,0.1395283043384552,-1.0274943443224562,-0.6598883141178421,-2.696179170303173,-0.31691449880599976,0.8560063242912292,-0.4084339439868927,-0.41962236166000366,1.3219373226165771,-1.4074472188949585
3.346219062805176,0.17998594045639038,-0.07925814390182495,0.09648734331130981,-1.0156859648097174,-0.6756552452370688,-2.7458472344285005,-0.329613596200943,0.8498423099517822,-0.4112456142902374,-0.31065624952316284,1.3368282318115234,-1.3514533042907715
3.3653860092163086,0.226730614900589,-0.1311589479446411,0.09983432292938232,-1.0047050190489923,-0.6908529688519441,-2.793738866066026,-0.3417513370513916,0.8440037965774536,-0.4133566617965698,-0.4560684263706207,1.1877586841583252,-1.3428982496261597
3.3851561546325684,0.23358547687530518,-0.09858942031860352,0.042183876037597656,-0.9949787765717982,-0.7115940256141816,-2.844346914160579,-0.355594664812088,0.8387473821640015,-0.41237732768058777,-0.5467165112495422,0.9935405850410461,-1.373671531677246
3.406280994415283,0.17986911535263062,0.12566697597503662,-0.08683937788009644,-0.984392229670928,-0.7329440851505988,-2.8926546856451147,-0.37023770809173584,0.8329359292984009,-0.41126853227615356,-0.378230482339859,0.9825299978256226,-1.2880961894989014
3.4261560440063477,0.12054157257080078,0.3287680745124817,-0.13604459166526794,-0.9722208189205717,-0.7411433408854751,-2.929192731997864,-0.3804139494895935,0.8261390924453735,-0.41566741466522217,-0.14117839932441711,1.2179932594299316,-1.0428659915924072
3.4449551105499268,0.18516185879707336,0.3791537284851074,-0.1355830430984497,-0.9624051465678465,-0.7402522454928975,-2.9574564571053266,-0.3854944705963135,0.8205686211585999,-0.4219731092453003,-0.2416139394044876,1.1568262577056885,-0.8136967420578003
3.4659290313720703,0.24687200784683228,0.4138032793998718,-0.16764786839485168,-0.9565350903515685,-0.7361993252671689,-2.979891901811861,-0.3870086371898651,0.8171994686126709,-0.42709389328956604,-0.17081362009048462,1.1089788675308228,-0.5522046685218811
3.4858622550964355,0.23886272311210632,0.33162689208984375,-0.1414041519165039,-0.9526677216978581,-0.7280996137498259,-2.9965785934174916,-0.3856370151042938,0.8149643540382385,-0.4325704872608185,-0.20395010709762573,1.0600956678390503,-0.44976645708084106
3.5057473182678223,0.2683737277984619,0.24817556142807007,-0.09704303741455078,-0.9509074091978555,-0.7209618048046654,-3.0122499937384233,-0.38348597288131714,0.8139429688453674,-0.4363889694213867,-0.29177772998809814,0.9668872356414795,-0.3577756881713867
3.5247740745544434,0.24233490228652954,0.18784797191619873,-0.0989808738231659,-0.9511865060594801,-0.7166447358141751,-3.0283558564689823,-0.38144922256469727,0.8141050934791565,-0.4378690719604492,-0.3501666784286499,0.81236332654953,-0.32282447814941406
3.5445523262023926,0.2025030255317688,0.16704589128494263,-0.08347168564796448,-0.9530884142493322,-0.7148389369313338,-3.045422540215886,-0.37964221835136414,0.8152080774307251,-0.43738704919815063,-0.4340393543243408,0.7590959668159485,-0.32259055972099304
3.5654892921447754,0.17029789090156555,0.1426607370376587,-0.08620262145996094,-0.954964238953334,-0.7164189114056176,-3.064289168093048,-0.37932801246643066,0.8162930607795715,-0.43563273549079895,-0.40829721093177795,0.5987449288368225,-0.3965810239315033
3.5854949951171875,0.08713662624359131,0.16144073009490967,-0.06366097927093506,-0.9546536221084558,-0.7237959996593274,-3.085499383582768,-0.3826993405818939,0.8161135911941528,-0.43301260471343994,-0.39434316754341125,0.4123280346393585,-0.5519233345985413
3.6054952144622803,-0.010793983936309814,0.24562978744506836,-0.08273249864578247,-0.9536400362075119,-0.7368967342302506,-3.1105586323468275,-0.3888947069644928,0.8155274391174316,-0.42857423424720764,-0.5236402153968811,0.33688947558403015,-0.5849486589431763
3.625584125518799,-0.07108250260353088,0.27582865953445435,-0.044309794902801514,-0.955352820285722,-0.7510674506366324,-3.137797016399517,-0.39397484064102173,0.8165174722671509,-0.4219988286495209,-0.6743003726005554,0.5124711394309998,-0.4109882712364197
3.6456990242004395,-0.020022153854370117,0.06636571884155273,0.002789825201034546,-0.9643532058118838,-0.759119005636911,3.120911433580135,-0.3922855257987976,0.8216804265975952,-0.41346484422683716,-0.9635374546051025,0.6240457892417908,-0.01571464352309704
3.6668710708618164,-0.039944201707839966,-0.08971357345581055,0.011715948581695557,-0.9803285626452274,-0.76714932086306,3.096772417012188,-0.38643211126327515,0.8306803703308105,-0.40079978108406067,-1.049778938293457,0.5685305595397949,0.05811675637960434
3.685432195663452,-0.17887723445892334,-0.07418864965438843,-0.009737074375152588,-0.9916768734197078,-0.7773589794356,3.0724052907696584,-0.3838668167591095,0.8369448781013489,-0.39008891582489014,-0.6013201475143433,0.4453418254852295,-0.2862507700920105
3.7052383422851562,-0.3368731141090393,-0.135786771774292,-0.058665573596954346,-0.9874498511658335,-0.7870904287602203,3.052521891453376,-0.3901471197605133,0.8346239924430847,-0.3888288736343384,0.06625593453645706,0.22590339183807373,-0.8290850520133972
3.7258172035217285,-0.40256670117378235,-0.3045364022254944,-0.003302276134490967,-0.9702263717819296,-0.8036864182496718,3.028575100453493,-0.40683573484420776,0.8250136375427246,-0.39222076535224915,0.029934879392385483,0.11957766860723495,-1.3127939701080322
3.7451863288879395,-0.35082095861434937,-0.3822956681251526,0.12206265330314636,-0.9528419548773247,-0.8334285576282422,2.988746776488086,-0.42887258529663086,0.815065324306488,-0.3895339369773865,-0.4954901337623596,0.19850701093673706,-1.473559856414795
3.7649660110473633,-0.29108089208602905,-0.27720707654953003,0.18309280276298523,-0.9410073879867392,-0.8693726543530234,2.9367191588493133,-0.4499315917491913,0.8081518411636353,-0.38006848096847534,-0.9802761077880859,0.4295545220375061,-1.4250359535217285
3.7853951454162598,-0.19580131769180298,-0.17339438199996948,0.12615668773651123,-0.9323161990948093,-0.9051195212264175,2.8803980989968254,-0.46873417496681213,0.8030024766921997,-0.36806949973106384,-1.0233603715896606,0.48144736886024475,-1.3608052730560303
3.804929256439209,-0.06795823574066162,-0.18685835599899292,0.0294569730758667,-0.9230133513998268,-0.9392204384685189,2.827437764207761,-0.4870191514492035,0.7974235415458679,-0.3562696874141693,-0.8732930421829224,0.34194478392601013,-1.3152594566345215
3.8252310752868652,0.04100698232650757,-0.2614399194717407,-0.06783029437065125,-0.9094732498342009,-0.9676324055077334,2.785918034248814,-0.505789577960968,0.789180338382721,-0.34838366508483887,-0.42813840508461,0.10446964204311371,-1.2584410905838013
3.844006061553955,0.14208030700683594,-0.2403901219367981,-0.06954053044319153,-0.8913594007582014,-0.9908824755849801,2.7564585556777663,-0.5256251096725464,0.7779266238212585,-0.3443082869052887,-0.11913787573575974,-0.11526148021221161,-1.2880723476409912
3.863835334777832,0.19330525398254395,-0.2631934881210327,-0.07142195105552673,-0.870913535022498,-1.012081363505307,2.734136026077838,-0.5461799502372742,0.7649176716804504,-0.3414503037929535,-0.0409114770591259,-0.2624797821044922,-1.1459276676177979
3.8831419944763184,0.1869099736213684,-0.23621797561645508,-0.07315906882286072,-0.8549355867877775,-1.0314764344695795,2.714903844452481,-0.5631154179573059,0.7545286417007446,-0.3370276987552643,-0.17794294655323029,-0.1684345006942749,-0.9058483242988586
3.9046571254730225,0.11435997486114502,-0.18431240320205688,-0.10373133420944214,-0.8414681449678781,-1.0441995540644013,2.697868143335736,-0.576090931892395,0.7456222772598267,-0.33491307497024536,-0.13302753865718842,0.20808249711990356,-0.8196563720703125
3.9237732887268066,0.09181851148605347,-0.15715116262435913,-0.10339722037315369,-0.8322636066938474,-1.0500684104533642,2.6792352102998467,-0.5839754939079285,0.7394571304321289,-0.3349267542362213,-0.5945628881454468,0.5420564413070679,-0.6268779039382935
3.943739175796509,0.11131298542022705,-0.16264235973358154,-0.1393193006515503,-0.8297933154944145,-1.061721588082806,2.6473537733574735,-0.5894318222999573,0.737791895866394,-0.3289881944656372,-1.1284828186035156,0.6341601610183716,-0.6542004346847534
3.96486234664917,0.15378326177597046,-0.13233816623687744,-0.22355851531028748,-0.8319202220030398,-1.0813237293788756,2.602961511054817,-0.5943807363510132,0.7392259240150452,-0.31663307547569275,-1.6264554262161255,0.6794753074645996,-0.608921468257904
3.984978199005127,0.19473016262054443,-0.15296512842178345,-0.22414785623550415,-0.8361172466530534,-1.1077527841094914,2.548529712924556,-0.5997593998908997,0.7420459389686584,-0.29942697286605835,-1.6962357759475708,0.719834566116333,-0.6733658909797668
4.000721216201782,0.2604842185974121,-0.24428677558898926,-0.2013963758945465,-0.8404263478038662,-1.1297508401839456,2.4981859441443546,-0.6033033728599548,0.7449276447296143,-0.2847943902015686,-1.5358996391296387,0.8225739002227783,-0.3714163303375244
4.0206382274627686,0.33584821224212646,-0.16641032695770264,-0.18709659576416016,-0.8468832889999436,-1.142549963328969,2.4581991287603815,-0.6025107502937317,0.7492197751998901,-0.27504631876945496,-1.1309396028518677,0.8625283241271973,-0.24105201661586761
4.041384220123291,0.36196720600128174,-0.07389891147613525,-0.2535836696624756,-0.846864168387517,-1.147171527365395,2.4318970408643206,-0.6037884950637817,0.7492071390151978,-0.2722647190093994,-0.42862004041671753,0.6044827699661255,-0.49642905592918396
4.064552307128906,0.3481234312057495,-0.0458412766456604,-0.3389629125595093,-0.8361293913737541,-1.1484208997590997,2.419551024646049,-0.6114290356636047,0.7420540452003479,-0.27479133009910583,0.12443485856056213,0.20201164484024048,-0.8262513279914856
4.085621118545532,0.3389371633529663,-0.1729799509048462,-0.3128209114074707,-0.8183472287325012,-1.146495735119797,2.4194585896507816,-0.6228269338607788,0.7300173044204712,-0.2813563048839569,0.43086978793144226,0.02565942518413067,-0.7253254652023315
4.104045152664185,0.40453916788101196,-0.1588861346244812,-0.1533324122428894,-0.8038428488731751,-1.1472554093429839,2.4182700743449637,-0.6326274871826172,0.7200281023979187,-0.2852051556110382,0.0972156897187233,-0.013408792205154896,-0.7136984467506409
4.122899055480957,0.417611300945282,-0.1625460982322693,-0.15529125928878784,-0.7888496762580031,-1.1546075605308013,2.4101183624957967,-0.644509494304657,0.7095431685447693,-0.28487899899482727,0.0303705595433712,-0.14215832948684692,-0.8560325503349304
4.143031120300293,0.41994184255599976,-0.19030863046646118,-0.14547526836395264,-0.7726207786266257,-1.1651211043250929,2.3998697995785947,-0.6579636931419373,0.6980143189430237,-0.28259479999542236,-0.020636659115552902,-0.1933932900428772,-0.912898063659668
4.16291618347168,0.40128129720687866,-0.2324920892715454,-0.10690468549728394,-0.7564576585112228,-1.17727393139189,2.3903702124136017,-0.6716822385787964,0.6863495111465454,-0.2788679897785187,-0.01838010922074318,-0.38575688004493713,-0.824612557888031
4.184033155441284,0.3161361813545227,-0.16149652004241943,-0.042092859745025635,-0.7420620681904291,-1.1945592976065313,2.3797413698534213,-0.6855209469795227,0.6758092641830444,-0.27081912755966187,-0.14393803477287292,-0.5854014754295349,-0.866684079170227
4.204256057739258,0.1642882227897644,-0.050720930099487305,0.034936994314193726,-0.7242418865744843,-1.213979278715702,2.36711995171788,-0.7018247842788696,0.6625677943229675,-0.26162153482437134,-0.0683567076921463,-0.4670478403568268,-1.1319818496704102
4.2240753173828125,0.10020887851715088,-0.009386181831359863,0.10427811741828918,-0.7022901041639178,-1.2279470102976282,2.355928181063716,-0.7189373970031738,0.6459675431251526,-0.2566218078136444,0.030882658436894417,-0.24392305314540863,-1.2035925388336182
4.243607997894287,0.1583426594734192,-0.06879973411560059,0.12003204226493835,-0.6788090991422904,-1.236968021534331,2.350215695388821,-0.7353537678718567,0.6278665661811829,-0.25502654910087585,0.340210884809494,-0.30567988753318787,-1.1507986783981323
4.263719081878662,0.17740195989608765,-0.1088036298751831,0.16526749730110168,-0.652879474132402,-1.243677699965865,2.3510597637193937,-0.7522158622741699,0.6074761748313904,-0.2552333176136017,0.6160300374031067,-0.40257528424263,-1.3550736904144287
4.283668041229248,0.061815738677978516,-0.18623459339141846,0.1500207483768463,-0.6194441814181616,-1.2470893946072181,2.3581171832916348,-0.7719139456748962,0.5805826783180237,-0.25898370146751404,0.9181419610977173,-0.3498191833496094,-1.5950596332550049
4.303749084472656,-0.09909230470657349,-0.0651126503944397,0.14363262057304382,-0.5824084494098506,-1.2507130071994594,2.363853578876168,-0.792722761631012,0.5500369071960449,-0.26277321577072144,0.6900764107704163,-0.3294190466403961,-1.8225680589675903
4.323543071746826,-0.24577784538269043,-0.010307490825653076,0.18720391392707825,-0.5422625274590085,-1.253692886583456,2.366124998718408,-0.8138381838798523,0.5160752534866333,-0.26708364486694336,0.712130606174469,-0.016158685088157654,-1.793542742729187
4.343325138092041,-0.21185773611068726,-0.09367945790290833,0.2994053363800049,-0.5112976628586345,-1.252161958637149,2.362633368664655,-0.8282118439674377,0.4893093705177307,-0.27320596575737,-0.09165310859680176,0.2351527363061905,-1.3476570844650269
4.36336612701416,-0.1526801586151123,-0.1318749189376831,0.36834704875946045,-0.48743566114045045,-1.2537150826588077,2.344800588168007,-0.8394920825958252,0.4683617353439331,-0.27548202872276306,-0.6359825730323792,0.45571139454841614,-1.397890329360962
4.383114337921143,-0.05870091915130615,-0.07227614521980286,0.31138086318969727,-0.46463905035179826,-1.2605480621957126,2.320712452514203,-0.8513026833534241,0.44810014963150024,-0.27292871475219727,-0.47771936655044556,-0.08098428696393967,-1.482899785041809
4.403263092041016,-0.137018084526062,0.03051358461380005,0.16700750589370728,-0.43354857670784425,-1.274285844032736,2.310143896733219,-0.8678799867630005,0.42009371519088745,-0.2651520371437073,0.5387830138206482,-0.8024753332138062,-1.8484636545181274
4.423147201538086,-0.49051856994628906,0.20564696192741394,0.1532493233680725,-0.38491896767110173,-1.2900369610186408,2.31653257259214,-0.8905391693115234,0.37548404932022095,-0.25681072473526,1.3170627355575562,-0.8505131006240845,-2.693734884262085
4.443302154541016,-0.5756193399429321,0.1467973291873932,0.33899611234664917,-0.3238613572520619,-1.300016607930843,2.3247149099252207,-0.9134706258773804,0.3182295560836792,-0.2535773813724518,0.8915236592292786,-0.4533071517944336,-2.818756103515625
4.462351322174072,-0.3735462427139282,0.013597100973129272,0.3953757584095001,-0.2727938017137385,-1.3090690967723484,2.31988140504227,-0.9302257895469666,0.2694229781627655,-0.24918131530284882,0.12295814603567123,-0.4026115834712982,-2.2132489681243896
4.482887268066406,-0.4059333801269531,0.11559370160102844,0.29522281885147095,-0.23722629592411226,-1.3188037949041578,2.3139038674959576,-0.9412955045700073,0.23500750958919525,-0.24235107004642487,0.35256227850914,-0.37048277258872986,-1.4505976438522339
4.502959251403809,-0.6159307956695557,0.4568227529525757,0.17572548985481262,-0.20798844256332416,-1.3214414454052816,2.321649270034581,-0.9481866955757141,0.2064921110868454,-0.24146035313606262,1.135351300239563,-0.07554034143686295,-1.2845921516418457
4.522854328155518,-0.5114791989326477,0.6173858642578125,0.1545969545841217,-0.17964516860589347,-1.3171816919364927,2.3452644122538384,-0.9524336457252502,0.17868046462535858,-0.24686680734157562,1.749585747718811,0.016273735091090202,-0.7159117460250854
4.542707204818726,-0.3345381021499634,0.4453975558280945,0.32758840918540955,-0.16815626833884753,-1.3101165110013826,2.376798178233748,-0.9525864720344543,0.1673649102449417,-0.25410205125808716,1.402089238166809,0.2763710916042328,0.3924257755279541
4.562525272369385,-0.4417620301246643,0.12680162489414215,0.6010652780532837,-0.17933388909272463,-1.293334793256087,2.3984399355936747,-0.9463300108909607,0.17837418615818024,-0.2695223093032837,0.37419790029525757,1.000150203704834,1.230880618095398
4.5828142166137695,-0.6193631887435913,-0.10942773520946503,0.6993598341941833,-0.20814112995634262,-1.2661234765908091,2.4059389039388854,-0.9333558678627014,0.20664151012897491,-0.29350653290748596,-0.396327942609787,1.5170810222625732,1.7116706371307373
4.602621078491211,-0.670806348323822,-0.14640797674655914,0.6162714958190918,-0.24638157307685213,-1.2383538252100057,2.4076170404092347,-0.9167027473449707,0.24389640986919403,-0.3164973258972168,-0.5664256811141968,1.1305211782455444,1.8442095518112183
4.622564315795898,-0.6803218126296997,-0.217261403799057,0.5408737063407898,-0.28600997665172173,-1.2171293941285564,2.4126864621190456,-0.9000003933906555,0.2821265459060669,-0.3322708010673523,-0.45563435554504395,0.7819406390190125,2.047231435775757
4.642306327819824,-0.7206391096115112,-0.12269973754882812,0.48639050126075745,-0.324259961192128,-1.2082742406027964,2.4174636590103624,-0.8862793445587158,0.3186073899269104,-0.33615246415138245,-0.34734946489334106,-0.033668700605630875,1.6972932815551758
4.66225528717041,-0.728952169418335,-0.05386751890182495,0.4513019621372223,-0.3597817948314653,-1.2067688168946484,2.4264871488761077,-0.8746396899223328,0.35207000374794006,-0.3332446813583374,-0.20441892743110657,0.025899197906255722,2.046212673187256
4.682251214981079,-0.798234760761261,0.01601073145866394,0.3733021318912506,-0.40253273292440517,-1.1991752617307279,2.438155639467326,-0.8572674989700317,0.39174988865852356,-0.33410224318504333,-0.2075791358947754,0.23994410037994385,2.30086350440979
4.700534343719482,-0.8022828698158264,0.02121102809906006,0.1465844213962555,-0.449000729704311,-1.1878882868452798,2.4554670550358457,-0.8356414437294006,0.4340655207633972,-0.3365868330001831,-0.055848732590675354,0.17705178260803223,2.6221210956573486
4.7222981452941895,-0.7788404226303101,0.05564677715301514,0.09467881917953491,-0.49887888110840445,-1.1749346978812798,2.4799829868622156,-0.8102098107337952,0.47844135761260986,-0.3386057913303375,0.19300103187561035,0.03364580124616623,2.8158788681030273
4.7423200607299805,-0.8571375012397766,0.04378926753997803,0.13207507133483887,-0.5504904255467546,-1.1594753587629976,2.509970503476921,-0.7811833620071411,0.523105263710022,-0.3407542407512665,0.10167814791202545,0.011726920492947102,2.934767723083496
4.76203727722168,-0.8820383548736572,-0.04793047904968262,0.17036941647529602,-0.6049031148921027,-1.1451790511385935,2.5377931402871834,-0.7491718530654907,0.5686823725700378,-0.33961987495422363,-0.21407288312911987,-0.1401636302471161,2.963261604309082
4.782192230224609,-0.8560428023338318,-0.09805405139923096,0.18233400583267212,-0.6600549755528675,-1.1373140317750534,2.5588177316901914,-0.7168942093849182,0.613160252571106,-0.3318091034889221,-0.5839701890945435,-0.2651814818382263,2.7797529697418213
4.801890134811401,-0.7965765595436096,-0.06014496088027954,0.1724877655506134,-0.7142346647846997,-1.138900964459196,2.5688223787276456,-0.6862114071846008,0.6550393104553223,-0.31628653407096863,-0.8802835941314697,-0.5629701614379883,2.418966054916382
4.821659088134766,-0.7255438566207886,-0.005831360816955566,0.061160653829574585,-0.7619808254590182,-1.1500815330738057,2.573005215378164,-0.6603813767433167,0.6903558373451233,-0.2954745590686798,-0.786259114742279,-0.8595810532569885,2.0885658264160156
4.841625213623047,-0.5975527763366699,0.08031773567199707,-0.011231064796447754,-0.8021849115907338,-1.166111006438419,2.578066944065758,-0.6389889717102051,0.7188766002655029,-0.27369627356529236,-0.4864002466201782,-1.054382562637329,1.7365132570266724
4.8616743087768555,-0.4822671413421631,0.13095945119857788,-0.04860076308250427,-0.8335876854726169,-1.1824952737488406,2.585440481396482,-0.6221792101860046,0.7403478622436523,-0.25451502203941345,-0.30491355061531067,-1.1234620809555054,1.3395280838012695
4.881715297698975,-0.3780783414840698,0.14342063665390015,-0.08934220671653748,-0.8564479294310261,-1.2001175386392766,2.5918168469763967,-0.6106300950050354,0.7555202841758728,-0.23731788992881775,-0.1511860340833664,-1.0979902744293213,0.9902776479721069
4.9024152755737305,-0.2729080319404602,0.16378986835479736,-0.09296071529388428,-0.874646228362119,-1.2166884792800625,2.596697993433493,-0.6014816164970398,0.7673166990280151,-0.22236216068267822,-0.22730089724063873,-0.9832144379615784,0.8201766610145569
4.9236931800842285,-0.21515780687332153,0.20480245351791382,-0.1331970989704132,-0.8888102408279733,-1.2362464107167788,2.596151629783663,-0.5953889489173889,0.7763223648071289,-0.2069670557975769,-0.25144287943840027,-0.9405894875526428,0.49626195430755615
4.941662311553955,-0.10009384155273438,0.23608547449111938,-0.14517651498317719,-0.8990870245883956,-1.2594831532939952,2.5897593135821655,-0.5924109816551208,0.7827590703964233,-0.19062365591526031,-0.4982423186302185,-0.8947417140007019,0.35837653279304504
4.9605021476745605,-0.023693859577178955,0.19625324010849,-0.15206150710582733,-0.908346510916674,-1.2901722839568952,2.5732932988600106,-0.5909910798072815,0.7884878516197205,-0.17034141719341278,-0.7169604301452637,-0.8458287119865417,0.2557334005832672
4.9813501834869385,0.004936635494232178,0.1601911187171936,-0.17915385961532593,-0.9179919490432132,-1.3221598586357115,2.5499026807550678,-0.5887378454208374,0.7943835258483887,-0.14947465062141418,-0.9036155939102173,-0.5439484715461731,0.275043785572052
5.001461029052734,0.08910989761352539,0.13231658935546875,-0.2016540765762329,-0.9267537244019002,-1.3518881645319702,2.522793343430202,-0.5861038565635681,0.7996749877929688,-0.13039244711399078,-0.9281681776046753,-0.24764561653137207,0.20957034826278687
5.022899150848389,0.20143252611160278,0.047992825508117676,-0.2176380753517151,-0.9341404792476101,-1.37748657847427,2.4944754345678093,-0.5834361910820007,0.8040883541107178,-0.1142100915312767,-0.8601720929145813,-0.05533129721879959,0.15192197263240814
5.0413291454315186,0.2723679542541504,-0.027190864086151123,-0.23060715198516846,-0.9390912436547404,-1.3990264312197258,2.4669465095355516,-0.5818313956260681,0.8070217967033386,-0.10093577951192856,-0.8205582499504089,0.16447918117046356,0.06985118985176086
5.06112003326416,0.3672189712524414,-0.09598302841186523,-0.18095660209655762,-0.9441048892831394,-1.4159738064297382,2.4385247956703173,-0.5794534683227539,0.8099722862243652,-0.090436190366745,-0.8921725749969482,0.4331640899181366,0.14877542853355408
5.0828001499176025,0.45423322916030884,-0.13169676065444946,-0.16051316261291504,-0.9517828632090424,-1.429034494291594,2.407383865683768,-0.5744113922119141,0.814451277256012,-0.08197951316833496,-1.029971957206726,0.7186482548713684,0.2983241677284241
5.103008270263672,0.5350807905197144,-0.14300423860549927,-0.16019487380981445,-0.9610220808213438,-1.4354436490101619,2.3786419817878945,-0.5674446225166321,0.8197773098945618,-0.07727764546871185,-0.7037888765335083,1.0009450912475586,0.3907712399959564
5.122779130935669,0.6326150894165039,-0.14996182918548584,-0.1379166841506958,-0.9698701744162691,-1.4216385919876733,2.3687761057133656,-0.5591287612915039,0.8248122930526733,-0.0840224102139473,-0.0009669899009168148,1.2165522575378418,0.40575331449508667
5.140398025512695,0.7435225248336792,-0.2143898606300354,-0.04302292317152023,-0.9747819572587165,-1.391149585329591,2.3731729356368367,-0.5523145794868469,0.8275794982910156,-0.10030286014080048,0.1258189082145691,1.434970498085022,0.14301355183124542
5.160389184951782,0.8778069615364075,-0.34983545541763306,-0.1177549958229065,-0.9789144901574207,-1.3585961432208598,2.38272200917304,-0.5454094409942627,0.8298922181129456,-0.11750500649213791,0.31773272156715393,0.9585561156272888,0.4749622344970703
5.180420160293579,1.024087905883789,-0.4135141968727112,-0.02392520010471344,-0.9924874024582767,-1.3352793462106793,2.3925084240571763,-0.5315189361572266,0.8373882174491882,-0.12754881381988525,-0.058077335357666016,0.5188866257667542,0.9150117635726929
5.2007880210876465,0.9624170064926147,-0.5124058723449707,-0.07928800582885742,-1.0125314518171422,-1.3226377159854001,2.400655023112074,-0.5134881734848022,0.8481755256652832,-0.13010834157466888,-0.002226878423243761,0.10193333029747009,1.1565898656845093
5.220422267913818,0.8619214296340942,-0.5266954302787781,-0.1011463850736618,-1.0357047644036674,-1.3081284689601687,2.4150802504415503,-0.4924297332763672,0.8602219223976135,-0.132404625415802,0.17755632102489471,0.127377450466156,1.1597954034805298
5.2404890060424805,0.8263704776763916,-0.5933409929275513,-0.16240167617797852,-1.0551984513757402,-1.2942400157564107,2.434807477065957,-0.4743196368217468,0.8699980974197388,-0.13462592661380768,0.34335967898368835,-0.4231339991092682,0.9307960867881775
5.260512113571167,0.8827286958694458,-0.5756768584251404,-0.10573409497737885,-1.0692168270291218,-1.2833411404093165,2.4641638250672737,-0.4610825479030609,0.8768242001533508,-0.13631603121757507,0.5824747085571289,-1.0942758321762085,0.9540471434593201
5.280580043792725,0.8179125785827637,-0.4202909469604492,-0.0451999306678772,-1.085735083509491,-1.2707425319847532,2.5078528998711214,-0.4454302489757538,0.8846464157104492,-0.1378139704465866,0.9228976964950562,-1.261353850364685,1.3053169250488281
5.300472259521484,0.5942162275314331,-0.3062747120857239,-0.09479840099811554,-1.1054064399899937,-1.2388921639393975,2.5686832198729546,-0.424279123544693,0.8936466574668884,-0.14622943103313446,1.1188510656356812,-1.0798139572143555,1.2476089000701904
5.320510149002075,0.4533792734146118,-0.19233232736587524,-0.12469588220119476,-1.1141412671922242,-1.201205693587715,2.637888499010146,-0.41117343306541443,0.8975324630737305,-0.15928541123867035,1.4743328094482422,-1.3434648513793945,0.6762229800224304
5.3404340744018555,0.45115208625793457,-0.2610050439834595,0.03944939374923706,-1.113433657991188,-1.1611068746355884,2.712700740470264,-0.4050399959087372,0.8972201943397522,-0.17589350044727325,1.6271770000457764,-1.3550302982330322,0.5100613832473755
5.360420227050781,0.3735485374927521,-0.37277108430862427,0.16077227890491486,-1.1039429570606043,-1.1143676765460044,2.7959696913550434,-0.4040050208568573,0.892988920211792,-0.19836993515491486,2.2815046310424805,-1.4230064153671265,0.1924375295639038
5.3804121017456055,0.27280738949775696,-0.26875656843185425,0.031006932258605957,-1.0760084859936543,-1.0589813330011961,2.8932031075688505,-0.4139969050884247,0.8800694942474365,-0.23256029188632965,2.7310662269592285,-1.1743417978286743,-0.22316521406173706
5.400500297546387,0.2579236626625061,-0.171908438205719,0.11319777369499207,-1.0540235019860071,-1.0351871509358164,2.9590596299572867,-0.42488524317741394,0.869418203830719,-0.2521595060825348,0.5438814759254456,-1.7599444389343262,-0.46885791420936584
5.42048716545105,0.0941990315914154,-0.3267488479614258,0.33009737730026245,-1.0525928468176107,-1.126477475435577,2.9052621547518505,-0.44722631573677063,0.868710458278656,-0.21290984749794006,-2.2875137329101562,-2.4624922275543213,-1.1990466117858887
5.440113067626953,-0.29209277033805847,-0.044569551944732666,0.15710455179214478,-1.0350589934912597,-1.2365813576512799,2.8260242202484145,-0.48222970962524414,0.8598924875259399,-0.16745001077651978,0.414055734872818,-1.5050864219665527,-1.8045014142990112
5.460418224334717,-0.5685001611709595,0.8501637578010559,-0.32920825481414795,-0.971241515762022,-1.174047281104733,2.939597118581152,-0.5204432010650635,0.8255869150161743,-0.21804821491241455,7.274411201477051,-2.3725452423095703,-2.030684232711792
5.481657028198242,-0.3894117474555969,0.7269303798675537,-0.1544906497001648,-0.8573827549611376,-1.0744935334806098,-3.137864435543707,-0.5754624605178833,0.7561323642730713,-0.3116195499897003,7.941677570343018,-3.736499071121216,-2.654599905014038
5.500423192977905,-0.5105538368225098,-0.10199171304702759,0.38601529598236084,-0.7449495121720351,-1.0562717519130305,-3.0121686732377086,-0.639943540096283,0.6779347062110901,-0.36176908016204834,5.073745250701904,-3.341735601425171,-2.8347017765045166
5.520411014556885,-0.9426792860031128,-0.2926691174507141,0.33238649368286133,-0.6633485338866972,-1.0736262070527733,-2.953039606820596,-0.6925440430641174,0.6157587170600891,-0.37579774856567383,2.9705488681793213,-2.2920961380004883,-2.155205726623535
5.5404253005981445,-1.0351543426513672,0.2163887619972229,0.10161525011062622,-0.5979185657919603,-1.0922801831387055,-2.9218871769829264,-0.7336748838424683,0.5629233717918396,-0.3805764317512512,2.5412237644195557,-1.4184917211532593,-2.4336493015289307
5.560425281524658,-0.7752308249473572,0.24201858043670654,-0.030917048454284668,-0.5408124424096592,-1.1013127342837299,-2.900684710563549,-0.7645336389541626,0.5148326754570007,-0.3878604769706726,1.4390126466751099,-0.6301857829093933,-1.768485426902771
5.580426216125488,-0.576276957988739,0.002084970474243164,0.18686175346374512,-0.5132055032536458,-1.105439268950733,-2.9068685058302637,-0.7785356044769287,0.4909723103046417,-0.3909328281879425,-0.7975413799285889,0.534436821937561,-0.8991274833679199
5.600422143936157,-0.3679879903793335,-0.14934471249580383,0.2903941869735718,-0.5228141393364424,-1.1065027757177217,-2.9454617796892153,-0.7746968865394592,0.4993203282356262,-0.3879741430282593,-2.350144386291504,1.1013023853302002,0.2793333828449249
5.620423316955566,-0.18477660417556763,-0.0817984938621521,0.10418784618377686,-0.5581627850049509,-1.106129937865791,-2.986226888691869,-0.7582927942276001,0.5296286940574646,-0.38011255860328674,-2.134662628173828,1.0306555032730103,1.211032748222351
5.640454292297363,-0.24794358015060425,0.03305196762084961,-0.0003178417682647705,-0.5965928528791906,-1.0945393015564997,-3.005131752789589,-0.7351953387260437,0.5618271827697754,-0.37925979495048523,-1.0130665302276611,1.207100749015808,1.3791598081588745
5.660435199737549,-0.39083433151245117,-0.03796041011810303,-0.010577797889709473,-0.6256556377278034,-1.0677119804965058,-3.003562772811378,-0.710148274898529,0.585628867149353,-0.390804648399353,-0.37719398736953735,1.3652927875518799,1.2477586269378662
5.680612087249756,-0.34933799505233765,-0.1805928349494934,0.03939366340637207,-0.6510515336769194,-1.0366104836631378,-2.9976647914400707,-0.6846280097961426,0.6060231924057007,-0.40499424934387207,-0.5100418329238892,1.3555827140808105,1.1904603242874146
5.700515270233154,-0.24302232265472412,-0.28869789838790894,0.03316092491149902,-0.6769332502108967,-1.0103224166867488,-2.9959413312074776,-0.6602368950843811,0.6264054775238037,-0.41437122225761414,-0.7225992679595947,1.180168628692627,1.078770399093628
5.7205541133880615,-0.14705491065979004,-0.23206967115402222,0.03266942501068115,-0.7013867735868733,-0.9885835160593148,-2.9972871513765584,-0.6380860805511475,0.645277738571167,-0.42007485032081604,-0.6392406821250916,1.0910826921463013,0.9483242034912109
5.740488052368164,-0.10819852352142334,-0.16933608055114746,-0.03843128681182861,-0.7230317102431153,-0.9679494816485941,-2.9967018818569247,-0.6176314949989319,0.66166090965271,-0.4251307547092438,-0.5717995166778564,0.9521111845970154,0.8674476146697998
5.76049017906189,-0.13540679216384888,-0.14736628532409668,-0.09131711721420288,-0.7419784408404648,-0.9521345746812234,-2.999065641377903,-0.6005093455314636,0.6757476329803467,-0.4274969696998596,-0.6766372323036194,0.798292338848114,0.5400146245956421
5.78044319152832,-0.17734193801879883,-0.1151571273803711,-0.09368878602981567,-0.7560451891044675,-0.9440116714948223,-3.009760850998548,-0.5892595648765564,0.6860494613647461,-0.42674270272254944,-0.7609402537345886,0.7938498258590698,0.19527611136436462
5.800410270690918,-0.11636251211166382,-0.11228317022323608,-0.059818923473358154,-0.7675092416283781,-0.9374023740783624,-3.0242278853120745,-0.5800485610961914,0.6943449378013611,-0.42594465613365173,-0.7575927972793579,0.8764206767082214,0.16172589361667633
5.819608211517334,-0.05293440818786621,-0.1354960799217224,-0.037126362323760986,-0.7802522832642708,-0.9299063458078531,-3.038752362183491,-0.5697004199028015,0.7034587264060974,-0.4249555468559265,-0.8273925185203552,0.8779416084289551,0.24831849336624146
5.8404381275177,-0.00960451364517212,-0.154343843460083,-0.05189788341522217,-0.7952247566985258,-0.9242457139824789,-3.0528693698899425,-0.5588158369064331,0.7140209674835205,-0.42178067564964294,-0.9178971648216248,0.6449692845344543,0.2981196641921997
5.8604161739349365,0.03283292055130005,-0.08721619844436646,-0.0017489194869995117,-0.808538638312828,-0.9255923806861116,-3.06926714577186,-0.5517385005950928,0.723278820514679,-0.4152737557888031,-0.7503300905227661,0.46004462242126465,0.097300685942173
5.8804240226745605,0.07078278064727783,-0.13295382261276245,0.10376393795013428,-0.8176297590501683,-0.9253647904777766,-3.081944399129728,-0.5463686585426331,0.7295267581939697,-0.4114269018173218,-0.5484434366226196,0.555611252784729,0.14991158246994019
5.900424003601074,0.10514938831329346,-0.18799126148223877,0.19597911834716797,-0.8283763272030336,-0.9167750685040947,-3.0905439290947654,-0.5365610718727112,0.7368346452713013,-0.41131114959716797,-0.5774750113487244,0.9267105460166931,0.3695967197418213
5.920464992523193,0.1325458288192749,-0.17692255973815918,0.0582045316696167,-0.8398141252521042,-0.9050707420193513,-3.0975036447695596,-0.5250476002693176,0.744519054889679,-0.4123305380344391,-0.4067675769329071,0.6724028587341309,0.14908714592456818
5.939457178115845,0.16521233320236206,-0.10229772329330444,0.0030718445777893066,-0.8422261118956846,-0.8993583495717545,-3.103521168998519,-0.5212761759757996,0.7461271286010742,-0.4142046868801117,-0.15422311425209045,0.41590455174446106,-0.14356155693531036
5.960452079772949,0.19313031435012817,-0.1317693591117859,0.07548773288726807,-0.842694912857085,-0.8989744060187719,-3.113944571679497,-0.5208432674407959,0.7464391589164734,-0.4141870439052582,-0.4655655324459076,0.38320034742355347,-0.25849324464797974
5.980463027954102,0.2244967818260193,-0.1992970108985901,0.06125923991203308,-0.8459682299534106,-0.9089520801655842,-3.134926796752391,-0.5230196118354797,0.7486134171485901,-0.4074659049510956,-0.7928577065467834,0.13828735053539276,-0.30168798565864563
6.000424146652222,0.26142311096191406,-0.06392985582351685,0.014751613140106201,-0.8524727781819855,-0.9283006271980521,3.121084279298198,-0.5268955230712891,0.7529100775718689,-0.3943445682525635,-1.0116530656814575,0.008779156021773815,-0.33445149660110474
6.020424127578735,0.22438079118728638,0.01457303762435913,-0.046018123626708984,-0.8568479690519826,-0.9490677684384836,3.0918273212147915,-0.5322878956794739,0.7557823061943054,-0.3813958764076233,-0.8321713209152222,0.08971555531024933,-0.4322047829627991
6.040470123291016,0.23719805479049683,0.08487498760223389,-0.1058855652809143,-0.8590337925717633,-0.9697051119354668,3.0624155450940056,-0.538681149482727,0.7572118043899536,-0.3693951964378357,-0.8669406771659851,0.055647239089012146,-0.4997507631778717
6.060520172119141,0.2697561979293823,0.13101130723953247,-0.15651217103004456,-0.8600019256397564,-0.9912329710016252,3.0333722980401068,-0.5458945035934448,0.7578437924385071,-0.35731229186058044,-0.7671647667884827,0.0017668752698227763,-0.4339609742164612
6.080386161804199,0.29811811447143555,0.16903865337371826,-0.1742771863937378,-0.8621757507759923,-1.0105337270441217,3.007974880344155,-0.5512918829917908,0.7592602968215942,-0.3458338975906372,-0.7678226828575134,-0.0008419572841376066,-0.29751187562942505
6.100414276123047,0.29955166578292847,0.1854548454284668,-0.18711191415786743,-0.8647152420288974,-1.0300948234818665,2.9830009229675873,-0.5562959909439087,0.7609105110168457,-0.33399099111557007,-0.7422387599945068,-0.04083171859383583,-0.31280985474586487
6.1198601722717285,0.31195658445358276,0.1865512728691101,-0.20810467004776,-0.8684659998137778,-1.049716510096141,2.958189871414904,-0.5602627992630005,0.7633388638496399,-0.3215889036655426,-0.8540573120117188,-0.05425236374139786,-0.19014744460582733
6.140442132949829,0.33068031072616577,0.20950758457183838,-0.20913460850715637,-0.8732872417883403,-1.07085060775659,2.932804066198828,-0.5636971592903137,0.7664445042610168,-0.30790945887565613,-0.7662584185600281,-0.10955654084682465,-0.1871441751718521
6.160452127456665,0.34151458740234375,0.23116618394851685,-0.21518737077713013,-0.8768960615481282,-1.0900708748636656,2.9110306024237156,-0.5670547485351562,0.7687574625015259,-0.2957379221916199,-0.6439008116722107,-0.1913861632347107,-0.16241805255413055
6.180524110794067,0.33672112226486206,0.26983773708343506,-0.2303895652294159,-0.8788698640789331,-1.1110309619474206,2.89190277911023,-0.5717675685882568,0.7700183391571045,-0.2831144630908966,-0.5268933176994324,-0.460162490606308,-0.21715596318244934
6.200429201126099,0.2791614532470703,0.3599606156349182,-0.2751879394054413,-0.8788626722304309,-1.1344633600447727,2.877300801190926,-0.578248918056488,0.7700137495994568,-0.26964235305786133,-0.28727957606315613,-0.7490111589431763,-0.1606881022453308
6.220427989959717,0.1963370442390442,0.5333335995674133,-0.34322813153266907,-0.8791695349437492,-1.153479901941843,2.8749089227269233,-0.5830557346343994,0.7702094912528992,-0.25850221514701843,0.15307734906673431,-0.9258542060852051,0.14448624849319458
6.240458011627197,0.06990170478820801,0.6666165590286255,-0.36612868309020996,-0.8818334917925471,-1.157106736376182,2.893448867793777,-0.5821086764335632,0.771905779838562,-0.25556015968322754,0.8499638438224792,-0.8789458870887756,0.5754170417785645
6.260432243347168,-0.0018064379692077637,0.5994552969932556,-0.3482741117477417,-0.886321559585918,-1.138804996795112,2.937852618889988,-0.5741822719573975,0.7747512459754944,-0.2647172212600708,1.5825423002243042,-0.76170814037323,0.9516571164131165
6.2805211544036865,0.026564955711364746,0.39391177892684937,-0.2657078206539154,-0.8907377219325848,-1.1043469732992315,2.9964057435197913,-0.5616600513458252,0.7775358557701111,-0.2827998399734497,1.3347861766815186,-0.3479452133178711,0.9739241003990173
6.300428152084351,0.07244718074798584,0.0910235047340393,-0.0329013466835022,-0.8975385778806835,-1.0753220781692459,3.0429657528145455,-0.5485518574714661,0.7817944884300232,-0.2964596450328827,0.9552157521247864,-0.4107005000114441,1.0086123943328857
6.3204262256622314,0.12393152713775635,-0.0693819522857666,0.040170133113861084,-0.9089341889231749,-1.0540699425826392,3.079838609377854,-0.5343471169471741,0.7888491749763489,-0.30362841486930847,0.5405670404434204,-0.354350745677948,1.0727814435958862
6.340428113937378,0.13507217168807983,-0.09253585338592529,0.021072179079055786,-0.921636139474335,-1.0357590573027424,3.1123528282462507,-0.5200361609458923,0.7965917587280273,-0.3082273602485657,0.5990923643112183,-0.45189914107322693,1.0377768278121948
6.360424995422363,0.1663663387298584,-0.09218984842300415,0.031292349100112915,-0.9312973856122003,-1.0126569194906456,-3.129081771673731,-0.5062252879142761,0.8023948669433594,-0.3160671293735504,1.0667049884796143,-0.5605996251106262,1.0869159698486328
6.3804240226745605,0.1460593044757843,-0.09542721509933472,0.08467715978622437,-0.936175596598636,-0.979981806879312,-3.0737304054084134,-0.4923727214336395,0.8052965998649597,-0.33025211095809937,1.3858301639556885,-0.6288460493087769,1.0919339656829834
6.40042519569397,0.06580793857574463,-0.11906665563583374,0.16511806845664978,-0.9366709768468897,-0.943004252438554,-3.012818871983555,-0.47950422763824463,0.8055902123451233,-0.34799468517303467,1.5021871328353882,-0.5682370662689209,1.0040876865386963
6.4204301834106445,-0.02504059672355652,-0.1319853663444519,0.23587611317634583,-0.9349122332192916,-0.9068488308246622,-2.956246286780784,-0.4677266478538513,0.8045469522476196,-0.3659725487232208,1.2484458684921265,-0.3932648003101349,0.8404887914657593
6.440467119216919,-0.0783897340297699,-0.13883882761001587,0.26470571756362915,-0.9336839582876976,-0.8779389724105241,-2.9124069968446813,-0.4577125310897827,0.8038169145584106,-0.37997061014175415,0.8292539119720459,-0.27151232957839966,0.6865181922912598
6.460425138473511,-0.09289875626564026,-0.11609017848968506,0.26235973834991455,-0.9347398225821539,-0.8586947491637678,-2.882358920752203,-0.4496731758117676,0.8044445514678955,-0.38815316557884216,0.5211583971977234,-0.22218996286392212,0.5561550855636597
6.480425119400024,-0.08322489261627197,-0.08318448066711426,0.2286168336868286,-0.9361153682874602,-0.844084508272386,-2.858063199582927,-0.44312700629234314,0.8052608966827393,-0.3939457833766937,0.5242213010787964,-0.2891330420970917,0.4976915419101715
6.500425338745117,-0.06504464149475098,-0.04730600118637085,0.22004538774490356,-0.9343588554313389,-0.8288061552275805,-2.831757821051553,-0.43809860944747925,0.8042181730270386,-0.40162497758865356,0.7658194899559021,-0.29774418473243713,0.4301374554634094
6.520424127578735,-0.03801596164703369,-0.09111034870147705,0.21752455830574036,-0.9294141755192703,-0.8119990148816609,-2.802587452846974,-0.43416720628738403,0.8012695908546448,-0.41166210174560547,0.8007674217224121,-0.3688432276248932,0.37087294459342957
6.540423154830933,-0.014014214277267456,-0.1645011305809021,0.24758315086364746,-0.9235139754503855,-0.799962372244707,-2.7779942963046045,-0.4325646758079529,0.7977255582809448,-0.4201447665691376,0.6601763367652893,-0.3944475054740906,0.23028568923473358
6.560429096221924,0.012965500354766846,-0.18947869539260864,0.25819528102874756,-0.9182672144622233,-0.7947382711912936,-2.7614057937953818,-0.43334507942199707,0.7945506572723389,-0.42532476782798767,0.4225866496562958,-0.41057276725769043,0.08887128531932831
6.580420017242432,0.04004618525505066,-0.16535639762878418,0.23709696531295776,-0.9136601290675315,-0.7973754214125858,-2.7533727019897767,-0.4370797574520111,0.7917448282241821,-0.4267331659793854,0.2645125389099121,-0.5069602131843567,-0.06826069205999374
6.600427150726318,0.058735191822052,-0.12725722789764404,0.20597299933433533,-0.9084851592132276,-0.805903915874232,-2.750166245878515,-0.44365331530570984,0.7885730862617493,-0.42582160234451294,0.25875264406204224,-0.5766261219978333,-0.1562732756137848
6.619747161865234,0.046522825956344604,-0.08206290006637573,0.1821448802947998,-0.9019652759642394,-0.8144415860038637,-2.7471052564159035,-0.45100274682044983,0.7845470309257507,-0.4255378544330597,0.2979886531829834,-0.5302590131759644,-0.20446297526359558
6.640427112579346,0.031220227479934692,-0.002100646495819092,0.15628588199615479,-0.8941926185886994,-0.8261743494726593,-2.748366610036165,-0.4604346752166748,0.7797037959098816,-0.4243370592594147,0.19932150840759277,-0.5457092523574829,-0.43081212043762207
6.660423278808594,0.044975340366363525,-0.0015239119529724121,0.11824476718902588,-0.8846044384854145,-0.8420028156603382,-2.7550822107857,-0.47264865040779114,0.7736644148826599,-0.4219557046890259,0.10413733869791031,-0.5249643921852112,-0.5375639796257019
6.680424213409424,0.06947433948516846,-0.003122270107269287,0.08994913101196289,-0.8763315366144481,-0.8609185395066234,-2.7654286486091197,-0.4853830933570862,0.7683963179588318,-0.4170975387096405,-0.06467411667108536,-0.579908549785614,-0.5181136727333069
6.700437068939209,0.04084867238998413,0.07813966274261475,0.05316966772079468,-0.8703071002835588,-0.8842085666948464,-2.7801756982901042,-0.49853599071502686,0.764526903629303,-0.4086078703403473,-0.2473415732383728,-0.5952126383781433,-0.565934419631958
6.720468044281006,-0.02476102113723755,0.16871494054794312,0.020372092723846436,-0.8644348089295372,-0.9081549196355988,-2.7976869641617674,-0.5117074847221375,0.7607285380363464,-0.3993089199066162,-0.2611474096775055,-0.44965189695358276,-0.5859816074371338
6.740426063537598,-0.04945927858352661,0.18570834398269653,0.008471101522445679,-0.8589819462352482,-0.929193190515955,-2.8159547383571657,-0.5233097672462463,0.7571779489517212,-0.3909326195716858,-0.39109206199645996,-0.27527254819869995,-0.5780137777328491
6.7604241371154785,-0.04214376211166382,0.18562841415405273,0.0035148262977600098,-0.8552580911304408,-0.9498300083732157,-2.838039965532918,-0.5335550308227539,0.7547402381896973,-0.38168865442276,-0.5446281433105469,-0.12833119928836823,-0.5708832740783691
6.780423164367676,-0.03301715850830078,0.1654837727546692,-0.05306369066238403,-0.8533343139327184,-0.9711629199336145,-2.8634767468101967,-0.5427731871604919,0.7534767985343933,-0.37103909254074097,-0.7309859395027161,-0.13632220029830933,-0.5678321123123169
6.800507068634033,-0.07008880376815796,0.20778429508209229,-0.11091706156730652,-0.8511045153085265,-0.9974166542923866,-2.893238419179612,-0.5537362694740295,0.7520089149475098,-0.35757359862327576,-0.7158997654914856,-0.2139667421579361,-0.7263064384460449
6.820435047149658,-0.15231794118881226,0.2674087882041931,-0.131006121635437,-0.8443121177161841,-1.0227148312403949,-2.923033851597055,-0.5669508576393127,0.7475143671035767,-0.346105694770813,-0.6256350874900818,-0.07997122406959534,-0.8956528902053833
6.840404033660889,-0.15590637922286987,0.28512370586395264,-0.10898041725158691,-0.8353757756193962,-1.0460195922181268,-2.9546947297758552,-0.5806201100349426,0.7415486574172974,-0.3361337184906006,-0.7578614950180054,0.10315865278244019,-0.9128338098526001
6.860478162765503,-0.05736052989959717,0.22135043144226074,-0.107871413230896,-0.830690032352357,-1.066790555492641,-2.9877463406135143,-0.5905123949050903,0.7383968830108643,-0.3256765604019165,-0.9541566371917725,0.2537085711956024,-0.5497868657112122
6.880374193191528,0.030401170253753662,0.18319463729858398,-0.11471405625343323,-0.8346941719130432,-1.0838328540444475,-3.018934517974315,-0.5933588147163391,0.7410911917686462,-0.3141799569129944,-1.054971694946289,0.3222673237323761,-0.12137981504201889
6.9004902839660645,0.057994723320007324,0.11443197727203369,-0.14945834875106812,-0.8445069967316919,-1.0974335559418793,-3.0449149377389535,-0.5910757780075073,0.7476438283920288,-0.3027511537075043,-0.8866481781005859,0.22151610255241394,0.16042779386043549
6.9204261302948,0.04250133037567139,0.015797019004821777,-0.16420000791549683,-0.8551202132509579,-1.105124705102953,-3.060006212232994,-0.5862635374069214,0.754649817943573,-0.2946165204048157,-0.4620750844478607,0.1587616354227066,0.2759573757648468
6.940485000610352,-0.009961843490600586,-0.05511188507080078,-0.14410439133644104,-0.8613071821223589,-1.103557775075243,-3.0619070946309717,-0.5816214680671692,0.7586947679519653,-0.29342615604400635,0.09784351289272308,0.15941421687602997,0.18831217288970947
6.960468292236328,-0.0569148063659668,-0.12172681093215942,-0.11185887455940247,-0.8609246729657223,-1.0912287894728392,-3.051391612351473,-0.5782169103622437,0.7584455013275146,-0.30070823431015015,0.44842493534088135,0.2791888117790222,0.06537391245365143
6.980425119400024,-0.08637821674346924,-0.18349617719650269,-0.02028656005859375,-0.8570264187691148,-1.0761150387784548,-3.041104264767049,-0.5762041211128235,0.7558991312980652,-0.31081393361091614,0.2506214678287506,0.455466091632843,-0.11895038187503815
7.000441074371338,-0.1036882996559143,-0.2459876537322998,0.05057284235954285,-0.8542909717781305,-1.0669165622474688,-3.043892901131734,-0.5751294493675232,0.7541054487228394,-0.31709814071655273,-0.31673869490623474,0.6686018109321594,-0.19023850560188293
7.020425319671631,-0.07088077068328857,-0.26446008682250977,0.08307534456253052,-0.8570742834254524,-1.0661291573520606,-3.062661292579119,-0.5730401277542114,0.755930483341217,-0.31653478741645813,-0.8437535762786865,0.8072954416275024,-0.16472874581813812
7.040462017059326,0.00633770227432251,-0.2410719394683838,0.057723045349121094,-0.8632786628361587,-1.0702406562484208,-3.0891894216486713,-0.5702109932899475,0.7599775791168213,-0.3119192123413086,-0.8867716193199158,0.7586902976036072,-0.11779231578111649
7.060427188873291,0.07544732093811035,-0.19857150316238403,0.01761898398399353,-0.8688773659374369,-1.0731236727024096,-3.1099301309775997,-0.5673601627349854,0.7636045217514038,-0.3082379102706909,-0.5221767425537109,0.5277876257896423,-0.039717644453048706
7.080392122268677,0.08216887712478638,-0.15316766500473022,0.005577266216278076,-0.871372033364772,-1.07046494519949,-3.1182757423304692,-0.5648653507232666,0.7652129530906677,-0.3088304400444031,-0.09305085986852646,0.3953554630279541,-0.0207324530929327
7.100428104400635,0.03863537311553955,-0.13263756036758423,-0.0010435283184051514,-0.8697508805853509,-1.0639793001926738,-3.118933310907282,-0.563934326171875,0.7641682624816895,-0.31308916211128235,0.12682387232780457,0.3066130578517914,-0.15212242305278778
7.119565010070801,0.025421857833862305,-0.15897375345230103,-0.02626824378967285,-0.8651732966933887,-1.0557032524119372,-3.115709834127875,-0.5643622279167175,0.761207640171051,-0.31946542859077454,0.2100755274295807,0.2800000011920929,-0.10384458303451538
7.1404500007629395,0.036632001399993896,-0.1200028657913208,-0.0005562305450439453,-0.8630113828649645,-1.048596575590022,-3.1139221957736036,-0.5635026693344116,0.7598038911819458,-0.32428812980651855,0.002784071722999215,0.3191711902618408,-0.039822597056627274
7.160429000854492,0.032305121421813965,-0.10592871904373169,-0.0034912526607513428,-0.8644356670604256,-1.0440868589113739,-3.1172463910756276,-0.5610983371734619,0.7607290744781494,-0.32628166675567627,-0.30788588523864746,0.3651997745037079,0.0719161182641983
7.180424213409424,0.05788379907608032,-0.11153441667556763,-0.05396163463592529,-0.8707210853741048,-1.0432834683280359,-3.125609859796855,-0.5566935539245605,0.7647936940193176,-0.3243190348148346,-0.36502838134765625,0.32572051882743835,0.17145948112010956
7.200459003448486,0.08924847841262817,-0.05215960741043091,-0.12303122878074646,-0.8757288959520467,-1.03983143767771,-3.1280444262638953,-0.5522611737251282,0.7680104970932007,-0.32429543137550354,0.02328263595700264,0.21308347582817078,0.17397962510585785
7.220426082611084,0.1105380654335022,0.032199084758758545,-0.14431321620941162,-0.8753826139428564,-1.028151712382787,-3.116760517982,-0.5486636757850647,0.7677887082099915,-0.33086076378822327,0.6057461500167847,0.08835023641586304,0.17075487971305847
7.240458011627197,0.12085181474685669,0.01976877450942993,-0.14060798287391663,-0.8701744283046985,-1.0091983875030788,-3.0925233280607904,-0.5456716418266296,0.7644414305686951,-0.3433244824409485,0.9516124725341797,-0.044301461428403854,0.2144954651594162
7.260426998138428,0.12942850589752197,-0.009982883930206299,-0.10144215822219849,-0.8633337371229134,-0.9870510144466715,-3.061667022316162,-0.5422855019569397,0.7600134015083313,-0.358198344707489,1.0560519695281982,-0.07552524656057358,0.31347623467445374
7.280425071716309,0.15521115064620972,-0.03462076187133789,-0.06369981169700623,-0.8592971770950002,-0.9670938280477649,-3.032398559209598,-0.5375505685806274,0.7573838233947754,-0.3706873655319214,0.7111430764198303,-0.16465069353580475,0.39425307512283325
7.300439119338989,0.17381680011749268,-0.06519311666488647,-0.03320607542991638,-0.8596381033650581,-0.9568044866059257,-3.012880047167425,-0.5334968566894531,0.7576063871383667,-0.37604984641075134,0.3023885190486908,-0.29018279910087585,0.3689444363117218
7.32042932510376,0.19766342639923096,-0.08803415298461914,-0.06752943992614746,-0.8634081229639141,-0.9566435896059148,-3.0026191978222507,-0.5310984253883362,0.7600617408752441,-0.37448716163635254,0.14847880601882935,-0.4881550669670105,0.3239201009273529
7.340450286865234,0.21973007917404175,-0.08182549476623535,-0.1707053780555725,-0.8642093939496373,-0.9579005428638785,-2.9888870574912896,-0.531070351600647,0.7605822086334229,-0.3734688460826874,0.576095461845398,-0.6729060411453247,0.25945812463760376
7.360428333282471,0.22900772094726562,0.018487751483917236,-0.18904489278793335,-0.857534013883291,-0.9532387304519948,-2.9642577536994206,-0.5334510207176208,0.7562313675880432,-0.37887194752693176,1.100845456123352,-0.7066566944122314,0.10344104468822479
7.380449295043945,0.23535996675491333,0.023663818836212158,-0.12399792671203613,-0.8428905389657719,-0.94326299766996,-2.9323071251409845,-0.5385520458221436,0.7465693354606628,-0.39063525199890137,1.4554258584976196,-0.745997428894043,-0.07234382629394531
7.400448322296143,0.2601678967475891,0.026646733283996582,-0.1755535900592804,-0.8183307722652952,-0.931114790419318,-2.892140391597804,-0.5483147501945496,0.7300060391426086,-0.4079730212688446,2.3036460876464844,-1.037336826324463,-0.2897193133831024
7.4204301834106445,0.24837112426757812,0.20156019926071167,-0.2580563426017761,-0.7809326186950304,-0.9155463385095353,-2.8372340705290267,-0.5631598830223083,0.7039421200752258,-0.4328005611896515,2.8975961208343506,-1.3048207759857178,-0.3909186124801636
7.440438270568848,0.1565995216369629,0.2558252811431885,-0.19340956211090088,-0.7370100989485726,-0.9020736097352267,-2.7809684653161666,-0.5809921622276306,0.672076940536499,-0.4590868055820465,2.9463376998901367,-1.1928057670593262,-0.567448616027832
7.460433006286621,0.18666404485702515,0.05851072072982788,-0.01781541109085083,-0.6940098653357029,-0.8930934987498396,-2.733593754283404,-0.5988191366195679,0.6396246552467346,-0.48197096586227417,2.443909168243408,-1.0387439727783203,-0.4959315359592438
7.480461120605469,0.2917670011520386,-0.004875659942626953,0.15996092557907104,-0.6630032421749233,-0.8909514229425401,-2.6981222103971416,-0.6129186749458313,0.6154866218566895,-0.49548643827438354,1.712107539176941,-1.0072747468948364,-0.1948366016149521
7.5004563331604,0.29755353927612305,0.006344139575958252,0.22748702764511108,-0.6416451893791957,-0.8951269959774497,-2.670386112959809,-0.6250985860824585,0.5985142588615417,-0.5010313391685486,1.4104573726654053,-1.1022306680679321,-0.14576317369937897
7.520427227020264,0.25365757942199707,0.06396621465682983,0.1886610984802246,-0.6189727972276277,-0.904222434245591,-2.646476717539291,-0.6401321291923523,0.5801988244056702,-0.5035872459411621,1.6012362241744995,-1.2675477266311646,-0.4697331190109253
7.540428161621094,0.2419724464416504,0.09340184926986694,0.19827401638031006,-0.5886993622595519,-0.9176567639399048,-2.6218396220324145,-0.6604905128479004,0.5552797913551331,-0.5053876638412476,1.7604453563690186,-1.4578601121902466,-0.6222021579742432
7.56043004989624,0.2633129954338074,0.2252976894378662,0.2243572473526001,-0.5576978037900234,-0.9370372449765355,-2.600693711688224,-0.6837078332901001,0.5292342305183411,-0.5024486780166626,1.6173163652420044,-1.635402798652649,-0.841803252696991
7.580428123474121,0.22694826126098633,0.21287459135055542,0.28131669759750366,-0.5245690020632304,-0.9588156236767956,-2.5822866084491882,-0.7084545493125916,0.5008400082588196,-0.49724385142326355,1.5388479232788086,-1.4422147274017334,-0.8577551245689392
7.600427150726318,0.24847412109375,0.21502745151519775,0.38609278202056885,-0.49667039433392907,-0.9757997607966715,-2.5654337300314696,-0.72808837890625,0.47650086879730225,-0.49278223514556885,1.2353395223617554,-1.0841329097747803,-0.6347365975379944
7.6196441650390625,0.3041185140609741,0.2037348449230194,0.3967389464378357,-0.4733861393439351,-0.9878213958633033,-2.55136381891029,-0.7430222630500793,0.45590266585350037,-0.4899701774120331,1.1356831789016724,-0.8161465525627136,-0.6390324234962463
7.640439033508301,0.4254363179206848,0.21438539028167725,0.2691901922225952,-0.4488334347765319,-0.9974912332786028,-2.5376214558467125,-0.7569029331207275,0.43391481041908264,-0.4886878728866577,1.2779090404510498,-0.8147813677787781,-0.7768834233283997
7.660427093505859,0.5216425061225891,0.15722030401229858,0.22102200984954834,-0.4209096601508394,-1.0110816858427725,-2.5247708094286097,-0.7734430432319641,0.4085908830165863,-0.48460233211517334,1.1242015361785889,-1.1697454452514648,-0.9347918033599854
7.680427074432373,0.4240415096282959,0.0974707305431366,0.2735305726528168,-0.39561786282132705,-1.038369754245274,-2.5207304356455484,-0.7950283288955688,0.3853783905506134,-0.4684158265590668,0.44806236028671265,-1.6820436716079712,-1.063530445098877
7.700427055358887,0.07485568523406982,0.11126559972763062,0.2875507175922394,-0.37403369218547255,-1.0756349866922332,-2.532596209463917,-0.819057285785675,0.3653731942176819,-0.4423206150531769,-0.28683942556381226,-1.4677666425704956,-1.3733807802200317
7.7204270362854,-0.22922396659851074,0.16375795006752014,0.2708660662174225,-0.35243453206044995,-1.1060698296901017,-2.556973786446389,-0.8389979600906372,0.34518373012542725,-0.42063108086586,-0.6839033365249634,-0.7259107232093811,-1.5711207389831543
7.740429162979126,-0.15027672052383423,0.201421856880188,0.3396943509578705,-0.3299053637312763,-1.1269569715597796,-2.58532787455095,-0.8544076085090637,0.3239535093307495,-0.4062531590461731,-0.6912729740142822,-0.5850170850753784,-1.6027274131774902
7.760471343994141,0.031213819980621338,0.14798635244369507,0.27099132537841797,-0.3072812799325108,-1.1542401766877297,-2.6109172346790426,-0.8716526627540588,0.3024683892726898,-0.38566115498542786,-0.5876699090003967,-1.4021085500717163,-1.5127793550491333
7.780438184738159,-0.20432353019714355,0.12738215923309326,0.16719156503677368,-0.2814235549292995,-1.1913829100262483,-2.634938749534017,-0.8923408389091492,0.277723491191864,-0.35580548644065857,-0.4895074963569641,-1.3958879709243774,-1.8056596517562866
7.800429344177246,-0.41080039739608765,0.13138961791992188,0.30210232734680176,-0.25109287826357146,-1.2180762528080316,-2.6572166489045577,-0.9090085029602051,0.2484627217054367,-0.33461883664131165,-0.39931055903434753,-0.7736920118331909,-1.7010962963104248
7.820461273193359,-0.260092556476593,0.10354243218898773,0.3444059193134308,-0.22491775643869508,-1.234495462230725,-2.6724294585537614,-0.9202051758766174,0.22302618622779846,-0.3216855823993683,-0.1510268896818161,-0.5842301249504089,-1.2634884119033813
7.840431213378906,-0.12681913375854492,0.01262219250202179,0.28551220893859863,-0.2037504623061613,-1.2469309994106517,-2.682595065358987,-0.9284024238586426,0.2023436278104782,-0.31165051460266113,-0.15162347257137299,-0.3638423681259155,-1.1058067083358765
7.86043119430542,0.006281495094299316,-0.11706604063510895,0.3005594313144684,-0.18518507847172888,-1.2524393824955384,-2.6933558805002282,-0.933512270450592,0.18412844836711884,-0.3076547384262085,-0.19576632976531982,-0.043445877730846405,-0.9813375473022461
7.880428314208984,0.19811606407165527,-0.1999378204345703,0.16893404722213745,-0.16812068398286323,-1.2557898356489419,-2.700416453629324,-0.937389075756073,0.1673298329114914,-0.30545443296432495,0.0017313510179519653,-0.34563183784484863,-0.809299111366272
7.900484085083008,0.24996191263198853,-0.2339981496334076,0.09483802318572998,-0.15479695907865965,-1.266498770060041,-2.702283642136312,-0.9426498413085938,0.15417948365211487,-0.29604044556617737,0.11194731295108795,-0.5801361799240112,-0.5775938630104065
7.920459270477295,0.06627261638641357,-0.22734931111335754,0.07191997766494751,-0.14241151892188558,-1.2769671549683899,-2.7036936806915897,-0.9474523663520813,0.14193062484264374,-0.2866874635219574,0.21386399865150452,-0.49771296977996826,-0.6442136764526367
7.9404261112213135,-0.1204039454460144,-0.12926340103149414,0.08070763945579529,-0.1292414461241878,-1.2859246482361668,-2.701645770933862,-0.9516937732696533,0.12888194620609283,-0.2786904573440552,0.3544986844062805,-0.36813023686408997,-0.5721606612205505
7.960428237915039,-0.31191903352737427,-0.10785239189863205,0.11635124683380127,-0.11667713632942059,-1.2886680938176158,-2.697359652854348,-0.9539347887039185,0.11641258746385574,-0.27650749683380127,0.3386526107788086,0.04127504676580429,-0.4862684905529022
7.98042631149292,-0.37226545810699463,-0.0938735231757164,0.14608848094940186,-0.10680232712041127,-1.2844989962374778,-2.6944456021341963,-0.9538300633430481,0.10659939795732498,-0.28079310059547424,0.2539162039756775,0.30418309569358826,-0.3666180670261383
8.000428199768066,-0.3608935475349426,-0.1064046248793602,0.18664056062698364,-0.10145165521228183,-1.2776436886101206,-2.6933140770564044,-0.9524151682853699,0.10127771645784378,-0.2874859571456909,-0.014598020352423191,0.3297306299209595,-0.1029035672545433
8.020454168319702,-0.4416744112968445,-0.16074396669864655,0.2715984284877777,-0.10410826184602882,-1.2685452211127783,-2.6967840778641365,-0.9494999647140503,0.10392030328512192,-0.2960583567619324,-0.4258381426334381,0.7063894867897034,0.30440959334373474
8.04042100906372,-0.5976321697235107,-0.20994500815868378,0.30614355206489563,-0.11837869090621884,-1.2511804427897448,-2.705631070547706,-0.9427120089530945,0.11810240149497986,-0.31200292706489563,-0.8816585540771484,1.0913089513778687,0.7540181875228882
8.060431003570557,-0.6678279042243958,-0.2053215503692627,0.36313459277153015,-0.14087616830300226,-1.2290876057994229,-2.7224169391983217,-0.9328495264053345,0.1404106616973877,-0.33177778124809265,-1.303217887878418,1.313726782798767,0.7944060564041138
8.08039903640747,-0.6819208264350891,-0.2637448310852051,0.1979585886001587,-0.1697251734203441,-1.2102256450144935,-2.742300054801884,-0.9222508668899536,0.16891147196292877,-0.3477388620376587,-1.5905389785766602,0.7273251414299011,1.2994505167007446
8.100431203842163,-0.5556020736694336,-0.16958825290203094,0.1985330879688263,-0.21003916595999714,-1.2024345081651728,-2.760641030078935,-0.9124155640602112,0.20849820971488953,-0.35217392444610596,-1.5508540868759155,0.4589758813381195,1.7951804399490356
8.120482206344604,-0.7120869755744934,-0.004189401865005493,0.19857880473136902,-0.2571830546761605,-1.1952619768872599,-2.773355083651033,-0.8997141122817993,0.2543572783470154,-0.354706734418869,-1.2531880140304565,0.6917534470558167,2.2005865573883057
8.140429019927979,-0.9162319302558899,0.014223337173461914,0.15683618187904358,-0.3110342161050875,-1.1748291347145812,-2.7727745106879103,-0.8783541321754456,0.3060433864593506,-0.3671938478946686,-0.7795858383178711,1.2824056148529053,2.7644388675689697
8.160429000854492,-1.0596070289611816,0.02907314896583557,0.06859862804412842,-0.3661050300059939,-1.144511685245232,-2.7602303023206036,-0.8501677513122559,0.3579813241958618,-0.3860882520675659,-0.33238211274147034,1.2244267463684082,2.767610549926758
8.180429220199585,-0.9696176648139954,-0.011618733406066895,0.029340267181396484,-0.41952313460739904,-1.1149826507864578,-2.739175566973025,-0.8200399875640869,0.40732499957084656,-0.40202099084854126,-0.27620118856430054,1.0178049802780151,2.927302360534668
8.200473308563232,-0.9788925647735596,-0.07616674900054932,0.13480103015899658,-0.4748719130364364,-1.0859594370009686,-2.7188988115289705,-0.7868544459342957,0.4572245478630066,-0.41449466347694397,-0.5695125460624695,1.0357557535171509,2.825573444366455
8.220427989959717,-0.9945744276046753,-0.09095853567123413,0.13524076342582703,-0.53069732841056,-1.0588596946540343,-2.7039599146473248,-0.7518854141235352,0.5061348676681519,-0.4224874675273895,-0.9588068127632141,0.9014524221420288,2.6779024600982666
8.240429162979126,-0.9019239544868469,-0.041858017444610596,0.13429874181747437,-0.5848952377871856,-1.0389907767921525,-2.6972640318550147,-0.7186204791069031,0.5521120429039001,-0.42279672622680664,-1.25405752658844,0.8041184544563293,2.330871105194092
8.260430335998535,-0.805544376373291,-0.010636568069458008,0.1431330442428589,-0.636509493491329,-1.0252310402460416,-2.6999572813797785,-0.6874365210533142,0.5943920612335205,-0.4172877371311188,-1.561685562133789,0.7090505957603455,1.996397852897644
8.280439138412476,-0.6520299315452576,0.017663419246673584,0.0815584659576416,-0.6853458941762463,-1.0200119643007919,-2.710864383433181,-0.6597070693969727,0.6329408288002014,-0.4051821231842041,-1.6676695346832275,0.48360151052474976,1.7363502979278564
8.300549030303955,-0.5523985028266907,0.1359357237815857,0.03926724195480347,-0.7283497682625407,-1.021301443767127,-2.7241745501632493,-0.6364137530326843,0.6656390428543091,-0.38974639773368835,-1.441853642463684,0.2597724199295044,1.3914812803268433
