timestamp,acceleration_x,acceleration_y,acceleration_z,attitude_pitch,attitude_roll,attitude_yaw,gravity_x,gravity_y,gravity_z,rotation_x,rotation_y,rotation_z
0.0,0.16818302869796753,0.6749194860458374,-0.08050667494535446,-0.0009837116133746826,-1.4936490932284947,-0.24131953993416413,-0.997025191783905,0.0009837114484980702,-0.0770706981420517,4.650528430938721,-0.8722207546234131,-0.23615455627441406
0.019520998001098633,0.11469203233718872,0.5913671851158142,-0.10096865892410278,0.008374841773487273,-1.5097072049793452,-0.15341435065989795,-0.998099684715271,-0.008374744094908237,-0.06104899197816849,4.104517459869385,-0.6894251704216003,-0.10047922283411026
0.03986310958862305,0.07852119207382202,0.513103723526001,-0.05549842119216919,0.011761309008885782,-1.5227880474909068,-0.08247489924397879,-0.9987788200378418,-0.01176103763282299,-0.04798652231693268,2.9226982593536377,-0.5471197366714478,0.14849057793617249
0.060060977935791016,-0.003024280071258545,0.43753674626350403,0.07338500022888184,0.007269564358941518,-1.5315495512991344,-0.0399999196794891,-0.9992035627365112,-0.0072695002891123295,-0.039235666394233704,1.2917364835739136,-0.22684717178344727,0.46367302536964417
0.08002281188964844,-0.1152721643447876,0.3507484495639801,0.2018778920173645,-0.004888094447041834,-1.5303145616748397,-0.029042471027410047,-0.999168872833252,0.004888074938207865,-0.04047023132443428,-0.16443979740142822,0.3915626108646393,0.7660609483718872
0.10004806518554688,-0.1309281587600708,0.29963529109954834,0.35282188653945923,-0.0248453322148467,-1.5154604174052324,-0.04039288775266686,-0.9981611967086792,0.024842776358127594,-0.05529060214757919,-0.8888309597969055,1.142691731452942,1.1784719228744507
0.12000703811645508,-0.053270161151885986,0.2757262587547302,0.39921730756759644,-0.053690934707608134,-1.4879085612637692,-0.05637864044848797,-0.9951307773590088,0.05366514250636101,-0.0826735869050026,-0.7803959250450134,1.6187810897827148,1.5719553232192993
0.13995003700256348,0.0530010461807251,0.26659703254699707,0.35697513818740845,-0.08892774124939307,-1.4561450474899005,-0.06401967696096864,-0.9895091652870178,0.08881057798862457,-0.11394821107387543,-0.30192169547080994,1.566222906112671,1.798963189125061
0.1605701446533203,0.09673583507537842,0.18032154440879822,0.31854772567749023,-0.1255191764980167,-1.4261790483331616,-0.05943779527804393,-0.9817761778831482,0.12518984079360962,-0.1429799646139145,0.2483021318912506,1.3729490041732788,1.8699373006820679
0.1801159381866455,0.07630711793899536,0.08960290253162384,0.2855614423751831,-0.16151025374908362,-1.3996306259864018,-0.04626719493952973,-0.9725626111030579,0.1608089953660965,-0.16811436414718628,0.3995266556739807,1.1176875829696655,1.8541003465652466
0.2001190185546875,0.018241286277770996,0.035610511898994446,0.2615131139755249,-0.1952572716317263,-1.3773477655683035,-0.03315047997542456,-0.9626993536949158,0.19401893019676208,-0.18859121203422546,0.2291501760482788,0.880087673664093,1.6549667119979858
0.21954894065856934,-0.013488054275512695,0.037016212940216064,0.257039874792099,-0.2252441858082859,-1.361391304835477,-0.02526617142497768,-0.9534461498260498,0.22334438562393188,-0.20262686908245087,-0.0799027681350708,0.5359675884246826,1.4291276931762695
0.24771595001220703,-0.06821537017822266,-0.010074794292449951,0.28541916608810425,-0.27617591987140294,-1.3567357798216857,-0.023835049991448972,-0.9401465654373169,0.2726784944534302,-0.20437954366207123,-0.22532156109809875,-0.26086169481277466,1.097410798072815
0.26004981994628906,-0.06821537017822266,-0.010074794292449951,0.28541916608810425,-0.27617591987140294,-1.3567357798216857,-0.023835049991448972,-0.9401465654373169,0.2726784944534302,-0.20437954366207123,-0.22532156109809875,-0.26086169481277466,1.097410798072815
0.2800130844116211,-0.1778584122657776,-0.07067307829856873,0.30955013632774353,-0.2973244275781914,-1.3636435431266476,-0.0217803003224474,-0.9356824159622192,0.29296308755874634,-0.1966502070426941,-0.012396102771162987,-0.4324011206626892,0.9890599250793457
0.2999911308288574,-0.31273019313812256,-0.05079445242881775,0.30622321367263794,-0.31486723354250407,-1.368065373495048,-0.015893774844355463,-0.9313646554946899,0.3096902370452881,-0.1914464682340622,0.19919058680534363,-0.08841012418270111,0.7997444272041321
0.31922006607055664,-0.26686567068099976,-0.003117978572845459,0.2663951516151428,-0.3270474489221068,-1.361949896796102,-0.007325679268619789,-0.9264174103736877,0.3212483823299408,-0.19634191691875458,0.36055687069892883,0.35598888993263245,0.5493645668029785
0.3399829864501953,-0.012831509113311768,-0.021666139364242554,0.19421863555908203,-0.3356413615735196,-1.3531395792908523,0.003976298722558563,-0.9219220280647278,0.3293748199939728,-0.2038925290107727,0.5419250726699829,0.052921973168849945,0.5382075309753418
0.359576940536499,0.14885228872299194,-0.0629437267780304,0.11122483015060425,-0.345502986297917,-1.3529811706627615,0.021366080896710948,-0.9186735153198242,0.3386699855327606,-0.2033267468214035,0.867641270160675,-0.5905035138130188,0.7737210988998413
0.38003015518188477,0.10277855396270752,-0.07898813486099243,0.05672052502632141,-0.3584665070812497,-1.3594468436337113,0.045727631489613424,-0.91559898853302,0.35083863139152527,-0.19644509255886078,1.065924048423767,-0.7887318134307861,0.9001344442367554
0.4001479148864746,-0.019395053386688232,-0.09240075945854187,0.02516290545463562,-0.3706014657306126,-1.3633409960765865,0.07263698127897594,-0.9121236801147461,0.3621761202812195,-0.191987082362175,1.1547255516052246,-0.5161637663841248,0.7711893916130066
0.4200279712677002,-0.022872090339660645,-0.11943340301513672,0.005829930305480957,-0.37953241911527774,-1.360248371147532,0.10105184736158176,-0.9083261489868164,0.37048619985580444,-0.19412323832511902,1.2551593780517578,-0.24345003068447113,0.6393031477928162
0.4400479793548584,0.041685402393341064,-0.17427346110343933,0.0656183511018753,-0.38632632044254744,-1.3535382520448749,0.1290737858381761,-0.9045241475105286,0.37678804993629456,-0.1996666043996811,1.0738893747329712,-0.13109074532985687,0.5553486943244934
0.4600059986114502,0.04020017385482788,-0.23066794872283936,0.1279701143503189,-0.3929717347752668,-1.347580931070906,0.14829109116930772,-0.9008569121360779,0.3829353153705597,-0.20449276268482208,0.4984050691127777,0.01160480361431837,0.4547540545463562
0.4799919128417969,-0.026376843452453613,-0.2469637393951416,0.16473495960235596,-0.39976959272313634,-1.3419294108934752,0.15398819501399855,-0.8971309065818787,0.3892061114311218,-0.20898528397083282,-0.17351628839969635,0.34927496314048767,0.3197682201862335
0.49999189376831055,-0.09151291847229004,-0.2318369746208191,0.10460789501667023,-0.40787803702604564,-1.3363978887941617,0.14510952105992028,-0.8928621411323547,0.39666232466697693,-0.2132045328617096,-0.7363449335098267,0.5147596001625061,0.27109265327453613
0.5200300216674805,-0.13007330894470215,-0.20148324966430664,0.0640520453453064,-0.41710105113204876,-1.3333698130056362,0.12857406320358714,-0.8886187672615051,0.40511175990104675,-0.21503758430480957,-0.9323580265045166,0.4292590320110321,0.25726479291915894
0.5399799346923828,-0.21944105625152588,-0.12587478756904602,0.0640520453453064,-0.4261638673127584,-1.33440119109204,0.10761148885735573,-0.8852342963218689,0.41338083148002625,-0.21325233578681946,-1.1412943601608276,0.3656563460826874,0.13121676445007324
0.5600008964538574,-0.31381726264953613,-0.06481420993804932,0.02328622341156006,-0.4322945818336674,-1.3358782900682489,0.08179782457162137,-0.8830669522285461,0.41895538568496704,-0.21135063469409943,-1.2191855907440186,0.5837633013725281,-0.09225986152887344
0.5801210403442383,-0.2434455156326294,-0.0011378228664398193,-0.10035362839698792,-0.43474776220738554,-1.3340466616762818,0.057657956213896376,-0.8816765546798706,0.42118164896965027,-0.21272602677345276,-0.9245458841323853,0.5539005398750305,-0.19340357184410095
0.6003279685974121,-0.05708801746368408,0.04214853048324585,-0.16486459970474243,-0.43338866005247273,-1.3322401960405836,0.0431123049692615,-0.8818464279174805,0.4199485778808594,-0.21445350348949432,-0.2764866352081299,0.26607152819633484,-0.25168725848197937
0.6201620101928711,0.09544658660888672,0.044275760650634766,-0.1780339926481247,-0.42888049419617463,-1.330016356200956,0.042792442240289004,-0.8831968307495117,0.41585293412208557,-0.21686328947544098,0.3269914388656616,-0.027973942458629608,-0.2097821682691574
0.6458311080932617,0.13243699073791504,-0.011811941862106323,-0.16069386899471283,-0.41387721366740865,-1.328806292571804,0.06422953646326042,-0.8888915181159973,0.40216219425201416,-0.21940237283706665,0.6509299278259277,-0.21964670717716217,-0.3467077910900116
0.6640138626098633,0.1372826099395752,0.005915462970733643,-0.16485092043876648,-0.4036209846618822,-1.328335515874493,0.07675961229220224,-0.8927454352378845,0.39275091886520386,-0.22079956531524658,0.7311276793479919,-0.276497483253479,-0.4136561155319214
0.6800849437713623,0.1372826099395752,0.005915462970733643,-0.16485092043876648,-0.4036209846618822,-1.328335515874493,0.07675961229220224,-0.8927454352378845,0.39275091886520386,-0.22079956531524658,0.7311276793479919,-0.276497483253479,-0.4136561155319214
0.704164981842041,0.15592432022094727,0.06497463583946228,-0.15060490369796753,-0.3777035980617928,-1.3360337268769718,0.0968686352000497,-0.9040170907974243,0.36878690123558044,-0.21621622145175934,0.4986531734466553,-0.49676868319511414,-0.6302576065063477
0.7257270812988281,0.11846703290939331,0.1085752546787262,-0.16417908668518066,-0.3627202966468478,-1.3437834929281642,0.10463324816970228,-0.9109475612640381,0.35481885075569153,-0.21042399108409882,0.59650719165802,-0.5669227242469788,-0.6718471646308899
0.744683027267456,0.06551802158355713,0.17434629797935486,-0.1925773024559021,-0.3464431258123606,-1.3517093208382274,0.11619756051495171,-0.9181029200553894,0.33955442905426025,-0.20442569255828857,0.8477873802185059,-0.6090693473815918,-0.6992372274398804
0.764307975769043,0.03914844989776611,0.23529332876205444,-0.19123004376888275,-0.32915054307513814,-1.357591873053979,0.1335869281865976,-0.9248906970024109,0.3232392966747284,-0.20023399591445923,1.142971158027649,-0.5717027187347412,-0.6504151225090027
0.7852778434753418,0.06490904092788696,0.2526715397834778,-0.173383891582489,-0.3125741437908058,-1.3619857998917402,0.15775586691760382,-0.9308759570121765,0.30750906467437744,-0.19725191593170166,1.435957431793213,-0.6285837888717651,-0.4900294840335846
0.8057370185852051,0.08596235513687134,0.2292374074459076,-0.13894319534301758,-0.29908144713963036,-1.3657397509712748,0.18706552674675914,-0.9355870485305786,0.2946425676345825,-0.1945832371711731,1.5743374824523926,-0.5955537557601929,-0.2773396372795105
0.8239829540252686,0.1047394871711731,0.20994147658348083,-0.100716233253479,-0.28995394114227596,-1.3669612866907201,0.21812234925985885,-0.9384187459945679,0.2859081029891968,-0.19397659599781036,1.5111271142959595,-0.45225784182548523,-0.0464710034430027
0.8439741134643555,0.1444113850593567,0.20237776637077332,-0.0777977705001831,-0.28533443997025976,-1.3673412542977745,0.24851063900974882,-0.9397758841514587,0.2814783751964569,-0.19388478994369507,1.471709966659546,-0.458684504032135,0.1635323017835617
0.8633530139923096,0.15044277906417847,0.19538569450378418,-0.07295289635658264,-0.28468621547799017,-1.3678590991174335,0.27981394678706917,-0.9400545358657837,0.28085631132125854,-0.19343481957912445,1.498401403427124,-0.44769442081451416,0.34722021222114563
0.8889651298522949,0.11249291896820068,0.1846226155757904,-0.048795878887176514,-0.28652096611206335,-1.3661375825027655,0.31231993539876374,-0.9392141699790955,0.2826167345046997,-0.19494783878326416,1.5373625755310059,-0.293356329202652,0.43514442443847656
0.904080867767334,0.10846602916717529,0.17558088898658752,-0.01361057162284851,-0.289983529756093,-1.3611256604061328,0.3465857537864105,-0.9372625946998596,0.2859364449977875,-0.19944776594638824,1.634738802909851,-0.21876031160354614,0.5687781572341919
0.9235410690307617,0.10340660810470581,0.2024562656879425,-0.008532345294952393,-0.2950940563949232,-1.3550739659174256,0.38538124727395984,-0.9345986843109131,0.2908298373222351,-0.20480060577392578,1.954774260520935,-0.3051261603832245,0.6994434595108032
0.9391069412231445,0.10340660810470581,0.2024562656879425,-0.008532345294952393,-0.2950940563949232,-1.3550739659174256,0.38538124727395984,-0.9345986843109131,0.2908298373222351,-0.20480060577392578,1.954774260520935,-0.3051261603832245,0.6994434595108032
0.9638760089874268,-0.04386478662490845,0.17134425044059753,0.15091218054294586,-0.3123956225745023,-1.3352005009576773,0.47344315026090267,-0.9253124594688416,0.3073391914367676,-0.22212475538253784,1.4767106771469116,0.06350360065698624,1.0352975130081177
0.9835410118103027,-0.033162713050842285,0.062989741563797,0.1979159116744995,-0.32866838237711277,-1.325458852370887,0.49947777200719,-0.9181312918663025,0.322782963514328,-0.2298828810453415,0.5915573239326477,0.03138250112533569,1.1245830059051514
1.0036158561706543,-0.03850257396697998,0.08016762137413025,0.11109098792076111,-0.3492039393053446,-1.3249981005859741,0.5132478492125258,-0.9114030003547668,0.34214991331100464,-0.22864454984664917,0.29311779141426086,-0.5159730315208435,1.1250594854354858
1.025442123413086,-0.214183509349823,0.1927644908428192,0.04617591202259064,-0.36682943741795976,-1.3352280266745138,0.5273639806440912,-0.9076884388923645,0.3586576282978058,-0.21786761283874512,0.6404234766960144,-0.8731169104576111,0.8409605622291565
1.0435760021209717,-0.3365030884742737,0.24328112602233887,0.055738165974617004,-0.3764646530336384,-1.3397445530177081,0.5491437809880104,-0.9052571654319763,0.36763501167297363,-0.21296453475952148,1.07503342628479,-0.3282758891582489,0.5782021880149841
1.0635161399841309,-0.026238679885864258,0.13128122687339783,0.10784381628036499,-0.3826584763690701,-1.33182510583949,0.5763442703874858,-0.9013126492500305,0.37338799238204956,-0.21958371996879578,1.1760212182998657,-0.03558232635259628,0.618509829044342
1.0837421417236328,0.3267473578453064,-0.02927529811859131,0.16767992079257965,-0.39070221349848955,-1.3272964723187572,0.6032331566744974,-0.8973650336265564,0.3808377981185913,-0.22293181717395782,1.06609046459198,-0.6158952713012695,0.7203283905982971
1.1044809818267822,0.3514007329940796,-0.16904938220977783,0.15022048354148865,-0.4003629269002958,-1.3342972307733887,0.6296866938721725,-0.8952851891517639,0.389752596616745,-0.21577204763889313,1.164785385131836,-1.0842365026474,0.6820885539054871
1.1232891082763672,0.11050242185592651,-0.26381736993789673,0.07009923458099365,-0.40218144247783283,-1.3441770803737838,0.6627186140323891,-0.8966810703277588,0.3914266526699066,-0.20675678551197052,1.796783208847046,-1.1782687902450562,0.1346590369939804
1.1431999206542969,-0.08379793167114258,-0.23054495453834534,0.027409911155700684,-0.3926075302312853,-1.356232342170274,0.6994559155051915,-0.9027286171913147,0.3825988471508026,-0.19672121107578278,1.5762065649032593,-1.4950408935546875,-0.3329845070838928
1.1630859375,-0.286579430103302,-0.1418139636516571,0.1064143031835556,-0.37713082870559916,-1.376989476080267,0.7209063464073514,-0.9123190641403198,0.3682544529438019,-0.17906123399734497,0.6056506037712097,-1.2939629554748535,-0.774043083190918
1.184420108795166,-0.35478484630584717,-0.1331750452518463,0.2695971131324768,-0.36075199681476605,-1.3953091000467897,0.7201131929675072,-0.9212619662284851,0.3529779314994812,-0.16334998607635498,-0.29152199625968933,-0.48368918895721436,-0.7830513715744019
1.2021450996398926,-0.27630382776260376,-0.17663291096687317,0.2976248860359192,-0.35145692232654036,-1.400048405872338,0.710478022171575,-0.9252191781997681,0.34426602721214294,-0.15953265130519867,-0.2855454981327057,0.2360234409570694,-0.20805075764656067
1.2229161262512207,-0.1826050877571106,-0.05535796284675598,0.16878950595855713,-0.3554436469348258,-1.3954878940512223,0.7084412277378181,-0.9231230616569519,0.34800630807876587,-0.16350975632667542,0.027907297015190125,0.19847287237644196,0.42190492153167725
1.2429518699645996,-0.13898086547851562,0.04104778170585632,0.08943235874176025,-0.3627445620186072,-1.3916482311880132,0.7154315389317432,-0.9199638962745667,0.35484153032302856,-0.16659584641456604,0.5439351797103882,-0.07725866883993149,0.39030104875564575
1.2635209560394287,-0.06346750259399414,0.005688905715942383,0.05060964822769165,-0.3687294107359461,-1.387462077435553,0.7374370809086884,-0.9171538949012756,0.3604305386543274,-0.17005527019500732,1.292319416999817,-0.2794344127178192,0.5227839350700378
1.2832770347595215,0.01012951135635376,-0.06783589720726013,0.12746411561965942,-0.37410907466901017,-1.3842590735371736,0.7702713617838404,-0.9146857857704163,0.3654433786869049,-0.1726299226284027,1.6040492057800293,-0.5664741396903992,0.5616860389709473
1.3025970458984375,0.04981279373168945,-0.12035012245178223,0.1303907185792923,-0.379714507511177,-1.3837763412905886,0.8068023645404746,-0.9125752449035645,0.3706553280353546,-0.1726878583431244,1.5883976221084595,-0.751742959022522,0.5966626405715942
1.3236751556396484,0.09426820278167725,-0.13006159663200378,0.09368319809436798,-0.38437567059191213,-1.387200777558535,0.8412568034337858,-0.9114526510238647,0.37498044967651367,-0.16924452781677246,1.4798989295959473,-0.9110451936721802,0.4156878888607025
1.344264030456543,0.17796635627746582,-0.10117673873901367,0.03602041304111481,-0.38519887633197303,-1.3957064361111788,0.8722867072395494,-0.9125549793243408,0.37574344873428345,-0.1614321768283844,1.3197804689407349,-1.101492166519165,0.11240538209676743
1.3621420860290527,0.245496928691864,-0.07152819633483887,-0.013666465878486633,-0.37770131578761446,-1.4089801572806149,0.8975560750708049,-0.9173720479011536,0.3687847852706909,-0.14975500106811523,1.1135205030441284,-1.1170365810394287,-0.5206179618835449
1.3825898170471191,0.2882646918296814,-0.042110562324523926,-0.006366431713104248,-0.36112714820264474,-1.4243606002985685,0.9164969135961732,-0.9254870414733887,0.3533289134502411,-0.13650144636631012,0.9682475328445435,-1.1074706315994263,-0.7191582918167114
1.402721881866455,0.30372756719589233,-0.0013058483600616455,0.005230367183685303,-0.34619242126552546,-1.4391094985390884,0.9327833758273776,-0.9325270652770996,0.3393186032772064,-0.12351633608341217,0.7347562909126282,-0.8853017687797546,-0.6843307614326477
1.4220669269561768,0.2349088191986084,0.039950042963027954,-0.078738272190094,-0.33097361979954576,-1.45046904280937,0.9457012952140098,-0.9388883113861084,0.3249639570713043,-0.11352229118347168,0.7347585558891296,-0.6598014235496521,-0.6899252533912659
1.4431250095367432,0.2231806516647339,0.07427087426185608,-0.11855226010084152,-0.31516780476256007,-1.4569124350510703,0.9574819680329293,-0.9445856809616089,0.3099760115146637,-0.10804057866334915,0.5007925033569336,-0.38154345750808716,-0.7839388251304626
1.4622809886932373,0.2166903018951416,0.028963565826416016,-0.05103039741516113,-0.2973598805124194,-1.4610698155541888,0.9608539194748862,-0.9503634572029114,0.29299697279930115,-0.10470059514045715,-0.0601983517408371,-0.14326199889183044,-0.9462057948112488
1.4832849502563477,0.21341931819915771,-0.05253687500953674,0.04195971041917801,-0.27856844139069287,-1.4649025701383167,0.947896080564582,-0.9560645222663879,0.2749795615673065,-0.10162139683961868,-0.9727112054824829,0.10985982418060303,-1.0512222051620483
1.503998041152954,0.21574389934539795,-0.0615176260471344,-0.007387086749076843,-0.26089363775407903,-1.4687709391321124,0.9183164417079734,-0.9611356854438782,0.2579440474510193,-0.09840190410614014,-1.6275990009307861,0.2909085154533386,-0.9801148772239685
1.5214159488677979,0.2649150490760803,0.014564618468284607,-0.008576929569244385,-0.24602761755020253,-1.4703974866660259,0.8815836007778699,-0.9650035500526428,0.24355313181877136,-0.09721209108829498,-1.635014533996582,0.4356285035610199,-0.8749645352363586
1.542551040649414,0.3292253017425537,0.050775736570358276,0.02547503262758255,-0.23287872569918996,-1.4685825010507196,0.8502872315168475,-0.9679276943206787,0.2307794988155365,-0.09928158670663834,-1.2514957189559937,0.4783394932746887,-0.7518875598907471
1.5618319511413574,0.3638150691986084,0.04060451686382294,0.01871722936630249,-0.22095464427352482,-1.4645227189188346,0.8284573648310032,-0.9701841473579407,0.21916115283966064,-0.10349489003419876,-0.727763831615448,0.426418662071228,-0.6758962869644165
1.5818901062011719,0.39535295963287354,0.044898033142089844,0.025540053844451904,-0.20967140666669867,-1.4580663076591098,0.816625790939295,-0.9718910455703735,0.20813851058483124,-0.11002777516841888,-0.3707663118839264,0.47882118821144104,-0.5765793323516846
1.6020441055297852,0.45669424533843994,-0.026239782571792603,0.05059802532196045,-0.1998857336424243,-1.4489499374783446,0.8101517610513262,-0.9728227853775024,0.19855734705924988,-0.11912506073713303,-0.15357503294944763,0.557563841342926,-0.45886826515197754
1.6223821640014648,0.5491198897361755,-0.14153563976287842,0.10536260902881622,-0.1949844242761076,-1.4396619461088875,0.8056186743876175,-0.972627580165863,0.193751260638237,-0.12828107178211212,-0.3500082194805145,0.3811602294445038,-0.09325259923934937
1.6432299613952637,0.5222418904304504,-0.1899293065071106,0.10266424715518951,-0.19231810988901865,-1.4394461009912982,0.793927245413781,-0.9731085300445557,0.19113478064537048,-0.1285582184791565,-0.6632146239280701,-0.13985644280910492,-0.3638266921043396
1.6612329483032227,0.3441937565803528,-0.09974472224712372,-0.00979989767074585,-0.18647112532460075,-1.4486488346244188,0.7800188095149573,-0.9753431081771851,0.1853923499584198,-0.11973176896572113,-0.545741081237793,-0.39636752009391785,-0.32413268089294434
1.6818640232086182,0.14369869232177734,-0.044664427638053894,0.011298403143882751,-0.18220663894021413,-1.4544548148896748,0.7711467340589301,-0.9767981767654419,0.18120011687278748,-0.11415769904851913,-0.33178406953811646,0.05865691229701042,-0.222234308719635
1.7046840190887451,0.1281793713569641,-0.12484341859817505,0.1008567363023758,-0.17976515632055834,-1.4513321203851444,0.7607614901343437,-0.9768731594085693,0.17879851162433624,-0.11725974082946777,-0.7010931968688965,0.3012140691280365,-0.16551105678081512
1.7212800979614258,0.20330870151519775,-0.1714552342891693,0.056582942605018616,-0.17831919670615626,-1.450544065467226,0.7455030166347606,-0.9770360589027405,0.1773756742477417,-0.11806041747331619,-0.6611059904098511,0.033387329429388046,-0.14225038886070251
1.7406070232391357,0.20496588945388794,-0.06803296506404877,-0.02323932945728302,-0.17711182007181725,-1.4533839695772512,0.73660800795335,-0.9775795936584473,0.17618730664253235,-0.11531028896570206,-0.16427411139011383,-0.12028487771749496,-0.12217170745134354
1.7612299919128418,0.14926844835281372,-0.024876177310943604,-0.042649492621421814,-0.17368204908520482,-1.4554999003168523,0.7372139113841973,-0.9784157276153564,0.1728101670742035,-0.11331037431955338,0.22425347566604614,-0.11691304296255112,-0.21230320632457733
1.7821149826049805,0.12114596366882324,-0.0669965147972107,-0.006349325180053711,-0.16862461725736647,-1.4576581064265046,0.7428820535115293,-0.979513943195343,0.16782663762569427,-0.11129574477672577,0.3543095290660858,-0.20327110588550568,-0.2223549336194992
1.8039610385894775,0.0177382230758667,-0.09145203232765198,-0.01649409532546997,-0.1620764981880351,-1.4616847152956134,0.750818896291708,-0.9810256361961365,0.16136783361434937,-0.10746810585260391,0.5512391924858093,-0.3302980065345764,-0.37729763984680176
1.8236379623413086,-0.1364130973815918,-0.07870249450206757,0.01974385976791382,-0.15244291493221634,-1.466061274430416,0.7633881052282032,-0.9829869866371155,0.15185317397117615,-0.1033312976360321,0.6866104006767273,-0.25122565031051636,-0.42228174209594727
1.8415679931640625,-0.2452448010444641,-0.08799463510513306,0.10744547843933105,-0.1422766927595228,-1.4653732720362471,0.774455317614987,-0.9844000339508057,0.14179717004299164,-0.10416463762521744,0.571716845035553,0.18249984085559845,-0.4919786751270294
1.8630750179290771,-0.16493922472000122,-0.17768797278404236,0.08654411137104034,-0.13277442260186054,-1.4570686400225095,0.7849951592880814,-0.9847952127456665,0.13238465785980225,-0.11248385161161423,0.5246887803077698,0.41471126675605774,-0.2914959788322449
1.880465030670166,-0.02166992425918579,-0.18045933544635773,-0.0384674072265625,-0.1273210424006318,-1.4506408789520089,0.7964596368452941,-0.9847540855407715,0.1269773244857788,-0.11889629811048508,0.7522934675216675,0.007146405056118965,-0.1938648670911789
1.9007999897003174,-0.054186880588531494,-0.08493290841579437,-0.09091436862945557,-0.1202260368170502,-1.4511524452625109,0.8150239775177601,-0.9856843948364258,0.11993661522865295,-0.11849705874919891,1.1008912324905396,-0.16511572897434235,-0.3006579279899597
1.9217438697814941,-0.15166008472442627,-0.0491165816783905,-0.04308760166168213,-0.11112806321237748,-1.4486907880610589,0.8352292394737928,-0.9864320158958435,0.11089947819709778,-0.12105102092027664,0.9643583297729492,0.1799301654100418,-0.3582211434841156
1.9423069953918457,-0.1365780234336853,-0.1760546863079071,-0.04541127383708954,-0.10254968307754121,-1.4403965041902436,0.8521600201309517,-0.9863010048866272,0.10237003117799759,-0.12934745848178864,0.8166687488555908,0.4729093313217163,-0.22530429065227509
1.9608421325683594,-0.07946658134460449,-0.12599366903305054,-0.12794357538223267,-0.09884134474794824,-1.4293775209019166,0.866197507498786,-0.9851849675178528,0.09868048131465912,-0.14025996625423431,0.6644903421401978,0.4175046384334564,-0.03086494281888008
1.9805431365966797,-0.15550732612609863,-8.153915405273438e-05,-0.18404822051525116,-0.09470551883809236,-1.4205868313130217,0.8796215853793228,-0.9843088984489441,0.09456401318311691,-0.14897467195987701,0.7496640086174011,0.3618835210800171,-0.21747179329395294
2.0010080337524414,-0.30711543560028076,0.10556623339653015,-0.14706027507781982,-0.0854557666634171,-1.41099384990547,0.8956711225667222,-0.983656108379364,0.08535179495811462,-0.15854254364967346,0.9077446460723877,0.4931781589984894,-0.4320351481437683
2.0231080055236816,-0.4183487296104431,-0.002382412552833557,-0.034793421626091,-0.07383014442656063,-1.3983517453293375,0.9097026671736906,-0.9824844002723694,0.07376308739185333,-0.17112372815608978,0.6359643936157227,0.6443979740142822,-0.3894056975841522
2.0408120155334473,-0.4838704466819763,-0.10450908541679382,0.025014057755470276,-0.06924035505754957,-1.3837874196020878,0.916019923611521,-0.9802103638648987,0.0691850408911705,-0.18547528982162476,0.02955317124724388,0.7839176058769226,-0.04191020876169205
2.0604400634765625,-0.5873786807060242,0.038144372403621674,0.03302231431007385,-0.06778833555284472,-1.366939637137088,0.9128836847077749,-0.977043867111206,0.0677364319562912,-0.20198267698287964,-0.2199970930814743,0.9037672877311707,-0.19769027829170227
2.079987049102783,-0.5941023230552673,0.12864793837070465,-0.012317568063735962,-0.06232568567190972,-1.3475739957242647,0.9102692840227252,-0.9732956886291504,0.06228534132242203,-0.22094331681728363,0.037795960903167725,1.046892523765564,-0.3158737123012543
2.1020569801330566,-0.47931718826293945,0.0016301460564136505,0.13606595993041992,-0.056704134862975035,-1.3239592254246344,0.9132051338435353,-0.9681316018104553,0.05667375400662422,-0.24394544959068298,0.3146435022354126,1.288882851600647,-0.029968900606036186
2.123166084289551,-0.48678743839263916,-0.010898564010858536,0.24634885787963867,-0.060511360189416497,-1.2901025597120535,0.9206839103749097,-0.9591049551963806,0.06047444045543671,-0.27651533484458923,0.14253051578998566,1.9222925901412964,0.6626543402671814
2.1401009559631348,-0.44385671615600586,0.1595931351184845,-0.18692252039909363,-0.06802899016345831,-1.2586796627688734,0.9298385574152152,-0.9494845271110535,0.06797652691602707,-0.30636346340179443,-0.3057958483695984,0.7302477955818176,-0.12404782325029373
2.162726879119873,-0.15262055397033691,-0.1607087254524231,0.10254818201065063,-0.068813616797322,-1.2585698672012178,0.930926696268704,-0.9493997693061829,0.06875932216644287,-0.3064512312412262,0.6761326789855957,-0.41910937428474426,0.5908458232879639
2.1799840927124023,-0.38981038331985474,0.005187295377254486,0.15308409929275513,-0.07910852361172313,-1.2630342850257146,0.9590551900366739,-0.95003342628479,0.07902603596448898,-0.3019792139530182,1.5662004947662354,-0.136467844247818,0.8251326084136963
2.2007498741149902,-0.6760885715484619,0.1602948009967804,0.19902467727661133,-0.0816630594506793,-1.2581334568103915,0.9899215296722615,-0.9483469128608704,0.08157232403755188,-0.306568443775177,1.1992849111557007,0.27568814158439636,0.4880076050758362
2.2204670906066895,-0.4197925329208374,-0.24790146946907043,0.2181870937347412,-0.08781235319253229,-1.2552614522795131,1.0068677203125027,-0.9469677805900574,0.0876995399594307,-0.3091293275356293,0.13023905456066132,-0.197126567363739,0.612796425819397
2.239980936050415,-0.39960402250289917,-0.10774017870426178,0.2149302363395691,-0.10276354935195066,-1.2620395202517245,1.0043968801484275,-0.9476860761642456,0.10258277505636215,-0.30227139592170715,-0.7023438811302185,-0.4018138349056244,0.698241114616394
2.2614550590515137,-0.463773250579834,0.09131811559200287,0.17422157526016235,-0.12276574745910143,-1.2721748252702767,0.9919165355699685,-0.9485498070716858,0.1224576011300087,-0.2919887602329254,-0.9991095066070557,-0.4993809163570404,0.8822048902511597
2.2812538146972656,-0.4566689133644104,0.15249289572238922,0.16523587703704834,-0.1501643930960657,-1.284762008221117,0.9792795942719879,-0.9485740661621094,0.14960068464279175,-0.2789747416973114,-0.9420466423034668,-0.6322684288024902,1.2962698936462402
2.3003931045532227,-0.5619863867759705,0.23042982816696167,0.14546892046928406,-0.18297351335226023,-1.29728891684364,0.9728867498118058,-0.9467568397521973,0.1819542497396469,-0.26560115814208984,-0.501663863658905,-0.5444309115409851,1.5751615762710571
2.326421022415161,-0.6312592625617981,0.2606421709060669,0.011522144079208374,-0.21527526029564073,-1.308096815423286,0.9782856631961199,-0.9434019923210144,0.21361634135246277,-0.2536941468715668,0.13135609030723572,-0.6336963772773743,1.668661117553711
2.344064950942993,-0.6449952721595764,0.20856906473636627,-0.030434012413024902,-0.24674707123901146,-1.3167068077591937,0.9928936749952797,-0.9385771751403809,0.2442508488893509,-0.24375097453594208,0.4137970209121704,-0.5444846749305725,1.759273886680603
2.359858989715576,-0.5379099249839783,0.06769433617591858,0.015554279088973999,-0.28156181156791205,-1.3217806933048983,1.009850636452997,-0.9309927821159363,0.2778562903404236,-0.23674555122852325,0.27628812193870544,-0.4496966004371643,2.0018656253814697
2.3827199935913086,-0.4356268644332886,0.020899087190628052,0.03254574537277222,-0.319966728303321,-1.3279078822724877,1.0222991606754537,-0.9213830232620239,0.314534991979599,-0.2283005714416504,-0.07323326170444489,-0.5692722797393799,1.9957988262176514
2.403623104095459,-0.35937637090682983,0.03519397974014282,0.016413569450378418,-0.3581564730547324,-1.3378000054441324,1.0292307420529907,-0.9112382531166077,0.35054829716682434,-0.2162424772977829,-0.03348992392420769,-0.6461085677146912,1.8954253196716309
2.4236321449279785,-0.2096269726753235,0.04576730728149414,-0.03682529926300049,-0.3953109935604265,-1.345257589167967,1.0449035426614315,-0.8995039463043213,0.3850952088832855,-0.2063843458890915,0.625026285648346,-0.6874303221702576,2.0535097122192383
2.4431958198547363,-0.15063291788101196,0.006792217493057251,-0.07124194502830505,-0.4308702573756758,-1.3476747189865308,1.0725940221824466,-0.8860798478126526,0.4176616668701172,-0.2010510116815567,1.0036777257919312,-0.5995591282844543,2.0289037227630615
2.464718818664551,-0.13860714435577393,-0.08503061532974243,-0.0360792875289917,-0.46574676769191625,-1.3459998130220057,1.1006788282714577,-0.8710058927536011,0.4490901529788971,-0.19916528463363647,0.5882161259651184,-0.5134498476982117,1.8666656017303467
2.4832849502563477,-0.09790557622909546,-0.18298989534378052,-0.03459388017654419,-0.49957926880329406,-1.3499793246235385,1.1151942545872369,-0.8564707040786743,0.4790562689304352,-0.1922583431005478,-0.09074508398771286,-0.5659742951393127,1.7299083471298218
2.5022690296173096,-0.0012614130973815918,-0.18078845739364624,0.005580052733421326,-0.5332310648185173,-1.361616774700694,1.116847344778309,-0.842397153377533,0.5083184838294983,-0.1788281798362732,-0.35147202014923096,-0.6771876215934753,1.5739264488220215
2.525135040283203,0.028099656105041504,-0.11584335565567017,-0.0358964204788208,-0.5627957105676016,-1.3743919415933679,1.1191852750596596,-0.829506516456604,0.5335528254508972,-0.16504639387130737,-0.01139982882887125,-0.7080151438713074,1.3713370561599731
2.5430498123168945,0.0926172137260437,-0.12401723861694336,-0.03627103567123413,-0.5862754634695476,-1.3825727092471396,1.129149765502514,-0.8182947039604187,0.5532622933387756,-0.15586744248867035,0.374671071767807,-0.6540207266807556,1.1154100894927979
2.563228130340576,0.19786113500595093,-0.16101586818695068,-0.007071971893310547,-0.605258813710033,-1.3871943091086452,1.1419793673445355,-0.8085331320762634,0.5689749121665955,-0.15013916790485382,0.09718068689107895,-0.50027996301651,0.9112370014190674
2.5835540294647217,0.24373608827590942,-0.26357847452163696,0.2279946208000183,-0.6200405859363409,-1.3994226972064394,1.130590272901624,-0.8019331097602844,0.581068217754364,-0.13879157602787018,-1.348279595375061,-0.0790872797369957,0.32973408699035645
2.6033310890197754,0.3678760528564453,-0.3289819359779358,0.26620715856552124,-0.6260208582414319,-1.4294029614406882,1.0824352635509307,-0.8022785782814026,0.5859248638153076,-0.11419891566038132,-2.451272487640381,-0.1969655454158783,-0.3019106090068817
2.6233069896698,0.5092209577560425,-0.19842010736465454,0.12040829658508301,-0.6248632547154703,-1.4689872898860152,1.0252960335593524,-0.806843638420105,0.5849863886833191,-0.0824289619922638,-1.8409836292266846,-0.3527434170246124,-0.20420017838478088
2.644929885864258,0.5495971441268921,0.008100390434265137,0.09220248460769653,-0.6277347236696466,-1.494867372160527,0.9913297137885455,-0.80702805519104,0.5873128175735474,-0.0613948293030262,-1.1324162483215332,-0.2564696967601776,0.09614364057779312
2.659994125366211,0.4792436957359314,-0.06627422571182251,0.12831634283065796,-0.629719839857686,-1.51652084642753,0.9650409062872641,-0.8070024847984314,0.5889183282852173,-0.04384350776672363,-0.9635207056999207,-0.38063621520996094,0.019456546753644943
2.6828179359436035,0.5284453630447388,-0.06321001052856445,0.1208764910697937,-0.6328420148061096,-1.5395725450044595,0.9453258512061389,-0.8059569597244263,0.5914388298988342,-0.025173204019665718,-0.6281945705413818,-0.8006953597068787,0.18668393790721893
2.703047037124634,0.44889599084854126,0.01011204719543457,0.03979402780532837,-0.6375007903119373,-1.564778340897355,0.9370511890070801,-0.8035714030265808,0.5951889753341675,-0.00483593950048089,-0.013222522102296352,-1.2150254249572754,0.16216114163398743
2.7225608825683594,0.28674519062042236,0.0220181941986084,0.04714560508728027,-0.641069962350359,-1.587251955548036,0.9413694716683466,-0.8013477921485901,0.5980533361434937,0.013187872245907784,0.42720162868499756,-1.320192575454712,0.07141485065221786
2.742839813232422,0.1545739769935608,0.001977682113647461,-0.06515253335237503,-0.6401062701025949,-1.6055974310822552,0.9594448909987919,-0.8015465140342712,0.5972806811332703,0.027905970811843872,0.9156965017318726,-1.5496903657913208,-0.10859575867652893
2.7626659870147705,0.028142333030700684,-0.03132462501525879,-0.32641732692718506,-0.6404965299732228,-1.6232899449723313,0.987985885942136,-0.8006947636604309,0.5975936055183411,0.042070016264915466,1.4658597707748413,-2.0725910663604736,-0.03933374211192131
2.7823891639709473,-0.028756558895111084,-0.13509303331375122,-0.46273744106292725,-0.638434574567861,-1.651182795806054,1.0195804743046921,-0.8004366159439087,0.5959390997886658,0.06448323279619217,1.0008528232574463,-2.5011956691741943,-0.37932226061820984
2.8027729988098145,-0.2496090531349182,-0.35177576541900635,-0.21376407146453857,-0.6294485294617777,-1.6794787452183588,1.0204337091038935,-0.8035830855369568,0.5886990427970886,0.08768084645271301,-1.3753786087036133,-0.7828895449638367,0.023388545960187912
2.8223628997802734,-0.6179919838905334,-0.7633533477783203,-1.0108846426010132,-0.6274518724574447,-1.690687100068811,0.9934330496581371,-0.8037151098251343,0.5870838761329651,0.09682237356901169,-1.1585333347320557,0.8393757343292236,0.5447754263877869
2.8424789905548096,-0.4904191493988037,-0.2563120722770691,-1.357749342918396,-0.6350414993919862,-1.69099699931085,0.9680507462408862,-0.7992382645606995,0.5932109355926514,0.09653434157371521,-1.464200496673584,0.18249808251857758,-0.04105505719780922
2.8621790409088135,-0.027698397636413574,-0.37589848041534424,-0.030950672924518585,-0.6221983843451244,-1.7236293024664804,0.9194303869704847,-0.8031272888183594,0.5828229784965515,0.12370903789997101,-1.4478685855865479,-0.2730419337749481,-0.2869899570941925
2.882136821746826,-0.28850364685058594,-0.36103129386901855,-0.4679136276245117,-0.6297801175948778,-1.7235552743471305,0.916583649477563,-0.7987460494041443,0.5889670848846436,0.12297363579273224,0.9051364064216614,0.40794435143470764,0.9308190941810608
2.902191162109375,-0.392428457736969,-0.16385972499847412,-0.2873690128326416,-0.6414449828584298,-1.6973207884157033,0.9452825068524148,-0.794827401638031,0.5983538031578064,0.10110519826412201,1.3672065734863281,0.5187111496925354,-0.38418662548065186
2.9222121238708496,-0.3608176112174988,-0.4462277293205261,-0.22058701515197754,-0.6294673326970883,-1.6644179688816774,0.976366143796135,-0.8048011660575867,0.5887142419815063,0.07556772232055664,0.9411990642547607,0.8990816473960876,-0.7726348638534546
2.9421639442443848,-0.21318340301513672,-0.6355136036872864,-0.14721858501434326,-0.6183755281830899,-1.633611361048006,0.9940237492068378,-0.8132142424583435,0.5797122716903687,0.05114937201142311,0.42947065830230713,1.1430447101593018,-0.5352295637130737
2.961897850036621,-0.18862056732177734,-0.5291957855224609,-0.1702423095703125,-0.6050368597598292,-1.6039181225980679,1.0024740261000467,-0.8220300674438477,0.5687924027442932,0.027237072587013245,0.2996942102909088,1.3703699111938477,-0.8927186131477356
2.9818148612976074,-0.19877737760543823,-0.37961846590042114,-0.24532955884933472,-0.5834220053972549,-1.5676320180774437,1.013721116239293,-0.8345780968666077,0.5508831143379211,-0.002640871563926339,0.6257269978523254,1.586826205253601,-1.2652010917663574
3.0018279552459717,-0.14301800727844238,-0.3379529118537903,-0.24285298585891724,-0.5537675497916023,-1.5282591551628302,1.0292672520659851,-0.8497797250747681,0.5258954167366028,-0.03616904467344284,0.6810160279273987,1.4756364822387695,-1.6804099082946777
3.0218658447265625,-0.06240576505661011,-0.33007344603538513,-0.11176031827926636,-0.5165424523228445,-1.4938824766822834,1.0403642918428078,-0.8669613003730774,0.4938766360282898,-0.06681313365697861,0.5140112042427063,1.4174131155014038,-1.9475895166397095
3.0418319702148438,-0.09338611364364624,-0.24989941716194153,-0.10283952951431274,-0.47634364198312895,-1.4621304039736214,1.0473680745596023,-0.8834357857704163,0.4585329294204712,-0.09637901932001114,0.4944562017917633,1.467146873474121,-2.052985191345215
3.061048984527588,-0.12018036842346191,-0.10601627826690674,-0.10205259919166565,-0.4321302636549559,-1.4291767779544813,1.0536062413617309,-0.8989845514297485,0.41880619525909424,-0.12817180156707764,0.6107421517372131,1.5153924226760864,-2.234257221221924
3.0817599296569824,-0.03785771131515503,-0.022019028663635254,0.0022023767232894897,-0.38528656331536576,-1.397978766421859,1.0571306672676626,-0.9128870368003845,0.3758247196674347,-0.15935248136520386,0.36835041642189026,1.4456844329833984,-2.3574178218841553
3.1020121574401855,0.05345183610916138,0.005266815423965454,0.16225315630435944,-0.33809768441499793,-1.3714149162114015,1.050024102337628,-0.9246981143951416,0.3316930830478668,-0.1868501454591751,-0.18499723076820374,1.4706412553787231,-2.40358304977417
3.1216089725494385,0.2489444613456726,-0.0007754266262054443,0.28906360268592834,-0.2938343411595128,-1.34829403812308,1.0315725396801796,-0.9335452318191528,0.28962433338165283,-0.21121303737163544,-0.4443022310733795,1.3315449953079224,-2.278641939163208
3.1415810585021973,0.36789220571517944,0.062159836292266846,0.09362074732780457,-0.2510306354803983,-1.3290006087328512,1.0186920983367889,-0.9404783844947815,0.2484024167060852,-0.23194153606891632,0.23819057643413544,0.8819301128387451,-2.2584452629089355
3.1613059043884277,0.3286464214324951,0.1596890240907669,-0.01968786120414734,-0.2019096766898083,-1.314421616577235,1.0237303810700988,-0.9476651549339294,0.20054057240486145,-0.24842418730258942,1.4120705127716064,0.5494174361228943,-2.296638011932373
3.1814329624176025,0.33562350273132324,0.09235817193984985,0.08132219314575195,-0.1513680730586214,-1.302767536400497,1.0416024328915368,-0.953268826007843,0.15079070627689362,-0.26180300116539,1.4216457605361938,0.306977778673172,-2.2280125617980957
3.2015018463134766,0.2578408718109131,-0.008476316928863525,0.10125970840454102,-0.1026200305741829,-1.2989878562761246,1.0520002665148958,-0.9582193493843079,0.1024400144815445,-0.2670615613460541,0.8725054860115051,-0.01568860374391079,-2.1983306407928467
3.223282814025879,0.12668699026107788,0.17613860964775085,0.12538525462150574,-0.05651179211584427,-1.301008349604306,1.0525229560149292,-0.9622887969017029,0.05648171901702881,-0.2661016285419464,0.5467888116836548,-0.19617874920368195,-2.2590107917785645
3.241331100463867,-0.04895508289337158,0.3207889199256897,-0.0366271436214447,-0.007992365148857265,-1.3069874747142491,1.0572714566573673,-0.9653729200363159,0.007992279715836048,-0.2607511878013611,1.3130476474761963,-0.4240124523639679,-2.305591344833374
3.261281967163086,-0.13067162036895752,0.3908580541610718,-0.030725926160812378,0.04385663540646326,-1.315826746362917,1.0743121412336218,-0.9667404890060425,-0.04384257644414902,-0.2519734501838684,1.430985927581787,-0.3926192820072174,-2.2489800453186035
3.281540870666504,-0.06466186046600342,0.24279239773750305,0.12219077348709106,0.09189008142723018,-1.3235721398622096,1.0835196696618674,-0.9655048251152039,-0.09176082164049149,-0.24368107318878174,0.597980797290802,-0.3126189112663269,-2.1467204093933105
3.3009910583496094,-0.10291606187820435,0.1838870495557785,0.13202035427093506,0.13137761153206975,-1.326067768159708,1.0735460015438125,-0.9618423581123352,-0.13100001215934753,-0.24020500481128693,-0.4863273501396179,-0.08775179088115692,-2.0521819591522217
3.321293830871582,-0.1907976269721985,0.24402226507663727,0.202081099152565,0.16496590743129735,-1.319505648637439,1.0520211426467225,-0.9554426074028015,-0.1642186939716339,-0.24527856707572937,-0.7583948969841003,0.4945203959941864,-1.625545859336853
3.3412938117980957,-0.17009508609771729,0.2746734023094177,0.22224938869476318,0.19034085217860808,-1.3027062384159922,1.0230037207520901,-0.94686359167099,-0.18919360637664795,-0.26010629534721375,-1.3218389749526978,0.4893392324447632,-1.532777190208435
3.3609118461608887,-0.06639230251312256,0.23561285436153412,0.15707805752754211,0.2075589002495841,-1.2903462556714287,0.9897051054226412,-0.9403064846992493,-0.20607180893421173,-0.27084746956825256,-1.2825580835342407,0.051860079169273376,-0.9389918446540833
3.3822641372680664,-0.03538888692855835,0.30286675691604614,0.12777602672576904,0.21758923819194592,-1.2882144490507195,0.9666457600808537,-0.9376946687698364,-0.21587634086608887,-0.2722613215446472,-0.6948019862174988,-0.3276101052761078,-0.6511216759681702
3.400033950805664,-0.1280820369720459,0.19705475866794586,0.12921428680419922,0.2240089104445809,-1.2918148220879813,0.9581304916403648,-0.9373171925544739,-0.2221401482820511,-0.2684963345527649,-0.09121537953615189,-0.1944836527109146,-0.26122111082077026
3.420569896697998,-0.18554747104644775,0.23519869148731232,0.1743873953819275,0.22749709566766207,-1.2921641316774573,0.9522194574775759,-0.9366602301597595,-0.22553981840610504,-0.26795414090156555,-0.36374926567077637,-0.034392960369586945,-0.22537866234779358
3.4412498474121094,-0.12327200174331665,0.1384171098470688,0.18439584970474243,0.22773708643587665,-1.2893137655197773,0.9442470860555593,-0.9358406066894531,-0.2257736176252365,-0.2706078290939331,-0.31715279817581177,0.08376297354698181,0.019531410187482834
3.460036039352417,-0.09076583385467529,0.1177133172750473,0.1131579577922821,0.22388807761512047,-1.2867932712776382,0.9377086354755743,-0.935982882976532,-0.22202232480049133,-0.2732072174549103,-0.45924460887908936,-0.03118882142007351,0.12627840042114258
3.4806408882141113,-0.012898862361907959,0.08076940476894379,0.10002321004867554,0.21806789763329845,-1.2887989392293775,0.9292604486548688,-0.9377543330192566,-0.2163436859846115,-0.2716844081878662,-0.4157894551753998,-0.36578401923179626,0.19571901857852936
3.5003490447998047,0.007438838481903076,0.07085110247135162,0.07879313826560974,0.21141473109182238,-1.297256980087282,0.9268787049272311,-0.9413835406303406,-0.20984333753585815,-0.264126181602478,0.035776179283857346,-0.4772353768348694,0.42632490396499634
3.5203380584716797,-0.09166079759597778,0.033068299293518066,0.11229264736175537,0.20146631396237774,-1.30566921377235,0.9317137937135833,-0.9455402493476868,-0.2001062035560608,-0.25673216581344604,0.048514798283576965,-0.24725773930549622,0.5877854228019714
3.540030002593994,-0.24517858028411865,0.05036315321922302,0.10112392902374268,0.19042793816917677,-1.3084193938220816,0.9349973673776503,-0.9483182430267334,-0.18927910923957825,-0.25468820333480835,-0.00497812032699585,0.024894332513213158,0.5891759991645813
3.5604000091552734,-0.2808014750480652,0.14086082577705383,0.08557060360908508,0.17687680081241772,-1.308585822615372,0.9386202459951616,-0.9507505893707275,-0.17595596611499786,-0.25517183542251587,-0.09610526263713837,-0.08623778074979782,0.8210357427597046
3.5802299976348877,-0.3042060136795044,0.12113136053085327,0.13216841220855713,0.15645201144086102,-1.3125298863108474,0.9384620763439646,-0.9550256133079529,-0.1558145433664322,-0.2522854506969452,-0.43059858679771423,-0.25338026881217957,1.2130087614059448
3.601464033126831,-0.3947790861129761,0.16502438485622406,0.2105247676372528,0.12640500791655535,-1.3159762856827784,0.9343586390674546,-0.9599879384040833,-0.12606865167617798,-0.25006014108657837,-0.6400415897369385,-0.10316625237464905,1.5261584520339966
3.620029926300049,-0.5966774821281433,0.28015345335006714,0.16058212518692017,0.092372698133806,-1.3126401107206238,0.930763901042254,-0.9627403020858765,-0.09224139153957367,-0.25420987606048584,-0.6387744545936584,0.43338534235954285,1.6994839906692505
3.6402978897094727,-0.6429905295372009,0.304066926240921,0.10595738887786865,0.056248004456906586,-1.3023001341714215,0.9294596953680013,-0.9626461267471313,-0.05621834844350815,-0.2648622691631317,-0.29072877764701843,0.5615077614784241,1.8518931865692139
3.6600279808044434,-0.45437365770339966,0.3297550082206726,0.02326914668083191,0.01505824787113827,-1.2931017446658744,0.9414912650194172,-0.9615809917449951,-0.015057678334414959,-0.2741082012653351,0.3065490126609802,0.32938987016677856,2.3613195419311523
3.6800360679626465,-0.4521322250366211,0.37224918603897095,0.09599560499191284,-0.03092352558404437,-1.2873067730025485,0.9651808862774606,-0.959626317024231,0.030918598175048828,-0.279573917388916,0.7186756134033203,0.2656266689300537,2.707949161529541
3.700085163116455,-0.5281819701194763,0.38865214586257935,0.11836865544319153,-0.08042874528174669,-1.280080353301909,1.0006180266080802,-0.954941987991333,0.08034206181764603,-0.2857116460800171,1.2053606510162354,0.364197313785553,3.0767860412597656
3.720029830932617,-0.543546736240387,0.3039111793041229,0.1314074695110321,-0.13497489662963355,-1.2674605168863486,1.039194726157738,-0.9456652998924255,0.13456544280052185,-0.2959885597229004,0.8414875864982605,0.3776696026325226,3.156963586807251
3.740200996398926,-0.46556079387664795,0.17799793183803558,0.083770751953125,-0.19182883830311373,-1.2576874101437738,1.0710480313151187,-0.9339296221733093,0.19065450131893158,-0.3023679852485657,0.45722222328186035,0.09135981649160385,3.2349607944488525
3.7600300312042236,-0.42497706413269043,0.1874672919511795,0.06600332260131836,-0.2493745874387396,-1.2516447650527078,1.098722082688657,-0.9201309680938721,0.24679793417453766,-0.30405551195144653,0.342919260263443,-0.07719173282384872,3.081372022628784
3.7800300121307373,-0.3276250958442688,0.1426648199558258,0.07254412770271301,-0.3051009181309658,-1.2472399813927053,1.1249245266751307,-0.9043237566947937,0.30038943886756897,-0.3032568097114563,0.29138419032096863,-0.18578842282295227,3.044980525970459
3.800029993057251,-0.2600586414337158,0.12104165554046631,-0.004696160554885864,-0.3602735828559145,-1.2451173711857642,1.1497482072242668,-0.8866090178489685,0.35253027081489563,-0.2994113862514496,0.09706925600767136,-0.40093162655830383,2.9466278553009033
3.8200278282165527,-0.2685525417327881,0.1001446545124054,-0.021497011184692383,-0.415124598973967,-1.2467765538369484,1.1672854668223676,-0.8674491047859192,0.40330395102500916,-0.2913385033607483,-0.2657260298728943,-0.39125415682792664,2.778902292251587
3.8400278091430664,-0.22946786880493164,0.08470937609672546,-0.07039499282836914,-0.46837714402303776,-1.2485366232686328,1.180572424867081,-0.8463683128356934,0.4514388144016266,-0.28260165452957153,-0.26697009801864624,-0.3769097328186035,2.644054412841797
3.8600289821624756,-0.1062612533569336,0.043333232402801514,-0.0971572995185852,-0.5176908366816085,-1.2522275425137235,1.1913483603945916,-0.8252420425415039,0.49487486481666565,-0.27216628193855286,-0.4144990146160126,-0.4969576895236969,2.36492657661438
3.880073070526123,0.015261530876159668,-0.07825833559036255,-0.040071308612823486,-0.5647242061820124,-1.2593423638569972,1.197026988137001,-0.8040951490402222,0.5351828336715698,-0.2588634788990021,-0.5847956538200378,-0.529600977897644,2.2239997386932373
3.9000320434570312,0.07593119144439697,-0.1697903275489807,0.040573686361312866,-0.6084546577169324,-1.2668306625477201,1.2003392017044359,-0.782916784286499,0.5716001391410828,-0.24559061229228973,-0.4748004674911499,-0.30160531401634216,2.1727781295776367
3.9200658798217773,0.15088963508605957,-0.20918422937393188,-0.034200772643089294,-0.649072691103457,-1.2697371350610789,1.2067206756699052,-0.7608138918876648,0.6044479012489319,-0.23623056709766388,-0.09715697169303894,-0.43650028109550476,1.7805933952331543
3.9400649070739746,0.26065903902053833,-0.1748899221420288,-0.050798237323760986,-0.6781569577077379,-1.2701390592662969,1.2230357845409519,-0.7437980771064758,0.6273588538169861,-0.23061946034431458,0.3840234875679016,-0.5903820395469666,1.3932483196258545
3.9602150917053223,0.32277023792266846,-0.34589529037475586,0.04346442222595215,-0.700901070628071,-1.2698168322079808,1.2414439794912746,-0.7299052476882935,0.6449065804481506,-0.2265697419643402,0.1641213595867157,-0.6081677675247192,1.1886736154556274
3.980194091796875,0.39739489555358887,-0.47634798288345337,0.043987587094306946,-0.7192596519109975,-1.281650286123287,1.2486653414051683,-0.7210642695426941,0.6588279008865356,-0.21450437605381012,-0.1359950304031372,-1.0087250471115112,0.7957015633583069
4.00035285949707,0.4359204173088074,-0.4502893090248108,-0.0013286471366882324,-0.7338603658868699,-1.3015641542963003,1.2518883429059255,-0.7158428430557251,0.6697413325309753,-0.19752372801303864,0.0661127120256424,-1.1915969848632812,0.6477802395820618
4.020084857940674,0.3823532462120056,-0.4619148373603821,-0.02774631977081299,-0.7415906958931342,-1.3197372445898883,1.262866066552703,-0.7142776250839233,0.6754617094993591,-0.18319104611873627,0.5381891131401062,-1.3493731021881104,0.3240492641925812
4.04003381729126,0.28104257583618164,-0.4527934789657593,-0.05362044274806976,-0.7437908103954036,-1.3354920459110327,1.2809010553497475,-0.7156280875205994,0.6770824790000916,-0.17156857252120972,0.5850549340248108,-1.4652998447418213,0.13590574264526367
4.060175895690918,0.10675811767578125,-0.4760560393333435,-0.0890691876411438,-0.743200801409627,-1.358621769306733,1.2935847971264065,-0.7197951674461365,0.6766481399536133,-0.15505601465702057,0.09594603627920151,-1.4214390516281128,0.015555995516479015
4.080103874206543,-0.5901015400886536,-0.6429829597473145,-0.5720636248588562,-0.7509735019055528,-1.3786853966730341,1.2689787551877174,-0.7175766229629517,0.682350754737854,-0.13957564532756805,-1.6729285717010498,1.6587276458740234,0.8633836507797241
4.100213050842285,-0.870506763458252,0.06331688165664673,-1.8611655235290527,-0.7638028437455346,-1.3552396298378306,1.2522273906449288,-0.7054972648620605,0.6916729211807251,-0.1544746458530426,0.6732504963874817,0.570608377456665,-0.4349466562271118
4.120126962661743,0.20325922966003418,0.391990602016449,-0.013312026858329773,-0.7476591061025548,-1.3733596951694802,1.2391464477754166,-0.7190367579460144,0.6799240708351135,-0.1438380628824234,-1.171602725982666,-0.4910448491573334,-1.0806454420089722
4.1400229930877686,-0.03903460502624512,-0.6037785410881042,0.2291250377893448,-0.7499865893226365,-1.3731316252730115,1.223802500727411,-0.7174503207206726,0.681628942489624,-0.14369089901447296,0.23117516934871674,1.1348257064819336,1.081635594367981
4.160015106201172,-0.10748356580734253,-0.04054337739944458,-0.015113338828086853,-0.7627592265130481,-1.3469401811343227,1.239080282993947,-0.7048942446708679,0.6909188032150269,-0.16048462688922882,0.37978169322013855,0.3114766478538513,-0.035551171749830246
4.180039882659912,-0.06316244602203369,-0.02932584285736084,0.00703825056552887,-0.7525895189153045,-1.3341205661239521,1.2513452199370163,-0.7095730304718018,0.6835311651229858,-0.17114634811878204,0.8336980938911438,0.3682231903076172,-0.36733871698379517
4.200031995773315,0.08092957735061646,-0.39320439100265503,0.11430102586746216,-0.7432885701252696,-1.305591960453661,1.2753557674176526,-0.7105072140693665,0.6767127513885498,-0.19297516345977783,0.9053342342376709,0.7928006649017334,-0.3001790940761566
4.220041990280151,0.2606392502784729,-0.45501452684402466,0.2935944199562073,-0.7311446515814549,-1.2785577995435387,1.287038469067012,-0.7128487229347229,0.6677221655845642,-0.21446216106414795,0.3196561634540558,1.0691336393356323,-0.5855128765106201
4.240059852600098,0.43312811851501465,-0.6109134554862976,-0.1291579008102417,-0.7173523139617735,-1.2568962911736679,1.2924056254319631,-0.7167279720306396,0.6573918461799622,-0.23267363011837006,0.49584388732910156,0.5944646596908569,-0.6838811039924622
4.260030031204224,0.6356131434440613,-0.512540340423584,-0.07744330167770386,-0.6995093356387582,-1.2513510086512043,1.2949090518697104,-0.7264487147331238,0.643842339515686,-0.24029028415679932,0.25770455598831177,-0.23137907683849335,-0.8878208994865417
4.279597043991089,0.6621553897857666,-0.4222830533981323,-0.05954462289810181,-0.6795127738752572,-1.2618865126018475,1.2907948667900753,-0.7410585880279541,0.6284140944480896,-0.23649096488952637,0.03660257160663605,-0.42737478017807007,-1.2962759733200073
4.300036907196045,0.6498309969902039,-0.406363844871521,0.08593961596488953,-0.652282473285274,-1.2821123194662098,1.2737634798608028,-0.7618153691291809,0.6070018410682678,-0.22624404728412628,-0.36449164152145386,-0.585149347782135,-1.7078289985656738
4.320032119750977,0.6852677464485168,-0.2873426079750061,0.07160980999469757,-0.6195607849344266,-1.3058774331453213,1.258035142760265,-0.7857315540313721,0.5806776285171509,-0.21316541731357574,0.0982494130730629,-0.8449627757072449,-1.7004406452178955
4.34003210067749,0.6477751135826111,-0.1320282220840454,0.05887866020202637,-0.5848109440768016,-1.3250007249213855,1.257225276332887,-0.8087553381919861,0.55204176902771,-0.20289096236228943,0.7653932571411133,-1.0578486919403076,-1.7569245100021362
4.36003303527832,0.5309346318244934,-0.09201741218566895,0.04469521343708038,-0.5438478372706292,-1.3409063833930635,1.271516280959306,-0.8332111239433289,0.5174325108528137,-0.19499413669109344,1.2702100276947021,-1.285138726234436,-1.9305124282836914
4.380092144012451,0.44644564390182495,-0.11050519347190857,0.048204079270362854,-0.4998164159247961,-1.3592907319310636,1.2900769032438983,-0.8581124544143677,0.47926440834999084,-0.18425127863883972,1.2079296112060547,-1.4953492879867554,-2.025020122528076
4.400032997131348,0.37086135149002075,-0.11252817511558533,0.03877604007720947,-0.4553236618658756,-1.3851518024033551,1.3052855921750735,-0.8826869130134583,0.4397530257701874,-0.16577479243278503,1.0133854150772095,-1.8103528022766113,-2.059732675552368
4.420029163360596,0.23892325162887573,-0.05071383714675903,0.0477677583694458,-0.4125025114226303,-1.4176387752772281,1.3180275128750123,-0.9053966403007507,0.40090319514274597,-0.13976286351680756,0.8370906114578247,-1.8990516662597656,-1.9647761583328247
4.4400458335876465,0.04128974676132202,0.027552306652069092,-0.007119767367839813,-0.3716782413774628,-1.4496972548594436,1.326696843142174,-0.9248956441879272,0.36317959427833557,-0.11255475133657455,0.5419823527336121,-1.632576823234558,-2.022334337234497
4.459749937057495,-0.12388765811920166,0.08284696936607361,-0.10551977157592773,-0.3298074769824931,-1.4783050783816225,1.331403324700245,-0.9420608282089233,0.32386088371276855,-0.08738169819116592,0.37344181537628174,-1.422659158706665,-2.0660362243652344
4.480034828186035,-0.23314428329467773,0.13460847735404968,-0.18206673860549927,-0.2884739551451121,-1.502763608637684,1.3372450084140903,-0.956461489200592,0.28448957204818726,-0.0651712492108345,0.5894676446914673,-1.2012921571731567,-2.0046958923339844
4.5000529289245605,-0.31409937143325806,0.20691922307014465,-0.11003649234771729,-0.24996035595916427,-1.5208752426818846,1.3510963702353653,-0.9677152037620544,0.2473655492067337,-0.04834956303238869,0.9288496375083923,-0.9250032305717468,-1.7253388166427612
4.520033836364746,-0.3764633536338806,0.21448242664337158,-0.02318406105041504,-0.21938697930443618,-1.5312238724130571,1.3670924784316185,-0.9752669930458069,0.21763134002685547,-0.03861386701464653,0.6653099060058594,-0.5049436688423157,-1.2573586702346802
4.540040969848633,-0.41672569513320923,0.15144357085227966,0.02563685178756714,-0.19845905028131355,-1.5367798232265675,1.3732388900786041,-0.9798044562339783,0.19715885818004608,-0.0333423838019371,-0.040406208485364914,-0.13616620004177094,-0.8363623023033142
4.560032844543457,-0.37796419858932495,0.13399483263492584,0.1331285834312439,-0.1852856965404728,-1.5348849757844287,1.3654156177602117,-0.9822500348091125,0.1842273473739624,-0.03528909757733345,-0.5560994148254395,0.43359705805778503,-0.5288570523262024
4.580057144165039,-0.28082382678985596,0.20380063354969025,0.11839216947555542,-0.17641615316311532,-1.5249185809077292,1.3559175403256818,-0.9834431409835815,0.1755024790763855,-0.04514983668923378,-0.1985657513141632,0.6893494725227356,-0.3920040428638458
4.600058078765869,-0.20434707403182983,0.20672760903835297,0.04008418321609497,-0.17180197569802283,-1.511029066656066,1.3592587706084673,-0.9835191369056702,0.17095807194709778,-0.058852337300777435,0.4215279221534729,0.5858690738677979,-0.05947762355208397
4.620065927505493,-0.18050318956375122,0.12269681692123413,0.1426398754119873,-0.17112124839260723,-1.5001100108989227,1.3679370924335865,-0.9829337000846863,0.1702873259782791,-0.06959591060876846,0.36094361543655396,0.3794865012168884,0.028696851804852486
4.6400370597839355,-0.19776946306228638,0.04315072298049927,0.2185194492340088,-0.1735394383628567,-1.4927192568758807,1.375368550470481,-0.9819790124893188,0.1726696938276291,-0.07682621479034424,0.4679063558578491,0.2456902712583542,0.32935449481010437
4.660029888153076,-0.25580090284347534,0.05739486217498779,0.19158512353897095,-0.18322220526421232,-1.4853292962108133,1.3902320609064778,-0.9796728491783142,0.18219877779483795,-0.08393419533967972,0.8135682344436646,0.21864444017410278,0.6762753129005432
4.68002986907959,-0.36237138509750366,0.11791683733463287,0.13720810413360596,-0.19684382624211394,-1.479991284096883,1.40670863942969,-0.9766483306884766,0.19557508826255798,-0.08892914652824402,0.7169333696365356,-0.06310103833675385,0.6897412538528442
4.700031042098999,-0.4106047749519348,0.1986560970544815,0.275825560092926,-0.20261456481869936,-1.4818487739338404,1.4166617241780803,-0.9756713509559631,0.20123109221458435,-0.08701317012310028,0.4021930992603302,-0.23500941693782806,0.10336487740278244
4.720031976699829,-0.41956913471221924,-0.05077865719795227,0.3002660870552063,-0.2095508597856862,-1.4820524166315643,1.4296894751113745,-0.9742754697799683,0.20802061259746552,-0.08668870478868484,0.7524111866950989,-0.05287538841366768,0.8510738015174866
4.74009895324707,-0.44441843032836914,0.020411446690559387,0.333648145198822,-0.22906907640060226,-1.4788683820513224,1.4461855147137446,-0.9697662591934204,0.22707101702690125,-0.08940059691667557,0.5716931223869324,-0.029498334974050522,1.0388022661209106
4.760040998458862,-0.5503032803535461,0.09148037433624268,0.23302066326141357,-0.24729038199948095,-1.4775543328852552,1.4576125113196103,-0.9653674960136414,0.24477766454219818,-0.09027456492185593,0.4664733111858368,-0.08447051048278809,0.9697338938713074
4.780113935470581,-0.6027742624282837,0.10516303777694702,0.15974116325378418,-0.2695492929618046,-1.474942315694443,1.4688390901930677,-0.959466278553009,0.26629704236984253,-0.09225139766931534,0.34632644057273865,0.08664912730455399,1.364586591720581
4.800065040588379,-0.6095678210258484,0.059986770153045654,0.1733343005180359,-0.29983236014692727,-1.4690491120592133,1.4750739791712493,-0.9504449963569641,0.2953600585460663,-0.09704023599624634,-0.02171638235449791,0.31262004375457764,1.7194048166275024
4.820101022720337,-0.604553759098053,0.0532364547252655,0.20184199512004852,-0.33794029815937165,-1.4608549126711234,1.4733146843572655,-0.9377437233924866,0.33154457807540894,-0.10351426899433136,-0.4520515203475952,0.6138866543769836,2.0484185218811035
4.839820861816406,-0.6294975280761719,0.05737683176994324,0.08515364676713943,-0.38192502869015366,-1.4462827979087611,1.4722357047111374,-0.9207648634910583,0.3727074861526489,-0.11524386703968048,-0.13064001500606537,0.8342313170433044,2.301544189453125
4.8601579666137695,-0.5454332828521729,0.11510375142097473,0.05458356440067291,-0.4270729963345489,-1.4274013851052425,1.4805497204009757,-0.9008404016494751,0.41420847177505493,-0.13006867468357086,0.30092963576316833,0.7121350169181824,2.241828680038452
4.880011081695557,-0.510041356086731,0.07707381248474121,0.09302206337451935,-0.4696499171702397,-1.406258689059445,1.4973478374347853,-0.8796833157539368,0.45257413387298584,-0.1460614949464798,0.39115259051322937,0.6412816047668457,2.2660233974456787
4.900041103363037,-0.496154248714447,0.020113766193389893,0.1086895614862442,-0.512986016495545,-1.388866194095848,1.5121267970204064,-0.8569035530090332,0.49078109860420227,-0.15763963758945465,0.15600231289863586,0.4689895808696747,2.2444775104522705
4.919997930526733,-0.42393237352371216,-0.0021327733993530273,0.10753579437732697,-0.557336091680564,-1.3747790410141287,1.5220540250292196,-0.8324151635169983,0.5289273262023926,-0.16529016196727753,-0.12956877052783966,0.4331621527671814,2.2826642990112305
4.9400811195373535,-0.2912694215774536,-0.038529932498931885,0.07808065414428711,-0.601788883709212,-1.3636822360705432,1.5281739260532505,-0.8067072033882141,0.5661180019378662,-0.16951118409633636,-0.18693211674690247,0.3038761615753174,2.135380506515503
4.959981918334961,-0.1430671215057373,-0.05479252338409424,0.046069905161857605,-0.641257945366667,-1.354745914622896,1.5367356807724404,-0.7827141880989075,0.5982039570808411,-0.17178696393966675,-0.007306629791855812,0.10083285719156265,1.8837047815322876
4.979979038238525,-0.04200690984725952,-0.10032719373703003,0.047855913639068604,-0.6747416563135522,-1.3497675198362282,1.545266382342749,-0.7618718147277832,0.6246955990791321,-0.17119254171848297,-0.10709091275930405,-0.12042983621358871,1.5604792833328247
4.999999046325684,0.015021026134490967,-0.19863158464431763,0.1133798211812973,-0.7043588019140752,-1.3544877607297667,1.5436417683531338,-0.744269073009491,0.647545337677002,-0.16355058550834656,-0.6462239027023315,-0.17823801934719086,1.30699622631073
5.019999027252197,0.08007919788360596,-0.21231108903884888,0.09254574775695801,-0.730451755664592,-1.3652160237490008,1.5307776460941125,-0.7291880249977112,0.6672062277793884,-0.15205486118793488,-0.7565829157829285,-0.1026977151632309,1.027547836303711
5.040021896362305,0.18532544374465942,-0.17459678649902344,0.03311063349246979,-0.7495100238602088,-1.3765355954928518,1.5188764613699046,-0.7182537913322449,0.6812801957130432,-0.14131055772304535,-0.49003756046295166,-0.2338501513004303,0.6809630393981934
5.060029983520508,0.2520883083343506,-0.20602792501449585,0.03266198933124542,-0.7613501345374508,-1.3878167919576891,1.511783528973735,-0.7118202447891235,0.6898994445800781,-0.13172191381454468,-0.23837362229824066,-0.42644408345222473,0.41126447916030884
5.079638957977295,0.2468118667602539,-0.2262384295463562,0.055105701088905334,-0.7682129960928304,-1.4014257716787186,1.507175496003167,-0.7088631391525269,0.6948512196540833,-0.12122190743684769,-0.25167548656463623,-0.5975791215896606,0.1643342226743698
5.100048065185547,0.19981366395950317,-0.21904999017715454,0.0750918984413147,-0.7681896511022659,-1.4176633733613555,1.5006585326790378,-0.7107541561126709,0.6948344111442566,-0.10969869792461395,-0.16637912392616272,-0.5818299651145935,-0.22176048159599304
5.1199729442596436,0.20916563272476196,-0.1997593641281128,0.013485848903656006,-0.761227640502863,-1.4330341820076438,1.4977713390118523,-0.7171306610107422,0.6898107528686523,-0.09942322224378586,0.06461744010448456,-0.7734057307243347,-0.4882001578807831
5.140030860900879,0.1802559494972229,-0.22258925437927246,-0.024105675518512726,-0.7487233383399656,-1.4491609297376,1.5006063326893972,-0.7271462082862854,0.6807040572166443,-0.08888550847768784,0.25100988149642944,-1.0957430601119995,-0.7257000803947449
5.160033941268921,0.08721226453781128,-0.24554824829101562,-0.07473611831665039,-0.7305589916997248,-1.4669847277403127,1.5081301278979828,-0.740791916847229,0.6672860980033875,-0.07718025147914886,0.6719937920570374,-1.2197154760360718,-1.0214385986328125
5.180032968521118,-0.0690838098526001,-0.23827707767486572,-0.08367478847503662,-0.7145189583176494,-1.4644018715685208,1.5208899196407926,-0.7511370778083801,0.6552541255950928,-0.08021973818540573,0.937591552734375,1.6912223100662231,-0.6753097772598267
5.199253082275391,-1.136683464050293,-0.22368305921554565,-1.9403021335601807,-0.6990597413466021,-1.3670069702846648,1.5714466328772208,-0.749608039855957,0.6434982419013977,-0.15491262078285217,1.9316010475158691,2.392573595046997,-1.1394193172454834
5.2200541496276855,0.21082115173339844,-0.7455331087112427,-0.9065553545951843,-0.6589194861584146,-1.3506158646748538,1.565646436917222,-0.7715662717819214,0.6122629046440125,-0.17268341779708862,-1.5646579265594482,-0.4817112386226654,-1.8643524646759033
5.240056037902832,0.642928421497345,-0.6289746165275574,-0.009705141186714172,-0.6490610673601845,-1.4148683176545622,1.5093442443305245,-0.7869867086410522,0.6044386625289917,-0.12371756881475449,-2.0476765632629395,-2.125066041946411,-0.08828798681497574
5.260048866271973,-0.12731170654296875,-0.1476573944091797,-0.18943780660629272,-0.6552313610928964,-1.4648326308710535,1.4855732280558813,-0.7884597182273865,0.6093426942825317,-0.08386221528053284,0.22254493832588196,-1.1066421270370483,0.17833417654037476
5.280038833618164,-0.5194392800331116,0.4836413860321045,-0.2777866721153259,-0.6446171117947435,-1.460926173228035,1.51478870414237,-0.7945102453231812,0.6008924245834351,-0.08764591813087463,2.1451375484466553,-0.5357599258422852,-1.1922845840454102
5.300060033798218,-0.2566186189651489,0.17639213800430298,-0.19956058263778687,-0.6052705686433902,-1.4407371448816895,1.5738300267332628,-0.8154028058052063,0.5689846277236938,-0.10665266215801239,2.716954231262207,-0.9695306420326233,-1.8530809879302979
5.319276809692383,-0.008177876472473145,-0.14253395795822144,0.032800741493701935,-0.5673884642145325,-1.4372712252247482,1.6221316579659046,-0.8358009457588196,0.537431538105011,-0.11226841062307358,1.7737410068511963,-1.2651948928833008,-1.3379383087158203
5.3400349617004395,-0.08233940601348877,-0.1521255373954773,0.07945407927036285,-0.5430321981724794,-1.4481347691903108,1.6451755094225313,-0.8497130274772644,0.5167343616485596,-0.10475301742553711,0.2797378897666931,-1.0795600414276123,-0.8696669340133667
5.360038995742798,-0.2791270613670349,-0.03683355450630188,0.12814337015151978,-0.5221181801475664,-1.4674336012312277,1.6408559847286932,-0.8621387481689453,0.49871721863746643,-0.08943172544240952,0.015200210735201836,-0.4310436546802521,-1.3429807424545288
5.380032062530518,-0.33535003662109375,0.1491336226463318,-0.036250337958335876,-0.4911493994084343,-1.4632976580178374,1.6519092787787337,-0.8767011761665344,0.4716397225856781,-0.09460891783237457,1.2942792177200317,0.17013852298259735,-1.5887064933776855
5.400032997131348,-0.1810588240623474,0.2607141137123108,0.013746976852416992,-0.4541720284921122,-1.4447602551359862,1.6812105481513975,-0.8914966583251953,0.43871843814849854,-0.11295949667692184,1.4632395505905151,0.37534278631210327,-1.7880403995513916
5.4200310707092285,-0.11090511083602905,-0.052318423986434937,0.15979161858558655,-0.41592208392871893,-1.4292013085499924,1.696738000016646,-0.9055894613265991,0.4040335714817047,-0.1290908306837082,0.2791735827922821,0.47755810618400574,-1.7621078491210938
5.440052032470703,-0.14545273780822754,-0.15528535842895508,0.19822798669338226,-0.3854470502699442,-1.4227772993776033,1.681582593194316,-0.916498064994812,0.3759734332561493,-0.1366586536169052,-1.1740432977676392,0.8057557344436646,-1.4424114227294922
5.4600300788879395,-0.17380881309509277,-0.06700688600540161,0.16663534939289093,-0.3650872814487613,-1.4173343150717286,1.6396796386174826,-0.9231149554252625,0.35703083872795105,-0.14278574287891388,-2.328071117401123,1.2706100940704346,-1.2211098670959473
5.480062007904053,-0.09725499153137207,0.025058090686798096,0.10137009620666504,-0.348971170025849,-1.4094863071596089,1.5797600303038022,-0.9275252819061279,0.34193116426467896,-0.1509305089712143,-2.8682518005371094,1.5588315725326538,-1.2429271936416626
5.500041961669922,0.03171813488006592,0.07576414942741394,0.07956141233444214,-0.3350406290498651,-1.399073210042182,1.5151446496156626,-0.9305065870285034,0.328807532787323,-0.1613789051771164,-2.8848769664764404,1.6609617471694946,-1.121514081954956
5.520031929016113,0.12030857801437378,0.06806385517120361,0.13029183447360992,-0.324841460292374,-1.3855155341627639,1.4506564523321637,-0.9314810037612915,0.31915855407714844,-0.1745879352092743,-2.9920408725738525,1.786879539489746,-0.9734652042388916
5.540032863616943,0.1522049903869629,0.006874412298202515,0.23049134016036987,-0.31914901285335395,-1.371256251741516,1.3813239318081032,-0.9306626915931702,0.3137586712837219,-0.18820908665657043,-3.446290969848633,1.8065451383590698,-0.8458866477012634
5.5600409507751465,0.14296376705169678,-0.048422425985336304,0.3672010600566864,-0.3198069198344374,-1.360254779547289,1.3003382648529704,-0.9283338189125061,0.31438326835632324,-0.19839297235012054,-4.128179550170898,1.8927010297775269,-0.6454532146453857
5.579287052154541,0.1130439043045044,-0.09291905164718628,0.4064239263534546,-0.3282596283383321,-1.3499845464412459,1.2072652351945807,-0.9236212968826294,0.32239606976509094,-0.20732708275318146,-4.658277988433838,2.0494563579559326,-0.4506503641605377
5.600093841552734,0.08892613649368286,-0.11603891849517822,0.3666267395019531,-0.34131653336873136,-1.3414055987869464,1.109005634107367,-0.9176310300827026,0.3347279727458954,-0.2142675518989563,-4.63472318649292,2.052341938018799,-0.35871368646621704
5.620038032531738,0.08844935894012451,-0.11352235078811646,0.312025785446167,-0.35415590254218277,-1.3332473344229137,1.0153620255786115,-0.9115999341011047,0.34679877758026123,-0.22071701288223267,-4.142282485961914,1.8993726968765259,-0.4737350642681122
5.640068054199219,0.09157490730285645,-0.13597369194030762,0.33056139945983887,-0.3615090327212145,-1.3254608465248043,0.9371992296385816,-0.907355546951294,0.35368612408638,-0.22718290984630585,-3.2045156955718994,1.6439223289489746,-0.5251632332801819
5.660036087036133,0.06725233793258667,-0.1727021336555481,0.3982977569103241,-0.36488860807482904,-1.316302221554058,0.8747527843567697,-0.9040747880935669,0.3568452298641205,-0.23518110811710358,-2.5863046646118164,1.554419994354248,-0.621993899345398
5.680030822753906,0.04538238048553467,-0.22176048159599304,0.4047715663909912,-0.3633714287719221,-1.3039794013981942,0.8214929291457993,-0.9016293883323669,0.3554275333881378,-0.24644619226455688,-2.281755208969116,1.5496411323547363,-0.7933605909347534
5.70006799697876,0.09416598081588745,-0.20645150542259216,0.445681095123291,-0.3592071498206088,-1.2929523446027957,0.7689161599505107,-0.9002726078033447,0.35153210163116455,-0.2567770779132843,-2.3879716396331787,1.4131461381912231,-0.9208140969276428
5.720067024230957,0.1422533392906189,-0.2278955578804016,0.4353120028972626,-0.35471817063066025,-1.2867664633603406,0.7121252446184934,-0.9001726508140564,0.3473260998725891,-0.26278063654899597,-2.630852460861206,1.1865291595458984,-0.9723862409591675
5.740027904510498,0.14806050062179565,-0.1966659128665924,0.3878014087677002,-0.35098371182409466,-1.286383120401593,0.6505517589984685,-0.9013106822967529,0.3438217043876648,-0.263487845659256,-2.805802345275879,0.99526447057724,-0.9722836017608643
5.7600579261779785,0.12991774082183838,-0.11189314723014832,0.32513511180877686,-0.34715690112304987,-1.2897958838130725,0.5873351933541133,-0.9034621715545654,0.3402256965637207,-0.26077333092689514,-2.7855193614959717,0.8372704982757568,-1.01345956325531
5.780089855194092,0.1185765266418457,-0.03963965177536011,0.28964051604270935,-0.3414637327421851,-1.2952037079907022,0.5264004997297922,-0.9067082405090332,0.3348666727542877,-0.25640666484832764,-2.589508056640625,0.6784743666648865,-1.0979876518249512
5.80005407333374,0.11523997783660889,-0.0008223652839660645,0.2769070267677307,-0.33284674170756445,-1.302450118387851,0.47001331159619436,-0.9112910628318787,0.32673484086990356,-0.2505854368209839,-2.3088059425354004,0.4476549029350281,-1.1529375314712524
5.820050001144409,0.08771872520446777,0.04163283109664917,0.25136542320251465,-0.3213042176117705,-1.3120833542434414,0.4198502355603869,-0.9172476530075073,0.31580430269241333,-0.24274399876594543,-1.989377737045288,0.23205088078975677,-1.2108498811721802
5.840016841888428,0.05212533473968506,0.09505900740623474,0.2280588299036026,-0.3065392424508196,-1.3217374699222513,0.37611042274271794,-0.9239667654037476,0.30176103115081787,-0.23500138521194458,-1.681168556213379,0.1596461981534958,-1.2645372152328491
5.8591508865356445,0.07014989852905273,0.1358342170715332,0.22076451778411865,-0.28893013785080895,-1.3306217133359586,0.3380837607000611,-0.9310356378555298,0.2849268615245819,-0.22801227867603302,-1.438786268234253,0.0525675043463707,-1.3083126544952393
5.880023002624512,0.10131579637527466,0.1886768937110901,0.19369137287139893,-0.26984735817633626,-1.34154922019622,0.3039540841530111,-0.9385961294174194,0.2665843069553375,-0.2190207839012146,-1.3363813161849976,-0.20856432616710663,-1.3224848508834839
5.900096893310547,0.09047645330429077,0.23878923058509827,0.1598132997751236,-0.24897396210472347,-1.3564296434269414,0.2716775188287312,-0.9469828009605408,0.24640968441963196,-0.20616932213306427,-1.2444006204605103,-0.43316635489463806,-1.4033360481262207
5.920063018798828,0.05629849433898926,0.26376718282699585,0.1277163177728653,-0.22620939616820365,-1.3735959256026442,0.24148029561226933,-0.9556362628936768,0.22428511083126068,-0.19093330204486847,-1.1745177507400513,-0.5702705383300781,-1.4185540676116943
5.940097808837891,0.02748662233352661,0.2944633960723877,0.11184602975845337,-0.20295980518359655,-1.3919857800334843,0.21247864866240943,-0.9638575315475464,0.20156925916671753,-0.17420853674411774,-1.2024511098861694,-0.6604134440422058,-1.3980498313903809
5.960020065307617,0.005724608898162842,0.35694047808647156,0.07846790552139282,-0.17982418147794954,-1.4118213969381836,0.18238188189391424,-0.9714686870574951,0.17885659635066986,-0.1557535082101822,-1.3293083906173706,-0.7506852746009827,-1.3911311626434326
5.98006796836853,-0.015028238296508789,0.39402902126312256,0.03668440878391266,-0.1565052733326736,-1.4324059414852182,0.15192601268792513,-0.9783341884613037,0.15586714446544647,-0.13626305758953094,-1.280551552772522,-0.7834745645523071,-1.3386493921279907
6.000044822692871,0.004351615905761719,0.41544193029403687,0.0039466023445129395,-0.13537086329051265,-1.451665724283275,0.12335266814424106,-0.983828604221344,0.13495779037475586,-0.11776171624660492,-1.2908451557159424,-0.7490270733833313,-1.1144202947616577
6.020030975341797,0.023071885108947754,0.44404923915863037,-0.046205222606658936,-0.11806869662772003,-1.471170788792561,0.09495207018010787,-0.988114058971405,0.11779457330703735,-0.09876837581396103,-1.2888436317443848,-0.8431841731071472,-0.9260321259498596
6.040031909942627,0.020067214965820312,0.4943099915981293,-0.12016618251800537,-0.10380717850011502,-1.4910628906352184,0.06836296923625616,-0.9914570450782776,0.10362084209918976,-0.0792202278971672,-1.2696789503097534,-0.8268160223960876,-0.7232560515403748
6.060030937194824,0.026939451694488525,0.4857763648033142,-0.14142191410064697,-0.09375231624946333,-1.5092114479285028,0.04023662364543343,-0.993721067905426,0.09361504018306732,-0.061275679618120193,-1.489963173866272,-0.6934434175491333,-0.5002920031547546
6.07912802696228,0.0746917724609375,0.39525097608566284,-0.09212338924407959,-0.0878023584140038,-1.523974291005329,0.005848146368931426,-0.99505615234375,0.0876895859837532,-0.04662463068962097,-1.9312070608139038,-0.4685676693916321,-0.2695518136024475
6.100048065185547,0.132066011428833,0.36059972643852234,-0.1697182059288025,-0.08714227206702481,-1.5352484326402054,-0.037756477587224564,-0.9955761432647705,0.0870320275425911,-0.03540555015206337,-2.380279541015625,-0.3144381046295166,0.008138362318277359
6.120090007781982,0.1596885323524475,0.45818790793418884,-0.26162034273147583,-0.09007523182273962,-1.5466875159642082,-0.0865820881659032,-0.9956565499305725,0.0899534747004509,-0.024008747190237045,-2.4306206703186035,-0.3933715522289276,0.10854122042655945
6.140033960342407,0.14237654209136963,0.561259925365448,-0.3102726936340332,-0.09389189300746713,-1.557753941391915,-0.13382411578118483,-0.9955105781555176,0.09375400096178055,-0.012984569184482098,-2.2851719856262207,-0.2630127966403961,0.20404861867427826
6.1600329875946045,0.13529056310653687,0.5244001746177673,-0.35746604204177856,-0.0993133330959002,-1.566271223580275,-0.17859968548895028,-0.9950623512268066,0.0991501584649086,-0.00450279051437974,-2.17468523979187,-0.17757895588874817,0.300007700920105
6.180032968521118,0.1527838110923767,0.5035284757614136,-0.4191312789916992,-0.10739554591959984,-1.5750198501403583,-0.21900571699312843,-0.994229793548584,0.10718921571969986,0.0041991774924099445,-1.7989788055419922,-0.31622275710105896,0.518170952796936
6.200077056884766,0.0913248062133789,0.5847014784812927,-0.4909712076187134,-0.11965476320224333,-1.5868157715448883,-0.24788151198264077,-0.9927225112915039,0.11936944723129272,0.015904223546385765,-0.9820193648338318,-0.5265706181526184,0.7124203443527222
6.220029830932617,-0.07235264778137207,0.6530060768127441,-0.5467866659164429,-0.13289181388044485,-1.596742373351437,-0.2565559452195043,-0.9908493161201477,0.1325010061264038,0.025714391842484474,0.13441970944404602,-0.3119626045227051,0.6003567576408386
6.240031957626343,-0.13293194770812988,0.629558801651001,-0.4941045045852661,-0.14507358302895892,-1.597657077412333,-0.24480055822059854,-0.9891383647918701,0.14456523954868317,0.026575392112135887,1.0051324367523193,0.05174689739942551,0.6116822361946106
6.260030031204224,-0.012959301471710205,0.502348780632019,-0.3972907066345215,-0.15908792117957468,-1.5898344926171932,-0.2187794161243673,-0.9871932864189148,0.1584177166223526,0.01879662089049816,1.55032479763031,0.245515838265419,0.6969101428985596
6.280066013336182,0.10637301206588745,0.3627970814704895,-0.3332477807998657,-0.17461839106826382,-1.580646839542935,-0.18571636513923223,-0.9847452044487,0.17373234033584595,0.009700559079647064,1.7469258308410645,0.11514157801866531,0.8361485600471497
6.300030946731567,0.12434709072113037,0.3024888038635254,-0.3468834161758423,-0.19139909649980605,-1.5696828775718457,-0.14125053748594926,-0.9817384481430054,0.19023263454437256,-0.0010931163560599089,2.8212316036224365,0.1601637303829193,0.6691836714744568
6.319988965988159,0.08514201641082764,0.3046233057975769,-0.41063040494918823,-0.19712378048771514,-1.5515019000041208,-0.06515470199221784,-0.9804515242576599,0.19584962725639343,-0.018919598311185837,4.641836643218994,0.14616873860359192,-0.004533290397375822
6.340034008026123,0.10641902685165405,0.11000418663024902,-0.33480775356292725,-0.19080344753018155,-1.52747007031396,0.041264993036383625,-0.980930745601654,0.1896478235721588,-0.042526669800281525,5.604313850402832,0.2324255108833313,-0.24803172051906586
6.360063076019287,0.10544323921203613,-0.21184800565242767,-0.02867012470960617,-0.18072563433185504,-1.5034093277939966,0.14452299732267287,-0.9814807772636414,0.1797434389591217,-0.06623933464288712,4.205909252166748,0.02593136765062809,-0.25084805488586426
6.38006591796875,0.007106661796569824,-0.3256147503852844,0.18238329887390137,-0.18210352424853601,-1.4969590868293652,0.20117061776132525,-0.9807851910591125,0.18109871447086334,-0.07255037128925323,1.336268663406372,-0.33540332317352295,0.9345344305038452
6.400032997131348,-0.3130377531051636,-0.06347909569740295,0.19122517108917236,-0.20692028280841335,-1.4992156812467443,0.21099318205284423,-0.9761621952056885,0.20544685423374176,-0.06999390572309494,-0.226834237575531,0.052627693861722946,1.2733330726623535
6.420115947723389,-0.6860335469245911,0.34248170256614685,0.34769630432128906,-0.22638738194351013,-1.4889746664202859,0.20633991474672086,-0.9712235927581787,0.22445856034755707,-0.07964494079351425,-0.24411535263061523,1.1231400966644287,0.718529999256134
6.440136909484863,-0.562297523021698,0.3224601149559021,0.3872483968734741,-0.24207680160538292,-1.457648408415346,0.20997586769767393,-0.9646342992782593,0.23971939086914062,-0.1096145436167717,0.41084548830986023,1.7436366081237793,0.9604542851448059
6.459985971450806,-0.2514048218727112,0.14879578351974487,0.4672800302505493,-0.26863874277582384,-1.4186937601917156,0.2159266444756724,-0.9530019760131836,0.26541924476623535,-0.14608234167099,-0.2728012502193451,1.8344675302505493,1.627989411354065
6.480032920837402,-0.14083093404769897,0.024668127298355103,0.42857950925827026,-0.30334209305477944,-1.3852652360101902,0.21539365834202542,-0.9379656314849854,0.298711359500885,-0.17604637145996094,-0.22153061628341675,1.5745933055877686,1.8043556213378906
6.5000319480896,-0.10262894630432129,0.11408460140228271,0.32201844453811646,-0.3422658607929799,-1.3529129644979359,0.2217096250631682,-0.9197252988815308,0.3356223702430725,-0.20362532138824463,-0.002477253321558237,1.4528988599777222,2.0987062454223633
6.5200300216674805,-0.04919016361236572,0.07992824912071228,0.2658865451812744,-0.38322543684928007,-1.322504819188333,0.23263638692638433,-0.8990216255187988,0.37391388416290283,-0.2279224991798401,0.018456218764185905,1.1571576595306396,2.0817856788635254
6.540042877197266,0.04397249221801758,-0.02823030948638916,0.25150397419929504,-0.423313185601724,-1.2994937830762534,0.2439391384787288,-0.8783842921257019,0.41078343987464905,-0.2443322092294693,-0.028627654537558556,0.6919182538986206,2.0835418701171875
6.560052871704102,0.10091471672058105,-0.09409105777740479,0.2604440450668335,-0.46422363227108704,-1.284168172210726,0.2576244973279101,-0.8576897382736206,0.4477287232875824,-0.25279921293258667,0.10907918214797974,0.2700219750404358,2.1736698150634766
6.579513072967529,0.07025158405303955,-0.1470382809638977,0.28594544529914856,-0.5042067478611154,-1.2728827748547509,0.27594663490507754,-0.8369905352592468,0.48311305046081543,-0.25699928402900696,0.2897111773490906,0.02749118208885193,2.074833869934082
6.6000330448150635,0.004964292049407959,-0.2109224796295166,0.32571032643318176,-0.5401529106083793,-1.2620716540811856,0.29720555446533947,-0.8170828223228455,0.5142671465873718,-0.26058560609817505,0.36728423833847046,0.007393546402454376,1.8646317720413208
6.620059967041016,-0.03528493642807007,-0.284976065158844,0.3551122546195984,-0.5716658959308168,-1.25066203077416,0.3170402888134666,-0.7982723116874695,0.5410338044166565,-0.26465797424316406,0.23885072767734528,0.05981689691543579,1.5859410762786865
6.640095949172974,-0.04129338264465332,-0.33004170656204224,0.3610019385814667,-0.597952966670749,-1.2420279445047224,0.3304893957392611,-0.7822235226631165,0.5629518032073975,-0.26685503125190735,-0.015599980019032955,0.059525635093450546,1.238283395767212
6.6600329875946045,-0.0406796932220459,-0.34629106521606445,0.34458696842193604,-0.6184037310329806,-1.2377612358742744,0.33555760023609676,-0.7700350880622864,0.579735279083252,-0.2663702070713043,-0.253706693649292,0.06129228696227074,0.8254006505012512
6.680124998092651,-0.034162163734436035,-0.3516032099723816,0.3259125053882599,-0.6328255238860893,-1.2392808396841042,0.33229757552211103,-0.7624534964561462,0.5914254784584045,-0.2624509930610657,-0.46800869703292847,-0.0028993047308176756,0.46098440885543823
6.700053930282593,-0.03365659713745117,-0.35113525390625,0.32279491424560547,-0.6421551628829951,-1.245377789344724,0.3215234865062726,-0.7587781548500061,0.5989227294921875,-0.25602227449417114,-0.6494181156158447,0.02556758001446724,0.14478768408298492
6.720031023025513,-0.030242443084716797,-0.3624646067619324,0.3093552589416504,-0.6471085319019225,-1.2558035132790306,0.30470733714404497,-0.758575975894928,0.6028820276260376,-0.24717552959918976,-0.7795029282569885,-0.07570205628871918,-0.08328089863061905
6.740031957626343,-0.05492204427719116,-0.33302998542785645,0.2799419164657593,-0.6487730191424845,-1.2717189483344398,0.28386753533289616,-0.7614538073539734,0.6042091846466064,-0.23477572202682495,-0.8303466439247131,-0.24791385233402252,-0.26550859212875366
6.760033130645752,-0.12683290243148804,-0.2825309634208679,0.2343832403421402,-0.6463144542723795,-1.2898582002849932,0.26183978599160856,-0.7670117020606995,0.6022483110427856,-0.22133679687976837,-0.7816070914268494,-0.20813794434070587,-0.48238807916641235
6.780144929885864,-0.16016840934753418,-0.24349921941757202,0.20432960987091064,-0.6389572338046525,-1.3065705468845465,0.23956864199103212,-0.7748597860336304,0.5963587164878845,-0.20963947474956512,-0.7406430840492249,-0.13361318409442902,-0.695124089717865
6.800116062164307,-0.1165730357170105,-0.22757291793823242,0.15784426033496857,-0.628113287727453,-1.322796208171659,0.21768195048858283,-0.7843822240829468,0.5876191854476929,-0.19861556589603424,-0.6919034719467163,-0.24433526396751404,-0.7858343124389648
6.820015907287598,-0.09910118579864502,-0.21088260412216187,0.09867727756500244,-0.6156137471634764,-1.3423124860060822,0.19772774791404352,-0.7952012419700623,0.5774596929550171,-0.1849198043346405,-0.5758336186408997,-0.5458292961120605,-0.8245015144348145
6.840065956115723,-0.21348971128463745,-0.1880999207496643,0.07282249629497528,-0.6005715301217943,-1.3654183483655884,0.18098568154089342,-0.8076744079589844,0.5651140809059143,-0.16825082898139954,-0.449703186750412,-0.7941715717315674,-0.9794836640357971
6.859726905822754,-0.44591015577316284,-0.14783036708831787,0.1017192155122757,-0.5792323609313222,-1.3892726105169206,0.16665902019134898,-0.8231328725814819,0.5473816990852356,-0.15108120441436768,-0.300578773021698,-0.6917703747749329,-1.37532377243042
6.8799848556518555,-0.6221847534179688,-0.11387163400650024,0.14506058394908905,-0.5500333308277098,-1.403674481078043,0.15393187035517983,-0.8406298160552979,0.5227156281471252,-0.1418103128671646,-0.2966080605983734,-0.02710433304309845,-1.6608374118804932
6.899982929229736,-0.5195457935333252,-0.09842532873153687,0.12964415550231934,-0.5173972581144937,-1.4064037578598025,0.13865557785250127,-0.8573921322822571,0.494619756937027,-0.1422324925661087,-0.4936549961566925,0.4502597451210022,-1.7599114179611206
6.92008113861084,-0.2602967619895935,-0.06314846873283386,0.043092355132102966,-0.4858292632485053,-1.406911920304273,0.11776150353247897,-0.8724396228790283,0.46694183349609375,-0.14427320659160614,-0.8081340789794922,0.4430653750896454,-1.6066032648086548
6.93998384475708,-0.07859039306640625,-0.056030601263046265,-0.058385610580444336,-0.4610293950774265,-1.4115961900671474,0.09107591625604813,-0.8842698335647583,0.444870263338089,-0.14197736978530884,-1.133593201637268,0.3083193004131317,-1.2267905473709106
6.959980010986328,-0.017295122146606445,-0.07934680581092834,-0.12825489044189453,-0.44455342248677654,-1.4196508628195041,0.06082161322986932,-0.8925102949142456,0.43005475401878357,-0.13593560457229614,-1.272817611694336,0.24920545518398285,-0.8031946420669556
6.98012900352478,-0.02377307415008545,-0.09313797950744629,-0.16143298149108887,-0.4365204777991725,-1.426343707938843,0.03071775289583026,-0.8967897295951843,0.4227887988090515,-0.1304522603750229,-1.2975990772247314,0.39869633316993713,-0.41356730461120605
7.000050067901611,-0.0663347840309143,-0.10448122024536133,-0.12867788970470428,-0.43477659480303366,-1.428337761723842,0.0017675623343010444,-0.8977765440940857,0.4212077856063843,-0.12876823544502258,-1.3108246326446533,0.6413593292236328,-0.15926729142665863
7.020076036453247,-0.12713956832885742,-0.13460969924926758,-0.0208272784948349,-0.4361482058190137,-1.425710016077715,-0.03082798582471982,-0.8968625068664551,0.4224514067173004,-0.13104325532913208,-1.6960583925247192,1.0038962364196777,-0.1591421216726303
7.0400049686431885,-0.1684514284133911,-0.2041453719139099,0.081300750374794,-0.43803599887529554,-1.42082726725767,-0.07488346224091456,-0.8954218626022339,0.4241617023944855,-0.13530144095420837,-2.3119070529937744,1.3494294881820679,-0.21848298609256744
7.0600669384002686,-0.1848258376121521,-0.24643081426620483,0.12429869174957275,-0.44115923156171905,-1.416048299401963,-0.13296653030593947,-0.8934518098831177,0.42698800563812256,-0.13937421143054962,-2.9439094066619873,1.5931206941604614,-0.2807486057281494
7.080109119415283,-0.2094287872314453,-0.22818827629089355,0.16345155239105225,-0.4441220077145682,-1.413093297646716,-0.2055257533948359,-0.8917828798294067,0.4296652376651764,-0.1418144702911377,-3.6021201610565186,1.8720076084136963,-0.46305668354034424
7.100039958953857,-0.1947212815284729,-0.17872419953346252,0.18518690764904022,-0.444364090548313,-1.4108080388121305,-0.291460436635363,-0.8913537263870239,0.42988380789756775,-0.14383547008037567,-3.9561455249786377,2.0551865100860596,-0.7162520885467529
7.120074987411499,-0.09650170803070068,-0.06969645619392395,0.15629293024539948,-0.4403077793720959,-1.4052478873410326,-0.3759182850489052,-0.8922525644302368,0.4262179136276245,-0.14907538890838623,-3.4245753288269043,2.1103274822235107,-0.8816725015640259
7.140033960342407,0.022120177745819092,0.068328857421875,0.10437667369842529,-0.4318296671087958,-1.3941492178423953,-0.44517724403905146,-0.8940685391426086,0.41853320598602295,-0.15959812700748444,-2.6487667560577393,1.8946729898452759,-1.0158705711364746
7.160039901733398,0.097259521484375,0.030529439449310303,0.0828661322593689,-0.41851697768453,-1.383093639100551,-0.5001811995468719,-0.8976441621780396,0.40640586614608765,-0.17049726843833923,-2.118584156036377,1.4714547395706177,-1.1688697338104248
7.1800408363342285,0.09396684169769287,-0.044560909271240234,0.07479840517044067,-0.40280828486866443,-1.3766643204657707,-0.547987037081425,-0.9026827216148376,0.3920034170150757,-0.1774747371673584,-1.9271564483642578,1.148255705833435,-1.1784828901290894
7.200032949447632,0.06067138910293579,-0.03235343098640442,0.08704645931720734,-0.3868720003286778,-1.3713353369125572,-0.5913871038511418,-0.9077326059341431,0.3772934377193451,-0.18349717557430267,-1.6452327966690063,1.0668388605117798,-1.1644810438156128
7.220052003860474,0.07912206649780273,0.05039924383163452,0.1405179649591446,-0.36959404988177036,-1.3651801575612883,-0.6263170844236626,-0.9128317832946777,0.36123692989349365,-0.19038358330726624,-1.177001953125,0.8125490546226501,-1.176990032196045
7.240033149719238,0.06975501775741577,0.09491878747940063,0.08883827924728394,-0.350767473572296,-1.3612724528811353,-0.6503768038658237,-0.9185710549354553,0.3436186611652374,-0.19532930850982666,-0.6847370862960815,0.43566569685935974,-1.111480712890625
7.2600319385528564,-0.007515132427215576,0.07845529913902283,0.010498106479644775,-0.3319500163624879,-1.3595885596500612,-0.666096450930669,-0.924400269985199,0.32588720321655273,-0.1981964111328125,-0.39795947074890137,0.318462997674942,-1.0364803075790405
7.280032157897949,-0.017506897449493408,0.05196383595466614,-0.01630634069442749,-0.3143478045789528,-1.357380161775572,-0.6783340008075291,-0.9294231534004211,0.3091962933540344,-0.20142126083374023,-0.4178329408168793,0.2815594971179962,-0.9050872921943665
7.3000640869140625,0.0486217737197876,0.02741357684135437,-0.0016145706176757812,-0.3002747576899253,-1.3567141104873206,-0.6932785332614193,-0.9334485530853271,0.2957826852798462,-0.20294463634490967,-0.7146371006965637,0.2376628816127777,-0.790106475353241
7.320064067840576,0.08241361379623413,0.008267402648925781,0.013714388012886047,-0.289204070442239,-1.358492375583557,-0.7167901598846067,-0.9369515776634216,0.2851894497871399,-0.20196202397346497,-1.3104963302612305,0.29030612111091614,-0.7738713622093201
7.3401198387146,0.09921574592590332,-0.013588666915893555,0.02566218376159668,-0.2814656818404652,-1.3620343639221568,-0.7531660592914852,-0.9397920370101929,0.2777639627456665,-0.1990935355424881,-1.9274706840515137,0.3858374357223511,-0.687931478023529
7.36003303527832,0.13322949409484863,0.01090317964553833,0.01254814863204956,-0.27805074793172363,-1.3664969141970575,-0.7997165114167961,-0.9415944218635559,0.27448177337646484,-0.19508899748325348,-2.368654489517212,0.4346671998500824,-0.5739856958389282
7.380162954330444,0.15029817819595337,0.047250062227249146,0.006719112396240234,-0.27716177534404696,-1.372928622526676,-0.8537046296397499,-0.9430686831474304,0.27362683415412903,-0.18907685577869415,-2.690246343612671,0.39526811242103577,-0.5634282231330872
7.400115966796875,0.13748645782470703,0.10477405786514282,-0.006367191672325134,-0.27635448467644236,-1.3806785993191892,-0.9108424839473693,-0.9447221159934998,0.27285027503967285,-0.18180415034294128,-2.6377947330474854,0.4281225800514221,-0.5575317740440369
7.420360088348389,0.12673676013946533,0.18027320504188538,-0.03260749578475952,-0.27499216665053805,-1.3860083393922997,-0.963975948759004,-0.9460422396659851,0.2715393900871277,-0.1768345981836319,-2.384570598602295,0.47857269644737244,-0.5282549262046814
7.440062046051025,0.12679380178451538,0.21302804350852966,-0.04635590314865112,-0.2727316902428493,-1.3897849012608297,-1.0123157164233643,-0.9473047256469727,0.2693631649017334,-0.1733706295490265,-2.1627039909362793,0.41820088028907776,-0.5485655665397644
7.463883876800537,0.044204115867614746,0.1801556944847107,-0.0715327113866806,-0.26885698341781344,-1.405165674888451,-1.105508621525318,-0.9508813619613647,0.2656296491622925,-0.1589512974023819,-2.359459161758423,0.09641902893781662,-0.3698135316371918
7.48002815246582,0.044204115867614746,0.1801556944847107,-0.0715327113866806,-0.26885698341781344,-1.405165674888451,-1.105508621525318,-0.9508813619613647,0.2656296491622925,-0.1589512974023819,-2.359459161758423,0.09641902893781662,-0.3698135316371918
7.5000200271606445,-0.08187311887741089,0.24436482787132263,-0.14760857820510864,-0.268793529619017,-1.4161140176162825,-1.154511581469542,-0.9525812864303589,0.26556849479675293,-0.14853401482105255,-2.226959228515625,0.13153040409088135,-0.4254211187362671
7.520046949386597,-0.11014848947525024,0.32861706614494324,-0.1990213245153427,-0.26528864889163045,-1.4242340313661979,-1.1976338679481298,-0.9546709060668945,0.2621878385543823,-0.14092928171157837,-1.823974847793579,0.1946168690919876,-0.5084479451179504
7.54813289642334,0.07829982042312622,0.2199992835521698,-0.12937624752521515,-0.2639666682881257,-1.4378185812836792,-1.2669432859665015,-0.9568400382995605,0.26091188192367554,-0.12799376249313354,-1.6107726097106934,0.025069834664463997,0.006254326086491346
7.56823992729187,0.023481905460357666,0.20992529392242432,-0.1722358614206314,-0.270772969920691,-1.4435875632044484,-1.2978492548833203,-0.9557788372039795,0.26747632026672363,-0.12224354594945908,-1.3309763669967651,0.2286844700574875,0.2448408007621765
7.58834981918335,-0.042371392250061035,0.2622731924057007,-0.30246591567993164,-0.27716564222118234,-1.4424259591054391,-1.315040016836649,-0.9539207816123962,0.2736305594444275,-0.12313226610422134,-0.3476533889770508,0.29391247034072876,0.14050106704235077
7.608190059661865,0.00871133804321289,0.25258204340934753,-0.32709288597106934,-0.2779767412364232,-1.4372258006908694,-1.3121886400834777,-0.9530473351478577,0.2744106352329254,-0.12806153297424316,0.5561912059783936,0.12041259557008743,-0.0006573755526915193
7.631461143493652,0.07984137535095215,0.09710359573364258,-0.23066546022891998,-0.2761117388402957,-1.4332879932875757,-1.2959461566937434,-0.9530410170555115,0.27261674404144287,-0.13188336789608002,0.9193922877311707,-0.17092576622962952,0.03984929621219635
7.648466110229492,0.06554174423217773,0.006564974784851074,-0.1397237777709961,-0.2755176768898634,-1.432751706201668,-1.2778713139215812,-0.953130304813385,0.2720451354980469,-0.1324167102575302,0.7752954959869385,-0.23950083553791046,0.1513093262910843
7.668591022491455,0.02623164653778076,0.0212726891040802,-0.08955371379852295,-0.27859704136728813,-1.4329192207556392,-1.2650826720067687,-0.9523180723190308,0.27500706911087036,-0.13214126229286194,0.39293476939201355,-0.13973678648471832,0.3137790858745575
7.687127113342285,0.017203450202941895,0.07180371880531311,-0.05388808250427246,-0.28417847990516454,-1.4339567856265207,-1.258639178130462,-0.9509193897247314,0.28036898374557495,-0.13094168901443481,0.1867111176252365,-0.16461773216724396,0.3092804551124573
7.707841873168945,-0.010702371597290039,0.07723361253738403,-0.013581082224845886,-0.2903382339168862,-1.4360116142494161,-1.25476970352756,-0.9494568705558777,0.28627631068229675,-0.1287529021501541,0.08069443702697754,-0.14357545971870422,0.36062905192375183
7.727965831756592,-0.0854712724685669,0.04861333966255188,0.04347465932369232,-0.29787409321733277,-1.4374218358954782,-1.2540737669663968,-0.9474726319313049,0.29348859190940857,-0.12712335586547852,-0.11731996387243271,-0.0010726423934102058,0.3775519132614136
7.746814966201782,-0.1564043164253235,0.048213452100753784,0.07869821786880493,-0.30550009227275315,-1.4360469692170825,-1.2579965460625913,-0.9450514316558838,0.3007701635360718,-0.12812146544456482,-0.3677152395248413,0.26148557662963867,0.32551664113998413
7.768172025680542,-0.14667481184005737,0.06665289402008057,0.11171478033065796,-0.31278120920492886,-1.4304894195300235,-1.267746525237235,-0.9421314001083374,0.3077060878276825,-0.13306184113025665,-0.6714202165603638,0.5717566013336182,0.26334550976753235
7.790169954299927,-0.029958009719848633,0.05528593063354492,0.1281834840774536,-0.3199250603397461,-1.4231370333712627,-1.283890996488916,-0.9389293789863586,0.31449541449546814,-0.139658123254776,-0.9306225776672363,0.5783382058143616,0.24069702625274658
7.806467056274414,0.08257400989532471,0.040299057960510254,0.10634009540081024,-0.32839511544159256,-1.4197546832309131,-1.3029228839754619,-0.935784637928009,0.3225243091583252,-0.14242719113826752,-0.9500384330749512,0.3457825779914856,0.3251174986362457
7.824993133544922,0.11229521036148071,0.06574660539627075,0.05883365869522095,-0.3375378462100027,-1.4200150301359549,-1.3187387650979714,-0.9328672289848328,0.3311648666858673,-0.14173467457294464,-0.6216320991516113,0.14678853750228882,0.31788456439971924
7.843088150024414,0.11297619342803955,0.10057064890861511,0.018276870250701904,-0.3434914366531151,-1.4204961744756734,-1.3256199309024264,-0.9309694170951843,0.33677661418914795,-0.14098809659481049,-0.08770522475242615,0.0319628044962883,0.16248854994773865
7.8627049922943115,0.152859628200531,0.11581668257713318,0.0019609928131103516,-0.3446558329210985,-1.4195520147541263,-1.3206157747904006,-0.9304476380348206,0.33787277340888977,-0.14180783927440643,0.5379841923713684,-0.12642496824264526,0.02785039134323597
7.8812971115112305,0.19290906190872192,0.12006044387817383,0.0006908774375915527,-0.34168860212285307,-1.4183739626846086,-1.3033373908448604,-0.9312666654586792,0.33507856726646423,-0.14305543899536133,1.0910462141036987,-0.33855509757995605,-0.075770802795887
7.901973009109497,0.16957330703735352,0.10110950469970703,0.0176125168800354,-0.33566994841732506,-1.4179639389899397,-1.2776525801901735,-0.9331842064857483,0.32940179109573364,-0.1437416821718216,1.3420385122299194,-0.45714980363845825,-0.1472121924161911
7.922922134399414,0.0889398455619812,0.05753961205482483,0.04960501194000244,-0.3281069249778299,-1.4177507326820042,-1.2503453962229227,-0.935589075088501,0.3222515285015106,-0.14431631565093994,1.2898260354995728,-0.37977707386016846,-0.21030545234680176
7.945702075958252,0.0076808929443359375,0.04405021667480469,0.08206315338611603,-0.32025204216358366,-1.4157142213464529,-1.2274930210360915,-0.9377651214599609,0.314805805683136,-0.14660781621932983,0.9354824423789978,-0.13674871623516083,-0.23335900902748108
7.962424039840698,-0.026769638061523438,0.021349728107452393,0.12439161539077759,-0.3139519488530655,-1.4116184840575297,-1.2145508276941623,-0.9390965104103088,0.30881983041763306,-0.1507588028907776,0.3429095149040222,0.13975824415683746,-0.1905764788389206
7.984147071838379,-0.017821967601776123,-0.01319509744644165,0.17658783495426178,-0.3116735315923229,-1.4065433342190417,-1.2157209873028307,-0.9390109181404114,0.3066519796848297,-0.15563753247261047,-0.4426649510860443,0.39761003851890564,-0.04489659145474434
8.006189823150635,0.006785690784454346,-0.04257291555404663,0.2040516883134842,-0.3152393656964529,-1.401780321798483,-1.2326939785788276,-0.9371750950813293,0.3100440502166748,-0.15992331504821777,-1.1777410507202148,0.5877062082290649,0.1262558102607727
8.024232864379883,0.03427022695541382,-0.031969934701919556,0.18236790597438812,-0.3244840509062925,-1.3984644862957387,-1.2613602417092629,-0.9337760210037231,0.3188197910785675,-0.16253149509429932,-1.6198656558990479,0.6201192736625671,0.3205619752407074
8.04683780670166,0.03877502679824829,0.0296441912651062,0.13479351997375488,-0.3376996888996069,-1.3977677208921582,-1.2949896987664122,-0.9294306635856628,0.33131757378578186,-0.16244244575500488,-1.6838175058364868,0.5322014093399048,0.409654825925827
8.065876960754395,0.018865346908569336,0.05927544832229614,0.1016198992729187,-0.3511399457235478,-1.39892002449952,-1.3258773012057297,-0.9251459240913391,0.3439684212207794,-0.16059519350528717,-1.3745619058609009,0.39670634269714355,0.41206488013267517
8.085763931274414,-0.004404842853546143,0.06235712766647339,0.07226240634918213,-0.36284999702071324,-1.39979976014306,-1.3478935458709873,-0.9212543964385986,0.35494011640548706,-0.15908491611480713,-0.8449681401252747,0.28791382908821106,0.3800390958786011
8.106051921844482,-0.008783042430877686,0.058749496936798096,0.039089202880859375,-0.37129252768900356,-1.3986239252188437,-1.3578448993957761,-0.9180816411972046,0.36282017827033997,-0.15964895486831665,-0.20308779180049896,0.19463633000850677,0.2819940447807312
