timestamp,acceleration_x,acceleration_y,acceleration_z,attitude_pitch,attitude_roll,attitude_yaw,gravity_x,gravity_y,gravity_z,rotation_x,rotation_y,rotation_z
0.0,0.3276946544647217,-0.012482434511184692,0.08936607837677002,-0.39798205389658153,-1.2074978490277009,1.8693866443380958,-0.8616759777069092,0.3875589072704315,-0.32758623361587524,-0.5345910787582397,-0.8722913265228271,-0.3869094252586365
0.019299030303955078,0.3343159556388855,0.0676412582397461,0.07388606667518616,-0.39176656425527595,-1.2288407108358765,1.8595900577805387,-0.8707233667373657,0.38182172179222107,-0.3099241554737091,-0.0014846795238554478,-0.88275146484375,-0.48534491658210754
0.03938102722167969,0.3882243037223816,0.21498024463653564,0.03990757465362549,-0.3798590370422322,-1.2447933275800396,1.8647659442798339,-0.8798014521598816,0.3707895576953888,-0.2974300682544708,0.8884952664375305,-0.9666274189949036,-0.49016380310058594
0.0593109130859375,0.42602986097335815,0.22816145420074463,0.03548499941825867,-0.3633865027684012,-1.257747927135198,1.8867130312046383,-0.8892714977264404,0.3554416298866272,-0.2878500819206238,1.4621174335479736,-1.1017296314239502,-0.4085681140422821
0.07940387725830078,0.41915392875671387,0.11201173067092896,0.09035980701446533,-0.348409532782128,-1.2708771568519137,1.9150065589994845,-0.8979594707489014,0.3414033353328705,-0.27769190073013306,1.5034526586532593,-1.2348175048828125,-0.22254733741283417
0.09994316101074219,0.2895553708076477,0.08242398500442505,0.0954316258430481,-0.3364069216472764,-1.2867883452000803,1.9441497097379128,-0.9061325192451477,0.3300975561141968,-0.2644989490509033,1.4798879623413086,-1.285010576248169,-0.20624208450317383
0.11964797973632812,0.10380309820175171,0.11148250102996826,0.0798567533493042,-0.3212936257822467,-1.3002707891305934,1.9730865582988475,-0.9143193960189819,0.3157942593097687,-0.25356271862983704,1.6333028078079224,-0.9707778692245483,-0.49828028678894043
0.13878583908081055,0.05551159381866455,0.10209259390830994,0.06645286083221436,-0.30110322429863334,-1.3071569828853524,2.003179596334471,-0.922012448310852,0.2965739667415619,-0.24887163937091827,1.619854211807251,-0.6686089038848877,-0.7080584764480591
0.15906381607055664,0.07349759340286255,0.07623830437660217,0.07543551921844482,-0.27745131478993557,-1.3115673186238557,2.030286425581508,-0.92962247133255,0.27390533685684204,-0.24653230607509613,1.4813437461853027,-0.5979032516479492,-0.8879887461662292
0.18509817123413086,0.02833735942840576,0.0760735273361206,0.10676123201847076,-0.2520728455883052,-1.3183361193812446,2.051802559207943,-0.937700092792511,0.24941183626651764,-0.24189303815364838,1.1694284677505493,-0.6430944204330444,-1.0776638984680176
0.19927215576171875,-0.12681668996810913,0.08082284033298492,0.13094377517700195,-0.22361813448683657,-1.3281321658121448,2.066404950484043,-0.9465323090553284,0.2217591106891632,-0.23430675268173218,0.8855286836624146,-0.6950808167457581,-1.336670994758606
0.21927499771118164,-0.32200145721435547,0.092959925532341,0.20788288116455078,-0.1924825823282694,-1.3385924937047884,2.0726368736094583,-0.9551897048950195,0.19129621982574463,-0.2258729636669159,0.40685155987739563,-0.4421134293079376,-1.526718020439148
0.23927593231201172,-0.47218799591064453,0.09137876331806183,0.22028258442878723,-0.16196838619045364,-1.3448079394642665,2.067720099819289,-0.9618176817893982,0.16126114130020142,-0.22113704681396484,-0.17898856103420258,-0.07756936550140381,-1.5335296392440796
0.25929999351501465,-0.46518415212631226,0.12128964066505432,0.2689047157764435,-0.13494856772994973,-1.3436256771868431,2.0535038435843616,-0.9654492735862732,0.13453935086727142,-0.2231740951538086,-0.5793092250823975,0.31650665402412415,-1.4017664194107056
0.27933406829833984,-0.41005128622055054,0.1734580397605896,0.33317577838897705,-0.11337541437883324,-1.340146576292738,2.0309355846731374,-0.9672680497169495,0.11313268542289734,-0.22714243829250336,-1.0756189823150635,0.3582521378993988,-1.2242807149887085
0.29929590225219727,-0.4459017515182495,0.26777374744415283,0.3400106430053711,-0.09591405793523619,-1.334196535994937,2.0076113069243333,-0.9676724672317505,0.0957670658826828,-0.2333211749792099,-0.6461737155914307,0.5102589726448059,-0.9932881593704224
0.3192939758300781,-0.4331824779510498,0.397123783826828,0.35693201422691345,-0.08168113947588064,-1.3217271085324913,1.9972502062060429,-0.9659110903739929,0.08159033954143524,-0.24568013846874237,-0.05059327930212021,0.7281708121299744,-0.6789517402648926
0.3392949104309082,-0.3333311080932617,0.3032296299934387,0.3615771234035492,-0.07143457962431224,-1.3081319820875552,1.9944480158651678,-0.9632386565208435,0.0713738426566124,-0.25899219512939453,-0.0019797212444245815,0.699638307094574,-0.33110859990119934
0.3593430519104004,-0.19809776544570923,0.17723645269870758,0.3956984877586365,-0.07021214243387226,-1.295029510676529,1.9934001773464087,-0.959846019744873,0.07015446573495865,-0.2716140151023865,-0.04596508666872978,0.6412039399147034,0.1623929738998413
0.3792381286621094,-0.20182186365127563,0.10371792316436768,0.2906147837638855,-0.0736253330030717,-1.2823554247832079,1.997757737960863,-0.9560913443565369,0.07355883717536926,-0.2836872637271881,0.4108944833278656,0.5744929313659668,0.2022133767604828
0.39932799339294434,-0.19535672664642334,0.05947331339120865,0.26469117403030396,-0.07248731385181986,-1.2698442601032176,2.0100531479844563,-0.9525467157363892,0.07242385298013687,-0.2956511974334717,0.7487444877624512,0.612559974193573,0.053265757858753204
0.41930389404296875,-0.13805073499679565,-0.11045841872692108,0.2551686763763428,-0.06858118651524468,-1.2572705916837028,2.0223829307189614,-0.9490159153938293,0.06852743774652481,-0.3076893985271454,0.4823072552680969,0.5523117184638977,-0.04000323638319969
0.43933916091918945,-0.08009392023086548,-0.19007408618927002,0.20410925149917603,-0.06710824145196027,-1.2457255445635889,2.0266134315571516,-0.945495069026947,0.06705788522958755,-0.31865695118904114,-0.07368291169404984,0.5884087681770325,0.02428697980940342
0.4597790241241455,0.007016897201538086,-0.14289844036102295,0.11353078484535217,-0.06887159932462104,-1.2335569942001696,2.022619522389973,-0.9414345026016235,0.06881716847419739,-0.3300987482070923,-0.2748715877532959,0.65157550573349,-0.0118209607899189
0.47930192947387695,0.10896629095077515,-0.025587797164916992,-0.009157061576843262,-0.06781525602776357,-1.2226292128815024,2.020756634167201,-0.9378389716148376,0.06776329129934311,-0.34039124846458435,0.20455525815486908,0.41195228695869446,-0.15846781432628632
0.4993109703063965,0.1054498553276062,0.10288795828819275,-0.06879499554634094,-0.059837124701784296,-1.2163744445124782,2.0290058721920285,-0.9361687898635864,0.05980142205953598,-0.3464271128177643,0.8375071883201599,0.18009670078754425,-0.3185094892978668
0.5193080902099609,0.03205043077468872,0.10233008116483688,0.02690938115119934,-0.04700991080756458,-1.2119811690560536,2.0435802604250384,-0.935279130935669,0.04699259623885155,-0.35077714920043945,0.8349164128303528,0.24201351404190063,-0.3319746255874634
0.5393610000610352,-0.030100643634796143,0.02912358194589615,0.09949904680252075,-0.03719987241007251,-1.2053235362508985,2.053792690400572,-0.9333087801933289,0.03719129413366318,-0.35714367032051086,0.47277793288230896,0.39741137623786926,-0.22778306901454926
0.5593900680541992,-0.022306203842163086,0.09430434554815292,0.1183258593082428,-0.030883828767664562,-1.1961078815337232,2.0589442701201985,-0.9301778674125671,0.03087892010807991,-0.36580806970596313,0.32024335861206055,0.4549501836299896,-0.19829019904136658
0.5793070793151855,-0.025713086128234863,0.13814081251621246,0.02555707097053528,-0.022582115322307472,-1.190772335524044,2.0660811137533797,-0.9284189343452454,0.02258019521832466,-0.370848149061203,0.703260064125061,0.044157952070236206,-0.30287718772888184
0.5992951393127441,-0.15556621551513672,0.15804848074913025,-0.0029108822345733643,-0.009691689617784814,-1.1908665654828006,2.080859082432806,-0.9286470413208008,0.009691538289189339,-0.3708378076553345,1.099109411239624,0.051816847175359726,-0.3350774347782135
0.6193909645080566,-0.2309727668762207,0.1167352944612503,0.13906100392341614,0.00269095618624295,-1.1861429625446667,2.0960135631556542,-0.9269251227378845,-0.002690952969714999,-0.37523648142814636,0.6992877125740051,0.3924066424369812,-0.22315001487731934
0.639394998550415,-0.19957703351974487,0.03373067080974579,0.22848153114318848,0.008080559858452496,-1.1765104244043396,2.103917490276061,-0.9232410192489624,-0.008080472238361835,-0.384136438369751,0.266270250082016,0.5759908556938171,0.05922248214483261
0.6592998504638672,-0.1854013204574585,0.09849006682634354,0.21488773822784424,0.006281090176097964,-1.16534844904719,2.1087632604052784,-0.9189078211784363,-0.006281048990786076,-0.39442262053489685,0.17424486577510834,0.49811843037605286,0.19992250204086304
0.6792950630187988,-0.20573872327804565,0.10316422581672668,0.15522980690002441,0.006789600814635976,-1.157541618825382,2.1166377699919683,-0.9157975316047668,-0.00678954878821969,-0.4015829265117645,0.626701295375824,0.24019138514995575,0.09486687183380127
0.6993000507354736,-0.19394171237945557,0.09552720934152603,0.18767660856246948,0.0125043061112027,-1.1553597210541888,2.1327736162320368,-0.9148687720298767,-0.012503980658948421,-0.4035579264163971,1.001265048980713,0.07649636268615723,0.020406905561685562
0.7192988395690918,-0.20438987016677856,0.024370381608605385,0.23530977964401245,0.02035857382391698,-1.1543402320409049,2.151103347845955,-0.9143387675285339,-0.020357167348265648,-0.40443816781044006,0.9644922018051147,0.06531277298927307,0.03566969186067581
0.7392969131469727,-0.21436786651611328,-0.012326624244451523,0.23935025930404663,0.026021478285389216,-1.1535843547830091,2.168582806375623,-0.9139127731323242,-0.026018541306257248,-0.4050759971141815,0.8616704344749451,0.048806145787239075,0.1504674255847931
0.7592968940734863,-0.230962872505188,0.0397314727306366,0.26795023679733276,0.029100024203705988,-1.1546597610596558,2.184844675124287,-0.914270281791687,-0.02909591794013977,-0.40405863523483276,0.7951598167419434,-0.08914195746183395,0.24306319653987885
0.779296875,-0.2868940234184265,0.02189464308321476,0.23335087299346924,0.030825748094081777,-1.1539275698173261,2.2075662665251525,-0.9139269590377808,-0.03082086704671383,-0.40470704436302185,1.353286623954773,0.31395649909973145,0.5873841047286987
0.7992968559265137,-0.4200935959815979,0.04661623761057854,0.17368346452713013,0.031225021795240032,-1.147206168304231,2.2439512208887415,-0.9111748337745667,-0.031219948083162308,-0.4108356237411499,2.0991263389587402,0.45070725679397583,0.9991627335548401
0.8194530010223389,-0.39123255014419556,0.08649522066116333,0.2930999994277954,0.026180063127511956,-1.14586324403227,2.2829347253517143,-0.9107541441917419,-0.026177072897553444,-0.4121185541152954,1.381745457649231,-0.22830899059772491,0.8385598659515381
0.839432954788208,-0.3952672481536865,-0.033685337752103806,0.4000065326690674,0.022896081362763745,-1.1536221010281493,2.314134242516348,-0.9139979481697083,-0.022894080728292465,-0.4050724506378174,1.3385990858078003,-0.39115792512893677,0.8883107900619507
0.8593788146972656,-0.4807860851287842,-0.10910379886627197,0.338679701089859,0.01675131343082073,-1.1611105248995572,2.3485526247418584,-0.9171172976493835,-0.016750529408454895,-0.3982652425765991,1.6978846788406372,-0.4233425557613373,0.9887000918388367
0.8794310092926025,-0.5103543400764465,-0.0222146138548851,0.21913832426071167,0.011766832763774854,-1.1717355688324427,2.39164914545594,-0.921362578868866,-0.011766561307013035,-0.38852617144584656,2.224140167236328,-0.5489210486412048,1.1612530946731567
0.8993411064147949,-0.5216806530952454,0.10377277433872223,0.14505454897880554,0.00803905863176871,-1.1825762608336496,2.450115974270201,-0.9255543351173401,-0.00803897250443697,-0.37852928042411804,2.79915189743042,-0.3252163529396057,1.4988056421279907
0.9192538261413574,-0.6651169061660767,-0.0474093072116375,0.1521417200565338,-0.00325052226972763,-1.1890006588995128,2.509238621819437,-0.9279921650886536,0.0032505164854228497,-0.3725854754447937,2.269664764404297,-0.30573025345802307,1.7604089975357056
0.9392609596252441,-0.7666561007499695,-0.15134365856647491,0.2650242745876312,-0.03129274940339368,-1.1902720126971351,2.558132435050642,-0.928015410900116,0.03128764405846596,-0.3712254762649536,1.2430282831192017,0.17275507748126984,2.5702106952667236
0.9592499732971191,-0.8755283951759338,-0.1797478348016739,0.18924111127853394,-0.07482204005021482,-1.184601907912337,2.597268698347025,-0.9237574338912964,0.07475224882364273,-0.3756120204925537,0.8937227725982666,0.2703825533390045,2.886641025543213
0.9792289733886719,-0.9339210987091064,-0.13901017606258392,0.12880486249923706,-0.12283952849935986,-1.1745534206416244,2.637794727074262,-0.9155662059783936,0.12253083288669586,-0.38304683566093445,0.9348541498184204,0.24707867205142975,3.0429680347442627
0.999241828918457,-0.982883632183075,-0.22441907227039337,0.205416738986969,-0.17156392181364338,-1.1650400414800808,2.675498391213403,-0.905315101146698,0.17072351276874542,-0.388918936252594,0.5433622002601624,0.30450618267059326,2.9715733528137207
1.019232988357544,-1.0161871910095215,-0.3923640847206116,0.25558239221572876,-0.22461621584727406,-1.1526100224150102,2.70221450272803,-0.8908714056015015,0.22273223102092743,-0.39590227603912354,-0.06099995970726013,0.37418779730796814,2.853689432144165
1.039240837097168,-0.8310100436210632,-0.2815070152282715,0.10081559419631958,-0.2743144000629049,-1.1406136713350776,2.7238889229198135,-0.8749072551727295,0.2708870470523834,-0.40144428610801697,-0.02534702979028225,0.2221388816833496,2.50345516204834
1.0592639446258545,-0.7079665064811707,-0.17012420296669006,-0.065346360206604,-0.31392714767517077,-1.1320669645158554,2.7497063305166147,-0.8610489368438721,0.308796226978302,-0.40402930974960327,0.47558650374412537,-0.04587056487798691,2.2419180870056152
1.079308032989502,-0.7810057401657104,-0.17356079816818237,-0.06332436203956604,-0.35036282308211,-1.1266722422676747,2.772263686968761,-0.8481292724609375,0.34323862195014954,-0.40356406569480896,-0.13777104020118713,-0.08434037119150162,1.9548277854919434
1.099256992340088,-0.7737115025520325,-0.2532948851585388,-0.035012781620025635,-0.3893717493993843,-1.1231718754240456,2.779536663295546,-0.8340002298355103,0.37960726022720337,-0.40042734146118164,-0.8469767570495605,0.16268281638622284,1.8032156229019165
1.1192469596862793,-0.5913573503494263,-0.07589754462242126,-0.10422614216804504,-0.4257400166967941,-1.1202908848038233,2.778093556822392,-0.8198668956756592,0.4129948616027832,-0.39655208587646484,-0.7645240426063538,0.16459417343139648,1.4497650861740112
1.1392788887023926,-0.43358755111694336,0.06394582986831665,-0.1330869495868683,-0.45314330437771616,-1.1169654385964025,2.77984745900478,-0.8080657720565796,0.4377937614917755,-0.3941653072834015,-0.34009671211242676,0.05474064499139786,1.1117063760757446
1.1593329906463623,-0.35410577058792114,-0.016478806734085083,-0.09828954935073853,-0.4752201528791217,-1.1146644111742845,2.7815017951341114,-0.7982836961746216,0.45753422379493713,-0.39167022705078125,-0.5016584992408752,0.06888557970523834,0.966454803943634
1.1792640686035156,-0.24568259716033936,0.02702227234840393,-0.14785104990005493,-0.4966202974459353,-1.1139018482611758,2.7824040863567223,-0.7890157699584961,0.4764568507671356,-0.38786980509757996,-0.3934743106365204,0.009523898363113403,0.964348554611206
1.199385166168213,-0.25918304920196533,0.1021403968334198,-0.2075408697128296,-0.5152695242232069,-1.113853572826149,2.7821676144455783,-0.7808864712715149,0.49276939034461975,-0.3839203417301178,-0.432397723197937,0.03898591920733452,0.747618556022644
1.2193341255187988,-0.15666800737380981,0.009696245193481445,-0.1266050934791565,-0.5327243374886081,-1.1111331360807986,2.7801057281851156,-0.7720122933387756,0.5078820586204529,-0.3821687698364258,-0.5337258577346802,0.31320053339004517,0.7040771245956421
1.239382028579712,-0.06250452995300293,-0.017558574676513672,-0.15023380517959595,-0.5493181607046799,-1.1073578395206398,2.773758075578313,-0.762919545173645,0.5221058130264282,-0.38126036524772644,-0.6554638147354126,0.40652167797088623,0.5478761196136475
1.2592999935150146,0.14398503303527832,-0.09039229154586792,-0.07568204402923584,-0.563301725802174,-1.1029517249774363,2.765401579377815,-0.7546417117118835,0.5339807271957397,-0.38128823041915894,-0.5693347454071045,0.38477370142936707,0.3887389302253723
1.279296875,0.28227174282073975,-0.11742746829986572,-0.038255929946899414,-0.574708699054806,-1.101231904639837,2.7569592579046245,-0.7485039234161377,0.5435903072357178,-0.379804402589798,-0.6197041273117065,0.31865477561950684,0.3108763098716736
1.2992949485778809,0.40966159105300903,-0.20713937282562256,0.0334775447845459,-0.5846551158626377,-1.0996987533978875,2.748825299718846,-0.7430659532546997,0.5519118309020996,-0.3784787654876709,-0.38897475600242615,0.2852824330329895,0.2895187437534332
1.3192968368530273,0.524425208568573,-0.22353816032409668,0.06966698169708252,-0.591196519145336,-1.0966310379244653,2.7440342345108117,-0.738673746585846,0.5573548674583435,-0.3790999948978424,-0.2187432497739792,0.25511786341667175,0.12134961038827896
1.3392958641052246,0.6888555288314819,-0.30927151441574097,0.08501020073890686,-0.5939118319249942,-1.093235927830107,2.7422062495379738,-0.7360355257987976,0.5596072673797607,-0.38090866804122925,-0.10526981204748154,0.17168740928173065,0.00036549544893205166
1.359264850616455,0.7756994962692261,-0.39004379510879517,0.0617985725402832,-0.592743021343619,-1.0914926873131368,2.7399746225937447,-0.735950231552124,0.5586382150650024,-0.3824925124645233,0.02141600102186203,0.13157381117343903,-0.16807182133197784
1.3793530464172363,0.8684359192848206,-0.3895048499107361,0.05510526895523071,-0.58720994622426,-1.089729569560125,2.739906899642565,-0.738003671169281,0.5540404915809631,-0.3852139413356781,0.23447376489639282,0.0977257490158081,-0.3214009404182434
1.3993401527404785,0.9334554672241211,-0.448733389377594,0.0993492603302002,-0.5771551672824592,-1.0840127172553988,2.7420594259747353,-0.7406759262084961,0.5456421375274658,-0.39201292395591736,0.4076135456562042,0.31702721118927,-0.4902490973472595
1.4192969799041748,1.0503889322280884,-0.40943068265914917,0.08378750085830688,-0.5627874510071871,-1.0765173327451876,2.7475008318540493,-0.7445417046546936,0.5335457921028137,-0.40123140811920166,0.6822953224182129,0.11324798315763474,-0.5475311279296875
1.439296007156372,1.0230861902236938,-0.35770779848098755,0.09193295240402222,-0.54554785522221,-1.0697980982461397,2.7586631495606393,-0.7497859001159668,0.5188865065574646,-0.4105822741985321,0.9184742569923401,-0.0005307779065333307,-0.5085949897766113
1.4592969417572021,0.9704031944274902,-0.3431316614151001,0.09645652770996094,-0.5280707675056706,-1.065278525509888,2.772823612567699,-0.7557424306869507,0.5038678646087646,-0.4182949662208557,1.0026944875717163,-0.2754184603691101,-0.4038121700286865
1.4793529510498047,0.8997402787208557,-0.2701699435710907,0.1485380232334137,-0.5110437067253681,-1.0648202269960185,2.7902816291987373,-0.7629451155662537,0.48908787965774536,-0.4227384626865387,1.2252243757247925,-0.46766307950019836,-0.3724481165409088
1.499298095703125,0.7640443444252014,-0.19017750024795532,0.1044842004776001,-0.49296896641731025,-1.0662327318802403,2.8115937661431416,-0.7711548805236816,0.4732434153556824,-0.4258648455142975,1.2353957891464233,-0.7263631224632263,-0.3341251611709595
1.5192971229553223,0.6259440779685974,-0.1343994140625,0.10006964206695557,-0.4754268791158677,-1.0743510971005572,2.8327286166793613,-0.7817667722702026,0.45771801471710205,-0.42347973585128784,1.2562414407730103,-1.0052077770233154,-0.29066431522369385
1.5393218994140625,0.4215075373649597,-0.08041581511497498,0.06253868341445923,-0.45810305285502545,-1.084403927443662,2.854993026914524,-0.7928757667541504,0.44224753975868225,-0.41924339532852173,1.3391287326812744,-0.945097029209137,-0.29814860224723816
1.5592999458312988,0.3494589924812317,-0.0031363964080810547,-0.02608489990234375,-0.4404248037968698,-1.092785756356725,2.879924863743856,-0.8031790256500244,0.4263237714767456,-0.416114866733551,1.4120006561279297,-1.0176600217819214,-0.19348198175430298
1.5792970657348633,0.29646241664886475,-0.033787935972213745,-0.04372048377990723,-0.42576195743146117,-1.1041926277573386,2.904697408514031,-0.8133691549301147,0.41301482915878296,-0.40969452261924744,1.3424842357635498,-1.1636772155761719,-0.12551017105579376
1.5992960929870605,0.15733635425567627,0.07198137044906616,-0.1066635251045227,-0.41025584604057036,-1.1177587922228684,2.9315430105199165,-0.8245115876197815,0.3988439440727234,-0.40137791633605957,1.5341812372207642,-1.232761263847351,-0.19642402231693268
1.6193008422851562,0.04810076951980591,0.03903821110725403,-0.04202723503112793,-0.3932120899519243,-1.1298525649206643,2.959394698654821,-0.8353321552276611,0.383157342672348,-0.39422160387039185,1.4878329038619995,-1.0522446632385254,-0.19822899997234344
1.6393260955810547,0.0640062689781189,0.06816333532333374,-0.0812634527683258,-0.3756038190150975,-1.1429091435344563,2.986064733245738,-0.8464158177375793,0.3668343126773834,-0.3860217332839966,1.5108312368392944,-1.2508610486984253,-0.3190867602825165
1.6592979431152344,0.10186260938644409,-0.003084510564804077,0.0027472972869873047,-0.357612712705445,-1.159846343058574,3.0111328158576245,-0.8587442636489868,0.35003897547721863,-0.37420737743377686,1.4569661617279053,-1.448941946029663,-0.39144498109817505
1.6792960166931152,0.05847752094268799,0.07140660285949707,0.006358921527862549,-0.33973932319837513,-1.1828099010718223,3.0364345269819526,-0.8727627992630005,0.3332413136959076,-0.3567008376121521,1.3491514921188354,-1.5859177112579346,-0.30730271339416504
1.6993279457092285,0.017700612545013428,0.03306090831756592,0.05667802691459656,-0.3239230474588875,-1.2081042004587812,3.0611382309608035,-0.8863223195075989,0.31828802824020386,-0.33634117245674133,1.5026369094848633,-1.7858995199203491,-0.30147287249565125
1.7192978858947754,-0.008677780628204346,0.09805434942245483,0.09375160932540894,-0.30541439703174317,-1.2350508055936695,3.090530007212663,-0.9004713296890259,0.30068841576576233,-0.314225971698761,1.7907922267913818,-1.8160784244537354,-0.4701390266418457
1.7392959594726562,-0.04139268398284912,0.02132466435432434,0.11521053314208984,-0.28341887996353177,-1.2616353850014093,3.1226234756095237,-0.9145856499671936,0.27963975071907043,-0.292121022939682,1.8207045793533325,-1.7887694835662842,-0.6115731596946716
1.7593188285827637,0.023418724536895752,-0.11271339654922485,0.19392305612564087,-0.26069098971299803,-1.2892078813513057,-3.1277494082813195,-0.9281580448150635,0.25774824619293213,-0.26849284768104553,1.9403084516525269,-1.908529281616211,-0.6657503247261047
1.7793750762939453,0.007295787334442139,-0.09267199039459229,0.15112361311912537,-0.23581220526623248,-1.320214865755733,-3.0902590827155643,-0.9419577717781067,0.23363278806209564,-0.24110481142997742,2.14099383354187,-2.0321547985076904,-0.7745788097381592
1.7992959022521973,-0.07934892177581787,-0.1996077597141266,0.14394479990005493,-0.21010719168640662,-1.3510010173744285,-3.055818977776671,-0.9544797539710999,0.20856472849845886,-0.21323508024215698,1.6894880533218384,-1.7789191007614136,-0.8988521099090576
1.8192968368530273,-0.13818180561065674,-0.29625338315963745,0.0796101838350296,-0.1885117495002612,-1.3785566438090222,-3.035468323281039,-0.964189350605011,0.18739721179008484,-0.18767306208610535,0.7012354731559753,-1.4429006576538086,-0.8522480726242065
1.8393058776855469,-0.11684292554855347,-0.19379235804080963,0.11067211627960205,-0.17472155066587522,-1.4023322916210075,-3.0304182773641557,-0.9708340764045715,0.1738339364528656,-0.1651155799627304,0.18120279908180237,-1.1302919387817383,-0.4308064579963684
1.8593289852142334,-0.09832233190536499,-0.003261670470237732,0.058213457465171814,-0.16712460272044807,-1.422158365844457,-3.0242597660652715,-0.9751946330070496,0.1663477122783661,-0.14602793753147125,0.6993762850761414,-0.9132813215255737,-0.2233305722475052
1.8792970180511475,-0.17291098833084106,-0.05973285436630249,0.06499147415161133,-0.16266798655150044,-1.4330303307909407,-3.0112996896157487,-0.9774490594863892,0.16195154190063477,-0.1355176866054535,0.41609686613082886,-0.42486074566841125,-0.021225493401288986
1.8993000984191895,-0.1194029450416565,-0.30529946088790894,0.14206326007843018,-0.16437617819607708,-1.4380491615190438,-3.0101402565861766,-0.9778413772583008,0.1636369526386261,-0.1305735558271408,-0.28368231654167175,-0.07636073976755142,0.25380778312683105
1.919386863708496,-0.16000139713287354,-0.24374604225158691,0.10995464026927948,-0.17011785483499622,-1.4412971239864796,-3.015379492958062,-0.9773125648498535,0.16929849982261658,-0.12727345526218414,-0.2443309724330902,-0.0669630616903305,0.26058676838874817
1.9392991065979004,-0.2343342900276184,-0.33909493684768677,0.1551322340965271,-0.17488500932886458,-1.4422238751918643,-3.01937811255535,-0.9766184091567993,0.17399489879608154,-0.12626273930072784,-0.19854538142681122,0.019586918875575066,0.1320413500070572
1.9593770503997803,-0.2609153985977173,-0.37315064668655396,0.21781229972839355,-0.17810699750243741,-1.4412303202816485,-3.023132730513342,-0.9759315252304077,0.17716683447360992,-0.12715990841388702,-0.2423933893442154,0.1260308027267456,0.1522199511528015
1.9793100357055664,-0.2386050820350647,-0.4253276586532593,0.27836155891418457,-0.18295372445106,-1.4385769349860293,-3.0320678618778447,-0.9747279286384583,0.18193478882312775,-0.12963424623012543,-0.7506619095802307,0.30055344104766846,0.17822697758674622
1.9993548393249512,-0.21623998880386353,-0.45677343010902405,0.35059791803359985,-0.18880449823673381,-1.4345102376695635,-3.049552244557875,-0.9731215238571167,0.1876847743988037,-0.13345018029212952,-1.02726411819458,0.4776681065559387,0.2093532383441925
2.0193238258361816,-0.26094335317611694,-0.36291569471359253,0.330158531665802,-0.1958612244390207,-1.4276846249823683,-3.073233297851497,-0.9708530306816101,0.19461137056350708,-0.13989681005477905,-1.374367117881775,0.6097046732902527,0.12712085247039795
2.039320945739746,-0.40226495265960693,-0.2968630790710449,0.23409350216388702,-0.2020280185293122,-1.4195491214449907,-3.106050893052815,-0.9684777855873108,0.20065651834011078,-0.14760681986808777,-1.8633896112442017,0.9192842245101929,0.030772347003221512
2.0593600273132324,-0.38623809814453125,-0.22676165401935577,0.1706334948539734,-0.2134090700862439,-1.4058058258770534,3.1348476551912086,-0.9640426635742188,0.21179285645484924,-0.16051705181598663,-2.527679920196533,1.2466381788253784,0.49235793948173523
2.0792970657348633,-0.4049292802810669,-0.1946711540222168,0.1617923527956009,-0.23439405515664577,-1.3918936017570105,3.0797557572193757,-0.9571312069892883,0.23225365579128265,-0.17308391630649567,-3.0418429374694824,1.4082483053207397,0.7163185477256775
2.099339008331299,-0.44687432050704956,-0.12855803966522217,0.19546015560626984,-0.26295623581877,-1.3765935123705775,3.0194078483643327,-0.9474737644195557,0.25993630290031433,-0.18635070323944092,-3.2387535572052,1.5950068235397339,1.0323108434677124
2.119320869445801,-0.5013662576675415,-0.14992162585258484,0.2804567217826843,-0.2993461520168235,-1.3591644102068938,2.9557247218961495,-0.9342111349105835,0.2948954999446869,-0.20071440935134888,-3.4987857341766357,1.8696492910385132,1.258629560470581
2.1393089294433594,-0.5376441478729248,-0.10800814628601074,0.31067436933517456,-0.3370237798812744,-1.3404783711425285,2.890597752609904,-0.9188224077224731,0.3306797742843628,-0.21544435620307922,-3.2140285968780518,2.048466444015503,1.101279854774475
2.159299850463867,-0.43431103229522705,-0.08683529496192932,0.28330016136169434,-0.3705240407042108,-1.318720915315365,2.8371669720617003,-0.9026792049407959,0.36210396885871887,-0.2324884831905365,-2.516641616821289,2.0126185417175293,1.0559312105178833
2.179318904876709,-0.38147032260894775,-0.12293878197669983,0.32705366611480713,-0.40228735977525276,-1.2969437850426306,2.7918483364147093,-0.88587886095047,0.3915241062641144,-0.2488524168729782,-2.4223926067352295,1.9013030529022217,0.9520431756973267
2.1992979049682617,-0.3794327974319458,-0.16942965984344482,0.3791773021221161,-0.4349192997189616,-1.2790007715309841,2.7439533028789906,-0.8685683608055115,0.42133721709251404,-0.26089125871658325,-2.6981303691864014,1.867522120475769,0.9974788427352905
2.2192959785461426,-0.3919638395309448,-0.13479432463645935,0.39942750334739685,-0.4684864603730309,-1.2628126825788115,2.6940934959313925,-0.8502692580223083,0.4515363574028015,-0.27047547698020935,-2.5130648612976074,1.9948885440826416,0.8615753650665283
2.2392969131469727,-0.3690444231033325,-0.041944026947021484,0.39972156286239624,-0.49555808652148836,-1.2421281011231902,2.6498366781350655,-0.8326156735420227,0.4755226671695709,-0.2839531898498535,-2.0551486015319824,2.1285293102264404,0.480028361082077
2.2594261169433594,-0.22857779264450073,-0.11422637104988098,0.3894224464893341,-0.5126379264953728,-1.2189550250768897,2.6108718939454563,-0.8180683851242065,0.4904777705669403,-0.3003264367580414,-1.8526042699813843,2.0193002223968506,0.058944571763277054
2.2792978286743164,-0.1287437081336975,-0.2135075330734253,0.42303505539894104,-0.5282819093369097,-1.2057761869643857,2.562609076845672,-0.8067724704742432,0.5040501952171326,-0.30830419063568115,-2.6068899631500244,1.7107458114624023,-0.10944516211748123
2.2992968559265137,-0.18788248300552368,-0.22892266511917114,0.36731258034706116,-0.5433882915020295,-1.2031106463551642,2.4999366277826423,-0.7987506985664368,0.5170391798019409,-0.30768120288848877,-2.8633174896240234,1.8273358345031738,-0.38862574100494385
2.319295883178711,-0.14619845151901245,-0.10144549608230591,0.29335328936576843,-0.5516565740216168,-1.1979137383987106,2.4376920468739796,-0.7931324243545532,0.5240987539291382,-0.31026002764701843,-2.3601412773132324,1.9881391525268555,-0.7534364461898804
2.3393168449401855,0.007680535316467285,-0.11207932233810425,0.3070709705352783,-0.5512786478004967,-1.1883696720805297,2.379398556307328,-0.79031902551651,0.5237768888473511,-0.31788942217826843,-2.3697926998138428,1.93009614944458,-1.1049145460128784
2.359333038330078,0.06258600950241089,-0.2177271842956543,0.19642579555511475,-0.548035004177193,-1.188286431907012,2.312988794139912,-0.7918645143508911,0.5210109949111938,-0.31858763098716736,-2.7920844554901123,1.592415452003479,-1.283413052558899
2.379359006881714,0.006854057312011719,-0.11161714792251587,0.10842284560203552,-0.5418250066072674,-1.1944813930296265,2.2402805330107878,-0.7968166470527649,0.5157004594802856,-0.31485894322395325,-2.7138874530792236,1.6141703128814697,-1.5563350915908813
2.3993921279907227,0.051448285579681396,-0.028712689876556396,0.13069617748260498,-0.5302138992928468,-1.1962706205689964,2.1688240678164337,-0.8028978109359741,0.5057178735733032,-0.31560218334198,-2.619661331176758,1.854581594467163,-1.7552907466888428
2.4193100929260254,0.1723771095275879,-0.08219006657600403,0.09019649028778076,-0.5165550951014238,-1.1961172224863257,2.0962103087703445,-0.8092026114463806,0.49388763308525085,-0.3182238042354584,-2.7526626586914062,1.847307562828064,-1.7408827543258667
2.439361095428467,0.287993848323822,-0.06652843952178955,0.023554474115371704,-0.5031217023505303,-1.1956996863584468,2.023834653418798,-0.815169632434845,0.482162743806839,-0.32096341252326965,-2.6115832328796387,1.745674967765808,-1.7523471117019653
2.459306001663208,0.36556434631347656,0.029506415128707886,-0.07313847541809082,-0.48686103677660053,-1.1927723324551789,1.9591502031894485,-0.8214053511619568,0.46785396337509155,-0.3261992037296295,-2.12712025642395,1.6268421411514282,-1.7713627815246582
2.4792959690093994,0.41419124603271484,0.08774891495704651,-0.08649829030036926,-0.46851068805420376,-1.1865193143499118,1.9041583693638988,-0.8271704316139221,0.4515579640865326,-0.33449167013168335,-1.8148201704025269,1.5747206211090088,-1.7132841348648071
2.4993481636047363,0.4431610107421875,0.019280195236206055,-0.09391871094703674,-0.4524003209808576,-1.1781269172436308,1.8520774730903908,-0.830947995185852,0.43712565302848816,-0.3441610336303711,-1.9174799919128418,1.539031982421875,-1.524562954902649
2.519321918487549,0.47523820400238037,0.004321932792663574,-0.14235419034957886,-0.4405633802487726,-1.1714244160108265,1.8000375638438453,-0.8333314061164856,0.42644912004470825,-0.35171008110046387,-1.9095120429992676,1.4071701765060425,-1.3883765935897827
2.5393028259277344,0.503206729888916,0.0426616370677948,-0.1552080512046814,-0.43166408123770583,-1.164140940038887,1.7521046870674337,-0.834200382232666,0.41838282346725464,-0.35925719141960144,-1.7608599662780762,1.3214285373687744,-1.1451388597488403
2.559298038482666,0.5161232948303223,0.08312046527862549,-0.12367385625839233,-0.4243263646293307,-1.157428256905016,1.7102549458218363,-0.8345589637756348,0.41170698404312134,-0.3660721182823181,-1.3919671773910522,1.1497342586517334,-1.0293524265289307
2.579298973083496,0.44617557525634766,0.17840000987052917,-0.16373512148857117,-0.41726760336202257,-1.1501692788246554,1.6764380523733455,-0.8345116972923279,0.4052640199661255,-0.3732978403568268,-1.2894773483276367,0.9541546106338501,-0.8945798277854919
2.5993330478668213,0.360145628452301,0.1263488531112671,-0.13430309295654297,-0.4140856766923638,-1.1464326546279866,1.6404546297213782,-0.8342819809913635,0.40235304832458496,-0.37694251537323,-1.5314956903457642,0.8730493783950806,-0.7182267904281616
2.6193130016326904,0.37031620740890503,0.20594224333763123,-0.11451876163482666,-0.4166166745820545,-1.1432234644691783,1.6053820147357292,-0.83213871717453,0.4046688377857208,-0.3791944980621338,-1.4499801397323608,0.8399137854576111,-0.3695897161960602
2.639298915863037,0.36815345287323,0.21157649159431458,-0.11305415630340576,-0.42331375699638996,-1.1394095473881345,1.5773388520270402,-0.8282060623168945,0.410783976316452,-0.3812237083911896,-1.1698451042175293,0.649623453617096,-0.12985241413116455
2.6592979431152344,0.28578561544418335,0.18667471408843994,-0.03182518482208252,-0.4306556113180516,-1.1370839296331583,1.5550517431549666,-0.8245581984519958,0.4174666404724121,-0.3818710148334503,-1.0280722379684448,0.5332596302032471,-0.07977945357561111
2.6793529987335205,0.17535102367401123,0.09584549069404602,0.019878387451171875,-0.4369380103299627,-1.1382311242453425,1.532138932942823,-0.8225983381271362,0.4231671392917633,-0.3798178732395172,-1.1183805465698242,0.3106600344181061,-0.23197433352470398
2.699295997619629,0.17300188541412354,0.09756490588188171,0.012247741222381592,-0.44009493486189805,-1.1459317920989165,1.5082789772531207,-0.8242775201797485,0.4260253608226776,-0.37291958928108215,-0.9144951105117798,-0.12310551851987839,-0.38163724541664124
2.719298839569092,0.11439228057861328,0.17490458488464355,0.004293859004974365,-0.43777656681361155,-1.1592959408159416,1.4906714080805936,-0.8300905227661133,0.42392677068710327,-0.3622649312019348,-0.4465559124946594,-0.3596409857273102,-0.44795382022857666
2.7393219470977783,0.007185041904449463,0.16214773058891296,0.018063664436340332,-0.43143491423694863,-1.1678498790577598,1.482929555265829,-0.8356152176856995,0.4181746542453766,-0.3561982810497284,0.049145154654979706,-0.17533144354820251,-0.4304220974445343
2.7592949867248535,0.014865338802337646,0.15697047114372253,0.04100620746612549,-0.4202139535878551,-1.1696396603604429,1.4850951566336548,-0.8405184149742126,0.4079557955265045,-0.35651203989982605,0.5966865420341492,-0.10138148814439774,-0.5410037636756897
2.7793240547180176,0.05343896150588989,0.1589086353778839,0.02737480401992798,-0.4028321238705143,-1.1685993607525522,1.4960960086676265,-0.8465450406074524,0.39202532172203064,-0.3601078391075134,0.9242896437644958,-0.22135458886623383,-0.6520276665687561
2.799251079559326,0.08521825075149536,0.05064770579338074,0.08011624217033386,-0.383076387902703,-1.1680737015015559,1.5078362757733712,-0.8533151149749756,0.3737756311893463,-0.36351755261421204,0.799378514289856,-0.177310511469841,-0.7648441791534424
2.8192989826202393,0.11002564430236816,-0.05242159962654114,0.1286017894744873,-0.3633748843206166,-1.1682681173141836,1.513069070274653,-0.8599951267242432,0.3554307520389557,-0.36616575717926025,0.31523650884628296,0.022534415125846863,-0.8061733841896057
2.8393359184265137,0.11176031827926636,-0.15806522965431213,0.07598724961280823,-0.34856801887497924,-1.1697432765795928,1.506612036848486,-0.8652850389480591,0.3415522873401642,-0.3669112026691437,-0.24393323063850403,0.030969180166721344,-0.8246719241142273
2.85929799079895,0.13112986087799072,-0.07134246826171875,0.06795439124107361,-0.335602589869281,-1.1735267187872582,1.4919208409117124,-0.8706775307655334,0.3293381929397583,-0.36531755328178406,-0.48805883526802063,0.06944865733385086,-0.9396405220031738
2.879295825958252,0.1746222972869873,-0.07687768340110779,0.03764846920967102,-0.32202336477700627,-1.1802040026901228,1.472548160360985,-0.877152144908905,0.31648656725883484,-0.36116519570350647,-0.7431560754776001,-0.16908250749111176,-1.0054281949996948
2.8992929458618164,0.18744653463363647,-0.0831073522567749,0.07059085369110107,-0.3090421584037049,-1.1942572643222864,1.4465100871266086,-0.885887086391449,0.30414631962776184,-0.3502843379974365,-1.0587079524993896,-0.37930309772491455,-1.1293286085128784
2.91933012008667,0.12206017971038818,-0.08421206474304199,0.08291345834732056,-0.29598897327752777,-1.2110501724176208,1.413977054900544,-0.895284116268158,0.29168596863746643,-0.336728036403656,-1.348300814628601,-0.3148539960384369,-1.2313202619552612
2.9393370151519775,0.08013015985488892,-0.05486798286437988,0.1114388108253479,-0.28040637768064,-1.2248538409547702,1.3791329629701625,-0.9040132761001587,0.2767461836338043,-0.32583993673324585,-1.1668089628219604,-0.07205787301063538,-1.3793734312057495
2.9593310356140137,0.06333297491073608,0.05936634540557861,0.02324092388153076,-0.2608581830179683,-1.2352975913705282,1.348558549701568,-0.9123015403747559,0.2579098045825958,-0.3181016445159912,-1.0598329305648804,-0.18468116223812103,-1.4453750848770142
2.9793319702148438,0.0864713191986084,-0.04519817233085632,0.0771251916885376,-0.2423733208205334,-1.2479203722308285,1.3155232988856602,-0.9206083416938782,0.24000725150108337,-0.30802103877067566,-1.4955403804779053,-0.29337117075920105,-1.2945014238357544
2.9993879795074463,0.0644146203994751,-0.10417613387107849,0.19677001237869263,-0.23176435936887044,-1.264782240637657,1.2699244531449885,-0.9280468821525574,0.22969506680965424,-0.2932054400444031,-2.277113437652588,-0.29517287015914917,-1.1480891704559326
3.0193591117858887,-0.014085471630096436,-0.047733157873153687,0.28934958577156067,-0.22238274525789192,-1.2780668300595392,1.2214525643890135,-0.9338820576667786,0.22055432200431824,-0.28146064281463623,-1.7678580284118652,0.0896589457988739,-1.187945008277893
3.0394959449768066,0.014765501022338867,0.07689724862575531,0.2642210125923157,-0.20388565903730538,-1.2812845772227197,1.1902404529081678,-0.9385326504707336,0.20247602462768555,-0.27957117557525635,-0.7302632927894592,0.09519929438829422,-1.4251655340194702
3.0592949390411377,0.04703545570373535,-0.03863973915576935,0.2309710681438446,-0.1787193516066322,-1.288615293473484,1.16756393065231,-0.9451524615287781,0.1777694672346115,-0.2740159332752228,-0.7982112169265747,-0.4151913523674011,-1.652277946472168
3.0793709754943848,-0.11136394739151001,-0.09921625256538391,0.20389148592948914,-0.15141472399065434,-1.302690353482632,1.1412394661968572,-0.953241765499115,0.15083682537078857,-0.2618746757507324,-0.9769625067710876,-0.42642056941986084,-1.5959473848342896
3.0993528366088867,-0.2497444748878479,0.0104445219039917,0.20997610688209534,-0.12816604276728435,-1.3128313102854268,1.110534998986185,-0.9589805006980896,0.12781544029712677,-0.2530209720134735,-1.4749573469161987,-0.21159455180168152,-1.5047521591186523
3.119603157043457,-0.3365378975868225,-0.014071144163608551,0.18122655153274536,-0.10985787043075614,-1.3215293968525337,1.0696619426879652,-0.9632515907287598,0.10963702946901321,-0.24520647525787354,-1.8931950330734253,-0.08465968072414398,-1.1554641723632812
3.139464855194092,-0.41670501232147217,0.22641438245773315,0.1569882184267044,-0.09970906908203497,-1.3196560617994817,1.0360947440249209,-0.9638186693191528,0.09954393655061722,-0.24727430939674377,-1.00715970993042,0.5883122682571411,-0.7424094080924988
3.1593589782714844,-0.21944236755371094,0.4267469048500061,0.1363755166530609,-0.08807647147857159,-1.307644355786148,1.0185908305505031,-0.9618320465087891,0.08796264231204987,-0.2591170072555542,-0.38620689511299133,0.6597727537155151,-0.8710672855377197
3.187567949295044,0.1824628710746765,0.12555670738220215,-0.04716762900352478,-0.0658820154473192,-1.2937887165785296,1.0041543244072597,-0.959791362285614,0.06583436578512192,-0.272885262966156,-0.38712766766548157,0.3676629364490509,-0.5748468637466431
3.20750093460083,0.2538207769393921,0.04739108681678772,-0.1196526288986206,-0.056704312023511845,-1.2867817426390924,0.9920426712832022,-0.9583954215049744,0.05667392909526825,-0.27976128458976746,-0.43036994338035583,0.3446241319179535,-0.6315686106681824
3.2276649475097656,0.20030754804611206,0.1529502123594284,-0.19128334522247314,-0.04397870941035897,-1.283027091355086,0.9851850566029287,-0.9579522609710693,0.043964534997940063,-0.2835395038127899,0.22511719167232513,0.08764346688985825,-0.8351635336875916
3.2474541664123535,-0.0026755928993225098,0.38616448640823364,-0.09283265471458435,-0.021430004900549655,-1.2822733586943118,0.9923587432416885,-0.9584450125694275,0.021428365260362625,-0.28447121381759644,1.0180487632751465,0.036049868911504745,-1.0758776664733887
3.2674760818481445,-0.13634449243545532,0.4093596339225769,0.03343600034713745,0.0058714289602986944,-1.2798979692413488,1.003773918100717,-0.957970142364502,-0.005871395114809275,-0.286808043718338,0.7445197105407715,0.08702109009027481,-1.2338114976882935
3.287585973739624,0.03981971740722656,0.18470539152622223,0.13863247632980347,0.028520206908811817,-1.2785994530258824,1.0051912501150813,-0.9572240114212036,-0.028516341000795364,-0.28793954849243164,0.022540615871548653,0.03300924971699715,-0.8649876117706299
3.307319164276123,0.012342393398284912,0.15526393055915833,-0.04015633463859558,0.04359858209816187,-1.2818171631852089,0.9969724965263974,-0.9576244354248047,-0.04358477145433426,-0.2847030460834503,-0.30924931168556213,-0.31448647379875183,-0.8874679207801819
3.3272581100463867,-0.25020700693130493,0.20109514892101288,-0.06697788834571838,0.06021653182053045,-1.2844422867726482,0.9834962575673646,-0.9575414061546326,-0.060180146247148514,-0.2819446623325348,-0.4564058482646942,0.09779348224401474,-0.9912152886390686
3.347257137298584,-0.3518313765525818,0.20942384004592896,0.048529863357543945,0.06998502904701454,-1.2729629253579464,0.9650858161101401,-0.9536343812942505,-0.06992791593074799,-0.2927313446998596,-1.0741485357284546,0.8937268853187561,-0.5231719017028809
3.368821144104004,-0.19973886013031006,0.20479834079742432,0.16336682438850403,0.06856045074125233,-1.2490493281010315,0.9455228387646932,-0.9464556574821472,-0.06850675493478775,-0.3154814839363098,-0.9737030863761902,1.4658942222595215,0.1269775778055191
3.3871729373931885,-0.0951540470123291,0.23578108847141266,-0.037231773138046265,0.06089189043152146,-1.2268360104122726,0.9343533141299019,-0.9396817684173584,-0.060854267328977585,-0.3365930914878845,-0.10582111030817032,0.22993500530719757,0.08258721977472305
3.4069948196411133,0.0060027241706848145,0.22486525774002075,0.3023260831832886,0.0625677520799129,-1.2296027515350714,0.9349696382097065,-0.9405120611190796,-0.06252693384885788,-0.33395737409591675,0.1793319284915924,-0.1294156163930893,-0.18562087416648865
3.427386999130249,-0.341407835483551,-0.006070166826248169,0.22514620423316956,0.06722256440980125,-1.23110256070889,0.9402123927543361,-0.940727174282074,-0.06717194616794586,-0.33244580030441284,0.23608018457889557,0.02592843770980835,-0.03203006461262703
3.4477460384368896,-0.40737849473953247,-0.11958125233650208,0.3809143602848053,0.06492777694553088,-1.2285046673912638,0.9410647210078498,-0.9400031566619873,-0.06488216668367386,-0.33493945002555847,-0.16915298998355865,0.29938724637031555,0.3124575912952423
3.4670369625091553,-0.31794917583465576,0.008139792829751968,0.36639875173568726,0.05594417420818661,-1.223815778801035,0.9442711427141295,-0.9389326572418213,-0.055914998054504395,-0.3395278751850128,0.357155442237854,0.09951131790876389,0.4946461021900177
3.4867138862609863,-0.2922452688217163,0.051944926381111145,0.31530508399009705,0.05357265253394877,-1.2275889871455823,0.962167992327422,-0.9403292536735535,-0.05354703217744827,-0.3360263407230377,1.1365859508514404,-0.44476354122161865,0.2920410931110382
3.506711959838867,-0.2573537826538086,-0.1316344439983368,0.4126388132572174,0.05621552862784749,-1.2403803460484157,0.988507081777655,-0.9444131851196289,-0.056185923516750336,-0.3239240348339081,1.307208776473999,-0.5788275599479675,0.4104613661766052
3.5267601013183594,-0.4052444100379944,-0.23703813552856445,0.4846268594264984,0.0534229936284881,-1.2502413165530353,1.0134712278451523,-0.9477065801620483,-0.053397584706544876,-0.3146438002586365,0.955512285232544,-0.1950429230928421,0.6260994076728821
3.54672908782959,-0.4922330975532532,-0.2915996015071869,0.43294695019721985,0.04597145177124684,-1.2510707444867413,1.0323387916807303,-0.9483188986778259,-0.04595525935292244,-0.3139740526676178,0.5701566934585571,0.18673259019851685,0.6674185991287231
3.5663580894470215,-0.4301825761795044,-0.4409608244895935,0.23536747694015503,0.034402920060943525,-1.2516358967639165,1.0432498219756072,-0.9489373564720154,-0.034396134316921234,-0.3135838508605957,0.10067754983901978,-0.39974263310432434,0.8034346699714661
3.586885929107666,-0.3426050543785095,-0.3736080229282379,0.35414645075798035,0.016575159975941514,-1.2626265653871134,1.0462877083890325,-0.9527595043182373,-0.016574401408433914,-0.3032734990119934,-0.1437569111585617,-0.5297808647155762,0.9870998859405518
3.60794997215271,-0.5194241404533386,-0.27637019753456116,0.25685814023017883,-0.0036194374743053538,-1.271908491042035,1.0509306807283028,-0.9556582570075989,0.0036194296553730965,-0.2944555878639221,-0.08619408309459686,-0.44724294543266296,1.0270406007766724
3.6256070137023926,-0.6130177974700928,-0.22804850339889526,0.19317102432250977,-0.02559777499697076,-1.278635378876638,1.0559896097432482,-0.9573100209236145,0.025594979524612427,-0.28792792558670044,-0.1393529623746872,-0.2076626569032669,1.323657751083374
3.6432671546936035,-0.6698601841926575,-0.17178525030612946,0.06463631987571716,-0.05681038699030265,-1.2826130799982158,1.0599947769348632,-0.9572150111198425,0.056779831647872925,-0.28375232219696045,-0.234685480594635,-0.1826094090938568,1.7262048721313477
3.6654748916625977,-0.6696003675460815,-0.07895977050065994,0.07379645109176636,-0.09492571031785156,-1.2835062403786552,1.0679777535405937,-0.9546977877616882,0.09478321671485901,-0.2820787727832794,-0.07975257933139801,-0.009647843427956104,2.123756170272827
3.686102867126465,-0.7282630801200867,-0.12313109636306763,0.18480512499809265,-0.1389125803467443,-1.282472378659732,1.079253209554233,-0.949486494064331,0.1384662538766861,-0.28160667419433594,-0.15998269617557526,0.026882294565439224,2.4212069511413574
3.7064881324768066,-0.8299297094345093,-0.17676743865013123,0.245716392993927,-0.18707308108652107,-1.2801957484914341,1.090241967053146,-0.941356360912323,0.1859838366508484,-0.2815285921096802,-0.06296240538358688,-0.011015022173523903,2.4520277976989746
3.72633695602417,-0.8121789693832397,-0.1471613198518753,0.2125849425792694,-0.23234563428819344,-1.2787771740736062,1.105847330009289,-0.9319310188293457,0.23026075959205627,-0.2801506519317627,0.21325834095478058,-0.12892559170722961,2.3168272972106934
3.7466039657592773,-0.7635637521743774,-0.1807578206062317,0.126661479473114,-0.2727343297069769,-1.2781929499681544,1.12668866169201,-0.9221052527427673,0.26936569809913635,-0.2777843773365021,0.4707478880882263,-0.3462442457675934,2.1682374477386475
3.765206813812256,-0.7553800940513611,-0.20831933617591858,0.0905606746673584,-0.3114599948890712,-1.2803705394863205,1.1460050051411976,-0.9120240807533264,0.30644872784614563,-0.27258262038230896,0.1455070823431015,-0.3576682209968567,2.093226432800293
3.7859010696411133,-0.7373098134994507,-0.26836442947387695,0.04759418964385986,-0.35195621382020187,-1.2838699704093393,1.1552984570765137,-0.9003244638442993,0.3447347581386566,-0.2656573951244354,-0.468388170003891,-0.29780247807502747,2.04179310798645
3.8059158325195312,-0.6783918142318726,-0.19357174634933472,0.03239122033119202,-0.39458894027321345,-1.2906879963117768,1.1501002238178206,-0.8871751427650452,0.3844287395477295,-0.2552151083946228,-1.1368956565856934,-0.24779312312602997,1.890221118927002
3.8247599601745605,-0.6074641346931458,-0.11409932374954224,0.030467644333839417,-0.4364486071677921,-1.3012007327115716,1.1335788151487538,-0.8735233545303345,0.422723650932312,-0.2413744181394577,-1.4064439535140991,-0.09406880289316177,1.7222281694412231
3.8464550971984863,-0.5646964311599731,0.04999777674674988,-0.053114235401153564,-0.47268879286866966,-1.3110890461629157,1.1152776099020956,-0.8604897260665894,0.4552818834781647,-0.2286391258239746,-1.1209744215011597,-0.07119829207658768,1.3821626901626587
3.8648428916931152,-0.4119740128517151,0.12513387203216553,-0.0465162992477417,-0.5023244359959442,-1.3190063602861493,1.1006840836885385,-0.8488292694091797,0.48146411776542664,-0.21836087107658386,-0.9267731308937073,-0.016235705465078354,1.182307243347168
3.8854219913482666,-0.3067145347595215,0.07894265651702881,-0.10135018825531006,-0.5279106780335713,-1.3267282144470198,1.0866885302740565,-0.838259220123291,0.5037295818328857,-0.2087540179491043,-0.9584299325942993,-0.036659132689237595,1.0148351192474365
3.905573844909668,-0.19111895561218262,0.06314444541931152,-0.12327156960964203,-0.5514134763582109,-1.3371523850713172,1.0687432650382844,-0.8286411166191101,0.5238917469978333,-0.19720861315727234,-1.1249299049377441,-0.04918175935745239,0.9359728693962097
3.925389051437378,-0.13694792985916138,0.08317124843597412,-0.14875487983226776,-0.5738101066988393,-1.347892906870048,1.0470465008032486,-0.8190609216690063,0.5428358316421509,-0.1856565624475479,-1.146276593208313,0.1557970494031906,0.8054555058479309
3.945513963699341,0.006945133209228516,0.0936427116394043,-0.1632552593946457,-0.5924325014157641,-1.3541828325262635,1.0268583191480907,-0.8101982474327087,0.558380663394928,-0.1782972812652588,-0.8489476442337036,0.29165661334991455,0.6729664206504822
3.965363025665283,0.16506046056747437,0.13998371362686157,-0.1851101517677307,-0.6084294276969546,-1.3563334820854807,1.0134741602156268,-0.8017486929893494,0.5715794563293457,-0.17463089525699615,-0.6557050347328186,0.24818840622901917,0.657427191734314
3.985213041305542,0.2919006943702698,0.028467416763305664,-0.13904595375061035,-0.6247446479242039,-1.3596929898223102,0.9994371466221201,-0.7931061387062073,0.5848901867866516,-0.16995961964130402,-0.7622644305229187,0.20965486764907837,0.7440385222434998
4.005423069000244,0.4015234708786011,-0.01901555061340332,-0.14926737546920776,-0.6443140400832928,-1.3653804971858279,0.9843452343511117,-0.7827032804489136,0.6006501317024231,-0.1630798727273941,-0.8250970840454102,0.08499752730131149,0.8588516116142273
4.0242040157318115,0.4067552089691162,0.03535008430480957,-0.170418843626976,-0.6638121597974376,-1.371938116794726,0.9705667925962299,-0.7721268534660339,0.6161239743232727,-0.15560024976730347,-0.5979655981063843,0.15313424170017242,0.8615826964378357
4.045935153961182,0.44855815172195435,-0.0055119991302490234,-0.20510083436965942,-0.683589695287411,-1.3736679053436953,0.962455804083836,-0.7602952122688293,0.6315802335739136,-0.15184782445430756,-0.4871785342693329,0.15944015979766846,0.9259896874427795
4.064131021499634,0.5216169357299805,-0.11342531442642212,-0.172153040766716,-0.7045972782948073,-1.3747553039536702,0.9549265559386346,-0.7472791075706482,0.6477270722389221,-0.14840340614318848,-0.4853208661079407,0.1848803609609604,1.0678635835647583
4.0840489864349365,0.5232951641082764,-0.13986951112747192,-0.18759112060070038,-0.7280670425857416,-1.37671447033463,0.9456668837843569,-0.7324473261833191,0.6654279828071594,-0.1439669281244278,-0.6396399140357971,0.23293852806091309,1.0527160167694092
4.1052751541137695,0.4894654154777527,-0.17885839939117432,-0.20491354167461395,-0.7507257251103572,-1.3782085370079182,0.9337135353545208,-0.7176758050918579,0.6821695566177368,-0.13995014131069183,-0.6006026864051819,0.4707000255584717,1.0117446184158325
4.125332832336426,0.4715944528579712,-0.1859615445137024,-0.3020435571670532,-0.7710049214477198,-1.3713567473499833,0.9266539564291072,-0.7029939293861389,0.6968563199043274,-0.14209380745887756,-0.3104560375213623,0.646407961845398,0.7643320560455322
4.143950939178467,0.4843013882637024,-0.18849492073059082,-0.3708556890487671,-0.783355827996617,-1.3580067669572058,0.9277772959793517,-0.6925686001777649,0.7056611776351929,-0.14963670074939728,0.18289871513843536,0.5817587375640869,0.5616699457168579
4.164984941482544,0.5589019060134888,-0.2557339668273926,-0.2061574012041092,-0.79439058780019,-1.3354256290417377,0.9401680684680719,-0.6813995838165283,0.7134367227554321,-0.16341030597686768,0.3568079173564911,0.7891072034835815,0.6897404193878174
4.18495512008667,0.5139881372451782,-0.30554288625717163,-0.158541738986969,-0.8063153358975557,-1.3046726962961914,0.9585549399490609,-0.6677967309951782,0.7217416763305664,-0.18203425407409668,0.6400830149650574,0.937626302242279,0.7946845293045044
4.204674005508423,0.5209065079689026,-0.2577059864997864,-0.09628340601921082,-0.8168214883261501,-1.2641327334792527,0.9883366636422478,-0.6526050567626953,0.7289736866950989,-0.20664913952350616,1.0589128732681274,0.9238797426223755,0.7631754279136658
4.224684000015259,0.5824110507965088,-0.3603072166442871,0.0332607626914978,-0.8225919816868553,-1.2160067402641717,1.0287851341129037,-0.6379530429840088,0.7329117059707642,-0.23633980751037598,1.2489558458328247,0.9056865572929382,0.6722433567047119
4.244577884674072,0.7006385922431946,-0.4911465048789978,0.13463175296783447,-0.8252802303426673,-1.1701596651673372,1.0715789889028646,-0.6246345639228821,0.7347379326820374,-0.26456016302108765,1.3731735944747925,0.5882400274276733,0.7230392098426819
4.264657020568848,0.7595531344413757,-0.45437508821487427,0.17744261026382446,-0.825283569595344,-1.1268099072056477,1.1191824921375633,-0.6125804781913757,0.7347401976585388,-0.2913798391819,1.5990099906921387,0.22765952348709106,0.5603955984115601
4.284297943115234,0.8857634663581848,-0.3555142879486084,0.23647940158843994,-0.8183601485509675,-1.089500194642969,1.170666729653654,-0.6057799458503723,0.730026125907898,-0.316374272108078,1.9129759073257446,-0.29499995708465576,0.41607487201690674
4.3046040534973145,0.9334639310836792,-0.2722282409667969,0.3419712781906128,-0.8067275447681324,-1.0583825289647917,1.2283132296522585,-0.6030043363571167,0.7220269441604614,-0.33920925855636597,2.106459856033325,-0.7303767204284668,0.4642051160335541
4.324449062347412,0.7424191832542419,-0.15610408782958984,0.24674001336097717,-0.7923600343631882,-1.034434756120314,1.2882270237341187,-0.6035641431808472,0.7120124101638794,-0.35881561040878296,2.2250845432281494,-1.0903878211975098,0.40482020378112793
4.344254016876221,0.6220241785049438,-0.10627615451812744,0.2162686288356781,-0.7743663929765315,-1.0159866785796994,1.3463659538580006,-0.6076351404190063,0.6992632746696472,-0.3765772581100464,2.3104727268218994,-1.2684918642044067,0.16504444181919098
4.365936040878296,0.6791960000991821,-0.06848651170730591,0.16304457187652588,-0.7506563126358253,-1.0072350977159896,1.4032293025747946,-0.6181608438491821,0.682118833065033,-0.39062923192977905,2.3550658226013184,-1.7369390726089478,0.01457711961120367
4.385806083679199,0.5892084836959839,-0.19324934482574463,0.3135871887207031,-0.7258066456965796,-1.0062090077602974,1.4570298132937132,-0.6318873167037964,0.663739025592804,-0.4002111852169037,2.3828823566436768,-1.7695808410644531,0.06965691596269608
4.405665874481201,0.3560946583747864,-0.09855633974075317,0.1604630947113037,-0.703907607987434,-1.0076656519641831,1.5086834929928863,-0.6446078419685364,0.6472014784812927,-0.4069534242153168,2.166541814804077,-1.8163663148880005,0.0829651802778244
4.424560070037842,0.10695880651473999,0.20309233665466309,-0.12567690014839172,-0.6799915097915326,-1.0145042834426015,1.5573280308461817,-0.6603339910507202,0.6287864446640015,-0.41059306263923645,2.2864696979522705,-1.911296010017395,-0.19283831119537354
4.443565845489502,0.06157577037811279,0.20103037357330322,0.0440441370010376,-0.6509354124877609,-1.024478508284121,1.598254183436896,-0.6797245740890503,0.6059308052062988,-0.41330671310424805,1.9656810760498047,-1.545517086982727,-0.3615303635597229
4.464117050170898,0.2119748592376709,0.06092047691345215,0.10221663117408752,-0.6273649802254012,-1.0399210240596342,1.6304255576755011,-0.6981502771377563,0.5870135426521301,-0.4098794460296631,1.5478004217147827,-1.8844459056854248,-0.22192628681659698
4.483159065246582,0.09186500310897827,0.05767005681991577,0.14347583055496216,-0.6141967805860424,-1.0588737273331765,1.6589956799304724,-0.7124704718589783,0.5763022899627686,-0.4003268778324127,1.2381269931793213,-1.642911672592163,0.003959788009524345
4.504050016403198,-0.18500739336013794,0.161241352558136,-0.13758420944213867,-0.6016739146916267,-1.0732357127708134,1.6854343567736343,-0.7244316935539246,0.5660232305526733,-0.3934673070907593,1.3213343620300293,-1.5622570514678955,-0.2511400282382965
4.523951053619385,-0.10155928134918213,0.1532842516899109,0.0313640832901001,-0.5852275653647349,-1.0923742425122025,1.7043766103214864,-0.7399933934211731,0.5523890852928162,-0.38376569747924805,0.8643453121185303,-1.5177785158157349,-0.456245094537735
4.5436320304870605,-0.02513110637664795,0.011574923992156982,0.14085796475410461,-0.5698931558711816,-1.116878625272643,1.7165755239918377,-0.7566986680030823,0.5395420789718628,-0.3691903352737427,0.7748819589614868,-1.631322979927063,-0.4356424808502197
4.563602924346924,-0.07262760400772095,0.09787857532501221,0.21124902367591858,-0.5520168247760298,-1.1433529540610563,1.7298768787400114,-0.7748609185218811,0.5244055390357971,-0.3529725968837738,0.9556285738945007,-1.5496234893798828,-0.676695704460144
4.583920001983643,-0.15604954957962036,-0.03530395030975342,0.18292894959449768,-0.5291877517702472,-1.167948136896727,1.742206642360551,-0.7941153645515442,0.50483238697052,-0.3384159207344055,0.9918570518493652,-1.68073308467865,-1.0141050815582275
4.603305816650391,0.020284831523895264,-0.18706241250038147,0.24939563870429993,-0.49954273781263264,-1.1994440101125217,1.7541044584933418,-0.8179684281349182,0.479024201631546,-0.3185330629348755,1.148941159248352,-2.17618727684021,-1.3283121585845947
4.623296022415161,-0.027656376361846924,-0.1632685661315918,0.15321612358093262,-0.46433674321553636,-1.240864449231237,1.7698840793384143,-0.8458940386772156,0.44782987236976624,-0.28967535495758057,1.2603776454925537,-2.427879571914673,-1.3812179565429688
4.6431379318237305,-0.36487019062042236,-0.19113048911094666,0.11189776659011841,-0.43077056296843885,-1.278426491650024,1.782968695706533,-0.8700846433639526,0.417571097612381,-0.26189154386520386,0.9208390712738037,-1.8789408206939697,-1.4958494901657104
4.661813020706177,-0.3594934940338135,-0.16886374354362488,0.11221089959144592,-0.39961482667492454,-1.310209129178599,1.7883180842118593,-0.8901098966598511,0.3890635371208191,-0.23734815418720245,0.5214841961860657,-1.7306499481201172,-1.4095507860183716
4.683954954147339,-0.36055123805999756,-0.07584202289581299,0.02277231216430664,-0.3705166152388519,-1.345206700638275,1.794118871730725,-0.9085222482681274,0.36209702491760254,-0.20850218832492828,0.6807798743247986,-1.7616244554519653,-1.2419493198394775
4.704843997955322,-0.6856663823127747,0.002267807722091675,0.009985387325286865,-0.34625414532316917,-1.3704300254601902,1.8032436446132722,-0.9218317866325378,0.33937665820121765,-0.187216117978096,0.7234410643577576,-1.1243962049484253,-0.9587976932525635
4.725414991378784,-0.5549201965332031,0.04097622632980347,0.02004052698612213,-0.3294856214044633,-1.3831097983285505,1.8148015702506126,-0.9295920729637146,0.3235563635826111,-0.17654985189437866,0.5717371106147766,-0.5955647826194763,-0.47083646059036255
4.745273113250732,-0.4054883122444153,-0.08688828349113464,-0.06110358238220215,-0.3216704159861075,-1.393224724216005,1.8244745320052764,-0.9337908625602722,0.3161517381668091,-0.16757981479167938,0.4086904227733612,-0.6440730690956116,-0.09792660921812057
4.760987043380737,-0.39922958612442017,-0.16101232171058655,0.017549633979797363,-0.3216349060274429,-1.4024252932636214,1.8280140696520608,-0.9353041052818298,0.316118061542511,-0.1589832901954651,0.032831933349370956,-0.5558490753173828,0.04462491720914841
4.78068995475769,-0.43824487924575806,-0.156675785779953,0.01643545925617218,-0.32488231217074764,-1.4103686772087174,1.8257982008988825,-0.9355190992355347,0.31919726729393005,-0.15138408541679382,-0.34056875109672546,-0.10931478440761566,0.2659488320350647
4.804733991622925,-0.5036035776138306,-0.17430329322814941,-0.026405632495880127,-0.3308173523919198,-1.4145940614341086,1.8187729576400418,-0.9342625737190247,0.32481616735458374,-0.1471325159072876,-0.41514351963996887,-0.02579689770936966,0.28032347559928894
4.8234169483184814,-0.424984335899353,-0.16446039080619812,0.07877218723297119,-0.34022133746428224,-1.415831073525104,1.80827776097604,-0.9313846230506897,0.33369573950767517,-0.14549881219863892,-0.6190512180328369,0.2279399335384369,0.44871801137924194
4.842113971710205,-0.4495946168899536,-0.19072681665420532,0.0830116868019104,-0.3534349809128982,-1.4126982069275882,1.7948872981428954,-0.9264887571334839,0.34612250328063965,-0.14770884811878204,-0.8622688055038452,0.6589665412902832,0.6425781846046448
4.862754821777344,-0.43949151039123535,-0.23125022649765015,0.020281434059143066,-0.36787977157426255,-1.4026299748842594,1.7754582836097144,-0.9199292659759521,0.35963788628578186,-0.1561761498451233,-1.0916270017623901,0.9439016580581665,0.4951576888561249
4.882535934448242,-0.34497392177581787,-0.15303689241409302,-0.04518967866897583,-0.3827091235908369,-1.3908070358227826,1.7548311818158306,-0.9126706719398499,0.37343496084213257,-0.1660681515932083,-1.1072551012039185,0.9685685038566589,0.656004786491394
4.902493953704834,-0.309553325176239,-0.11785399913787842,-0.024059653282165527,-0.3998305153163958,-1.3799632858204862,1.7328953214492764,-0.904405415058136,0.38926222920417786,-0.1747165024280548,-1.096571683883667,0.9207065105438232,0.613521158695221
4.92159104347229,-0.2956410050392151,-0.12349480390548706,0.045088768005371094,-0.4181855217690257,-1.3672188407869195,1.713633967894375,-0.8949564695358276,0.4061030149459839,-0.18475234508514404,-1.0809357166290283,1.1049515008926392,0.9029970765113831
4.941373825073242,-0.25704634189605713,-0.14130893349647522,0.07916057109832764,-0.4410030824669844,-1.3547658780608036,1.6941925202868755,-0.8833039402961731,0.42684680223464966,-0.19384551048278809,-1.2288520336151123,1.004250407218933,0.9041644930839539
4.962430000305176,-0.3130950331687927,-0.12178739905357361,0.08755633234977722,-0.4612416118276678,-1.3441787433496766,1.6733117369385229,-0.872604489326477,0.4450603127479553,-0.20120368897914886,-1.0933468341827393,0.9816988706588745,0.7397842407226562
4.982208013534546,-0.27394139766693115,-0.18000707030296326,0.1487298309803009,-0.4810977994648303,-1.333659315387844,1.651486562520276,-0.8616787791252136,0.46275264024734497,-0.20825430750846863,-1.2285168170928955,1.0532276630401611,0.7184979319572449
5.002197980880737,-0.21681207418441772,-0.21777209639549255,0.1317644715309143,-0.5002136883743351,-1.3244206633495248,1.628924499894789,-0.8509827256202698,0.4796130657196045,-0.21400924026966095,-1.1556371450424194,0.9463090896606445,0.6852573752403259
5.0222320556640625,-0.17931216955184937,-0.14328989386558533,0.16082024574279785,-0.5184906437606223,-1.3163396402567646,1.6066480162608718,-0.8406004905700684,0.49556973576545715,-0.2186356633901596,-1.104063630104065,0.9740625023841858,0.5479551553726196
5.042191028594971,-0.19396495819091797,-0.10643678903579712,0.08904498815536499,-0.5311820375953842,-1.3048560593129133,1.588051676849347,-0.8318986892700195,0.5065528750419617,-0.22660282254219055,-0.8404620289802551,1.0913112163543701,0.31761881709098816
5.062081813812256,-0.1069299578666687,-0.14195358753204346,0.08276201784610748,-0.5411329161697828,-1.2935317796416237,1.5688900409524142,-0.8243901133537292,0.5151073932647705,-0.23461732268333435,-1.06888747215271,1.0200014114379883,0.21375378966331482
5.082298994064331,-0.0772286057472229,-0.18003499507904053,0.09829217195510864,-0.5532419716660996,-1.2874141033890143,1.5412722701420354,-0.8168906569480896,0.5254483222961426,-0.23789472877979279,-1.5103514194488525,1.0690560340881348,0.31400570273399353
5.103533029556274,-0.08653223514556885,-0.1197935938835144,0.08804988861083984,-0.5681791757719669,-1.282540018824445,1.5065880537520933,-0.8081057667732239,0.5380982160568237,-0.239615336060524,-1.6675997972488403,1.2841320037841797,0.22935105860233307
5.122007846832275,-0.03557318449020386,-0.0549471378326416,0.005356967449188232,-0.5779533169655814,-1.2733044376543552,1.4745172152358554,-0.8007915616035461,0.5463108420372009,-0.2455148994922638,-1.1774556636810303,1.360757827758789,0.007533889729529619
5.142524003982544,0.060689330101013184,-0.016161561012268066,-0.018497854471206665,-0.5842357673610215,-1.260691819702082,1.4511348731601976,-0.7943469882011414,0.5515620708465576,-0.254542738199234,-0.9472835063934326,1.1971044540405273,0.006974468473345041
5.162097930908203,0.019617438316345215,-0.0544428825378418,0.014276236295700073,-0.5903911554175528,-1.2495793279647371,1.4284163327044384,-0.7882330417633057,0.5566859841346741,-0.26227715611457825,-1.0926707983016968,1.269538164138794,0.02396700717508793
5.180761814117432,0.016820788383483887,-0.10595053434371948,0.06512290239334106,-0.5990421627975475,-1.2357693515577683,1.4019921277869378,-0.7799585461616516,0.5638516545295715,-0.2715436518192291,-1.258115530014038,1.572813630104065,0.0747487023472786
5.201685905456543,0.11327123641967773,-0.10449892282485962,0.05297112464904785,-0.6082512682031059,-1.220523813747334,1.372209884980337,-0.7708182334899902,0.5714332461357117,-0.2816086709499359,-1.322343349456787,1.6202857494354248,-0.027925685048103333
5.221014022827148,0.1793798804283142,-0.10189002752304077,-0.0030573010444641113,-0.6166622031219469,-1.206991802330966,1.3416145412218607,-0.7624182105064392,0.5783153772354126,-0.29029276967048645,-1.2837772369384766,1.481229305267334,-0.05089864134788513
5.240577936172485,0.15328985452651978,-0.05939680337905884,-0.0004347860813140869,-0.6237154586744031,-1.1939152025549244,1.31325422327108,-0.7547454833984375,0.5840550661087036,-0.2987288534641266,-1.1772692203521729,1.542964220046997,-0.1356315314769745
5.261783123016357,0.11270153522491455,-0.0731806755065918,0.005079746246337891,-0.629146433953814,-1.1799078623716097,1.283369175209758,-0.747543454170227,0.5884548425674438,-0.30805808305740356,-1.2857205867767334,1.6230133771896362,-0.24772921204566956
5.280576944351196,0.14983558654785156,-0.08620506525039673,0.011744141578674316,-0.6348306142996109,-1.166164116545953,1.2500370426945522,-0.7401523590087891,0.5930411219596863,-0.31698077917099,-1.4408873319625854,1.7160531282424927,-0.2552323043346405
5.301547050476074,0.16615056991577148,-0.03876262903213501,-0.008418172597885132,-0.641133362147884,-1.1540677480869854,1.2128172003082212,-0.7328314781188965,0.5981041193008423,-0.32439109683036804,-1.5286160707473755,1.7456567287445068,-0.3827435076236725
5.320446014404297,0.16691642999649048,0.024294614791870117,-0.06378364562988281,-0.6452423852342125,-1.1427410711804702,1.1747063788307108,-0.726868212223053,0.6013920903205872,-0.33164769411087036,-1.4118313789367676,1.6785141229629517,-0.44919052720069885
5.341223955154419,0.17596757411956787,0.04045403003692627,-0.06901508569717407,-0.647593122849866,-1.129860503426338,1.1393450847794526,-0.7212557196617126,0.603268563747406,-0.340378075838089,-1.3020025491714478,1.7359404563903809,-0.4962974190711975
5.362785816192627,0.23995441198349,0.001774907112121582,-0.02666550874710083,-0.6499077613380814,-1.1163267876701002,1.104698718631378,-0.7153267860412598,0.6051129698753357,-0.34949398040771484,-1.3788630962371826,1.7587482929229736,-0.41273966431617737
5.380573987960815,0.2980707287788391,-0.02535802125930786,-0.002915292978286743,-0.6582365181366545,-1.1007178614286066,1.0695698506290265,-0.7052667737007141,0.6117227673530579,-0.35832110047340393,-1.6076503992080688,1.911293864250183,-0.0821775570511818
5.401199817657471,0.24819540977478027,0.11321312189102173,-0.09436985850334167,-0.6704970692617833,-1.0869328401461722,1.0283759202659095,-0.6935688853263855,0.6213755011558533,-0.3644922375679016,-1.6867507696151733,1.9678539037704468,-0.4326501488685608
5.420004844665527,0.2872377634048462,0.10966181755065918,-0.1573246419429779,-0.6759176651513763,-1.0740460628737722,0.9869313536629578,-0.6858431100845337,0.6256135106086731,-0.3717889189720154,-1.4271320104599,1.9114928245544434,-0.5202766060829163
5.441723823547363,0.3560221195220947,-0.013503491878509521,-0.08122318983078003,-0.6856525412333035,-1.0591460210992716,0.9505758472065051,-0.674885094165802,0.6331782341003418,-0.37896645069122314,-1.5103545188903809,1.9284236431121826,0.06166379898786545
5.4609761238098145,0.26715439558029175,0.022097527980804443,-0.07442218065261841,-0.7065893272838023,-1.0341767239161146,0.9235471516237563,-0.653674840927124,0.6492434740066528,-0.38883447647094727,-1.6861356496810913,2.2047109603881836,0.5002937912940979
5.481137990951538,0.05243808031082153,0.3267495036125183,-0.26593878865242004,-0.7236940437721725,-1.016633698843398,0.8859738634068244,-0.6372159123420715,0.6621573567390442,-0.39433932304382324,-1.3855959177017212,2.007316827774048,-0.4031117260456085
5.5009331703186035,0.15520447492599487,0.3354299068450928,-0.21370583772659302,-0.7299037294940726,-1.0016726275576389,0.8527381375290268,-0.6277691721916199,0.6667978763580322,-0.40160462260246277,-0.9912187457084656,1.7714260816574097,-0.3208326995372772
5.520838975906372,0.26240915060043335,0.22865688800811768,-0.09026342630386353,-0.7364437513732482,-0.9834852042325347,0.8299074377866987,-0.6167182922363281,0.6716575026512146,-0.41052982211112976,-0.8208606243133545,1.5462620258331299,-0.107454814016819
5.539268970489502,0.23163050413131714,0.22901785373687744,-0.08509346842765808,-0.7425849307805855,-0.968101163849743,0.8116097701372852,-0.6069204807281494,0.6761945486068726,-0.4176224172115326,-0.61372309923172,1.1939737796783447,-0.1589748114347458
5.5593438148498535,0.2347562313079834,0.23485547304153442,-0.09037905931472778,-0.7463698923045169,-0.9537786149538057,0.801443206790951,-0.5987852215766907,0.6789781451225281,-0.4247880280017853,-0.26005256175994873,0.8859127759933472,0.06972864270210266
5.581107139587402,0.1803259253501892,0.22169750928878784,-0.0646752119064331,-0.7504788699073072,-0.9392619986672284,0.8010368438102312,-0.590299129486084,0.6819890737533569,-0.4317845404148102,-0.06763829290866852,0.5806044936180115,0.2012656331062317
5.600502967834473,0.07537996768951416,0.23584872484207153,-0.04500538110733032,-0.7550700756538089,-0.9256283768246492,0.8068414184134202,-0.5818498134613037,0.6853396892547607,-0.43790462613105774,0.14923320710659027,0.4711405336856842,0.4156026542186737
5.620509147644043,0.035251617431640625,0.26090162992477417,-0.07219195365905762,-0.759903125544209,-0.908120154069081,0.8224968697281302,-0.5714761018753052,0.6888512372970581,-0.44598105549812317,0.4551719129085541,0.18417541682720184,0.6100783348083496
5.640338897705078,0.007586359977722168,0.21310210227966309,-0.03723299503326416,-0.7631622070406281,-0.8912484415159683,0.8459097680455439,-0.5621213316917419,0.6912100911140442,-0.4541456401348114,0.6598139405250549,-0.10229096561670303,0.6959080100059509
5.660660982131958,-0.019694149494171143,0.09310555458068848,0.030654430389404297,-0.7654471207202577,-0.8753343560657396,0.8743643770475962,-0.5536091327667236,0.6928594708442688,-0.46202024817466736,0.7990472912788391,-0.23476210236549377,0.7884158492088318
5.680977821350098,-0.030938327312469482,0.012162923812866211,0.11759835481643677,-0.7684490669582883,-0.8566274412556234,0.9060436261942091,-0.5432957410812378,0.6950209736824036,-0.47093072533607483,0.7567842602729797,-0.11987900733947754,0.8796560168266296
5.700484991073608,-0.052295982837677,-0.05269324779510498,0.10251706838607788,-0.7710928064847482,-0.8361247266231177,0.9378937438832184,-0.5321614742279053,0.6969193816184998,-0.48073652386665344,0.7771371006965637,-0.026371872052550316,0.8335013389587402
5.720090866088867,-0.020761430263519287,-0.10276567935943604,0.12148725986480713,-0.7721049769519504,-0.8140250553824792,0.9692833113370573,-0.5208951234817505,0.6976448893547058,-0.4918941855430603,0.8241980671882629,0.01948438584804535,0.7666072845458984
5.7393479347229,0.03042435646057129,-0.16899901628494263,0.161024808883667,-0.7715230401059421,-0.7913583797461358,1.0009096944175095,-0.5099014043807983,0.6972278356552124,-0.5038591027259827,0.8695821762084961,0.04564683511853218,0.7709691524505615
5.759382963180542,0.054762691259384155,-0.16497647762298584,0.15633147954940796,-0.7687464394207967,-0.7681588191288543,1.0332564549390884,-0.4994191527366638,0.6952347755432129,-0.5169423222541809,0.9111231565475464,-0.027917660772800446,0.6290000081062317
5.779324054718018,0.05442231893539429,-0.18326598405838013,0.2212352156639099,-0.7644589690645579,-0.7511097468047626,1.0588602084972045,-0.49256324768066406,0.6921465992927551,-0.5275552272796631,0.6700397729873657,-0.009592183865606785,0.4372400939464569
5.799906015396118,0.06607407331466675,-0.1890544295310974,0.2339269518852234,-0.7623755160712501,-0.736093932607344,1.0787701285102356,-0.48555347323417664,0.6906413435935974,-0.5359592437744141,0.43200334906578064,0.10246343165636063,0.4727126657962799
5.819638967514038,0.059799522161483765,-0.11811679601669312,0.21236824989318848,-0.7629460633412563,-0.7240568500155782,1.0930799516618945,-0.4788059592247009,0.6910538673400879,-0.5414696335792542,0.26392892003059387,0.10681751370429993,0.35415923595428467
5.839974880218506,0.05287107825279236,-0.077481210231781,0.1867985725402832,-0.7634931743801694,-0.7129278415843768,1.1055674837567944,-0.47250309586524963,0.6914492249488831,-0.5464785695075989,0.282143771648407,0.1428476870059967,0.34465447068214417
5.861946105957031,0.04547983407974243,-0.022036612033843994,0.14454346895217896,-0.7617073638975536,-0.7024311855371198,1.1166336638236327,-0.4675379991531372,0.6901580095291138,-0.5523496866226196,0.3585577607154846,0.1452053040266037,0.14603351056575775
5.881346940994263,0.06993299722671509,-0.02370607852935791,0.1604149341583252,-0.7580535784744249,-0.6931350108147809,1.1250495217977312,-0.46399128437042236,0.687509298324585,-0.5586081743240356,0.30217602849006653,0.20443658530712128,0.10961058735847473
5.899280071258545,0.08895069360733032,-0.06858688592910767,0.1509486436843872,-0.7563803553492917,-0.683768115842339,1.1319603798908522,-0.4594646692276001,0.6862933039665222,-0.5638207793235779,0.12748898565769196,0.19249895215034485,0.14567600190639496
5.919327974319458,0.09312745928764343,-0.03618776798248291,0.12367117404937744,-0.7568145022565538,-0.6796884406102766,1.1345396936836436,-0.4569733440876007,0.6866089701652527,-0.5654587745666504,-0.04869074001908302,0.07754911482334137,0.04601329565048218
5.9392499923706055,0.0658082365989685,-0.025980353355407715,0.12257331609725952,-0.759063498216877,-0.6776159174206828,1.1346513261476923,-0.4548311233520508,0.6882423162460327,-0.5652000904083252,-0.11290693283081055,0.15296326577663422,0.1131390929222107
5.959262847900391,0.02763998508453369,0.059272706508636475,0.09722304344177246,-0.7627477211227569,-0.6765594729944174,1.1316808976777613,-0.45264312624931335,0.6909105181694031,-0.5636993646621704,-0.2856278419494629,0.13349875807762146,-0.12781333923339844
5.979311943054199,-0.01214560866355896,0.12554693222045898,0.029214680194854736,-0.7641342745480537,-0.6823448986134616,1.1204454221915914,-0.4552921950817108,0.6919122338294983,-0.5603271722793579,-0.34459540247917175,0.0844498872756958,-0.33123859763145447
5.999258041381836,-0.03126722574234009,0.11423438787460327,-0.02530759572982788,-0.7645227868673276,-0.6871751014293958,1.1088982521638406,-0.4578228294849396,0.6921926736831665,-0.5579136610031128,-0.25902479887008667,0.2157716006040573,-0.2685486674308777
6.0193140506744385,-0.04590091109275818,0.14175617694854736,-0.06315875053405762,-0.7653123979889521,-0.6910322043125847,1.098266273311473,-0.4596228301525116,0.6927623152732849,-0.5557222366333008,-0.2599460780620575,0.14043983817100525,-0.3088305592536926
6.0392889976501465,-0.1121445894241333,0.1997758150100708,-0.12484705448150635,-0.7642682834050504,-0.6956068211795664,1.0873282289955233,-0.46262356638908386,0.6920089721679688,-0.5541688799858093,-0.1605808287858963,0.16871541738510132,-0.36180466413497925
6.059268951416016,-0.20684698224067688,0.3038374185562134,-0.18817764520645142,-0.7607699611271972,-0.6991823660664616,1.0758505944130383,-0.46615731716156006,0.6894793510437012,-0.5543607473373413,-0.09924894571304321,0.28759118914604187,-0.5293058156967163
6.0792670249938965,-0.25463995337486267,0.3386264443397522,-0.24918603897094727,-0.7562517070588529,-0.7015625560928229,1.060930191721203,-0.4694812297821045,0.6861997246742249,-0.5556234121322632,-0.3228854835033417,0.5097917318344116,-0.526928186416626
6.099264144897461,-0.185262531042099,0.24045222997665405,-0.20015549659729004,-0.7603068382051775,-0.7009471251812732,1.0431269253836781,-0.46734070777893066,0.6891438364982605,-0.5537810921669006,-0.8053675889968872,0.7796555161476135,-0.20964373648166656
6.119265079498291,-0.09300181269645691,0.12138432264328003,-0.1339484453201294,-0.7733646098185367,-0.6945840190251349,1.0263049783420888,-0.45800840854644775,0.6985467672348022,-0.5497825145721436,-0.9041440486907959,1.0224950313568115,0.10887465626001358
6.139490127563477,-0.058455199003219604,-0.039879441261291504,-0.09667378664016724,-0.7883068051065718,-0.6801418937656143,1.0163863408249776,-0.44340649247169495,0.7091605067253113,-0.5481624603271484,-0.6639497876167297,1.089656949043274,0.24377252161502838
6.159296989440918,-0.06611186265945435,-0.2067103385925293,-0.02852267026901245,-0.7990001802969137,-0.6612457900559008,1.0121292824610695,-0.4282882511615753,0.7166591286659241,-0.5504261255264282,-0.36442020535469055,1.0896801948547363,0.1633455604314804
6.179295063018799,-0.10753712058067322,-0.2934386134147644,0.022597789764404297,-0.8036017442421258,-0.64129369543104,1.0101214804771017,-0.41524434089660645,0.7198607921600342,-0.5562127828598022,-0.1091843917965889,1.0650100708007812,-0.00443431967869401
6.199335098266602,-0.18840697407722473,-0.3073815703392029,0.07423752546310425,-0.8043662288964413,-0.6223641582864156,1.0051526585806994,-0.40432074666023254,0.7203912138938904,-0.5635256767272949,-0.22397835552692413,1.2202895879745483,-0.25983569025993347
6.219297885894775,-0.24008911848068237,-0.31263846158981323,0.11991506814956665,-0.8065360813624275,-0.6069994616184735,0.9889539150306792,-0.3947223722934723,0.7218944430351257,-0.568385899066925,-0.6064372062683105,1.4657738208770752,-0.5294130444526672
6.23929500579834,-0.20422011613845825,-0.2671229839324951,0.13657653331756592,-0.8125104653249088,-0.5952791066619386,0.9622947064394928,-0.3856084942817688,0.7260158658027649,-0.5693919062614441,-0.9261081218719482,1.6154509782791138,-0.6225107908248901
6.25929594039917,-0.1594926118850708,-0.18406111001968384,0.11624854803085327,-0.8221555057432139,-0.5862031590596111,0.9301153579525245,-0.37653350830078125,0.7326146364212036,-0.5670082569122314,-1.0567114353179932,1.634926676750183,-0.6760945320129395
6.279295921325684,-0.11747020483016968,-0.12403368949890137,0.091530442237854,-0.8318242808381268,-0.5794720559148503,0.8957833956910586,-0.3688122630119324,0.7391613125801086,-0.5635762214660645,-1.0208104848861694,1.5623210668563843,-0.7204379439353943
6.2992939949035645,-0.05519223213195801,-0.11262071132659912,0.11378425359725952,-0.8402007947316857,-0.5737574985358552,0.8625976246109589,-0.36221209168434143,0.7447771430015564,-0.5604546666145325,-0.8939330577850342,1.4854083061218262,-0.6795114874839783
6.3193278312683105,0.006875216960906982,-0.14050787687301636,0.13952535390853882,-0.8473316312083666,-0.5678180976210145,0.8323711703280361,-0.35601168870925903,0.7495166659355164,-0.5581042766571045,-0.8107762336730957,1.3609346151351929,-0.6391021013259888
6.338624954223633,0.06550002098083496,-0.1527615785598755,0.11605143547058105,-0.8534626840048022,-0.5658213614556131,0.8028093443576466,-0.3524264097213745,0.7535611987113953,-0.5549245476722717,-0.7457263469696045,1.054395318031311,-0.6864421367645264
6.359370946884155,0.11672759056091309,-0.13561993837356567,0.07919126749038696,-0.8574785159417757,-0.5702409045235414,0.7731885331888119,-0.3532389998435974,0.756195068359375,-0.5508098006248474,-0.6472002267837524,0.714815616607666,-0.7225645780563354
6.37945294380188,0.13149142265319824,-0.10241323709487915,0.049346208572387695,-0.8599248217809031,-0.5804166205750327,0.7450802431752198,-0.3578099012374878,0.7577934861183167,-0.5456381440162659,-0.5317302942276001,0.42269185185432434,-0.6781158447265625
6.399346828460693,0.12194490432739258,-0.07580876350402832,0.006247520446777344,-0.8608244301965245,-0.5918496355950128,0.7210459872383075,-0.36364424228668213,0.7583801746368408,-0.540945827960968,-0.45393165946006775,0.25686267018318176,-0.5683834552764893
6.419331073760986,0.11792823672294617,-0.058637261390686035,-0.04709339141845703,-0.8630195407683183,-0.6041939954132367,0.6998893744717282,-0.3693474233150482,0.7598091959953308,-0.5350445508956909,-0.4866800606250763,0.12868615984916687,-0.46245789527893066
6.4393110275268555,0.11820286512374878,-0.03339242935180664,-0.121856689453125,-0.8661127353110307,-0.6167169083837085,0.6812133115411245,-0.37465745210647583,0.7618165612220764,-0.528457522392273,-0.41730013489723206,0.007979885675013065,-0.3797608017921448
6.4594409465789795,0.13050752878189087,-0.00011771917343139648,-0.15360021591186523,-0.8678648412702157,-0.6292149777541106,0.6662390328531697,-0.3804466128349304,0.7629503607749939,-0.5226539373397827,-0.26842188835144043,-0.098191998898983,-0.2889162003993988
6.479299068450928,0.15019941329956055,-0.0028606653213500977,-0.16511589288711548,-0.8675995827673647,-0.638078826635626,0.6573135660136715,-0.3851848840713501,0.7627788782119751,-0.51942378282547,-0.09114543348550797,-0.051906973123550415,-0.21437384188175201
6.4993109703063965,0.1807619035243988,-0.018510043621063232,-0.1735493540763855,-0.8662226469303824,-0.6439859354687983,0.6490873168271231,-0.38887664675712585,0.7618877291679382,-0.517978847026825,-0.1531544178724289,0.02761581726372242,-0.2957594394683838
6.519349098205566,0.17381927371025085,-0.002475559711456299,-0.2035863995552063,-0.8664621174891584,-0.6522977101461186,0.6386199714307492,-0.3930576741695404,0.7620428204536438,-0.5145836472511292,-0.2602812349796295,-0.0437333770096302,-0.17754194140434265
6.539299964904785,0.12702760100364685,0.04300206899642944,-0.2795242667198181,-0.8704675941687067,-0.6593806581143822,0.6278178747492845,-0.3948194682598114,0.7646303772926331,-0.5093702077865601,-0.49376097321510315,0.1615239828824997,-0.1613321453332901
6.5593039989471436,0.13339829444885254,0.11911505460739136,-0.36588162183761597,-0.8754986670760097,-0.6617421374976094,0.6215757506861393,-0.3936522901058197,0.7678630352020264,-0.5053950548171997,-0.1309719830751419,0.1308034509420395,0.135573148727417
6.579293966293335,0.11877864599227905,0.14580363035202026,-0.35381656885147095,-0.87759598926597,-0.6563595865804642,0.6240961752819606,-0.3899427056312561,0.7692049145698547,-0.5062296390533447,0.04511234536767006,0.11403655260801315,0.08805269747972488
6.59933614730835,0.11019295454025269,0.15201175212860107,-0.33826565742492676,-0.8793683650217908,-0.652074047915174,0.6373004607522782,-0.3869417607784271,0.7703362703323364,-0.5068117380142212,-0.03296951577067375,-0.09396911412477493,0.4018316864967346
6.619307041168213,0.05591878294944763,0.13141781091690063,-0.2517244815826416,-0.8860635912286209,-0.6530690364813171,0.6417281325682248,-0.3843033015727997,0.7745881080627441,-0.5023189187049866,-0.31206607818603516,-0.34536993503570557,0.3045971095561981
6.6392951011657715,0.09449082612991333,0.23380571603775024,-0.24679097533226013,-0.8975048853264626,-0.6617684468301541,0.6455586587997483,-0.3831872045993805,0.7817735075950623,-0.49193263053894043,-0.25962331891059875,-0.8476861119270325,0.6573858857154846
6.659305095672607,0.024405747652053833,0.43647241592407227,-0.2974570393562317,-0.9040913223598085,-0.6485067102608846,0.6844315834125223,-0.37351173162460327,0.7858635783195496,-0.49285656213760376,1.2625142335891724,-0.6131589412689209,1.6305902004241943
6.679321050643921,-0.13140273094177246,0.5780949592590332,-0.1746068000793457,-0.8901890545234813,-0.5925507976003646,0.761833810937982,-0.3514312505722046,0.7771907448768616,-0.5219873189926147,2.4335556030273438,0.003479765262454748,1.2189507484436035
6.6992950439453125,-0.0834716260433197,0.3042606711387634,0.040267765522003174,-0.858434517454791,-0.5403039080359233,0.8276808383497846,-0.33622145652770996,0.7568202614784241,-0.5605159401893616,2.3903489112854004,0.2816203236579895,0.8621336817741394
6.719305038452148,0.11599132418632507,-0.08371973037719727,0.2833400368690491,-0.8387144616630288,-0.5024238727020933,0.8763489443034391,-0.3218782842159271,0.7437844276428223,-0.5858148336410522,0.9486902356147766,-0.24322544038295746,0.9674028158187866
6.739374160766602,0.18584448099136353,-0.27009427547454834,0.3228616714477539,-0.8395422083094354,-0.48499533598295425,0.9110729556654771,-0.3113328814506531,0.7443374991416931,-0.5907906293869019,0.18911726772785187,-0.5869900584220886,1.116722822189331
6.7592949867248535,0.11243066191673279,-0.09799748659133911,0.28024381399154663,-0.8476553364788602,-0.47599640070108096,0.9427695472035638,-0.30322664976119995,0.7497308850288391,-0.5881812572479248,0.20766644179821014,-0.8707683682441711,1.0715445280075073
6.7793049812316895,0.00899893045425415,0.017258167266845703,0.21781086921691895,-0.8471161354028519,-0.46886314329497597,0.976616934427965,-0.2992059588432312,0.7493739724159241,-0.5906897783279419,0.8811438083648682,-0.9829060435295105,0.9053987264633179
6.799296855926514,-0.04885247349739075,0.004509031772613525,0.2266063690185547,-0.8335664254626562,-0.45951568286129746,1.0166100784315504,-0.2981477677822113,0.7403335571289062,-0.6025065183639526,1.4284374713897705,-1.0807528495788574,0.8805988430976868
6.8192949295043945,-0.1119166910648346,0.002749323844909668,0.26469695568084717,-0.8150132829538925,-0.45272982108791787,1.05704476879423,-0.30000966787338257,0.7277346849441528,-0.6167628169059753,1.393576979637146,-1.2151819467544556,0.7360512018203735
6.839321136474609,-0.17908084392547607,0.056266605854034424,0.26820772886276245,-0.7976783075188291,-0.45284310499413494,1.0904449514564125,-0.3055536448955536,0.7157366275787354,-0.6279792785644531,1.1627037525177002,-1.1823574304580688,0.6055540442466736
6.859291076660156,-0.21980279684066772,0.10564815998077393,0.26751255989074707,-0.7847358229132655,-0.45515419867691265,1.11776121800619,-0.31105056405067444,0.7066382765769958,-0.635539174079895,0.8537214994430542,-0.9778149127960205,0.5684547424316406
6.8792948722839355,-0.21581965684890747,0.06490868330001831,0.27383702993392944,-0.7778136875316226,-0.4560034894218759,1.1407080734063175,-0.3137367069721222,0.7017234563827515,-0.6396510004997253,0.4848373830318451,-0.7357777953147888,0.6094773411750793
6.899293899536133,-0.17966002225875854,0.024334311485290527,0.2535320520401001,-0.776402899455779,-0.45527009856268125,1.160551912690598,-0.3137025237083435,0.7007176280021667,-0.6407694816589355,0.3087458908557892,-0.5964041948318481,0.5799123048782349
6.919325828552246,-0.1458854377269745,-0.024263620376586914,0.2531778812408447,-0.7758024426081143,-0.45458783702956274,1.1770647566743022,-0.31345000863075256,0.7002891302108765,-0.6413613557815552,0.26984450221061707,-0.5037875175476074,0.44116470217704773
6.939265012741089,-0.09189942479133606,-0.10905778408050537,0.27270299196243286,-0.7753336877662117,-0.45588627664465164,1.1881301661710701,-0.3144269287586212,0.6999544501304626,-0.641248345375061,0.10717914998531342,-0.4228643774986267,0.24144762754440308
6.959296941757202,-0.022929489612579346,-0.1799296736717224,0.2846107482910156,-0.7759890500322802,-0.46209261388058515,1.1921419223991356,-0.3181961178779602,0.7004223465919495,-0.6388738751411438,-0.03764002025127411,-0.4681118130683899,0.07613089680671692
6.979319095611572,0.02382981777191162,-0.1852811574935913,0.2837931513786316,-0.778165876954103,-0.47147361036432567,1.192125106199886,-0.3234819769859314,0.7019743323326111,-0.6345009207725525,-0.1380792111158371,-0.4780477285385132,0.026193270459771156
6.999305009841919,0.015709370374679565,-0.1566717028617859,0.23846322298049927,-0.7808485321367004,-0.48300818923450983,1.189514238929898,-0.32990315556526184,0.7038823962211609,-0.6290575265884399,-0.1818498820066452,-0.48233067989349365,-0.07729337364435196
7.019300937652588,-0.001302182674407959,-0.074471116065979,0.19354522228240967,-0.7828033305373104,-0.4964974763652823,1.1831080758541364,-0.3377024233341217,0.7052695751190186,-0.6233394145965576,-0.2013588398694992,-0.42647799849510193,-0.23243063688278198
7.039299011230469,0.01738983392715454,0.0165594220161438,0.13922816514968872,-0.7838633263772958,-0.5115158027458512,1.1724556897355387,-0.3466593325138092,0.7060206532478333,-0.6175453066825867,-0.24209241569042206,-0.32613852620124817,-0.3562188744544983
7.059298038482666,0.05588275194168091,-0.012234508991241455,0.07749289274215698,-0.7848988131708694,-0.5260485481035183,1.1609669333649915,-0.3552297353744507,0.7067536115646362,-0.6118097305297852,-0.3033254146575928,-0.3150796592235565,-0.2915000319480896
7.0792951583862305,0.06739562749862671,0.01516801118850708,0.04558229446411133,-0.7873206368068715,-0.5403060866607735,1.1493672594809574,-0.363034725189209,0.7084648609161377,-0.605213463306427,-0.3015693128108978,-0.2946866750717163,-0.30492347478866577
7.0992960929870605,0.04645147919654846,0.09700953960418701,-0.0074343085289001465,-0.7883899745823338,-0.5536600300181461,1.137640646104887,-0.37068554759025574,0.7092191576957703,-0.5996668934822083,-0.22220014035701752,-0.20713862776756287,-0.337400883436203
7.119295120239258,0.03689059615135193,0.08024132251739502,-0.03637164831161499,-0.7885830317707528,-0.564670377703136,1.1264602878814403,-0.3771921992301941,0.7093552350997925,-0.5954335927963257,-0.24703527987003326,-0.10117163509130478,-0.3278781771659851
7.139297008514404,0.03101375699043274,0.0874817967414856,-0.0579756498336792,-0.790218718916089,-0.5751416685279779,1.113636864912373,-0.3827747106552124,0.7105072140693665,-0.590476930141449,-0.3498261570930481,-0.051750555634498596,-0.35232511162757874
7.159296989440918,-0.0025271475315093994,0.1415008306503296,-0.09610271453857422,-0.7928200511204705,-0.5848583559680047,1.0993750623158183,-0.38747236132621765,0.7123353481292725,-0.585186779499054,-0.4194973111152649,0.11857768148183823,-0.3439651429653168
7.179295063018799,-0.043051958084106445,0.16268259286880493,-0.1270921230316162,-0.7969340465582271,-0.592113501390364,1.0832677216073685,-0.3900688588619232,0.7152166366577148,-0.579923689365387,-0.5574346780776978,0.2972438335418701,-0.36952030658721924
7.199386119842529,-0.004987567663192749,0.12755811214447021,-0.13289272785186768,-0.8027571013046674,-0.5977186861607319,1.0655650274751367,-0.3909628391265869,0.7192742824554443,-0.5742756724357605,-0.5825357437133789,0.39166566729545593,-0.311147540807724
7.219310998916626,0.02716773748397827,0.10879635810852051,-0.15576601028442383,-0.8081659399889994,-0.6003714126190544,1.0508302649395314,-0.3902813196182251,0.723021388053894,-0.5700181722640991,-0.43595564365386963,0.4044110178947449,-0.25246211886405945
7.239306926727295,-0.026151806116104126,0.12403726577758789,-0.1926654577255249,-0.81122266846775,-0.602429795659122,1.0366606287542552,-0.39019960165023804,0.7251296639442444,-0.5673899054527283,-0.3868578374385834,0.3916856646537781,-0.40623781085014343
7.259303092956543,-0.08559104800224304,0.15232700109481812,-0.23350542783737183,-0.8118433790637217,-0.6083977085506445,1.0184530567671097,-0.39332136511802673,0.7255569696426392,-0.5646815896034241,-0.3789130449295044,0.3392019271850586,-0.5922326445579529
7.279294967651367,-0.16703873872756958,0.291614294052124,-0.282289981842041,-0.8109274485243072,-0.6166379163505538,0.9967290385583836,-0.3983452618122101,0.7249263525009155,-0.5619634389877319,-0.34357479214668274,0.5070328712463379,-0.6287642121315002
7.299306869506836,-0.21292555332183838,0.3303055763244629,-0.23783421516418457,-0.8090978702970928,-0.6125121769437588,0.9811189223993968,-0.3967852294445038,0.7236648797988892,-0.5646863579750061,-0.1488257199525833,1.019402027130127,-0.28231313824653625
7.3192949295043945,-0.07387244701385498,0.1385069489479065,-0.07538878917694092,-0.8136791559905896,-0.593902359235609,0.9742484101334724,-0.38434910774230957,0.7268190383911133,-0.569218635559082,-0.4955129325389862,1.2924941778182983,0.09121666848659515
7.33932900428772,0.019686132669448853,-0.12337625026702881,0.016921043395996094,-0.8267391501698735,-0.5728655741030708,0.968309149371343,-0.3671135902404785,0.7357267737388611,-0.5691516995429993,-0.8126909732818604,1.2179685831069946,0.27977636456489563
7.359264850616455,-0.032220810651779175,-0.2555493116378784,0.0646703839302063,-0.8447390143943042,-0.5554735637477726,0.961310049006859,-0.3501187562942505,0.7477978467941284,-0.5641056299209595,-0.9117065668106079,1.0655395984649658,0.2235655039548874
7.3792948722839355,-0.16681548953056335,-0.29937469959259033,0.0786893367767334,-0.8597627594855514,-0.5441767467334224,0.9483781548743645,-0.3378690779209137,0.7576877474784851,-0.5583492517471313,-0.7861781120300293,1.0824213027954102,-0.19333447515964508
7.399389982223511,-0.21759110689163208,-0.2518434524536133,0.12501156330108643,-0.8670649331383007,-0.5378131728014546,0.9266342485142185,-0.3314659893512726,0.7624330520629883,-0.5557212233543396,-0.5538302063941956,1.214724063873291,-0.6064408421516418
7.41933798789978,-0.15308141708374023,-0.19502419233322144,0.16212540864944458,-0.8687951000779323,-0.5348724370122065,0.8984822806549049,-0.32915744185447693,0.7635514140129089,-0.5555578470230103,-0.5483436584472656,1.1884387731552124,-0.8338659405708313
7.439368963241577,-0.08847305178642273,-0.18243998289108276,0.17107915878295898,-0.8692272305077513,-0.5345756016827173,0.868623279129073,-0.3288244307041168,0.7638304233551025,-0.5553716421127319,-0.5234947204589844,1.1410784721374512,-0.7836300134658813
7.459323883056641,-0.052887141704559326,-0.12967199087142944,0.17989516258239746,-0.8717084756871236,-0.536492008384205,0.8380935558858114,-0.3289183974266052,0.7654294967651367,-0.5531097650527954,-0.6889488101005554,0.9777548909187317,-0.8112688660621643
7.479298114776611,0.0034344494342803955,-0.09656345844268799,0.13048100471496582,-0.8752773903470233,-0.5446498030142305,0.805051526794864,-0.33200207352638245,0.7677212953567505,-0.548068106174469,-0.6837400794029236,0.734391450881958,-0.7948737740516663
7.49929404258728,0.07541096210479736,-0.06643873453140259,0.10834485292434692,-0.8778949271941483,-0.5552512133420906,0.7754923535019771,-0.3367331326007843,0.7693959474563599,-0.5428082346916199,-0.5154677629470825,0.48874756693840027,-0.6858313679695129
7.519296169281006,0.12839388847351074,-0.07455223798751831,0.1144329309463501,-0.8782706590628121,-0.5664349371772437,0.751135722946706,-0.3426274359226227,0.7696358561515808,-0.5387645363807678,-0.35447925329208374,0.2651055157184601,-0.614531934261322
7.539308071136475,0.15858685970306396,-0.10327744483947754,0.11111468076705933,-0.8773758026217152,-0.5785770785425232,0.7310786731188459,-0.3495202362537384,0.76906418800354,-0.5351410508155823,-0.28613969683647156,0.0722731202840805,-0.5229985117912292
7.55889892578125,0.16665935516357422,-0.09548318386077881,0.08100414276123047,-0.8769032123657067,-0.5937281551234613,0.7119741744617207,-0.35779106616973877,0.7687620520591736,-0.5300854444503784,-0.36277517676353455,-0.12132199853658676,-0.533111035823822
7.579293966293335,0.16318216919898987,-0.05733764171600342,0.0346372127532959,-0.8773588427280933,-0.613357038995379,0.6914258593878437,-0.3679247498512268,0.7690533995628357,-0.5226741433143616,-0.42096278071403503,-0.24582229554653168,-0.505246102809906
7.599319934844971,0.1471489667892456,-0.008935213088989258,-0.0070917606353759766,-0.8795794699164022,-0.6345850949491829,0.6710665796903412,-0.37792301177978516,0.7704708576202393,-0.5133700966835022,-0.5381630659103394,-0.27841731905937195,-0.420716792345047
7.6193060874938965,0.13509607315063477,0.028683602809906006,-0.0506742000579834,-0.8850217428764852,-0.6546122860845912,0.6506580891729511,-0.3855692148208618,0.7739287614822388,-0.5023651719093323,-0.721433162689209,-0.1315574198961258,-0.28921857476234436
7.639297008514404,0.160826176404953,0.016136348247528076,-0.13967028260231018,-0.8957493486997649,-0.6772169846613801,0.6252052857646827,-0.39160022139549255,0.7806776165962219,-0.4870232939720154,-0.9450706243515015,-0.09724471718072891,-0.2226179540157318
7.659304141998291,0.18501043319702148,0.038823723793029785,-0.302254319190979,-0.9073377137659588,-0.6896525017954622,0.6087399561307569,-0.39184343814849854,0.7878669500350952,-0.47510454058647156,-0.6766937971115112,0.20465992391109467,0.0864843800663948
7.679296016693115,0.13034150004386902,0.006071329116821289,-0.3289296627044678,-0.9156941774975517,-0.6933148894091973,0.5985437082788069,-0.38935956358909607,0.7929856777191162,-0.4685860574245453,-0.3658128082752228,0.2901533246040344,-0.061361245810985565
7.699297904968262,0.14440342783927917,-0.006399989128112793,-0.2714907228946686,-0.9182108401120351,-0.6910702544433235,0.5924327046660766,-0.3870335519313812,0.7945164442062378,-0.4679195284843445,-0.06626536697149277,0.37602242827415466,-0.010496912524104118
7.719336986541748,0.1606532335281372,0.034968554973602295,-0.21907567977905273,-0.918735510829769,-0.6835348614562254,0.5942237294078827,-0.38323330879211426,0.7948349118232727,-0.4704993963241577,0.042643580585718155,0.19673116505146027,0.11907481402158737
7.739348888397217,0.115477055311203,0.006829679012298584,-0.22351723909378052,-0.920172919835146,-0.6760404844412451,0.6015329608815927,-0.37898123264312744,0.7957063913345337,-0.4724665582180023,0.12298379838466644,-0.005569034721702337,0.3496131896972656
7.759304046630859,0.08409386873245239,0.0631411075592041,-0.20035603642463684,-0.9232924202133121,-0.6646827646499819,0.6171327396244056,-0.37205785512924194,0.7975919246673584,-0.4747841954231262,0.24656125903129578,-0.10292576998472214,0.5384916067123413
7.779291152954102,0.06545335054397583,0.15110468864440918,-0.1970457136631012,-0.9235762701109362,-0.6507894513967537,0.6379106678487907,-0.3652886748313904,0.7977631092071533,-0.479727178812027,0.48947134613990784,-0.12857253849506378,0.45396772027015686
7.799304962158203,0.015517383813858032,0.1665738821029663,-0.22019988298416138,-0.9195183351884492,-0.6345345778881964,0.6584024660477187,-0.3593590557575226,0.7953097224235535,-0.4882045388221741,0.5283230543136597,0.1458497792482376,0.275828093290329
7.819293022155762,0.005676925182342529,0.139276385307312,-0.238052636384964,-0.9138997708001395,-0.6196874413902167,0.6701390233733936,-0.3546608090400696,0.7918912172317505,-0.4971156418323517,0.3303851783275604,0.3522047996520996,0.016505800187587738
7.839305877685547,0.06899940967559814,0.13105863332748413,-0.2942456007003784,-0.9128900274317449,-0.6119675821400701,0.6767702520011794,-0.3512718677520752,0.7912741899490356,-0.500493049621582,0.015185590833425522,-0.12195707857608795,0.33699914813041687
7.859304904937744,0.011134892702102661,0.13766568899154663,-0.319953978061676,-0.9191037828306334,-0.6093987691962112,0.683762312132005,-0.3471640944480896,0.7950583696365356,-0.4973524212837219,-0.3205207288265228,-0.1777717024087906,0.2461015284061432
7.879333972930908,-0.06422606110572815,0.31261634826660156,-0.25676247477531433,-0.9280731882780102,-0.6142365527533431,0.6929909366878808,-0.3454420268535614,0.8004665374755859,-0.48981937766075134,0.07568034529685974,-0.7451339960098267,0.8748037815093994
7.899293899536133,-0.16805148124694824,0.4803931713104248,-0.23014310002326965,-0.9303571612284056,-0.5903687459694426,0.7369306136613741,-0.3326352834701538,0.8018333911895752,-0.4964039921760559,1.226683497428894,-0.32319945096969604,1.2143397331237793
7.919294834136963,-0.13422012329101562,0.37190377712249756,-0.09018158912658691,-0.9133635653547288,-0.5440091005852027,0.7930014080440801,-0.31628045439720154,0.7915636301040649,-0.5228706002235413,1.7480233907699585,0.4559381306171417,0.6721588969230652
7.939333915710449,0.0794004499912262,0.0023310184478759766,0.18670791387557983,-0.8949867180941526,-0.5096904045475132,0.8337831966325872,-0.30520012974739075,0.7802007794380188,-0.5460217595100403,1.0912911891937256,-0.27153563499450684,0.7183041572570801
7.959301948547363,0.12209835648536682,-0.2308439016342163,0.2862090468406677,-0.8920733046309348,-0.4911479784218685,0.8680410755579399,-0.2960944175720215,0.7783750295639038,-0.5535886287689209,0.17371845245361328,-0.5083677768707275,0.9838971495628357
7.979295015335083,0.012020379304885864,-0.22181463241577148,0.29145127534866333,-0.9031170809884774,-0.48539422582743225,0.8922913174062446,-0.2888759672641754,0.7852607369422913,-0.547646164894104,-0.3204595148563385,-0.7957935333251953,0.834819495677948
7.999332904815674,-0.07035526633262634,-0.10782819986343384,0.234327495098114,-0.9143308810221862,-0.48833237800772183,0.9102515600351871,-0.2863343060016632,0.7921543717384338,-0.5389842391014099,-0.016394920647144318,-0.9211839437484741,0.6913557052612305
8.019296169281006,-0.10695871710777283,-0.01890695095062256,0.22339671850204468,-0.9137177800329592,-0.48819730318660576,0.9346412833682927,-0.286489337682724,0.7917800545692444,-0.5394519567489624,0.7864088416099548,-0.9913444519042969,0.6015808582305908
8.039307117462158,-0.15485167503356934,-0.0360337495803833,0.25755953788757324,-0.8999361361695352,-0.4826376311521921,0.9667793671643953,-0.2885230779647827,0.7832872271537781,-0.5506501793861389,1.2311073541641235,-0.991683304309845,0.48224616050720215
8.0586838722229,-0.20615363121032715,-0.12023919820785522,0.3205605745315552,-0.8825630376160741,-0.480491929190752,0.9944620519552503,-0.2935870885848999,0.772369384765625,-0.5632514953613281,1.0582866668701172,-0.9334819912910461,0.24458086490631104
8.07929515838623,-0.22166374325752258,-0.19164294004440308,0.32724952697753906,-0.8683323207095849,-0.4842918883802873,1.0116230803280637,-0.30081257224082947,0.7632524967193604,-0.5718019604682922,0.7117999196052551,-0.7687590718269348,0.07839100807905197
8.099385023117065,-0.21182510256767273,-0.14093917608261108,0.2584078311920166,-0.8583089367561229,-0.4925214623479155,1.0197317804928763,-0.30911001563072205,0.7567381858825684,-0.5760193467140198,0.4699460566043854,-0.6892510652542114,-0.08449319005012512
8.119326114654541,-0.20594483613967896,-0.040525197982788086,0.18507206439971924,-0.8490514258040133,-0.5028285379008286,1.0229109164530894,-0.3183930516242981,0.7506540417671204,-0.5789165496826172,0.4611913561820984,-0.5686299204826355,-0.1565375030040741
8.139326095581055,-0.22459834814071655,0.007105529308319092,0.16355681419372559,-0.8393465597153602,-0.5108090919014823,1.0247738539414848,-0.326549232006073,0.7442067861557007,-0.582685112953186,0.4274565875530243,-0.35568124055862427,-0.20245230197906494
8.159389972686768,-0.18888193368911743,-0.059795081615448,0.19339925050735474,-0.8328456062970703,-0.5168552872797093,1.0230341705250576,-0.33244994282722473,0.739848792552948,-0.5848938226699829,0.037855230271816254,-0.1274280995130539,-0.20499436557292938
8.179306030273438,-0.10241976380348206,-0.15391594171524048,0.21281659603118896,-0.834918854586476,-0.5251666301218236,1.0135597818031814,-0.3365299105644226,0.7412420511245728,-0.5807821154594421,-0.5241280794143677,-0.046831164509058,-0.2650633454322815
8.199295043945312,-0.006228238344192505,-0.15567547082901,0.1966627836227417,-0.8427571305885383,-0.5399818546962447,0.9960763624170483,-0.34209948778152466,0.7464805841445923,-0.5707318186759949,-0.6850653886795044,-0.13565771281719208,-0.3277263045310974
8.219300031661987,0.04944401979446411,-0.12120354175567627,0.12131494283676147,-0.8494287760739118,-0.5574446017130736,0.9784275278372685,-0.3493708372116089,0.750903308391571,-0.5604321956634521,-0.5075225830078125,-0.29496631026268005,-0.32408565282821655
