timestamp,acceleration_x,acceleration_y,acceleration_z,attitude_pitch,attitude_roll,attitude_yaw,gravity_x,gravity_y,gravity_z,rotation_x,rotation_y,rotation_z
0.0,-0.16547173261642456,-0.07094484567642212,-0.010883033275604248,-0.864113781158666,-0.6976962804907895,1.1050658895124004,-0.4171546995639801,0.7605201005935669,-0.4975854456424713,-0.5054445266723633,0.6642852425575256,-0.028965257108211517
0.019507884979248047,-0.08870798349380493,-0.18103373050689697,0.004362970590591431,-0.8717094549684339,-0.6939520219439278,1.0928686714632034,-0.41158196330070496,0.7654300928115845,-0.4946887195110321,-0.5518767237663269,0.6446007490158081,-0.10825128853321075
0.0396428108215332,-0.021604150533676147,-0.26236313581466675,0.019867241382598877,-0.8774914416482021,-0.6919866355038553,1.0787641757380402,-0.407778263092041,0.7691380977630615,-0.49208080768585205,-0.46495312452316284,0.615446150302887,-0.22288621962070465
0.06002187728881836,0.03594177961349487,-0.31118959188461304,0.025678932666778564,-0.8800713997445169,-0.692994946248555,1.0628330828817698,-0.40700510144233704,0.7707843780517578,-0.49014103412628174,-0.40585756301879883,0.5002171993255615,-0.41759634017944336
0.08005285263061523,0.06871157884597778,-0.3034902811050415,0.026583552360534668,-0.8788847942550863,-0.6995510497715243,1.0428831279782256,-0.41079846024513245,0.7700278162956238,-0.48816174268722534,-0.33320188522338867,0.37922149896621704,-0.6274873614311218
0.09999990463256836,0.08522707223892212,-0.2723543047904968,0.03198233246803284,-0.8749590880341861,-0.710114001126282,1.0200331789566333,-0.4178992509841919,0.7675172686576843,-0.4860837161540985,-0.3421455919742584,0.33740171790122986,-0.7191033959388733
0.11963605880737305,0.1007026731967926,-0.24114906787872314,0.040867745876312256,-0.8721297302212444,-0.7230616549155366,0.9948699791351776,-0.42559289932250977,0.7657005190849304,-0.4822585880756378,-0.5430591702461243,0.299874871969223,-0.6823323965072632
0.14040803909301758,0.10825377702713013,-0.19114118814468384,0.01626870036125183,-0.8730478829894411,-0.7401810969728858,0.9651425310899873,-0.4333118200302124,0.7662907242774963,-0.4743831157684326,-0.806953489780426,0.25839558243751526,-0.6826110482215881
0.16008996963500977,0.12242788076400757,-0.12194442749023438,-0.045296698808670044,-0.8771695699916853,-0.7625457517513775,0.9308866065899802,-0.44162654876708984,0.7689324021339417,-0.4622867703437805,-0.981087863445282,0.13660044968128204,-0.6360801458358765
0.1800699234008789,0.145961195230484,-0.025367796421051025,-0.09672880172729492,-0.8831520124136754,-0.7892900759137212,0.8943519315815289,-0.45055723190307617,0.7727433443069458,-0.44706374406814575,-1.0355396270751953,-0.01015189103782177,-0.6178386807441711
0.19997191429138184,0.15795248746871948,0.08835136890411377,-0.1903107464313507,-0.8864351558534496,-0.8169232582811645,0.8611275038350455,-0.46088531613349915,0.7748230695724487,-0.43270543217658997,-0.6501803994178772,-0.1530064344406128,-0.6025049090385437
0.2196788787841797,0.14688339829444885,0.1914481520652771,-0.24122107028961182,-0.88379528922586,-0.8357049801344104,0.8401546843905036,-0.4704461097717285,0.7731515169143677,-0.42534372210502625,-0.19971831142902374,-0.07492333650588989,-0.48089730739593506
0.2400069236755371,0.14346158504486084,0.18603181838989258,-0.2345624566078186,-0.8799299954912427,-0.8458202433530365,0.8278795551566194,-0.476957768201828,0.7706942558288574,-0.42254188656806946,-0.18559928238391876,-0.02416704222559929,-0.33215126395225525
0.25994300842285156,0.16971907019615173,0.09877890348434448,-0.22285813093185425,-0.8795519398317635,-0.8559313888509169,0.8156750560891641,-0.4814257025718689,0.7704533338546753,-0.4178887605667114,-0.3647463023662567,-0.0517495796084404,-0.22108711302280426
0.2799949645996094,0.20132705569267273,0.10297036170959473,-0.2634260356426239,-0.8818122778807759,-0.865419921119728,0.8051377245173391,-0.4840419590473175,0.7718923091888428,-0.412171870470047,-0.2666926383972168,-0.08057928085327148,-0.03840160369873047
0.2999439239501953,0.2246004045009613,0.12784969806671143,-0.31131988763809204,-0.8841078702664531,-0.8705114580063986,0.8014316804635054,-0.48477810621261597,0.7733497023582458,-0.408559113740921,-0.038979895412921906,-0.17199814319610596,0.038553450256586075
0.31931400299072266,0.22322607040405273,0.11847066879272461,-0.3035777807235718,-0.884388503745549,-0.8731987279639838,0.8041460350214874,-0.4857078194618225,0.7735275626182556,-0.4071153700351715,0.12550798058509827,-0.3351256251335144,0.0812310203909874
0.34000110626220703,0.1878492534160614,0.16743439435958862,-0.2983097732067108,-0.8825394354332198,-0.8775765823502898,0.8097987752296993,-0.4885847866535187,0.7723544239997864,-0.40589842200279236,0.27851688861846924,-0.5179835557937622,-0.001777930767275393
0.3599538803100586,0.1165253221988678,0.2202233076095581,-0.2848283350467682,-0.8770906184541586,-0.88015911223302,0.819139204595694,-0.4928681552410126,0.7688819169998169,-0.4073101580142975,0.5186355113983154,-0.46115848422050476,-0.04647077992558479
0.37997007369995117,0.0889555811882019,0.16330045461654663,-0.24833762645721436,-0.8680354196500618,-0.8791515190569708,0.8319238693132331,-0.49779966473579407,0.7630606293678284,-0.4122304320335388,0.6585766673088074,-0.44053125381469727,-0.14220254123210907
0.3999800682067871,0.10107314586639404,0.07866936922073364,-0.173578143119812,-0.8567402557666446,-0.8757312375614096,0.8461694470208448,-0.5029744505882263,0.7557117342948914,-0.41942399740219116,0.7316818833351135,-0.3275400400161743,-0.12843136489391327
0.4199180603027344,0.12578660249710083,-0.02058422565460205,-0.05137169361114502,-0.8467253711897489,-0.8720471570601686,0.858864703430216,-0.5071953535079956,0.7491151690483093,-0.42612141370773315,0.5117920637130737,-0.3170643448829651,-0.11615607887506485
0.43994593620300293,0.14563888311386108,-0.13981181383132935,0.04019632935523987,-0.8403150080853087,-0.8776749479737823,0.8625690011254857,-0.5132689476013184,0.7448533177375793,-0.42631977796554565,0.0791003480553627,-0.5451443791389465,-0.2338784635066986
0.45917391777038574,0.1367098093032837,-0.1613771915435791,0.06991887092590332,-0.8368071329515452,-0.8974240576239408,0.8536278678566962,-0.5236270427703857,0.7425082325935364,-0.4177275598049164,-0.2524685561656952,-0.7889371514320374,-0.45787739753723145
0.4797389507293701,0.12639188766479492,-0.1334781050682068,0.08206707239151001,-0.8303970010866314,-0.925437346792424,0.8389276820887872,-0.5389133095741272,0.7381992340087891,-0.4057515859603882,-0.1201871931552887,-0.913088858127594,-0.6165992021560669
0.4999399185180664,0.15151375532150269,-0.09794682264328003,0.057880938053131104,-0.8197243638600863,-0.9531984801951873,0.8285852849744552,-0.5563600063323975,0.7309577465057373,-0.3951762616634369,0.22210127115249634,-1.1459490060806274,-0.6955925226211548
0.5199708938598633,0.13813626766204834,-0.08521616458892822,0.06311720609664917,-0.8011413351003469,-0.9777794305559705,0.8282009797925619,-0.5770706534385681,0.718150794506073,-0.38890746235847473,0.8062913417816162,-1.2388125658035278,-0.8364519476890564
0.539496898651123,0.09474283456802368,-0.07273894548416138,0.11130130290985107,-0.7756716175062873,-0.9948415603203187,0.8375678159326306,-0.5987712740898132,0.7001957297325134,-0.388843297958374,1.0751217603683472,-1.15513277053833,-0.9539290070533752
0.560014009475708,0.09364277124404907,-0.08819466829299927,0.15265372395515442,-0.7459213116569101,-1.0104208280055207,0.8484985406234629,-0.6221309304237366,0.6786487698554993,-0.3903702199459076,1.1814579963684082,-1.1827256679534912,-1.1078670024871826
0.5800070762634277,0.1279609203338623,-0.13573294878005981,0.14367634057998657,-0.7153811004122399,-1.0282737150498342,0.858877496247438,-0.6464546322822571,0.6559051275253296,-0.38972413539886475,1.0690215826034546,-1.3294991254806519,-1.1065434217453003
0.6001019477844238,0.09029680490493774,-0.11966073513031006,0.14253449440002441,-0.6845121119454831,-1.051244398236611,0.8656670353744365,-0.67249596118927,0.6322951316833496,-0.3846454918384552,0.9310216307640076,-1.3674371242523193,-1.3454241752624512
0.6200881004333496,0.0052533745765686035,-0.06837242841720581,0.15951842069625854,-0.6497578219880731,-1.075835555264311,0.8671743644710711,-0.7006727457046509,0.6049935817718506,-0.3782072067260742,0.8955769538879395,-1.2079399824142456,-1.6078579425811768
0.6402509212493896,0.012278735637664795,-0.06634384393692017,0.17051148414611816,-0.6120021206994956,-1.0977563261472039,0.8688017288058688,-0.7286179065704346,0.5745073556900024,-0.3729039132595062,0.9934455752372742,-1.080578088760376,-1.6777064800262451
0.6601390838623047,0.04404479265213013,-0.052433550357818604,0.1903870403766632,-0.5722119976240091,-1.1171824649935305,0.8716869344388178,-0.7556841969490051,0.5414929986000061,-0.3684111535549164,0.9947236180305481,-1.0602912902832031,-1.8124945163726807
0.6801228523254395,0.01820218563079834,0.004478394985198975,0.1940080225467682,-0.5291136784876774,-1.1354354385713465,0.8752417379480367,-0.7827284932136536,0.504768431186676,-0.364067018032074,1.1423288583755493,-0.9342034459114075,-1.9377774000167847
0.7000389099121094,-0.010719656944274902,0.029273658990859985,0.18293720483779907,-0.4845187455995325,-1.1504977399644436,0.8784957046481312,-0.8078839182853699,0.4657825529575348,-0.36106815934181213,0.9074195623397827,-0.7606743574142456,-2.035808801651001
0.719998836517334,-0.0014168024063110352,0.04506796598434448,0.18592047691345215,-0.4402709168894959,-1.1666113690814386,0.8754111965642452,-0.8317437171936035,0.4261845648288727,-0.3557659089565277,0.6207176446914673,-0.7268919348716736,-2.095719814300537
0.750208854675293,-0.029595494270324707,0.11040422320365906,0.14635077118873596,-0.36161304235746444,-1.201337484980571,0.8544146446119668,-0.872214138507843,0.35378342866897583,-0.33775684237480164,-0.03803849592804909,-0.5189449191093445,-1.9719841480255127
0.7602889537811279,-0.029595494270324707,0.11040422320365906,0.14635077118873596,-0.36161304235746444,-1.201337484980571,0.8544146446119668,-0.872214138507843,0.35378342866897583,-0.33775684237480164,-0.03803849592804909,-0.5189449191093445,-1.9719841480255127
0.7887558937072754,-0.008424222469329834,0.16082242131233215,0.17992308735847473,-0.301248176080635,-1.2265520213864858,0.8094009348308034,-0.8989396691322327,0.29671239852905273,-0.322287380695343,-1.058883547782898,-0.11874894052743912,-1.5525462627410889
0.8083958625793457,0.0388721227645874,0.1442672312259674,0.18757691979408264,-0.28395661743389855,-1.2379390956273324,0.7729693606833936,-0.9072650671005249,0.2801560163497925,-0.3136600852012634,-1.5943127870559692,0.003322283271700144,-1.2422224283218384
0.8275399208068848,0.04428786039352417,0.10873672366142273,0.18141743540763855,-0.27379098253352535,-1.2481103926529389,0.7308338547348887,-0.9130622744560242,0.27038314938545227,-0.3053033649921417,-1.9967607259750366,0.1741853654384613,-1.053377389907837
0.8473219871520996,0.0075609683990478516,0.12297844886779785,0.17783650755882263,-0.26791030267762533,-1.2565638837436952,0.6800657291101677,-0.9171068072319031,0.26471686363220215,-0.29806026816368103,-2.3841805458068848,0.3077912926673889,-1.0739392042160034
0.8681559562683105,0.02358299493789673,0.13537630438804626,0.04640376567840576,-0.25992025961358706,-1.263906478684413,0.6307220975371199,-0.9212576150894165,0.2570034861564636,-0.2919480502605438,-1.835662603378296,0.2522239089012146,-1.1081573963165283
0.8831300735473633,0.10880309343338013,0.17667622864246368,-0.007580578327178955,-0.24814972060907983,-1.2680068975179637,0.5956883633747193,-0.9252704977989197,0.245610773563385,-0.2890501022338867,-1.116850733757019,0.21497896313667297,-1.043074131011963
0.903803825378418,0.12288850545883179,0.07043550908565521,-0.01701509952545166,-0.23356211893107517,-1.2711488277625058,0.5683465339066813,-0.9294987320899963,0.23144438862800598,-0.2871686816215515,-1.020472764968872,0.09777723997831345,-1.1687757968902588
0.9238169193267822,0.10506892204284668,-0.011494547128677368,-0.029288679361343384,-0.21658350597628845,-1.2774003180790738,0.5399679531788938,-0.9349029064178467,0.21489420533180237,-0.2824481725692749,-1.1668860912322998,-0.04612267389893532,-1.2388176918029785
0.9441990852355957,0.0844849944114685,-0.011009126901626587,0.0015845000743865967,-0.19957184816604778,-1.283465669287327,0.5105002835225434,-0.939969003200531,0.1982496976852417,-0.27776840329170227,-1.0800668001174927,0.054853297770023346,-1.241080403327942
0.9677670001983643,0.12323939800262451,-0.022869542241096497,-0.04982668161392212,-0.18133234853703165,-1.2862049811421032,0.4833705502917373,-0.9440402388572693,0.1803402304649353,-0.27616190910339355,-0.9698562622070312,0.16442878544330597,-1.268548846244812
0.9878687858581543,0.2787230610847473,-0.009870573878288269,-0.1401529312133789,-0.1617127829441936,-1.28847934476936,0.4610072232325873,-0.9478820562362671,0.16100887954235077,-0.27494698762893677,-0.5255902409553528,-0.07096286863088608,-1.191820502281189
1.0084400177001953,0.3893091678619385,0.04170919954776764,-0.21456116437911987,-0.14315115291913444,-1.2951965863356079,0.4517855984793045,-0.9524195790290833,0.14266273379325867,-0.2693406641483307,0.16152305901050568,-0.436694860458374,-0.8534354567527771
1.0283949375152588,0.2515084743499756,0.05176708102226257,-0.245280921459198,-0.1271949847398768,-1.3030787572997942,0.45481611780799686,-0.9565866589546204,0.12685228884220123,-0.2623940408229828,0.4275268018245697,-0.32819756865501404,-0.674767017364502
1.047677993774414,0.05294907093048096,-0.07324130088090897,-0.2189561426639557,-0.11315548385719382,-1.3055773067085288,0.45686500481724146,-0.9588635563850403,0.11291415989398956,-0.2604443430900574,0.07727814465761185,0.044345706701278687,-0.5973616242408752
1.0677099227905273,0.05652296543121338,-0.1339738667011261,-0.07663413882255554,-0.10508388570191739,-1.302123697537509,0.4527569885691425,-0.9588056802749634,0.10489059239625931,-0.26398760080337524,-0.18113194406032562,0.3111630380153656,-0.2767374515533447
1.087831974029541,0.04901885986328125,-0.06444933265447617,-0.12257519364356995,-0.1015346926629882,-1.2959006656043497,0.4505154284200603,-0.957496702671051,0.10136032104492188,-0.27004849910736084,0.09700429439544678,0.33709633350372314,-0.16974593698978424
1.1065189838409424,0.03648257255554199,0.04288306087255478,-0.11862900853157043,-0.09585924594996217,-1.2887154972447172,0.45511150085947627,-0.9560688138008118,0.09571250528097153,-0.27707692980766296,0.4841799736022949,0.3479585647583008,-0.2461637407541275
1.1272368431091309,0.08351314067840576,0.004336141049861908,-0.09195077419281006,-0.08745007692795309,-1.2804550410401268,0.46692236033100126,-0.9544849395751953,0.0873386561870575,-0.285185307264328,0.9425976276397705,0.31567439436912537,-0.24101212620735168
1.1470849514007568,0.19127219915390015,-0.027837447822093964,-0.03500288724899292,-0.07686329567569385,-1.2728300516062894,0.4870968597240268,-0.9531131386756897,0.07678763568401337,-0.29270991683006287,1.2019513845443726,0.2627565860748291,-0.22851283848285675
1.1670570373535156,0.22145593166351318,-0.03238764405250549,0.019682705402374268,-0.0632984352622239,-1.266929214181038,0.5092472064998153,-0.9522757530212402,0.063256174325943,-0.29861319065093994,1.288575530052185,0.22047333419322968,-0.38523879647254944
1.187290906906128,0.21911191940307617,-0.1219358742237091,0.028233587741851807,-0.04753665636621026,-1.2616533516072588,0.5301927222949554,-0.9515185952186584,0.04751875624060631,-0.3038986921310425,1.1845285892486572,0.19238035380840302,-0.48261570930480957
1.2049779891967773,0.25715339183807373,-0.09639357030391693,0.10966482758522034,-0.028663731617790674,-1.2586176854404887,0.5497170498097547,-0.9512757062911987,0.02865980751812458,-0.3070065379142761,1.4261415004730225,-0.04953063279390335,-0.7471163272857666
1.2275090217590332,0.19033098220825195,-0.04863249510526657,0.0336146354675293,-0.006518292193243012,-1.2598338855993139,0.5772919428971618,-0.9520193338394165,0.00651824614033103,-0.3059685528278351,1.722765326499939,-0.114506796002388,-0.578190267086029
1.2470650672912598,0.05513489246368408,0.07907264679670334,0.06267485022544861,0.019671437702266696,-1.2631193240313763,0.6082361340354188,-0.9528552889823914,-0.019670169800519943,-0.3027869462966919,2.159433603286743,-0.10151810944080353,-0.8902876973152161
1.2669119834899902,-0.027842998504638672,0.16901837289333344,0.07874292135238647,0.04986787433329385,-1.2636503814755287,0.6465121630798749,-0.9520155191421509,-0.049847207963466644,-0.30196356773376465,2.404632329940796,0.15659812092781067,-0.8307353854179382
1.2868900299072266,0.046507060527801514,0.13799244165420532,0.2481783926486969,0.07683446062254487,-1.2590399464764033,0.6842176028214211,-0.9489881992340088,-0.07675888389348984,-0.3058258593082428,1.882273554801941,0.43422964215278625,-0.6669664978981018
1.3060779571533203,0.025064706802368164,0.13001516461372375,0.248732328414917,0.09921776542192196,-1.254398778117701,0.7153980440153966,-0.9456886053085327,-0.09905505925416946,-0.30961474776268005,1.6432881355285645,0.44085195660591125,-0.3725799322128296
1.3268790245056152,-0.14011162519454956,0.24938173592090607,0.28750696778297424,0.11135177906917533,-1.242401309610402,0.7424853967060395,-0.9406989812850952,-0.11112181097269058,-0.32052677869796753,1.6219156980514526,1.0855085849761963,-0.17318612337112427
1.346768856048584,-0.4742889404296875,0.3485580086708069,0.09448844194412231,0.12679046161754684,-1.2271977808910124,0.7740068266716917,-0.9339905977249146,-0.1264510303735733,-0.334173321723938,2.0510215759277344,0.2929094433784485,-0.1464059054851532
1.3666539192199707,-0.24801874160766602,0.1393829882144928,0.5230789184570312,0.1309987431040704,-1.2232547928054824,0.8113709932920659,-0.9321571588516235,-0.13062439858913422,-0.3376692235469818,1.3107331991195679,1.2218953371047974,1.0004098415374756
1.3864169120788574,-0.4209427833557129,0.16630956530570984,0.6483919620513916,0.11890579364194175,-1.2043622489411725,0.8415225372471432,-0.9270187020301819,-0.11862579733133316,-0.3557586669921875,1.1327202320098877,0.5408253073692322,0.9573707580566406
1.406613826751709,-0.3720599412918091,0.0334630161523819,0.5050411224365234,0.10901138627324426,-1.2007270067488476,0.8667199077000991,-0.9267682433128357,-0.10879560559988022,-0.3595331609249115,1.0680538415908813,0.48789721727371216,1.1134591102600098
1.426501989364624,-0.21957755088806152,0.14751026034355164,0.6698544025421143,0.0947496834151616,-1.191325134043132,0.8979722551089824,-0.9246943593025208,-0.09460797905921936,-0.3687678277492523,2.0997018814086914,0.6588760614395142,1.707220196723938
1.4466679096221924,-0.36936259269714355,0.28577518463134766,0.23139876127243042,0.08557741261533143,-1.1940388568429252,0.9445338376104667,-0.9264596700668335,-0.08547299355268478,-0.3665609359741211,2.459859609603882,-0.5125827193260193,1.0203661918640137
1.4664521217346191,-0.26230621337890625,0.39007797837257385,0.6213907599449158,0.07719679471742583,-1.2047296760820774,1.0000373233361841,-0.9309617280960083,-0.07712014019489288,-0.35687947273254395,2.871673583984375,-0.08507318049669266,1.92275869846344
1.4862871170043945,-0.627032458782196,0.3129727244377136,0.47019121050834656,0.06136318936767898,-1.211200592961664,1.0692117904982157,-0.9342774152755737,-0.06132468581199646,-0.3512335419654846,3.040243148803711,-0.0469488762319088,1.978021264076233
1.506239891052246,-0.5232256054878235,0.48856309056282043,0.5119069814682007,0.041171666831950185,-1.2174416980302678,1.1470305971505574,-0.9374220371246338,-0.041160035878419876,-0.34575384855270386,3.441225290298462,-0.3301866054534912,2.7223422527313232
1.5261249542236328,-0.46964848041534424,0.44630518555641174,0.4439738392829895,0.011048345661023615,-1.2338994568006278,1.2277192482935306,-0.943727433681488,-0.011048120446503162,-0.33053985238075256,3.105977773666382,-0.9115846753120422,2.7895255088806152
1.5464179515838623,-0.665553092956543,0.233849436044693,0.5734503269195557,-0.024347061564141046,-1.2484589759528022,1.3054431403520115,-0.9482164978981018,0.024344656616449356,-0.3166905343532562,3.3293726444244385,-0.7165447473526001,3.0551564693450928
1.565999984741211,-0.7637888789176941,0.278460830450058,0.4125596284866333,-0.059923550769847886,-1.2609077136739821,1.3889162078624868,-0.9506581425666809,0.05988769605755806,-0.30440521240234375,3.358933448791504,-0.8289840817451477,2.942943572998047
1.587580919265747,-0.658539354801178,0.23763778805732727,0.44521114230155945,-0.09853549836966106,-1.271613473809729,1.4648149791324443,-0.9509423971176147,0.09837612509727478,-0.29330974817276,2.7329137325286865,-0.8092384338378906,3.034412384033203
1.607469081878662,-0.7561664581298828,0.025741353631019592,0.3865659236907959,-0.14434571577854663,-1.2780322778870479,1.525820822621887,-0.9474925994873047,0.14384497702121735,-0.28559839725494385,1.6876227855682373,-0.606927752494812,3.1068930625915527
1.6259140968322754,-0.7890580892562866,0.014503389596939087,0.28617432713508606,-0.1951218338578108,-1.2836655445512186,1.5707765171209793,-0.9408612847328186,0.19388605654239655,-0.2778276205062866,1.2348613739013672,-0.7150688767433167,3.0149598121643066
1.6456317901611328,-0.7234725952148438,0.07287704944610596,0.18322277069091797,-0.24641219266395042,-1.2906406799187964,1.606893887308666,-0.9319839477539062,0.24392610788345337,-0.2681530714035034,0.6482358574867249,-0.7620983719825745,2.873378276824951
1.665574073791504,-0.6916567087173462,-0.015763819217681885,0.1946595311164856,-0.30022196236249366,-1.2988305832449614,1.6294159995049442,-0.9201596975326538,0.2957322597503662,-0.25661009550094604,0.043254364281892776,-0.5288999676704407,2.8891115188598633
1.6858808994293213,-0.758741557598114,-0.0027699172496795654,0.07112540304660797,-0.35512781954684935,-1.3043321419961,1.6447064235332187,-0.9045121669769287,0.3477102220058441,-0.24689128994941711,0.03448799252510071,-0.46208706498146057,2.7333364486694336
1.7055277824401855,-0.7419887781143188,0.10261452198028564,-0.07167568802833557,-0.40610669958300355,-1.3070657196608637,1.662817480648334,-0.8869020938873291,0.39503568410873413,-0.23948141932487488,0.20928601920604706,-0.5114800930023193,2.5890860557556152
1.7235817909240723,-0.7256999611854553,0.05138525366783142,-0.06612253189086914,-0.45458937840833763,-1.311804630244468,1.6765235205062137,-0.8684772849082947,0.4390934407711029,-0.2300962507724762,-0.3260396420955658,-0.506498396396637,2.4825687408447266
1.7453060150146484,-0.711584210395813,-0.08194857835769653,-0.019032686948776245,-0.5057462062251926,-1.3201740758357752,1.6776838751176049,-0.8474826812744141,0.48446035385131836,-0.21695967018604279,-0.7908687591552734,-0.36533308029174805,2.5081911087036133
1.7654240131378174,-0.6997321844100952,-0.020691990852355957,-0.13071106374263763,-0.5551493730576711,-1.3284457711338933,1.6773167226278496,-0.8249869346618652,0.5270702242851257,-0.20394457876682281,-0.3318374752998352,-0.42308780550956726,2.2763335704803467
1.7860140800476074,-0.6440743207931519,0.06077951192855835,-0.22647252678871155,-0.5972359364651526,-1.3297041739262636,1.6894255022632916,-0.8029775619506836,0.5623590350151062,-0.1974317580461502,0.20882228016853333,-0.3954053819179535,2.0436489582061768
1.8052921295166016,-0.6072871088981628,-0.04956555366516113,-0.19269919395446777,-0.6339362543285048,-1.3283981068145267,1.7046920254430007,-0.7821476459503174,0.5923207998275757,-0.19339385628700256,0.022818714380264282,-0.32800859212875366,1.8877983093261719
1.8251991271972656,-0.5379806756973267,-0.1985982060432434,-0.12299990653991699,-0.6720145735838691,-1.3332215377757133,1.7073305871632667,-0.7605879902839661,0.6225637793540955,-0.18417468667030334,-0.6319321990013123,-0.29078808426856995,1.8416922092437744
1.8451428413391113,-0.4815511703491211,-0.23249685764312744,-0.16051732003688812,-0.7105904694394489,-1.3419829598223938,1.700798940025771,-0.7382210493087769,0.6522814631462097,-0.17192579805850983,-0.6843442320823669,-0.17998309433460236,1.7872713804244995
1.8649787902832031,-0.42254894971847534,-0.1537710428237915,-0.22435086965560913,-0.7453941962353363,-1.3478035000071893,1.6969133376071903,-0.7166264057159424,0.6782615184783936,-0.16250507533550262,-0.3169664442539215,-0.1287127137184143,1.5635600090026855
1.8850750923156738,-0.3548405170440674,-0.14290982484817505,-0.26057374477386475,-0.7755587089042647,-1.3468519198873743,1.701984376157398,-0.6962000131607056,0.7001151442527771,-0.1585698276758194,-0.07294794917106628,-0.1694093644618988,1.4698340892791748
1.9049339294433594,-0.27144622802734375,-0.21798449754714966,-0.21679185330867767,-0.8030751984472244,-1.3465011048451796,1.707272425919578,-0.6771010160446167,0.7194951772689819,-0.15446962416172028,-0.1660105139017105,-0.14465785026550293,1.326503038406372
1.9238958358764648,-0.20005369186401367,-0.2713249921798706,-0.21802519261837006,-0.8286328672179211,-1.347832615664468,1.7101911025778584,-0.6591532826423645,0.7370080351829529,-0.1494520753622055,-0.2552952170372009,-0.166208878159523,1.2311619520187378
1.9437289237976074,-0.13969510793685913,-0.26606935262680054,-0.1915302276611328,-0.8514627788005015,-1.3496432733684034,1.7112157160764634,-0.6428365707397461,0.7522450089454651,-0.14452923834323883,-0.07772061228752136,-0.11909142881631851,0.9884099960327148
1.96474289894104,-0.07582515478134155,-0.2540223002433777,-0.22541211545467377,-0.8679331270502423,-1.3424053444439674,1.7229395356953177,-0.6296190619468689,0.7629945278167725,-0.14635291695594788,0.4710644483566284,-0.040964219719171524,0.8345475792884827
1.984656810760498,0.011214792728424072,-0.22208184003829956,-0.21605509519577026,-0.8796222188350893,-1.326099478283595,1.744912074533971,-0.6184534430503845,0.7704980969429016,-0.15442819893360138,0.5169373154640198,-0.0221087746322155,0.5851036310195923
2.004734992980957,0.03562408685684204,-0.31872081756591797,-0.10132062435150146,-0.8877369834996341,-1.3155991929109883,1.7565603212541099,-0.6107277870178223,0.77564537525177,-0.15932990610599518,-0.012788440100848675,0.17560218274593353,0.39916685223579407
2.0240697860717773,0.03579014539718628,-0.37059342861175537,-0.12173257768154144,-0.8938648270438763,-1.3110118710324108,1.7559259005811125,-0.6053853034973145,0.7794985175132751,-0.16090582311153412,-0.07014458626508713,0.3366149365901947,0.1591973751783371
2.044404983520508,0.11789613962173462,-0.22614175081253052,-0.13778996467590332,-0.893967626532213,-1.3004088859892293,1.75992102985898,-0.6035680770874023,0.7795628905296326,-0.16729415953159332,0.40079188346862793,0.45803937315940857,-0.04333106055855751
2.061250925064087,0.19671928882598877,-0.21249830722808838,-0.15583401918411255,-0.8887675100408761,-1.2755372480796758,1.7793719534129042,-0.603091299533844,0.7762954235076904,-0.1834297627210617,0.8214973211288452,0.4507649540901184,-0.1644689440727234
2.0845160484313965,0.24252909421920776,-0.2525097727775574,-0.08655619621276855,-0.8782379460958242,-1.2542605147865187,1.7967320953181742,-0.6067867875099182,0.7696149945259094,-0.1987525224685669,0.5015451908111572,0.3535478711128235,-0.4341859817504883
2.104743003845215,0.17750990390777588,-0.304809033870697,0.005869120359420776,-0.874315847001658,-1.2537421339741188,1.7769806733416884,-0.6095471978187561,0.7671048045158386,-0.2000066339969635,-1.9146907329559326,1.2062487602233887,-0.5604467988014221
2.1243958473205566,-0.006267726421356201,-0.7134637236595154,-0.24175125360488892,-0.8643985852899827,-1.273345372813846,1.7199138559905651,-0.620593786239624,0.7607050538063049,-0.19024021923542023,-1.1756175756454468,1.299093246459961,-0.9817035794258118
2.1442408561706543,0.25418829917907715,-0.10412770509719849,-0.32715022563934326,-0.8510922035360289,-1.2571556212370771,1.7018570347492983,-0.6270061731338501,0.7520008087158203,-0.20336726307868958,0.41307154297828674,1.2602481842041016,-0.8716925978660583
2.162238121032715,0.23750156164169312,-0.09913414716720581,-0.21077066659927368,-0.8331661303640334,-1.216503570386968,1.7251469188791406,-0.6307662725448608,0.7400644421577454,-0.23332102596759796,1.2060246467590332,1.2621394395828247,-0.5473957657814026
2.1842079162597656,0.15143811702728271,-0.271504282951355,0.13524430990219116,-0.8150910086250509,-1.1863254984668368,1.7304718268483767,-0.6357367038726807,0.7277880311012268,-0.2572229504585266,-0.3813297748565674,1.3197609186172485,-1.0815454721450806
2.2040858268737793,0.22125327587127686,-0.45570123195648193,0.16286689043045044,-0.7980132625952239,-1.186060498835876,1.6994100754903567,-0.6470955014228821,0.715970516204834,-0.2620183527469635,-0.5038292407989502,0.8874820470809937,-1.2694857120513916
2.224268913269043,0.3181159496307373,-0.21554821729660034,0.009726941585540771,-0.7810319657297616,-1.1768113251741732,1.685803571202815,-0.655777633190155,0.7040126919746399,-0.27262046933174133,0.10660849511623383,1.1421364545822144,-0.6475123763084412
2.2441179752349854,0.20535874366760254,-0.2585969567298889,0.01976919174194336,-0.7651759091119993,-1.1606600315180753,1.6775666660097361,-0.6614438891410828,0.6926639080047607,-0.2875913381576538,-0.15125830471515656,1.1126610040664673,-1.0019289255142212
2.2644810676574707,0.1619148850440979,-0.3449196219444275,0.03841280937194824,-0.7519993251888791,-1.1481643574468183,1.6594030835077742,-0.6660652160644531,0.6831002831459045,-0.2995515763759613,-0.44542983174324036,1.3416836261749268,-0.7506179213523865
2.2841739654541016,0.24045753479003906,-0.2325156331062317,-0.045359283685684204,-0.7427519939113645,-1.137418506064364,1.6390235721362238,-0.6685122847557068,0.6763176321983337,-0.30933108925819397,-0.5294517874717712,1.1954047679901123,-0.7575340270996094
2.3038558959960938,0.26396673917770386,-0.21632152795791626,-0.06189918518066406,-0.7336485254691477,-1.1276070748497373,1.6194173520337178,-0.6709796190261841,0.6695839762687683,-0.318502277135849,-0.3436104655265808,1.0760431289672852,-0.6752842664718628
2.3217389583587646,0.25774043798446655,-0.21746861934661865,-0.12440037727355957,-0.7235492458735202,-1.1160600205259794,1.6069691329580862,-0.6732982993125916,0.662048876285553,-0.3291822671890259,-0.0891387015581131,0.9235304594039917,-0.6171833276748657
2.342784881591797,0.2604386806488037,-0.2106878161430359,-0.07427477836608887,-0.7145374143073167,-1.104126657514419,1.598667036912423,-0.6746231913566589,0.6552680730819702,-0.3398638963699341,-0.1691882163286209,0.8376727104187012,-0.42241737246513367
2.363631010055542,0.2489275336265564,-0.2826951742172241,-0.03445011377334595,-0.7116337843440972,-1.0926332276872717,1.5884379547952605,-0.6723589301109314,0.6530718803405762,-0.3484690487384796,-0.3938917815685272,1.01137375831604,-0.14900565147399902
2.381725788116455,0.22857171297073364,-0.2762821912765503,-0.051029324531555176,-0.7137860635605815,-1.0795855136036765,1.5766904474379029,-0.6665141582489014,0.6547002792358398,-0.3565480411052704,-0.45542728900909424,1.00923490524292,-0.13160063326358795
2.4035778045654297,0.24323642253875732,-0.21808689832687378,-0.10984846949577332,-0.7145151898652087,-1.0673353352665347,1.5670852864005351,-0.66167813539505,0.6552512645721436,-0.36445558071136475,-0.20704393088817596,0.8826518058776855,-0.09301245957612991
2.421548843383789,0.2365283966064453,-0.2164597511291504,-0.1350361406803131,-0.7158362710139646,-1.0532271005681975,1.5626330962432313,-0.6557177901268005,0.6562486290931702,-0.3733254671096802,-0.18574552237987518,0.8077597618103027,-0.0022062971256673336
2.4424710273742676,0.19100534915924072,-0.22741514444351196,-0.1400408148765564,-0.7168473123348869,-1.04202220181218,1.5561110651178645,-0.6509205102920532,0.6570112109184265,-0.38031429052352905,-0.32857954502105713,0.7629932761192322,-0.13380242884159088
2.462646961212158,0.17602670192718506,-0.24341470003128052,-0.09826236963272095,-0.7213607368354213,-1.034680385273117,1.5427839687997695,-0.6455549001693726,0.6604070663452148,-0.3835643231868744,-0.8001019954681396,0.7588871121406555,0.05087105929851532
2.4839038848876953,0.17402011156082153,-0.2424587607383728,-0.14251598715782166,-0.7353329160829291,-1.0367581188267843,1.5194972194468164,-0.638344943523407,0.6708340644836426,-0.3774881362915039,-1.3593170642852783,0.589347243309021,0.20502591133117676
2.505159854888916,0.14023226499557495,-0.21462219953536987,-0.23424479365348816,-0.7531871930356892,-1.04816698232232,1.487529052269044,-0.6321297883987427,0.6839673519134521,-0.3641436994075775,-1.473698377609253,0.47711142897605896,0.16652268171310425
2.520035982131958,0.09411847591400146,-0.14691132307052612,-0.28933894634246826,-0.7687482664490914,-1.0591716973555796,1.4573607436253002,-0.6267417669296265,0.695236086845398,-0.3519114851951599,-1.1336380243301392,0.48901787400245667,0.08522143959999084
2.5390710830688477,0.12131708860397339,-0.11910969018936157,-0.28679358959198,-0.7788814901349466,-1.065919774819292,1.4343701448409027,-0.6229039430618286,0.7024838328361511,-0.3442487418651581,-0.8323987722396851,0.42256179451942444,-0.0180217158049345
2.5632309913635254,0.22625523805618286,-0.25093716382980347,-0.1883721649646759,-0.7861208564316351,-1.0742416214201147,1.412227590886998,-0.6212595701217651,0.7076176404953003,-0.33662164211273193,-0.8826708793640137,0.2446451634168625,-0.1292140781879425
2.5828328132629395,0.2700795531272888,-0.2858508825302124,-0.15797418355941772,-0.7910154734088105,-1.0865038561846097,1.3921162177459858,-0.6222676634788513,0.7110676169395447,-0.32736194133758545,-0.6348068714141846,0.02973267436027527,-0.11092300713062286
2.6048851013183594,0.24459004402160645,-0.1868407130241394,-0.1705719232559204,-0.7917378430702382,-1.0980741847329298,1.378487249855397,-0.6255561709403992,0.7115753889083862,-0.31990641355514526,-0.14276725053787231,-0.16361947357654572,-0.30798670649528503
2.62245512008667,0.26069509983062744,-0.1958954930305481,-0.19577890634536743,-0.7812691751966255,-1.102247760343428,1.3794492974571357,-0.6334978342056274,0.7041811347007751,-0.320639431476593,0.6840497255325317,-0.3882734477519989,-0.5363901853561401
2.6421971321105957,0.307511568069458,-0.09771084785461426,-0.08744055032730103,-0.7623694825407799,-1.1003087181311504,1.3937736328867707,-0.6446239948272705,0.6906369924545288,-0.3278425335884094,1.0268617868423462,-0.3923075199127197,-0.7269564867019653
2.663069009780884,0.3190065622329712,-0.14849841594696045,-0.020201653242111206,-0.7401831456477047,-1.1020775378781893,1.4045187263186831,-0.6587129235267639,0.6744231581687927,-0.33354267477989197,0.5016137957572937,-0.5494387149810791,-0.8653573393821716
2.684605121612549,0.29533958435058594,-0.24026107788085938,0.014844059944152832,-0.7255609708071229,-1.1226807385864324,1.3910044859064115,-0.6742610931396484,0.6635552048683167,-0.3241395950317383,-0.7132801413536072,-0.56618732213974,-0.9029783010482788
2.69997501373291,0.19100290536880493,-0.21182113885879517,0.020820915699005127,-0.7186507629760391,-1.1548499180554286,1.3533558296259098,-0.6885157227516174,0.6583697199821472,-0.3041307032108307,-1.3715496063232422,-0.24136415123939514,-0.999565601348877
2.722949981689453,0.1410723328590393,-0.006749629974365234,-0.045934706926345825,-0.7032142827632591,-1.1798125536136075,1.3180952935077528,-0.705204963684082,0.646672785282135,-0.29068928956985474,-0.26831454038619995,0.034835997968912125,-1.4566764831542969
2.7425060272216797,0.1828334927558899,0.2654527425765991,-0.23203283548355103,-0.6682561073040697,-1.184307910017906,1.3154018412538453,-0.7270076870918274,0.6196181178092957,-0.29586005210876465,1.256927490234375,-0.31487274169921875,-1.8651446104049683
2.7623510360717773,0.23792392015457153,0.17752599716186523,-0.08931541442871094,-0.6201114818500997,-1.1845314204558064,1.329864169107143,-0.7538540959358215,0.5811259150505066,-0.3065889775753021,1.3874808549880981,-0.5606011748313904,-2.1123270988464355
2.7825698852539062,0.23236197233200073,-0.09014946222305298,0.1450851559638977,-0.5741326817734396,-1.19396046149659,1.3335675088968673,-0.7807475924491882,0.543106734752655,-0.3089796304702759,0.5083149075508118,-0.5140290856361389,-2.026711940765381
2.801766872406006,0.16320765018463135,-0.10403650999069214,0.17792856693267822,-0.536103635993162,-1.2132226163733728,1.3158109693417435,-0.8053280711174011,0.5107901692390442,-0.3008989989757538,-0.44289207458496094,-0.5096232295036316,-2.0981905460357666
2.822272777557373,0.1086844801902771,-0.033878833055496216,0.1170327365398407,-0.5003070233724884,-1.2374267213161798,1.2875904352641132,-0.8291281461715698,0.4796949625015259,-0.2871222496032715,-0.5708357691764832,-0.4961860477924347,-2.1118111610412598
2.842073917388916,0.040344178676605225,0.12119638919830322,0.07396125793457031,-0.4613746259853843,-1.2576605211485303,1.2645494251153204,-0.851898193359375,0.44517943263053894,-0.2758348882198334,-0.11467604339122772,-0.4528020918369293,-2.2486519813537598
2.8620638847351074,-0.09532999992370605,0.20206576585769653,0.031035631895065308,-0.4170013506902032,-1.2714539900403614,1.2490669962416918,-0.8736490607261658,0.4050205945968628,-0.26962190866470337,0.0030717223417013884,-0.25693538784980774,-2.4015066623687744
2.8821558952331543,-0.16115236282348633,0.1611744463443756,0.1572486162185669,-0.37293859251584344,-1.2810279367371595,1.2301520454221457,-0.8924365043640137,0.36435359716415405,-0.26608937978744507,-0.5015187859535217,0.04727083072066307,-2.2429609298706055
2.90189790725708,-0.08272552490234375,0.07139080762863159,0.3288866877555847,-0.3393029578463298,-1.2898998106385269,1.1976683102013066,-0.9060287475585938,0.33282986283302307,-0.2614121437072754,-1.3889222145080566,0.1389560103416443,-1.9017820358276367
2.9202017784118652,-0.08197945356369019,0.07203236222267151,0.2695692479610443,-0.31378320263905124,-1.299939093585265,1.1576019673714484,-0.9164947867393494,0.30865931510925293,-0.2544934153556824,-1.4839215278625488,0.14985179901123047,-1.6157279014587402
2.940824031829834,-0.08971774578094482,0.22831878066062927,0.26936712861061096,-0.2906487883514185,-1.306082523333522,1.1205721621617855,-0.9246865510940552,0.2865738570690155,-0.25065967440605164,-1.328573226928711,0.3514637351036072,-1.5659985542297363
2.9617538452148438,-0.03316843509674072,0.1527610421180725,0.3162093162536621,-0.26886259251895867,-1.3083004942477796,1.0866308740824635,-0.9310497045516968,0.26563507318496704,-0.25016912817955017,-1.2052078247070312,0.3137829601764679,-1.375378131866455
2.9817099571228027,0.059223294258117676,0.015055477619171143,0.30936089158058167,-0.2517873110865857,-1.3113428806203904,1.056944531176922,-0.9360544681549072,0.2491353154182434,-0.24846293032169342,-1.1389961242675781,0.14462082087993622,-1.0113067626953125
3.000891923904419,0.045743703842163086,0.049901604652404785,0.310435026884079,-0.2410459957554924,-1.3152695359922288,1.030173071046866,-0.9395579695701599,0.23871850967407227,-0.24544771015644073,-1.198602557182312,0.18704000115394592,-0.7008658647537231
3.0217738151550293,-0.04207366704940796,0.09173664450645447,0.3189833164215088,-0.2354292254971059,-1.3150058049042792,1.0011154045076842,-0.9407755136489868,0.2332603931427002,-0.24603085219860077,-1.346680760383606,0.5439664721488953,-0.5573650598526001
3.041633129119873,0.005909740924835205,0.1189328283071518,0.28011661767959595,-0.2328984576567483,-1.3082387634800952,0.9751207622621885,-0.939656138420105,0.23079869151115417,-0.2525438368320465,-0.9377490878105164,0.6707276105880737,-0.32995450496673584
3.061614990234375,0.12169945240020752,0.27026838064193726,0.20048749446868896,-0.23039118413088447,-1.300674199211473,0.9664702516145851,-0.9382736086845398,0.22835838794708252,-0.25979822874069214,0.23742657899856567,0.2874894440174103,-0.13384604454040527
3.0816941261291504,0.11193084716796875,0.40993350744247437,0.3190220594406128,-0.22371823022250978,-1.2928063905070115,0.9803603844038112,-0.9376450181007385,0.2218567132949829,-0.2675844728946686,1.3958263397216797,0.19946010410785675,-0.1919226497411728
3.1015939712524414,-0.08607292175292969,0.29023411870002747,0.37042999267578125,-0.2084181805170472,-1.2782258567557496,1.0167777781152336,-0.9367848038673401,0.2069125771522522,-0.2821729779243469,2.4764726161956787,0.499948650598526,-0.2956521809101105
3.1215291023254395,-0.2874341607093811,0.17457659542560577,0.2020101547241211,-0.18951674640352392,-1.2638692221163796,1.0659934182715871,-0.9361987113952637,0.1883843094110489,-0.29672127962112427,2.281256675720215,-0.14059458673000336,-0.07171133905649185
3.14127779006958,-0.2040034532546997,0.09026259183883667,0.6021579504013062,-0.18323734415777818,-1.2627938200891948,1.099198406937661,-0.9369877576828003,0.1822136640548706,-0.29808059334754944,1.4398612976074219,-0.24826300144195557,0.46520891785621643
3.16110897064209,-0.4154064655303955,0.05678693950176239,0.54746413230896,-0.18969481719651812,-1.2545592629165825,1.130078708614689,-0.933363676071167,0.18855918943881989,-0.30541378259658813,1.0752605199813843,0.4127534031867981,0.8415055871009827
3.181264877319336,-0.6801578998565674,0.24312923848628998,0.47178366780281067,-0.1947294418674542,-1.2414753913066137,1.1526711662428666,-0.9283778667449951,0.19350109994411469,-0.31728827953338623,0.9910306334495544,0.35891661047935486,0.4077596366405487
3.2014451026916504,-0.45494431257247925,-0.04684506356716156,0.31343138217926025,-0.19592335120094387,-1.2369816316462114,1.176096838968019,-0.926723837852478,0.19467230141162872,-0.3213810622692108,1.1370340585708618,-0.3650154173374176,0.4833235740661621
3.2212629318237305,-0.26582229137420654,-0.017451032996177673,0.35996031761169434,-0.1973957352787042,-1.2459851309892997,1.2014282559657727,-0.9293071627616882,0.19611631333827972,-0.3129326105117798,1.23225736618042,-1.0605616569519043,0.41917794942855835
3.241219997406006,-0.32103002071380615,-0.011253297328948975,0.32745978236198425,-0.1979843800526604,-1.2627956015741681,1.2310496045390618,-0.9343259930610657,0.19669348001480103,-0.2972320020198822,1.4872844219207764,-1.0976287126541138,0.5937889814376831
3.2611379623413086,-0.4552564024925232,-0.03150664269924164,0.34242093563079834,-0.2038756484358487,-1.2756891137922781,1.2616975651799003,-0.9369555711746216,0.20246621966362,-0.2848188877105713,1.0501269102096558,-0.8518773317337036,0.8186405301094055
3.281014919281006,-0.5651947855949402,-0.0818709284067154,0.3005772829055786,-0.21849303806069398,-1.2878192751311992,1.2828114758680245,-0.9373992085456848,0.21675874292850494,-0.2725772559642792,0.5128209590911865,-0.758079469203949,1.2547210454940796
3.300981044769287,-0.5867959856987,-0.023430630564689636,0.21879273653030396,-0.24374798467845038,-1.2972870005470831,1.3016939033485848,-0.9343680143356323,0.2413415014743805,-0.262127548456192,0.6684716939926147,-0.6562017202377319,1.624043583869934
3.320736885070801,-0.6612300276756287,0.15940678119659424,0.13082468509674072,-0.2733360535731029,-1.3039494029817413,1.327722624256809,-0.9287968873977661,0.2699451446533203,-0.25390195846557617,0.9492114782333374,-0.673551082611084,1.9195804595947266
3.340743064880371,-0.6931291222572327,0.12829214334487915,0.23630976676940918,-0.3099187921723703,-1.3078867545975212,1.3566467067505108,-0.9196333289146423,0.3049812912940979,-0.24750959873199463,0.7123363614082336,-0.5344433188438416,2.3400301933288574
3.360590934753418,-0.814614474773407,0.021689236164093018,0.2066657543182373,-0.35390829108538485,-1.3085374582268448,1.3868962868504415,-0.9059513211250305,0.3465665280818939,-0.24319514632225037,0.9498242139816284,-0.5227431058883667,2.5605921745300293
3.380506992340088,-0.8401230573654175,0.14142709970474243,0.17178654670715332,-0.39707818013441404,-1.3053815646819598,1.4243620035666744,-0.88990318775177,0.386725515127182,-0.24190053343772888,1.2495604753494263,-0.5697205066680908,2.5060393810272217
3.400643825531006,-0.8031521439552307,0.08484667539596558,0.21864116191864014,-0.44091307205170144,-1.3027365829945565,1.4606795854068997,-0.8720645308494568,0.4267653822898865,-0.2395302951335907,0.6277766823768616,-0.5892419815063477,2.625397205352783
3.419973850250244,-0.7973150610923767,-0.09224376082420349,0.2763497233390808,-0.4910613935261951,-1.3059103989255396,1.4811281586303144,-0.8510766625404358,0.47156211733818054,-0.23086312413215637,-0.09433521330356598,-0.5870743989944458,2.6907851696014404
3.4403769969940186,-0.7584119439125061,-0.03598088026046753,0.21470214426517487,-0.5427175456313433,-1.311688659719734,1.49253429944828,-0.8277238607406616,0.5164649486541748,-0.21940168738365173,-0.1710679680109024,-0.6842647194862366,2.5224173069000244
3.460813045501709,-0.6461307406425476,0.01903480291366577,0.05249154567718506,-0.5890063137001486,-1.3210546933848468,1.505250435701822,-0.8056972622871399,0.555535078048706,-0.2055065631866455,0.07529163360595703,-0.8711808919906616,2.2743518352508545
3.4805119037628174,-0.5867207050323486,0.003987491130828857,-0.014705896377563477,-0.6317288550764192,-1.3302786257744705,1.5208815082997913,-0.7837779521942139,0.5905408263206482,-0.19223366677761078,0.06455014646053314,-0.8942286968231201,2.1437013149261475
3.5005531311035156,-0.5524005889892578,-0.05284249782562256,-0.036621734499931335,-0.6721071556776558,-1.3416242843483093,1.529709853931586,-0.7620524764060974,0.6226362586021423,-0.17776411771774292,-0.35483649373054504,-0.7901657819747925,1.9836840629577637
3.5204200744628906,-0.48272788524627686,-0.08982616662979126,-0.08968012034893036,-0.711616355708915,-1.357382206207445,1.5286562501162,-0.7401266694068909,0.6530587077140808,-0.160396009683609,-0.5671452879905701,-0.6700197458267212,1.8775224685668945
3.540158987045288,-0.45921391248703003,-0.056114912033081055,-0.16300749778747559,-0.7488885620738918,-1.374521453674893,1.5221057510567515,-0.7183830738067627,0.6808251142501831,-0.14283952116966248,-0.611797571182251,-0.6197007894515991,1.6655038595199585
3.5600428581237793,-0.407085657119751,-0.05214577913284302,-0.20270366966724396,-0.7823920961924805,-1.3915332709009764,1.5133488371819463,-0.697864294052124,0.7049779891967773,-0.1264587938785553,-0.6384350657463074,-0.49589329957962036,1.5217463970184326
3.5802199840545654,-0.34551775455474854,-0.08374291658401489,-0.24593442678451538,-0.8121334888611346,-1.409190267234308,1.5013556843266311,-0.6789878010749817,0.7257565855979919,-0.11069387197494507,-0.7093778848648071,-0.3517412543296814,1.308205008506775
3.601830005645752,-0.292025625705719,-0.10312151908874512,-0.2579265236854553,-0.8381558839426688,-1.4273866934330317,1.4851563060918633,-0.6619690656661987,0.7434110045433044,-0.09558894485235214,-0.7647705078125,-0.2856826186180115,1.0931671857833862
3.619965076446533,-0.20791935920715332,-0.1409015655517578,-0.2767414450645447,-0.8598635100821547,-1.4472160010390211,1.465554629622318,-0.6475645899772644,0.7577534914016724,-0.08043614029884338,-0.7969210147857666,-0.23238664865493774,0.8973799347877502
3.6399829387664795,-0.10650169849395752,-0.19408375024795532,-0.2800566554069519,-0.8777123574204365,-1.4667392303537476,1.4458128067527554,-0.635456919670105,0.7692793011665344,-0.06636349856853485,-0.6626719832420349,-0.2134031057357788,0.7262071371078491
3.6599907875061035,-0.04983234405517578,-0.2069084644317627,-0.2684853672981262,-0.8921309765173049,-1.4816533574801611,1.430580264142017,-0.6252622008323669,0.7784112691879272,-0.055885836482048035,-0.3829377591609955,-0.1508193463087082,0.6266536712646484
3.6799731254577637,-0.06094062328338623,-0.20567351579666138,-0.32117074728012085,-0.9035159484497202,-1.4871191608610461,1.4256426635160109,-0.6166868805885315,0.7855076193809509,-0.051723383367061615,-0.0903831273317337,0.0034493161365389824,0.4622148871421814
3.6999831199645996,-0.06053394079208374,-0.24314481019973755,-0.30549705028533936,-0.9100454972682009,-1.4881580866969712,1.4223407992824586,-0.6116156578063965,0.7895316481590271,-0.0506582073867321,-0.2356519103050232,0.21044883131980896,0.20215560495853424
3.720357894897461,0.005658924579620361,-0.3509868383407593,-0.26635289192199707,-0.9128483587232539,-1.4917797157507264,1.408927848876144,-0.6095864176750183,0.7912486791610718,-0.048267949372529984,-0.619854748249054,0.4509695768356323,0.003051020670682192
3.740396022796631,0.08618789911270142,-0.35476744174957275,-0.28663742542266846,-0.911745503713227,-1.5013716675924307,1.3840138771156807,-0.6108917593955994,0.7905738353729248,-0.042479224503040314,-0.8420500755310059,0.6048761606216431,-0.2744375467300415
3.7599730491638184,0.09063529968261719,-0.25001561641693115,-0.3305562734603882,-0.9045522379681352,-1.507212294406614,1.3596083906516836,-0.6167887449264526,0.7861484885215759,-0.039270851761102676,-0.4758795499801636,0.7885128855705261,-0.3533746898174286
3.779974937438965,0.040162503719329834,-0.09094417095184326,-0.3428904414176941,-0.8985042575508725,-1.4898957950739065,1.3543296152818045,-0.6207441091537476,0.7823962569236755,-0.05032837390899658,0.05063897371292114,1.3178964853286743,-0.5305535793304443
3.799973964691162,0.0992279052734375,-0.09344297647476196,-0.293052613735199,-0.8845806652723597,-1.4653743295351378,1.3517452174697038,-0.6300963759422302,0.7736493349075317,-0.06667319685220718,-0.1470075100660324,1.3386560678482056,-0.6710805892944336
3.8199830055236816,0.2200314998626709,-0.14897412061691284,-0.1902593970298767,-0.8745343575957261,-1.4469748148777493,1.3384251520172012,-0.6364437341690063,0.7672449350357056,-0.07921065390110016,-0.6437256336212158,1.5541495084762573,-0.5343080163002014
3.8400189876556396,0.16152513027191162,-0.14740878343582153,-0.11223404854536057,-0.8648693444681086,-1.432985288420401,1.312717749735961,-0.6425888538360596,0.7610105276107788,-0.08912073820829391,-0.7593398690223694,1.807637095451355,-0.5912749171257019
3.860011100769043,0.16499435901641846,-0.04829287528991699,-0.1427752822637558,-0.8547758821246166,-1.4081190243607569,1.2967304928802184,-0.6477212905883789,0.7544237971305847,-0.10630899667739868,-0.00724871875718236,1.8655403852462769,-0.5785863399505615
3.879983901977539,0.20230960845947266,0.04394489526748657,-0.11379407346248627,-0.8429332218234712,-1.3641104867316187,1.3042661118136825,-0.6511163115501404,0.7465977072715759,-0.1365261673927307,0.5712663531303406,1.9449936151504517,-0.5042903423309326
3.8999738693237305,0.2092956304550171,-0.05144703388214111,-0.01607431471347809,-0.8306688726106716,-1.319250122808364,1.3135699681982946,-0.6531585454940796,0.7383826375007629,-0.16785494983196259,0.11256147921085358,1.9081827402114868,-0.5627290606498718
3.9199719429016113,0.19069886207580566,-0.22656065225601196,0.12895137071609497,-0.8218025391920067,-1.2886047308701511,1.302049414012738,-0.6539708971977234,0.732374370098114,-0.18960489332675934,-0.5843614339828491,2.0176000595092773,-0.453258216381073
3.94046688079834,0.16003656387329102,-0.20297664403915405,0.09315988421440125,-0.8175632726196677,-1.2638974090339548,1.2798167104964802,-0.652040958404541,0.7294812798500061,-0.2066393494606018,-0.6571664810180664,2.056124448776245,-0.4289739429950714
3.96003794670105,0.17399567365646362,-0.09935402870178223,0.04583224654197693,-0.8119360151324165,-1.2353781934662893,1.2632645862120606,-0.6497495174407959,0.725620687007904,-0.226496160030365,-0.23192761838436127,1.9895873069763184,-0.45601630210876465
3.980015993118286,0.18025487661361694,-0.11393958330154419,0.04813867807388306,-0.8041372594969177,-1.2014297385067858,1.2559560064477784,-0.6469448804855347,0.7202324271202087,-0.25045478343963623,-0.0852336585521698,1.9770758152008057,-0.4474162459373474
4.000104904174805,0.15625053644180298,-0.194022536277771,0.07592687010765076,-0.7969346102487459,-1.1695326192342712,1.2454267900883722,-0.6433873176574707,0.7152170538902283,-0.27297869324684143,-0.35523372888565063,1.9609876871109009,-0.49194157123565674
4.020083904266357,0.17350506782531738,-0.23146045207977295,0.0589887797832489,-0.7924154852418748,-1.1430491694075564,1.227783029885168,-0.6388675570487976,0.7120513319969177,-0.2912578880786896,-0.5465793013572693,1.954620122909546,-0.42010775208473206
4.039994955062866,0.18557053804397583,-0.20272296667099,0.013472437858581543,-0.7894786782583012,-1.1168071792556327,1.2098519299134214,-0.6328819394111633,0.7099862694740295,-0.30883660912513733,-0.4526326358318329,1.9403281211853027,-0.381820410490036
4.059074878692627,0.1613507866859436,-0.16467100381851196,-0.03393813967704773,-0.7866058891549713,-1.0880323795823952,1.1947709076099593,-0.6255383491516113,0.7079602479934692,-0.32786279916763306,-0.5819267630577087,2.2864418029785156,-0.19482193887233734
4.080030918121338,0.08017206192016602,-0.1689102053642273,-0.11989527940750122,-0.7962196042504169,-1.0588940025611318,1.168531031483474,-0.6097589135169983,0.7147171497344971,-0.34259846806526184,-0.9313366413116455,2.2019970417022705,-0.23307234048843384
4.099967956542969,0.016598939895629883,-0.14164644479751587,-0.28020691871643066,-0.7981685726313417,-1.025614709963515,1.15162465886985,-0.5968297123908997,0.7160789370536804,-0.3619742691516876,-0.19663287699222565,2.3003079891204834,-0.066191665828228
4.119996070861816,0.09323018789291382,0.05454534292221069,-0.19028115272521973,-0.7947508204204834,-0.9804114544817013,1.1540972689147915,-0.5818929672241211,0.7136890888214111,-0.38993415236473083,0.3598392605781555,2.08404541015625,-0.13731783628463745
4.139972925186157,0.0945238471031189,-0.23075240850448608,-0.03903543949127197,-0.7899324311456105,-0.9364351298239775,1.1591093354736208,-0.5669512748718262,0.7103056907653809,-0.4171716570854187,0.14903493225574493,2.00429368019104,-0.009766705334186554
4.159975051879883,0.08238494396209717,-0.2908310294151306,0.07364058494567871,-0.7915882031151479,-0.8950015052043662,1.1595281094535326,-0.5482663512229919,0.7114702463150024,-0.43956151604652405,-0.2576265335083008,2.0944907665252686,0.11582678556442261
4.180011987686157,0.0678551197052002,-0.24955743551254272,0.059252381324768066,-0.7967716766631817,-0.8583454469028842,1.153622858349908,-0.5289910435676575,0.7151031494140625,-0.45694205164909363,-0.37415531277656555,1.9678534269332886,0.07532825320959091
4.19997501373291,0.10194069147109985,-0.23464590311050415,0.04606899619102478,-0.8019974464547498,-0.8228627223096668,1.1496875330704246,-0.5097013115882874,0.7187463045120239,-0.47287237644195557,-0.18267948925495148,1.8246421813964844,0.14543262124061584
4.219972133636475,0.08965092897415161,-0.19495028257369995,-0.004886448383331299,-0.8041838299719785,-0.7882229932355,1.150701284478808,-0.4919031858444214,0.720264732837677,-0.4891319274902344,0.0670742318034172,1.6121410131454468,0.06543844938278198
4.239998817443848,0.070427805185318,-0.15695679187774658,-0.008798539638519287,-0.8026026051602962,-0.7534231082061069,1.1559842630510215,-0.4753655791282654,0.7191669344902039,-0.5067804455757141,0.2379775494337082,1.474839210510254,0.08639024943113327
4.259973049163818,0.0590396523475647,-0.15099084377288818,-0.02512139081954956,-0.8005628133570241,-0.722205456665934,1.1608869923434628,-0.4602848291397095,0.7177481055259705,-0.5224705934524536,0.10569261759519577,1.3198646306991577,0.05855080857872963
4.279616832733154,0.059929609298706055,-0.14690887928009033,-0.03507363796234131,-0.8022842934569859,-0.6958521819246323,1.1620594426765887,-0.4455650746822357,0.7189456820487976,-0.5334686636924744,-0.19322943687438965,1.2454991340637207,0.10314194113016129
4.299983978271484,0.047557681798934937,-0.135134756565094,-0.07873308658599854,-0.808083534989123,-0.6740309854128491,1.1595064598086768,-0.4312094748020172,0.7229644656181335,-0.5397970080375671,-0.3271513283252716,1.119306206703186,0.14544934034347534
4.320060968399048,0.047506898641586304,-0.08606642484664917,-0.10501730442047119,-0.8147826714381345,-0.6553073568111107,1.1572978936591258,-0.41806668043136597,0.727576494216919,-0.543923556804657,-0.23741565644741058,0.9211022853851318,0.14669902622699738
4.339975833892822,0.04085180163383484,-0.062261879444122314,-0.14345866441726685,-0.8189500328818902,-0.6377068159532518,1.1584538504258282,-0.4066203534603119,0.7304291129112244,-0.5487561821937561,-0.06852360814809799,0.7605274319648743,0.15701626241207123
4.359972953796387,0.032503336668014526,-0.08696532249450684,-0.205555260181427,-0.8194184944320253,-0.6214795974861614,1.1622071336496307,-0.3974631428718567,0.7307490110397339,-0.5550036430358887,0.19580164551734924,0.6021939516067505,0.09850998967885971
4.379973888397217,0.013254255056381226,-0.0913359522819519,-0.39272409677505493,-0.816437725074556,-0.6113893089388753,1.1663345405698977,-0.3930913805961609,0.728710949420929,-0.5607669353485107,0.19513465464115143,0.048342667520046234,-0.04834916442632675
4.399969100952148,-0.09530690312385559,0.03176814317703247,-0.5252507925033569,-0.811376701257121,-0.6057958897812967,1.173025662836573,-0.3920436501502991,0.7252357006072998,-0.565981388092041,0.5318201184272766,0.12428022176027298,0.19714179635047913
4.420008897781372,-0.19489246606826782,0.3324633836746216,-0.5340198278427124,-0.796699320787894,-0.5859665073784611,1.1929188368664303,-0.38658955693244934,0.715052604675293,-0.5824503898620605,1.4465283155441284,0.41573798656463623,0.08321730047464371
4.439974784851074,-0.17836666107177734,0.40165895223617554,-0.3664201498031616,-0.7668371915390046,-0.5547633009658534,1.2224370367931003,-0.3793116509914398,0.6938611268997192,-0.6121106147766113,2.0312180519104004,0.5376752018928528,0.13115771114826202
4.4599738121032715,-0.048810094594955444,0.12506473064422607,-0.07515329122543335,-0.7368972964445236,-0.5229472432577598,1.2560440140865563,-0.36986061930656433,0.6719934344291687,-0.6415823698043823,1.6478452682495117,0.3855856955051422,0.3793683350086212
4.480020046234131,0.020945310592651367,-0.05641394853591919,0.13033908605575562,-0.7200347599493377,-0.5010396142557999,1.28099108000767,-0.36110955476760864,0.6594107747077942,-0.6593763828277588,0.7605209946632385,0.12326617538928986,0.4526425004005432
4.499974966049194,0.056585997343063354,-0.050957322120666504,0.2102346420288086,-0.7171440897440251,-0.48774211495525777,1.3000263271522245,-0.35320165753364563,0.6572349071502686,-0.665800929069519,0.22392356395721436,0.008823398500680923,0.6389606595039368
4.519972801208496,0.0419946014881134,0.04063791036605835,0.19840025901794434,-0.7200472529081198,-0.478652413250146,1.314724283075104,-0.3462549149990082,0.6594201922416687,-0.6672874093055725,0.11299215257167816,-0.08752195537090302,0.4893975853919983
4.540000915527344,0.07427224516868591,0.0865362286567688,0.18452560901641846,-0.7211236629163101,-0.4716791080342246,1.32913719924995,-0.3412706255912781,0.6602290272712708,-0.6690530180931091,0.2764052450656891,-0.17275865375995636,0.542589545249939
4.560038089752197,0.09736070036888123,0.112118661403656,0.16717106103897095,-0.7189808383652181,-0.4655207890765351,1.3464300120755093,-0.3377782106399536,0.6586180925369263,-0.6724046468734741,0.4472987949848175,-0.3508633077144623,0.5087589025497437
4.579984903335571,0.09087571501731873,0.04439812898635864,0.2128179669380188,-0.7158042971268981,-0.4618031012298998,1.3632289740397625,-0.3362065851688385,0.6562245488166809,-0.6755253076553345,0.37875014543533325,-0.388704776763916,0.48050931096076965
4.599954128265381,0.07792982459068298,-0.007428646087646484,0.21261078119277954,-0.7114953586518884,-0.45917669980411413,1.3795235442315692,-0.33568137884140015,0.6529670357704163,-0.6789345145225525,0.5636494159698486,-0.41553205251693726,0.4488677978515625
4.620045900344849,0.08120608329772949,0.04393965005874634,0.20267146825790405,-0.7018953050349963,-0.45453766723958744,1.398815003946594,-0.33526498079299927,0.6456661224365234,-0.6860849857330322,0.8939294815063477,-0.3958304226398468,0.4555451571941376
4.639975070953369,0.07870045304298401,0.024336040019989014,0.23376953601837158,-0.6893477343879896,-0.4489861851129722,1.4193973695210724,-0.3349413573741913,0.6360340118408203,-0.6951799392700195,0.8604128360748291,-0.3657485842704773,0.40742579102516174
4.659974098205566,0.07244962453842163,-0.07245367765426636,0.2961388826370239,-0.678602597104869,-0.4449693799206,1.436448244988639,-0.3350687026977539,0.6277058124542236,-0.7026481032371521,0.6507917642593384,-0.30916139483451843,0.3263303339481354
4.6799750328063965,0.06781458854675293,-0.09588241577148438,0.31075555086135864,-0.6718277394173783,-0.4434533213038582,1.4485775882738658,-0.3358200192451477,0.6224175691604614,-0.7069804072380066,0.34721139073371887,-0.3050999939441681,0.22713056206703186
4.700011968612671,0.06341329216957092,-0.09077805280685425,0.317452073097229,-0.669674973747677,-0.4453703434862008,1.454322938024085,-0.3377511203289032,0.6207311749458313,-0.707542896270752,0.06635667383670807,-0.2345062494277954,0.09059126675128937
4.719974040985107,0.058291345834732056,-0.09034717082977295,0.2767428755760193,-0.6699039127594617,-0.44926383000671394,1.4549423661398446,-0.34044167399406433,0.62091064453125,-0.7060945630073547,0.003556058509275317,-0.2080616056919098,-0.02880331128835678
4.7400078773498535,0.06740626692771912,-0.0148848295211792,0.2069515585899353,-0.669232467175459,-0.455027833344402,1.4530761684189868,-0.3446890413761139,0.6203842163085938,-0.7044947743415833,-0.05290524661540985,-0.25842639803886414,-0.1336115300655365
4.759974956512451,0.05628138780593872,0.007515907287597656,0.16012847423553467,-0.6679286279371228,-0.46362809406673455,1.4486413010057946,-0.351096510887146,0.6193610429763794,-0.7022272944450378,0.05087743699550629,-0.34848839044570923,-0.27930164337158203
4.779974937438965,0.050569236278533936,0.06384146213531494,0.1125178337097168,-0.6627431159693965,-0.4737347937599066,1.4431782824785804,-0.3596360683441162,0.6152815818786621,-0.70149165391922,0.17742039263248444,-0.32552438974380493,-0.3133728504180908
4.799977779388428,0.05407494306564331,0.11890965700149536,0.07903468608856201,-0.656661192815136,-0.4840088880698605,1.4372219435364824,-0.3685586452484131,0.6104757785797119,-0.7010590434074402,0.1358424723148346,-0.3364524245262146,-0.3887290358543396
4.819975852966309,0.06520968675613403,0.03573077917098999,0.14533913135528564,-0.6529523153933278,-0.49227082059266064,1.430950428995773,-0.3754056394100189,0.6075340509414673,-0.6999806761741638,-0.14334559440612793,-0.07732436060905457,-0.20464490354061127
4.839975833892822,0.03794261813163757,0.008588194847106934,0.1389712691307068,-0.6662529381769339,-0.4964268410526621,1.4199437619143562,-0.37442952394485474,0.6180446147918701,-0.6912477612495422,-1.314185380935669,0.23537415266036987,-0.03832517936825752
4.8599748611450195,-0.020734459161758423,-0.11446940898895264,-0.027256011962890625,-0.6874065009333663,-0.5051611166498666,1.3984586409661741,-0.37404099106788635,0.6345348358154297,-0.6763571500778198,-1.2760035991668701,0.3061855733394623,-0.37081030011177063
4.879980087280273,0.050589174032211304,0.09458804130554199,-0.08151936531066895,-0.7020293556241888,-0.5127626856787547,1.3762964465866343,-0.37457913160324097,0.6457685232162476,-0.6653372049331665,-0.7974368929862976,0.2899053990840912,-0.41308754682540894
4.899982929229736,0.09195786714553833,0.009168505668640137,-0.10786187648773193,-0.7087443636704485,-0.5198373271438655,1.3576500830817138,-0.3771141767501831,0.6508810520172119,-0.6588921546936035,-0.5870173573493958,0.24648328125476837,-0.4940381944179535
4.9199748039245605,0.05217936635017395,-0.040179669857025146,-0.10202550888061523,-0.7142864472027237,-0.5272968236602442,1.337368033997415,-0.3801976442337036,0.6550784707069397,-0.6529334187507629,-0.6630623936653137,0.3359301686286926,-0.5636499524116516
4.939973831176758,0.015498489141464233,-0.002027750015258789,-0.12811917066574097,-0.7194615382870966,-0.5341704088535035,1.3156480709928613,-0.3829454481601715,0.6589797735214233,-0.647378146648407,-0.58748459815979,0.39031410217285156,-0.5802493095397949
4.960006952285767,0.01874193549156189,0.0823548436164856,-0.15659558773040771,-0.7223439251599494,-0.5397336177855847,1.2959053977321637,-0.38556328415870667,0.661145031452179,-0.643605649471283,-0.4291481375694275,0.35088515281677246,-0.548352837562561
4.979975938796997,0.012294024229049683,0.08523327112197876,-0.16306477785110474,-0.723063269986729,-0.5448289812616803,1.27843817884491,-0.38859111070632935,0.6616845726966858,-0.6412258744239807,-0.29511508345603943,0.2815017104148865,-0.5464576482772827
4.999975919723511,-0.018747955560684204,0.09583169221878052,-0.1759035587310791,-0.7245584818257663,-0.5520950215383501,1.2591194435940836,-0.39272063970565796,0.662804901599884,-0.6375423669815063,-0.7733079791069031,0.28792357444763184,-0.6551672220230103
5.019975900650024,-0.10425031185150146,-0.004948437213897705,-0.21123796701431274,-0.7316258113488983,-0.5651821127079818,1.2289197859162218,-0.3985116183757782,0.6680802702903748,-0.6283767819404602,-1.0661413669586182,0.4503467381000519,-0.9140717387199402
5.040032863616943,-0.15831175446510315,0.06603986024856567,-0.25432032346725464,-0.7408656797560287,-0.5804832399189761,1.18998324233242,-0.4046765863895416,0.6749269366264343,-0.617017388343811,-1.1726715564727783,0.6466897130012512,-0.9683271646499634
5.059978008270264,-0.15195077657699585,0.1932252049446106,-0.3180190920829773,-0.7460848434276923,-0.5893263185337433,1.1540504575570079,-0.40815362334251404,0.6787688732147217,-0.6104780435562134,-0.6857011318206787,0.8967292904853821,-0.937023937702179
5.0799760818481445,-0.12286949157714844,0.22812438011169434,-0.2425246238708496,-0.7417269497588769,-0.5848118045892184,1.1304915140235547,-0.4070225656032562,0.6755622029304504,-0.6147750020027161,0.11465336382389069,1.1272878646850586,-0.7293307781219482
5.100013971328735,-0.065041184425354,0.16514915227890015,-0.09631133079528809,-0.7297506890797631,-0.5681348494963607,1.1220411659271896,-0.40103861689567566,0.6666838526725769,-0.6282520890235901,0.3762681484222412,1.0721361637115479,-0.42457443475723267
5.120068073272705,-0.013304948806762695,-0.07165998220443726,0.09961968660354614,-0.7240640297348551,-0.5522733317393991,1.112367100294997,-0.39300617575645447,0.6624345779418945,-0.6377511620521545,-0.3007011413574219,1.1592286825180054,-0.6178362369537354
5.139317989349365,-0.058114081621170044,-0.2754160165786743,0.19999635219573975,-0.7262936930067797,-0.5435043803141067,1.0914488295587217,-0.3866339325904846,0.6641032099723816,-0.6399071216583252,-0.6241695284843445,1.1371990442276,-0.5389449596405029
5.159945964813232,-0.13121247291564941,-0.16686242818832397,0.15769487619400024,-0.7297446962032088,-0.5339462865913613,1.0704568628090392,-0.37933143973350525,0.6666793823242188,-0.6415966749191284,-0.4535837769508362,1.1879326105117798,-0.7303263545036316
5.179945945739746,-0.2203860878944397,-0.058167099952697754,0.10910576581954956,-0.7267912440431351,-0.5282714042256252,1.0443996806480162,-0.37667515873908997,0.66447514295578,-0.6454367637634277,-0.2971722483634949,1.182326316833496,-1.0423063039779663
5.199985980987549,-0.23244506120681763,-0.062128543853759766,0.162722647190094,-0.7217514100346225,-0.5199924897698722,1.0170284631490862,-0.3729780316352844,0.6607003808021545,-0.6514310240745544,-0.3749947249889374,1.4261807203292847,-0.9748733639717102
5.219121932983398,-0.21333372592926025,-0.013727724552154541,0.11467993259429932,-0.72059341082726,-0.5120914441947553,0.98669027396203,-0.3681941032409668,0.6598306894302368,-0.6550240516662598,-0.6178556084632874,1.3790051937103271,-1.0708867311477661
5.239803791046143,-0.1498633325099945,-0.0018584132194519043,0.12064981460571289,-0.7227303268302656,-0.5054970590027876,0.9547444127013942,-0.36318305134773254,0.6614348888397217,-0.6562026739120483,-0.7337931990623474,1.3884185552597046,-0.8933069109916687
5.259975910186768,-0.07029250264167786,-0.029676854610443115,0.1392502784729004,-0.7276463715745232,-0.4980210624267338,0.925755236609344,-0.3567095696926117,0.6651139259338379,-0.6560348272323608,-0.7276895642280579,1.2764642238616943,-0.8008092045783997
5.27956485748291,-0.023984938859939575,-0.08430039882659912,0.1572951078414917,-0.7334813219972883,-0.492108159464913,0.8982634538540584,-0.350984662771225,0.6694597601890564,-0.6547010540962219,-0.7745097875595093,1.16074800491333,-0.7204204797744751
5.300055027008057,0.006833076477050781,-0.17537283897399902,0.16777867078781128,-0.7412840005405092,-0.48854699210629815,0.8712878218780196,-0.34618866443634033,0.6752355694770813,-0.6513143181800842,-0.8768454790115356,1.0246810913085938,-0.6820229887962341
5.319944858551025,0.014710217714309692,-0.23384630680084229,0.17351430654525757,-0.7516168879205577,-0.48743681907033165,0.8438009009771127,-0.34217917919158936,0.6828209161758423,-0.645499050617218,-0.9470347166061401,0.9455325603485107,-0.624032735824585
5.339944839477539,0.016498088836669922,-0.22327697277069092,0.10508322715759277,-0.7611484517078988,-0.48855724510517345,0.8169761674264732,-0.3398319482803345,0.6897534132003784,-0.639339029788971,-0.7906551361083984,0.7934353351593018,-0.6629018783569336
5.359991073608398,0.023071467876434326,-0.17377561330795288,0.058562397956848145,-0.7665549400893963,-0.49141004788782183,0.7917843557649333,-0.3398898243904114,0.6936578750610352,-0.6350698471069336,-0.5558392405509949,0.6584013104438782,-0.6905915141105652
5.379947900772095,0.027278542518615723,-0.16997957229614258,0.030908942222595215,-0.7685103671153423,-0.49583752216443816,0.7684232646752841,-0.34205225110054016,0.6950650215148926,-0.6323645114898682,-0.42870059609413147,0.5229304432868958,-0.6977524757385254
5.3999879360198975,0.03848275542259216,-0.1818246841430664,0.009824275970458984,-0.7685374771921544,-0.5021672954926905,0.7466421395949316,-0.3460390269756317,0.6950845122337341,-0.6301701664924622,-0.33444392681121826,0.3556539714336395,-0.6869340538978577
5.4199748039245605,0.0435754656791687,-0.15788745880126953,-0.015007734298706055,-0.7671642156512687,-0.5101325133686345,0.7268409114999306,-0.35151323676109314,0.6940966248512268,-0.6282264590263367,-0.24361643195152283,0.23383520543575287,-0.6192584037780762
5.4400458335876465,0.03596511483192444,-0.15746217966079712,-0.04455381631851196,-0.7657689084674586,-0.5183812134112261,0.7092062085924571,-0.357162743806839,0.6930914521217346,-0.626146137714386,-0.3082856237888336,0.17042578756809235,-0.5656535625457764
5.459989070892334,0.032920777797698975,-0.17228585481643677,-0.0689818263053894,-0.7674952104333288,-0.5285501234000692,0.6900877930530792,-0.3629074990749359,0.694334864616394,-0.621447741985321,-0.5515803694725037,0.12754827737808228,-0.5461206436157227
5.479974985122681,0.05622905492782593,-0.21921563148498535,-0.12298732995986938,-0.7724172830868122,-0.5406515092700209,0.6693854173928372,-0.36863765120506287,0.6978685855865479,-0.6140730977058411,-0.586256742477417,0.1156931221485138,-0.46643033623695374
5.499975919723511,0.08571138978004456,-0.19309747219085693,-0.19976341724395752,-0.7776785024995023,-0.5518122768866511,0.6502430260743808,-0.373538076877594,0.7016271352767944,-0.6067855358123779,-0.5289459824562073,0.13051477074623108,-0.45237067341804504
5.519975900650024,0.1293230950832367,-0.2014789581298828,-0.27682894468307495,-0.7789703473484346,-0.5609857060991648,0.6337169123101416,-0.37860605120658875,0.7025470733642578,-0.6025654077529907,-0.22303076088428497,0.08577702939510345,-0.4527478814125061
5.539977073669434,0.21801188588142395,-0.25246691703796387,-0.2654496431350708,-0.7788320650483681,-0.5706091077573235,0.6197366990677262,-0.3844396471977234,0.7024486660957336,-0.5989758968353271,-0.3338734209537506,-0.07221837341785431,-0.42218533158302307
5.560004949569702,0.2868342697620392,-0.27487045526504517,-0.2838785648345947,-0.7789444000844784,-0.585846860571279,0.6030717635946609,-0.3934780955314636,0.7025285959243774,-0.5929828882217407,-0.39173686504364014,-0.27351152896881104,-0.570286214351654
5.579977035522461,0.32913902401924133,-0.2413473129272461,-0.2087518572807312,-0.7816072137935436,-0.6114904217317111,0.5754774807050054,-0.40747785568237305,0.7044211030006409,-0.581165075302124,-0.9359195232391357,-0.36065247654914856,-0.978033185005188
5.599940776824951,0.37710773944854736,-0.38899487257003784,-0.0920867919921875,-0.784604718842132,-0.6487001816397392,0.5339625150623964,-0.4275381565093994,0.7065455317497253,-0.5639188885688782,-1.0462950468063354,-0.40342968702316284,-1.06345534324646
5.619926929473877,0.4584730565547943,-0.43138831853866577,-0.00862574577331543,-0.7925343518353195,-0.6886201857529249,0.49088053544519455,-0.44612884521484375,0.7121347784996033,-0.54206383228302,-1.4920326471328735,-0.5917238593101501,-0.9254602193832397
5.640009880065918,0.44776651263237,-0.3887331485748291,0.04324156045913696,-0.8046183316695527,-0.7441499945574949,0.4361680424101552,-0.46966299414634705,0.7205660343170166,-0.5100993514060974,-1.8773868083953857,-1.0273010730743408,-1.2056416273117065
5.659975051879883,0.36129647493362427,-0.3243333697319031,0.05432385206222534,-0.809084856878466,-0.812412512741713,0.3727935013806495,-0.5010213255882263,0.7236558794975281,-0.4746575653553009,-1.359641432762146,-1.1943787336349487,-1.5877212285995483
5.679976940155029,0.31611454486846924,-0.14741027355194092,0.05275505781173706,-0.7940616442687957,-0.8718365076940908,0.32416293514325634,-0.5365889668464661,0.7132061719894409,-0.4510093331336975,-0.11105401068925858,-1.2463291883468628,-1.7838138341903687
5.699976921081543,0.2591368556022644,-0.017223477363586426,0.004305839538574219,-0.758645220322203,-0.9167731762490896,0.2976155826706443,-0.576000988483429,0.6879388093948364,-0.4415462911128998,0.6532823443412781,-1.4300141334533691,-2.200145959854126
5.719995975494385,0.25315821170806885,-0.11573559045791626,0.09767669439315796,-0.7137337026764141,-0.967469887357474,0.27133954451529063,-0.6224668025970459,0.654660701751709,-0.4288991093635559,0.3335859179496765,-1.9342575073242188,-2.491487979888916
5.7399749755859375,0.29073870182037354,-0.27768421173095703,0.3159995973110199,-0.6760174701059968,-1.0326810407694471,0.23446172647144037,-0.6698281168937683,0.6256913542747498,-0.39980071783065796,-0.6581522822380066,-2.226520299911499,-2.2493507862091064
5.759982109069824,0.12070709466934204,-0.21379154920578003,0.3680790662765503,-0.6466221474812642,-1.10390677050851,0.18475820839711105,-0.7127024531364441,0.6024938821792603,-0.35924410820007324,-1.3124711513519287,-1.8376648426055908,-2.2493793964385986
5.779975891113281,0.032156944274902344,-0.14401572942733765,0.3090333640575409,-0.6178734863907313,-1.1703209347514996,0.12967510437903298,-0.7506170272827148,0.5793031454086304,-0.31777650117874146,-1.4705194234848022,-1.6066828966140747,-2.2320518493652344
5.800019979476929,0.09037172794342041,-0.068023681640625,0.22279921174049377,-0.5849644242236209,-1.2310717794382218,0.08033221567474919,-0.7860810160636902,0.5521697402000427,-0.27782225608825684,-1.004224419593811,-1.6840360164642334,-2.3383405208587646
5.819976806640625,0.06389594078063965,0.08317875862121582,0.12880608439445496,-0.542784340564482,-1.2790532051340069,0.051822472853362236,-0.8200912475585938,0.5165221691131592,-0.24628335237503052,-0.04652567207813263,-1.5995246171951294,-2.422092914581299
5.8399739265441895,0.05475807189941406,0.11934614181518555,0.1511601209640503,-0.4954310115834149,-1.3163357211783486,0.039960347898510634,-0.8514348268508911,0.4754108786582947,-0.22145718336105347,0.2513214349746704,-1.5288887023925781,-2.4051671028137207
5.860005855560303,0.057575523853302,0.01963743567466736,0.18164995312690735,-0.44962958336271647,-1.3496816468350954,0.03091632146601612,-0.8786816596984863,0.43463197350502014,-0.1975189745426178,-0.005838828161358833,-1.4145108461380005,-2.2396762371063232
5.879974842071533,-0.01210111379623413,0.014221012592315674,0.13481539487838745,-0.4080167626642443,-1.3819772803675818,0.01714787457416313,-0.9015952944755554,0.39678966999053955,-0.17229078710079193,-0.3941199779510498,-1.2417118549346924,-2.1321756839752197
5.8999738693237305,-0.11952823400497437,0.05405151844024658,0.1281920224428177,-0.36841040101518147,-1.4121267766243304,-0.00436780600171891,-0.9211822152137756,0.36013296246528625,-0.14740265905857086,-0.9158640503883362,-0.8992229104042053,-2.095353126525879
5.9199748039245605,-0.19923901557922363,-0.018801182508468628,0.11832177639007568,-0.33178548518058426,-1.436352286615619,-0.03539752948304914,-0.9369304776191711,0.32573166489601135,-0.12672919034957886,-1.4025858640670776,-0.4840218126773834,-1.944677710533142
5.939974784851074,-0.24931663274765015,0.02387017011642456,0.016229450702667236,-0.2986175413877646,-1.4535722540391476,-0.07124873013817799,-0.9491850733757019,0.2941991984844208,-0.11177981644868851,-1.5261521339416504,-0.09905415773391724,-1.791682243347168
5.959975004196167,-0.22123366594314575,0.1273120939731598,0.08536368608474731,-0.26885957670406807,-1.4607259646856454,-0.10849438140563337,-0.958240270614624,0.26563215255737305,-0.10590188205242157,-1.8122763633728027,0.38637182116508484,-1.5391141176223755
5.979974985122681,-0.12420094013214111,0.06841374933719635,0.2052028626203537,-0.24719096580025787,-1.4623095102539059,-0.1550782028485758,-0.9639034867286682,0.24468128383159637,-0.10498300194740295,-2.469820976257324,0.6718411445617676,-1.0838086605072021
5.999974966049194,-0.019366919994354248,0.05483721196651459,0.2522999048233032,-0.23646857437030397,-1.4598883265274032,-0.20982158462902176,-0.9661983251571655,0.23427094519138336,-0.10760066658258438,-2.58901047706604,0.8630044460296631,-0.6000165939331055
6.019973993301392,0.029835402965545654,0.12371979653835297,0.23257261514663696,-0.23411037768378892,-1.4511214224140647,-0.2571349156475214,-0.9657638072967529,0.23197771608829498,-0.11613264679908752,-1.9155986309051514,1.0855683088302612,-0.17995768785476685
6.039973974227905,0.0187838077545166,0.12767942249774933,0.17311803996562958,-0.23482424519543071,-1.437268385627032,-0.2865076975436177,-0.9638981223106384,0.2326720505952835,-0.12947776913642883,-0.9070667624473572,0.9267722964286804,-0.15729346871376038
6.060034990310669,-0.03748655319213867,0.14689332246780396,0.13345706462860107,-0.23108863334452173,-1.423411793346528,-0.29249909351237346,-0.9628644585609436,0.2290373593568802,-0.14294788241386414,0.4388410449028015,0.6186546087265015,-0.3135647475719452
6.0799760818481445,-0.1450158953666687,0.07630546391010284,0.15069127082824707,-0.22044315736231038,-1.4078766884993077,-0.2742304620774949,-0.9628790616989136,0.2186620831489563,-0.15827473998069763,1.333949327468872,0.5144655704498291,-0.4809131324291229
6.099987983703613,-0.11370563507080078,0.008829668164253235,0.34836769104003906,-0.20484966844266053,-1.3936144432445081,-0.2459914432128288,-0.9637632966041565,0.20341996848583221,-0.17257104814052582,1.631784200668335,0.2640933394432068,-0.576046884059906
6.119985103607178,-0.1437063217163086,-0.007674157619476318,0.35742491483688354,-0.18738817684080208,-1.3849572107952246,-0.21335325692618554,-0.9655771851539612,0.18629343807697296,-0.1815367043018341,1.8754364252090454,0.0027450877241790295,-0.5841845870018005
6.139985084533691,-0.26820993423461914,0.15725116431713104,0.41986364126205444,-0.16793887510108757,-1.3757309920264256,-0.17708971750600716,-0.9672332406044006,0.1671505719423294,-0.1911037117242813,2.1114988327026367,0.3491767346858978,-0.568697988986969
6.159982919692993,-0.3602868914604187,0.21963906288146973,0.5476356744766235,-0.15213230672102007,-1.3575121048678882,-0.13987398466402295,-0.9660530090332031,0.1515461504459381,-0.2092261165380478,1.841333270072937,0.824564516544342,-0.2824244499206543
6.180010795593262,-0.5954071879386902,0.22088097035884857,0.4485657215118408,-0.13843210106326415,-1.338083631239387,-0.11027402523874584,-0.9637359380722046,0.13799038529396057,-0.22841177880764008,1.0900349617004395,0.5106055736541748,-0.3144529461860657
6.199984073638916,-0.6413441300392151,0.28490233421325684,0.5065973997116089,-0.12913723213399242,-1.3360522930123004,-0.0921281204739117,-0.9644757509231567,0.1287786066532135,-0.23065735399723053,1.050403356552124,-0.1611710488796234,0.17064118385314941
6.219974994659424,-0.4912950396537781,0.18057672679424286,0.7273896336555481,-0.14121157975492102,-1.325188581809729,-0.06048089471488452,-0.9603345990180969,0.1407427340745926,-0.24072563648223877,1.5416427850723267,0.6825026869773865,1.3397657871246338
6.2399749755859375,-0.7748146057128906,0.4408780038356781,0.3376862406730652,-0.15003143705805577,-1.3124754214916563,-0.021718154102379622,-0.9559593796730042,0.14946921169757843,-0.25258782505989075,1.9936447143554688,0.03235979378223419,0.7792720198631287
6.260075092315674,-0.6260934472084045,0.44704192876815796,0.1634891927242279,-0.16160111451091155,-1.3031591040606645,0.024559191678794706,-0.951833188533783,0.16089867055416107,-0.2610079348087311,2.047441244125366,0.22043250501155853,1.5326521396636963
6.279983997344971,-0.7253193259239197,0.16119873523712158,0.12235745787620544,-0.18752403970173173,-1.2888876382531622,0.06724304353920253,-0.9436870217323303,0.18642690777778625,-0.2733124792575836,1.0930125713348389,0.6142503619194031,2.134953737258911
6.299956798553467,-0.8032885193824768,0.11697247624397278,0.1963803768157959,-0.23053838693323567,-1.268217063765112,0.0904847145405221,-0.929316520690918,0.22850169241428375,-0.29009971022605896,0.05896377936005592,0.9378623366355896,2.559816837310791
6.319947004318237,-0.8513110876083374,0.1569826602935791,0.0575767457485199,-0.27932901032149965,-1.2429941881911764,0.1117510732682099,-0.9100567698478699,0.27571073174476624,-0.30948391556739807,0.5372443199157715,1.00761878490448,2.7110307216644287
6.339963912963867,-0.8139955401420593,0.2767290472984314,-0.1039569079875946,-0.32215236573633615,-1.215500167761868,0.14960294173430064,-0.8893128037452698,0.3166089355945587,-0.32997241616249084,1.5093261003494263,0.693740963935852,2.5542521476745605
6.3599770069122314,-0.7018709778785706,0.2249060869216919,-0.12251776456832886,-0.3586456089033573,-1.1872368126311639,0.20104965135521435,-0.8683347702026367,0.35100632905960083,-0.3504130244255066,1.6035016775131226,0.3842352628707886,2.598614454269409
6.380002021789551,-0.7061868906021118,0.04272446036338806,-0.06831002235412598,-0.39664083011954904,-1.1594778812916973,0.2508734582859885,-0.8454337120056152,0.38632214069366455,-0.3687778413295746,1.289328932762146,0.7039492130279541,2.6584534645080566
6.399734973907471,-0.7865399122238159,0.09240862727165222,-0.0905551016330719,-0.4317274081051588,-1.1239462270028489,0.302384782907312,-0.8190662264823914,0.4184403419494629,-0.3924769163131714,1.4713248014450073,0.6843881607055664,2.519294261932373
6.420000076293945,-0.6156594753265381,0.12152597308158875,-0.14789307117462158,-0.46341020267022187,-1.0885784388956101,0.3549937794228385,-0.7925284504890442,0.44700124859809875,-0.414835661649704,1.4808673858642578,0.5673385262489319,2.4710702896118164
6.440004825592041,-0.5172196626663208,0.0697295069694519,-0.2465798258781433,-0.4924446481972395,-1.0505807267251748,0.4150884124700399,-0.7646102905273438,0.4727814793586731,-0.43800559639930725,1.7305831909179688,0.4775264263153076,2.5975658893585205
6.459964990615845,-0.5131030678749084,0.13258489966392517,-0.15663912892341614,-0.5183370534592989,-1.0122594417251976,0.47666628813519807,-0.7366375923156738,0.49543631076812744,-0.46033453941345215,1.494533896446228,0.4115680754184723,2.4148707389831543
6.480021953582764,-0.4867827296257019,0.011626958847045898,-0.04762062430381775,-0.5429485838976679,-0.9745195341224437,0.5345184629173236,-0.7084382772445679,0.5166627764701843,-0.4808063209056854,1.5008339881896973,0.4781051576137543,2.3989038467407227
6.5000319480896,-0.4009554982185364,0.07225948572158813,-0.04337573051452637,-0.5583005039262361,-0.9279597398847125,0.6026268558167053,-0.6788633465766907,0.5297455191612244,-0.5084429979324341,2.381228446960449,0.49685314297676086,2.2657864093780518
6.519978046417236,-0.33108896017074585,0.1804807186126709,-0.06347233057022095,-0.5644943285197542,-0.8786392114795908,0.6797614466648633,-0.6504327654838562,0.5349886417388916,-0.5391886234283447,2.204655408859253,0.3930329382419586,2.242385149002075
6.539978981018066,-0.3110561966896057,-0.09963077306747437,0.06951934099197388,-0.5751754147570728,-0.8344297698191645,0.7473204766828537,-0.6216983795166016,0.5439819693565369,-0.5635377168655396,1.3678101301193237,0.41494736075401306,2.2769250869750977
6.5599870681762695,-0.30813711881637573,-0.11412513256072998,0.09648716449737549,-0.5906360929505463,-0.7956550216021264,0.8029635860959274,-0.5933064818382263,0.5568894743919373,-0.5812587141990662,1.0946176052093506,0.38046708703041077,2.051661252975464
6.5800089836120605,-0.26035648584365845,-0.0206449031829834,0.04714787006378174,-0.6026383997433834,-0.7572812949380401,0.8576639873286847,-0.5659375786781311,0.5668180584907532,-0.5986919403076172,1.22511887550354,0.4233092665672302,2.0700623989105225
6.600009918212891,-0.223119854927063,-0.14189141988754272,0.07814526557922363,-0.6130107573776593,-0.7163954747071348,0.9132606320541026,-0.5371036529541016,0.5753326416015625,-0.6168566346168518,1.033785343170166,0.4843672215938568,1.946732759475708
6.6200549602508545,-0.206234872341156,-0.15497416257858276,0.08863800764083862,-0.6222266314752947,-0.6786680759247363,0.9618537538446263,-0.5101043581962585,0.58284592628479,-0.6325221657752991,0.9161198735237122,0.46036386489868164,1.7489032745361328
6.639978885650635,-0.16414326429367065,-0.15538376569747925,0.09587877988815308,-0.6287361008676933,-0.6426647220744995,1.0061868521978847,-0.4847215414047241,0.5881230235099792,-0.6474227905273438,0.8007236123085022,0.49709710478782654,1.462813138961792
6.660007953643799,-0.1328851580619812,-0.1582186222076416,0.09459429979324341,-0.6344037741338946,-0.6100417846078121,1.0450061304840697,-0.4614294767379761,0.5926973819732666,-0.6601458787918091,0.6196383237838745,0.5646612048149109,1.4362114667892456
6.679977893829346,-0.11363533139228821,-0.22921770811080933,0.1303829550743103,-0.6401182465881001,-0.5761343833899758,1.0809164623670613,-0.43693238496780396,0.5972902774810791,-0.6725581288337708,0.5275206565856934,0.6371980905532837,1.2392116785049438
6.699979782104492,-0.10957735776901245,-0.14839893579483032,0.14412474632263184,-0.6440902070374309,-0.5446367460400474,1.110591852972746,-0.4143027663230896,0.6004711985588074,-0.6839500069618225,0.3920200765132904,0.7246732711791992,0.9827761054039001
6.719986915588379,-0.05533960461616516,-0.20427435636520386,0.18557584285736084,-0.6466085683196312,-0.5160452248769756,1.1339881121493194,-0.3938334882259369,0.6024830937385559,-0.6941969394683838,0.2264244109392166,0.7802752256393433,0.7920815944671631
6.740005016326904,-0.008405685424804688,-0.27247995138168335,0.2271275520324707,-0.6489798472751902,-0.4910104541380375,1.1539532696772576,-0.3756581246852875,0.6043739914894104,-0.7025760412216187,0.12358827143907547,0.6567365527153015,0.634020209312439
6.759637832641602,-0.02092832326889038,-0.2405814528465271,0.2606808543205261,-0.6486063330088272,-0.46882747766852717,1.169985379983685,-0.3600837290287018,0.6040763258934021,-0.7109370231628418,0.7710921168327332,0.6034119129180908,0.4277437627315521
6.780012130737305,-0.07395970821380615,-0.19071483612060547,0.14151275157928467,-0.6406449648995107,-0.4483837434568337,1.1856561164216366,-0.3475492000579834,0.5977126359939575,-0.7224605083465576,0.4225327968597412,0.4784492254257202,0.3134361803531647
6.79997992515564,-0.06886515021324158,-0.24400824308395386,0.2316441535949707,-0.6355469056684672,-0.4347849453343776,1.192142574810446,-0.338971883058548,0.5936177372932434,-0.7298740744590759,0.5227739214897156,0.48901689052581787,0.05463267117738724
6.819974899291992,-0.11201009154319763,-0.2350078821182251,0.18884867429733276,-0.6263468326368732,-0.41919636500516977,1.1989741485019958,-0.32976245880126953,0.5861889719963074,-0.7400264739990234,0.3390422761440277,0.6605907082557678,-0.06597863137722015
6.8400068283081055,-0.0924575924873352,-0.17831265926361084,0.24011856317520142,-0.6180736065102239,-0.4091293766019727,1.1972705722742152,-0.32421422004699707,0.5794662237167358,-0.7477325797080994,0.38945361971855164,0.4900246560573578,-0.29021233320236206
6.860008955001831,-0.07910951972007751,-0.21072542667388916,0.2930383086204529,-0.6212826875205772,-0.40039922537080175,1.1871487117069321,-0.31694769859313965,0.5820786356925964,-0.7488181591033936,-0.7637950778007507,0.8988981246948242,-0.5859995484352112
6.8801000118255615,-0.21355703473091125,-0.5966541171073914,-0.0558011531829834,-0.6106123662124459,-0.391786855756068,1.1744766063983525,-0.3128407895565033,0.5733692646026611,-0.757217526435852,0.398382306098938,1.0228582620620728,-0.4848206639289856
6.899979114532471,-0.05172744393348694,0.09992098808288574,0.18682217597961426,-0.5945040598851745,-0.37936686802849945,1.1634216622678442,-0.3067931532859802,0.5600979924201965,-0.7695246338844299,0.6144627332687378,0.6883403658866882,-0.984670102596283
6.919975996017456,0.024871021509170532,-0.2683369517326355,0.28944939374923706,-0.5811942308468123,-0.37343479501308846,1.147435755901138,-0.3049156963825226,0.5490224957466125,-0.778203547000885,0.09842059016227722,0.7963970899581909,-0.8083480596542358
6.940005779266357,-0.04060050845146179,-0.2448452115058899,0.27826035022735596,-0.5756988293660144,-0.36990928707993687,1.1248417928172534,-0.30325642228126526,0.5444211363792419,-0.7820749282836914,-0.23558595776557922,0.7068228125572205,-1.1797754764556885
6.959995985031128,-0.10147258639335632,-0.2075074315071106,0.29938971996307373,-0.5651120917576589,-0.38121737345727896,1.0880781987906418,-0.3142074644565582,0.5355104804039001,-0.7839019298553467,0.3795064687728882,0.4492129385471344,-1.8444547653198242
6.980014801025391,-0.12778857350349426,-0.3781551122665405,0.42189711332321167,-0.550231772136125,-0.38195701476245114,1.0551590011024583,-0.3177224099636078,0.5228847861289978,-0.7909765839576721,-0.19601792097091675,0.837786853313446,-1.68587327003479
6.999982833862305,-0.06855389475822449,-0.2235814332962036,0.3963853120803833,-0.5420866429287631,-0.39679518917987056,1.0076575474151646,-0.33105865120887756,0.5159246325492859,-0.7900772094726562,-0.4399696886539459,0.4435492753982544,-2.030574083328247
7.019993782043457,-0.14841344952583313,-0.23668545484542847,0.33576250076293945,-0.5379199344216472,-0.405597582062111,0.9626417771816252,-0.3388455808162689,0.5123507976531982,-0.7891010046005249,-0.7443304657936096,0.8687030673027039,-1.98829984664917
7.039978981018066,-0.21244844794273376,-0.11690855026245117,0.2705764174461365,-0.5357589862539432,-0.4174242234437128,0.9061712655814126,-0.3486020863056183,0.510493814945221,-0.7860487103462219,-0.8860251307487488,0.8796573281288147,-2.2841603755950928
7.059991836547852,-0.04295527935028076,-0.03439176082611084,0.20549190044403076,-0.5312255055591503,-0.4273324033081932,0.851348090453396,-0.3573286831378937,0.5065903067588806,-0.7846543788909912,-0.6874936819076538,0.9150604605674744,-2.325320243835449
7.080041885375977,-0.013173133134841919,-0.013786137104034424,0.2028905153274536,-0.5223041046628009,-0.4389512588493926,0.7934595719943938,-0.368327260017395,0.4988783597946167,-0.7845096588134766,-0.5966731905937195,0.9048967957496643,-2.535653829574585
7.0999839305877686,-0.011389464139938354,-0.04193770885467529,0.15893185138702393,-0.5112636247723483,-0.45180443520743374,0.7326890761826619,-0.3807615637779236,0.48927968740463257,-0.7846183776855469,-0.6958460807800293,0.9071083068847656,-2.6864874362945557
7.119982957839966,0.007110297679901123,-0.05701810121536255,0.17971885204315186,-0.4992891459036247,-0.46602557436303815,0.6681171612742937,-0.39448532462120056,0.47880157828330994,-0.7843024730682373,-0.7225217819213867,0.9587156176567078,-2.839303731918335
7.1399760246276855,0.0105971097946167,-0.00531420111656189,0.2357419729232788,-0.4856873256852512,-0.47846672013185887,0.6016275225580002,-0.40717318654060364,0.4668163061141968,-0.7850430011749268,-0.7584342360496521,0.9713846445083618,-2.9819109439849854
7.159997940063477,0.03145495057106018,0.025694847106933594,0.2743028998374939,-0.4712104890996421,-0.49152976447412494,0.5324250638692006,-0.4205389618873596,0.4539651870727539,-0.7855333089828491,-0.8181033730506897,0.9407906532287598,-3.120265245437622
7.179978847503662,0.033113300800323486,0.07178518176078796,0.26328688859939575,-0.4551339321710607,-0.5042625882165569,0.46245682281683953,-0.4339770972728729,0.43958261609077454,-0.7864038348197937,-0.8003789782524109,0.945654571056366,-3.1449501514434814
7.199978828430176,0.008906632661819458,0.14552858471870422,0.17192095518112183,-0.4398358549154356,-0.5162637137190805,0.3910611235817216,-0.4466509222984314,0.425790935754776,-0.7868958115577698,-1.0324441194534302,0.9703458547592163,-3.243103504180908
7.219973087310791,-0.006527751684188843,0.13985180854797363,0.11421477794647217,-0.42751065896858903,-0.5271321520370617,0.3157936360925315,-0.457782119512558,0.4146067798137665,-0.7864711284637451,-1.3235750198364258,1.139780044555664,-3.2758638858795166
7.24011492729187,0.031932830810546875,0.19349023699760437,0.15000003576278687,-0.41898809273966553,-0.534786455760696,0.23768747580686303,-0.4655725359916687,0.40683627128601074,-0.7859557867050171,-1.5094605684280396,1.274837613105774,-3.3242552280426025
7.260180950164795,0.10985442996025085,0.2992354929447174,0.18369895219802856,-0.4107494413282105,-0.5409831649633758,0.15942541103140076,-0.4721440076828003,0.3992965519428253,-0.785902202129364,-1.4529646635055542,1.3341596126556396,-3.2215309143066406
7.280010938644409,0.10973218083381653,0.24960580468177795,0.2522462010383606,-0.40424335569874453,-0.5426096465911683,0.08402680564772363,-0.47475308179855347,0.39332321286201477,-0.7873413562774658,-1.7027409076690674,1.4250597953796387,-3.089508533477783
7.30008602142334,0.02322244644165039,0.04301530122756958,0.1958380937576294,-0.4085643515303734,-0.5454332994565309,0.005449812540692834,-0.47608819603919983,0.39729225635528564,-0.7845373749732971,-2.4086177349090576,1.4632717370986938,-2.808074951171875
7.3200178146362305,-0.09337890148162842,-0.16110321879386902,0.09016531705856323,-0.4230613469354407,-0.5440540290820287,-0.07044870304081569,-0.471974641084671,0.41055381298065186,-0.780182957649231,-2.3717970848083496,1.7832850217819214,-2.486802577972412
7.340054988861084,-0.2508324980735779,-0.2055802047252655,-0.07310014963150024,-0.43559483068220184,-0.5369308222786984,-0.14616983020393678,-0.46373674273490906,0.4219497740268707,-0.77904212474823,-2.2210471630096436,2.1292669773101807,-2.799482583999634
7.359973907470703,-0.2628704905509949,-0.1349739134311676,-0.03055626153945923,-0.44206318177087256,-0.5246611920275948,-0.2241234205953296,-0.45276686549186707,0.42780521512031555,-0.7822946310043335,-1.9041991233825684,2.3388094902038574,-2.9103505611419678
7.380031108856201,-0.1337423324584961,0.021004855632781982,-0.014300286769866943,-0.44354549144378197,-0.5117561676656814,-0.29835217114712265,-0.44232288002967834,0.42914456129074097,-0.7875185608863831,-1.5451087951660156,2.1038007736206055,-2.805462598800659
7.400023937225342,-0.0395127534866333,0.07404270768165588,-0.018816649913787842,-0.44214564906572107,-0.5016419694042674,-0.36510737194786513,-0.43462371826171875,0.4278797507286072,-0.7924778461456299,-1.3287625312805176,1.807593822479248,-2.5786521434783936
7.420148849487305,-0.03640899062156677,-0.014466196298599243,0.007171154022216797,-0.44046688499476594,-0.49447610392473756,-0.4271588984817675,-0.4292741119861603,0.4263618290424347,-0.7962031364440918,-1.2573752403259277,1.6010242700576782,-2.4262137413024902
7.44004487991333,-0.019215911626815796,-0.10918757319450378,0.025352835655212402,-0.44003947780242053,-0.4887578240452417,-0.48512207750853187,-0.42479971051216125,0.42597517371177673,-0.7988055944442749,-1.1516633033752441,1.4383794069290161,-2.2253541946411133
7.460060119628906,-0.00837552547454834,-0.1586437225341797,-0.0035271644592285156,-0.43803609255339865,-0.4836355904009965,-0.5373579584254852,-0.4210984706878662,0.42416179180145264,-0.801724910736084,-0.8816616535186768,1.3340848684310913,-2.0648036003112793
7.491225004196167,-0.018728584051132202,-0.14487361907958984,0.03149014711380005,-0.42623259445669415,-0.46993909815369855,-0.6281742277997394,-0.41231703758239746,0.4134434163570404,-0.81182461977005,-0.7198095917701721,1.224542498588562,-1.9014294147491455
7.499928951263428,-0.018728584051132202,-0.14487361907958984,0.03149014711380005,-0.42623259445669415,-0.46993909815369855,-0.6281742277997394,-0.41231703758239746,0.4134434163570404,-0.81182461977005,-0.7198095917701721,1.224542498588562,-1.9014294147491455
7.526569843292236,0.05731034278869629,-0.1049475371837616,-0.03918623924255371,-0.4180931420404678,-0.4670444175347494,-0.7129034950927048,-0.41146692633628845,0.40601858496665955,-0.8159925937652588,-0.8150222301483154,0.6192930936813354,-1.6288816928863525
7.548465013504028,-0.04892325401306152,0.054889947175979614,-0.19707626104354858,-0.4157549258625451,-0.46988465612205427,-0.7509253527804501,-0.41421160101890564,0.40388065576553345,-0.8156648874282837,-0.5160226821899414,0.7489758729934692,-1.6415318250656128
7.568358898162842,-0.18874028325080872,0.28505533933639526,-0.15874791145324707,-0.40526881904975226,-0.4650818219518233,-0.7875297964310013,-0.41216617822647095,0.3942658305168152,-0.8213851451873779,-0.13600002229213715,1.1544256210327148,-1.7195684909820557
7.588573932647705,-0.11087647080421448,0.22978967428207397,0.008917808532714844,-0.3941190895871328,-0.45292203145847426,-0.8204763465829182,-0.4040466845035553,0.3839949667453766,-0.8302374482154846,-0.3010185658931732,1.2487753629684448,-1.5080249309539795
7.604926109313965,0.053602516651153564,0.09434810280799866,0.12804538011550903,-0.38936927847752634,-0.44262589246418915,-0.8518309055271465,-0.39625391364097595,0.3796049654483795,-0.835992157459259,-0.4935918152332306,1.003316879272461,-1.3276805877685547
7.6279778480529785,0.11830183863639832,0.059947311878204346,0.1450643539428711,-0.38669042987333013,-0.43501267915801406,-0.8814743555707096,-0.3903050720691681,0.3771252930164337,-0.8399038910865784,-0.4402752220630646,0.8988296985626221,-1.3166297674179077
7.647946834564209,0.14013773202896118,0.09347805380821228,0.09515434503555298,-0.3848545956511964,-0.431166752436775,-0.9114769507830685,-0.38736066222190857,0.3754243850708008,-0.8420262932777405,-0.488383948802948,0.6315793395042419,-1.243342399597168
7.668047904968262,0.15957733988761902,0.12812361121177673,-0.02096015214920044,-0.3828217131745404,-0.42943177279444367,-0.9383973724065057,-0.3862161338329315,0.37353941798210144,-0.8433892130851746,-0.4152902364730835,0.5548000931739807,-1.1356770992279053
7.688414096832275,0.11141416430473328,0.235125333070755,-0.09116917848587036,-0.3802328412640764,-0.42878622307852565,-0.9643424250805095,-0.38607239723205566,0.37113669514656067,-0.8445150256156921,-0.36278027296066284,0.5047531127929688,-1.1509315967559814
7.707998991012573,0.03175675868988037,0.2752322554588318,-0.137626051902771,-0.3779753090852326,-0.4265454800487911,-0.9893135602051285,-0.38452476263046265,0.3690394461154938,-0.8461386561393738,-0.3982393443584442,0.6692526340484619,-1.067824363708496
7.727638006210327,0.017453014850616455,0.2891588509082794,-0.09910279512405396,-0.3762570889774851,-0.42072207957723595,-1.013062984299868,-0.37984928488731384,0.36744198203086853,-0.8489410877227783,-0.3881213665008545,0.7514312267303467,-0.9976892471313477
7.747483968734741,0.06433704495429993,0.2492872178554535,-0.050291478633880615,-0.37711081796864626,-0.41425855579387144,-1.0357082327440885,-0.3742278218269348,0.36823585629463196,-0.8510910272598267,-0.5551033616065979,0.7239466905593872,-0.8755044341087341
7.766587972640991,0.10921716690063477,0.15336471796035767,0.03305542469024658,-0.38244012898305796,-0.4078064459597837,-1.0574161868741536,-0.36794519424438477,0.3731854259967804,-0.8516741991043091,-0.6980190277099609,0.7209600210189819,-0.7973491549491882
7.7878289222717285,0.12626513838768005,0.10535433888435364,0.04517221450805664,-0.3854255526238714,-0.4005050347288482,-1.0759694720206165,-0.36128103733062744,0.3759534955024719,-0.8533082604408264,-0.35049962997436523,0.6986976265907288,-0.6586685180664062
7.8076159954071045,0.1756514310836792,0.11948615312576294,0.12584000825881958,-0.3860819496461954,-0.39332348613698487,-1.0912587909588034,-0.3550490438938141,0.3765616714954376,-0.8556526899337769,-0.3049617111682892,0.5839564800262451,-0.6096625328063965
7.827414035797119,0.20901340246200562,0.016195029020309448,0.19190430641174316,-0.3881629565937898,-0.38742552708318817,-1.1042125716125653,-0.349699467420578,0.378488689661026,-0.8570044636726379,-0.32409241795539856,0.5139100551605225,-0.41252151131629944
7.8473358154296875,0.22119274735450745,0.03558629751205444,0.159476637840271,-0.3902768296553556,-0.3817304252428722,-1.113094757674242,-0.34451428055763245,0.3804444372653961,-0.8582376837730408,-0.1694370061159134,0.39950478076934814,-0.31694117188453674
7.868879795074463,0.18419918417930603,0.07677415013313293,0.068473219871521,-0.38720513663022715,-0.37704995307788175,-1.11963594879502,-0.3409222364425659,0.3776019513607025,-0.8609232306480408,0.23777242004871368,0.3225495517253876,-0.34771886467933655
7.884975910186768,0.14974263310432434,0.059430062770843506,0.003599107265472412,-0.3779886576988866,-0.3721251745670036,-1.123673345719731,-0.33792930841445923,0.36905184388160706,-0.8657970428466797,0.413880854845047,0.33533957600593567,-0.3442726135253906
7.907045841217041,0.1288451850414276,0.03272959589958191,0.011864244937896729,-0.3684652110534373,-0.36661286182408215,-1.1274205898461975,-0.3343963623046875,0.36018407344818115,-0.870888352394104,0.31242015957832336,0.35954973101615906,-0.323557585477829
7.926218032836914,0.13751929998397827,-0.006446778774261475,0.03274655342102051,-0.36100844943284277,-0.3613066971093618,-1.1316849513007512,-0.33071085810661316,0.35321786999702454,-0.8751385807991028,0.27135607600212097,0.285799503326416,-0.3237749934196472
7.946047782897949,0.13637679815292358,0.0033572912216186523,0.017847716808319092,-0.3523045789103821,-0.3579671645612615,-1.135120954397649,-0.32885119318962097,0.3450617492198944,-0.8790843486785889,0.3967837393283844,0.1720748245716095,-0.272554874420166
7.9673171043396,0.10526689887046814,-0.06413629651069641,0.0604630708694458,-0.34542433977763165,-0.35613555403777014,-1.1371598687349131,-0.328060507774353,0.338595986366272,-0.8818895220756531,0.08481569588184357,0.07482939958572388,-0.17501229047775269
7.987024784088135,0.09521645307540894,-0.14471405744552612,0.1277329921722412,-0.3454850483864724,-0.3573955563417535,-1.141373136632603,-0.3291642367839813,0.3386531174182892,-0.881456196308136,-0.13878998160362244,-0.036536891013383865,-0.1616080105304718
8.006206035614014,0.0979205071926117,-0.09481024742126465,0.12205386161804199,-0.34563918292088536,-0.3594289183633052,-1.1441617605578138,-0.3309375047683716,0.3387981355190277,-0.8807361721992493,0.07566700130701065,-0.07425568997859955,-0.10120589286088943
8.026894092559814,0.03518122434616089,-0.021556615829467773,0.05634117126464844,-0.34149450634832973,-0.36173302878676306,-1.1457838598079206,-0.3334600031375885,0.33489567041397095,-0.8812770843505859,0.19776317477226257,-0.09858100116252899,-0.19022896885871887
8.045424938201904,0.011952459812164307,-0.08296617865562439,0.05508720874786377,-0.3381045376852539,-0.36502913497365297,-1.14899252496676,-0.3367663323879242,0.33169955015182495,-0.8812286257743835,0.005605174228549004,-0.14227131009101868,-0.18960468471050262
8.066661834716797,0.04616093635559082,-0.09356650710105896,0.014313578605651855,-0.3377601111067978,-0.3700758843520447,-1.1523294711582077,-0.3412506580352783,0.3313745856285095,-0.8796243071556091,-0.07417135685682297,-0.2418893426656723,-0.1309487521648407
8.08684492111206,0.01741620898246765,-0.052404940128326416,-0.05528378486633301,-0.33770245177608194,-0.37616715735600736,-1.1557258037275113,-0.34660932421684265,0.331320196390152,-0.8775470852851868,-0.03893599659204483,-0.2502340078353882,-0.18754668533802032
8.10653305053711,-0.05997413396835327,-0.07561394572257996,-0.1016690731048584,-0.33700754184172177,-0.3823217276840608,-1.1613372396216592,-0.35208946466445923,0.3306644558906555,-0.8756106495857239,-0.12405621260404587,-0.15347017347812653,-0.34787243604660034
8.126888990402222,-0.10462716221809387,-0.11596328020095825,-0.08433389663696289,-0.3375303899995507,-0.38737883497461545,-1.17169186673001,-0.35644763708114624,0.3311578333377838,-0.8736587166786194,-0.2911028563976288,-0.02409149706363678,-0.5283987522125244
8.146378993988037,-0.07051470875740051,-0.10688480734825134,-0.04834789037704468,-0.3393750365635048,-0.3921679396733856,-1.185969958000401,-0.3603934943675995,0.3328978419303894,-0.8713756799697876,-0.35960349440574646,-0.009174510836601257,-0.6348967552185059
8.166347026824951,0.0184725821018219,-0.036739617586135864,-0.07477647066116333,-0.3415598524462636,-0.4000520119926202,-1.2017983501368823,-0.3669680655002594,0.3349572420120239,-0.867835283279419,-0.4238092601299286,-0.3021406829357147,-0.6446040868759155
8.185540914535522,0.02153611183166504,0.04064023494720459,-0.18721222877502441,-0.345738417771646,-0.4138045465022934,-1.2173620752564185,-0.37830185890197754,0.33889150619506836,-0.8614175915718079,-0.5819728970527649,-0.4976328909397125,-0.5562765002250671
8.206088066101074,-0.15387901663780212,0.1212959885597229,-0.31499403715133667,-0.35335777697239784,-0.42757298753361744,-1.2361572800152447,-0.3890439569950104,0.34605008363723755,-0.8537529706954956,-0.8289459943771362,-0.11913102120161057,-0.7827811241149902
8.226330995559692,-0.31854158639907837,0.13821950554847717,-0.2726098895072937,-0.361369756558754,-0.43130186493256717,-1.261129703063797,-0.39105314016342163,0.3535558581352234,-0.8497503995895386,-0.8126102685928345,0.6012036204338074,-0.967676043510437
8.246238946914673,-0.23933258652687073,0.11705154180526733,-0.17388546466827393,-0.3664194370848155,-0.4234946559708433,-1.2848173718092253,-0.3836685121059418,0.3582748770713806,-0.8511390089988708,-0.5664645433425903,0.926039457321167,-0.8349975347518921
8.266071796417236,-0.07298973202705383,0.06956097483634949,-0.05876004695892334,-0.36820710945808327,-0.4126089481606401,-1.3048422881317252,-0.37412330508232117,0.35994330048561096,-0.8546769022941589,-0.36742085218429565,0.8662043213844299,-0.8208455443382263
8.286026954650879,-0.044675081968307495,0.014551281929016113,0.01089102029800415,-0.36706436571890133,-0.4024209496991398,-1.3236832322869914,-0.3655574321746826,0.35887691378593445,-0.8588219881057739,-0.25612884759902954,0.8398764729499817,-0.8395367860794067
8.304237842559814,-0.08395904302597046,-0.062469273805618286,0.07196962833404541,-0.36457447082998257,-0.39237132025949367,-1.342753332646315,-0.35724884271621704,0.35655176639556885,-0.8632752299308777,-0.25547778606414795,0.8383076190948486,-0.8979845643043518
8.325797080993652,-0.08869320154190063,-0.11554601788520813,0.13118785619735718,-0.36428763450242685,-0.3831838979685145,-1.363153526586171,-0.3493408262729645,0.3562837541103363,-0.8666157722473145,-0.4553932547569275,0.8057044744491577,-0.8649847507476807
8.34596300125122,-0.09610003232955933,-0.08385759592056274,0.14119482040405273,-0.36808343613251365,-0.37485538375402827,-1.3841308555108147,-0.3416135609149933,0.3598279058933258,-0.868230402469635,-0.61994868516922,0.7981295585632324,-0.8255631923675537
8.366154909133911,-0.1168040931224823,0.016338765621185303,0.11141657829284668,-0.3740355819449878,-0.36611419335478695,-1.4055431999075623,-0.3332386016845703,0.36537495255470276,-0.8691681027412415,-0.6475248336791992,0.8641034364700317,-0.8196278214454651
8.384934902191162,-0.0828084647655487,0.09517624974250793,0.11410671472549438,-0.3799815499213995,-0.35666912948192214,-1.4272744105377888,-0.3242502212524414,0.370903342962265,-0.8702255487442017,-0.608725905418396,0.8411028981208801,-0.8513984084129333
