timestamp,acceleration_x,acceleration_y,acceleration_z,attitude_pitch,attitude_roll,attitude_yaw,gravity_x,gravity_y,gravity_z,rotation_x,rotation_y,rotation_z
0.0,0.19682937860488892,0.07411503791809082,0.04903578758239746,-0.5951896445655447,-0.44589737132272894,-0.09698030522970541,-0.35710784792900085,0.5606657862663269,-0.747079610824585,-0.4539203941822052,0.32663729786872864,-0.7252917885780334
0.019814014434814453,0.17097827792167664,0.05867469310760498,0.0028189420700073242,-0.5982683510715314,-0.45111735760868116,-0.11609532732128429,-0.36024847626686096,0.5632124543190002,-0.7436483502388,-0.5269134044647217,0.2207435518503189,-0.6076074838638306
0.039608001708984375,0.16376689076423645,0.039384424686431885,0.06851202249526978,-0.6012297412296693,-0.45845309199700623,-0.13507402010271025,-0.3649541735649109,0.5656570196151733,-0.7394867539405823,-0.4161699116230011,0.12728257477283478,-0.628875732421875
0.060037851333618164,0.16212722659111023,0.052250802516937256,0.09102225303649902,-0.6037259824933547,-0.466002816781179,-0.15204457437439187,-0.36989104747772217,0.567713737487793,-0.7354466319084167,-0.46402043104171753,0.07841366529464722,-0.5604218244552612
0.080352783203125,0.13322335481643677,0.037296831607818604,0.07457214593887329,-0.6063050573278229,-0.4757112838362246,-0.17006692670143253,-0.3763417601585388,0.5698350071907043,-0.7305169105529785,-0.38581860065460205,-0.030894100666046143,-0.6190882325172424
0.09993481636047363,0.13973873853683472,0.05913066864013672,0.02981281280517578,-0.6060470164876681,-0.4863408790238967,-0.1856746775429295,-0.38415417075157166,0.5696229338645935,-0.7266053557395935,-0.20174169540405273,-0.1442260593175888,-0.541547954082489
0.11992788314819336,0.13180693984031677,0.044093191623687744,0.0945785641670227,-0.6041823715714845,-0.49803188184419883,-0.1997768432099098,-0.3931291699409485,0.5680893659591675,-0.7229965329170227,-0.21574805676937103,-0.23269450664520264,-0.5728451609611511
0.13996481895446777,0.1379433572292328,0.016094326972961426,0.09820801019668579,-0.603587853710236,-0.5128294493104335,-0.2153352328786843,-0.40394994616508484,0.5676000118255615,-0.7173943519592285,-0.354915589094162,-0.37391430139541626,-0.5800409317016602
0.15995383262634277,0.1364271640777588,0.0142136812210083,0.08851617574691772,-0.6038890457800097,-0.5308803895177601,-0.23172849778707777,-0.4167465269565582,0.5678479671478271,-0.7098387479782104,-0.32828426361083984,-0.5017514824867249,-0.5630851984024048
0.17983579635620117,0.1250535547733307,0.04628247022628784,0.016293585300445557,-0.6028205723268194,-0.5505096943898935,-0.2458637342720192,-0.43091610074043274,0.5669681429862976,-0.7020387649536133,-0.1575884073972702,-0.6714762449264526,-0.5144774913787842
0.19992494583129883,0.09102684259414673,0.08720129728317261,-0.033017635345458984,-0.5978894587985294,-0.57048694990331,-0.25664293716509523,-0.44635841250419617,0.5628992915153503,-0.6956353187561035,0.07458411157131195,-0.67905592918396,-0.47745001316070557
0.21994876861572266,0.08695390820503235,0.06376463174819946,-0.012556612491607666,-0.5917719540094717,-0.5872616511382849,-0.2640084261090083,-0.4598635733127594,0.5578325390815735,-0.6909040212631226,0.07186734676361084,-0.6213043928146362,-0.39544469118118286
0.23995089530944824,0.12235286831855774,0.06385558843612671,-0.046262383460998535,-0.5869269322659835,-0.6046910803315332,-0.2709927455590448,-0.4733662009239197,0.553804874420166,-0.6849997639656067,0.0015191796701401472,-0.726935088634491,-0.3585546612739563
0.2599358558654785,0.08645132184028625,0.07869201898574829,-0.07738053798675537,-0.5838089262380869,-0.6220455852485421,-0.27753031360467706,-0.4861859679222107,0.5512059926986694,-0.6780820488929749,-0.0634356141090393,-0.6267501711845398,-0.2744130790233612
0.2799839973449707,0.08001360297203064,0.07046252489089966,-0.12340140342712402,-0.582772826703354,-0.6376340684658348,-0.28419089849217855,-0.4970364570617676,0.5503411889076233,-0.670879602432251,-0.14563846588134766,-0.605804979801178,-0.2664857804775238
0.29991579055786133,0.08600020408630371,0.07945507764816284,-0.1433122158050537,-0.5806847629063342,-0.6532972704145479,-0.29058796142317833,-0.5081804990768433,0.5485965609550476,-0.6639235019683838,0.021776260808110237,-0.5948230624198914,-0.28272518515586853
0.3199019432067871,0.05854076147079468,0.07768011093139648,-0.1254447102546692,-0.5768446507625222,-0.6653139391972585,-0.2942971491918202,-0.517418384552002,0.5453819036483765,-0.6594215631484985,0.03532002121210098,-0.3888505697250366,-0.20018498599529266
0.3399229049682617,0.04092991352081299,0.026861608028411865,-0.1223260760307312,-0.575178864732679,-0.6744342396870476,-0.29912878843548635,-0.523977518081665,0.5439848899841309,-0.6553838849067688,-0.13567674160003662,-0.2743832767009735,-0.2314806580543518
0.3599379062652588,0.05096292495727539,0.017803609371185303,-0.10850465297698975,-0.5747720288796017,-0.6832514401895381,-0.3058728574738646,-0.5298753976821899,0.5436434745788574,-0.6509100198745728,-0.17306312918663025,-0.28339818120002747,-0.25322070717811584
0.3794727325439453,0.0031996965408325195,0.03563225269317627,-0.15940523147583008,-0.5720397899672494,-0.6943343244824711,-0.313755424923108,-0.5380051136016846,0.5413482189178467,-0.6461367011070251,0.02174432948231697,-0.4121781587600708,-0.46075546741485596
0.39989185333251953,-0.0809248685836792,0.10443294048309326,-0.18779146671295166,-0.5622538052735512,-0.7068700981758343,-0.3211100137479503,-0.5494768619537354,0.5330944061279297,-0.6433393955230713,0.22692543268203735,-0.4027242958545685,-0.6474807858467102
0.42122602462768555,-0.17978578805923462,0.0681489109992981,-0.12506604194641113,-0.5516825675009539,-0.7201933216108789,-0.3343446573019788,-0.5616847276687622,0.5241209268569946,-0.6401622295379639,-0.22543510794639587,-0.22991114854812622,-0.9242690205574036
0.4432706832885742,-0.14473652839660645,0.03180819749832153,-0.1111716628074646,-0.5463274388466238,-0.7350972825879416,-0.35884556341949997,-0.5730370283126831,0.5195527672767639,-0.6337928771972656,-0.7579665184020996,0.03747333213686943,-0.9129732847213745
0.4589557647705078,-0.04671955108642578,0.004338085651397705,-0.053277790546417236,-0.549908077599822,-0.7459515227306578,-0.3871825236839603,-0.5786162614822388,0.5226088762283325,-0.626165509223938,-1.0884654521942139,0.314885675907135,-0.6436108946800232
0.4791748523712158,0.0100058913230896,-0.049306273460388184,-0.045311808586120605,-0.5585150714331395,-0.7519218730499931,-0.4128025798707576,-0.5792503952980042,0.5299274921417236,-0.6193915009498596,-0.9508750438690186,0.40555131435394287,-0.37670984864234924
0.4998779296875,-0.017903804779052734,-0.08180463314056396,-0.0055959224700927734,-0.5649662329110362,-0.7527070365364791,-0.4299669668410652,-0.5773875117301941,0.5353872776031494,-0.6164286136627197,-0.5187736749649048,0.4296002686023712,-0.279416024684906
0.5200018882751465,-0.09998941421508789,-0.15918076038360596,0.039568543434143066,-0.5670257365274174,-0.7503033401198036,-0.44090143571168033,-0.5751510858535767,0.5371256470680237,-0.6170068383216858,-0.312019407749176,0.38366785645484924,-0.30462002754211426
0.540003776550293,-0.19068241119384766,-0.21329432725906372,0.08927428722381592,-0.5664539538535796,-0.7493799268139686,-0.4536369132279433,-0.5747901797294617,0.5366432666778564,-0.6177623867988586,-0.42114222049713135,0.41150322556495667,-0.5390475392341614
0.5592260360717773,-0.2243736982345581,-0.20223921537399292,0.10919421911239624,-0.5650348998626603,-0.7508380886814137,-0.4738252595122209,-0.576209306716919,0.5354452729225159,-0.6174797415733337,-0.6245158314704895,0.52243971824646,-0.803802490234375
0.5798978805541992,-0.16814690828323364,-0.1734899878501892,0.07501959800720215,-0.5632994751414081,-0.7540367549670345,-0.49975822951037063,-0.5788167119026184,0.5339788198471069,-0.6163098812103271,-0.7410661578178406,0.520911455154419,-0.9134693145751953
0.5998938083648682,-0.11072689294815063,-0.15579020977020264,0.06461083889007568,-0.5611718304303767,-0.759296187168844,-0.5287299372048774,-0.5828309655189514,0.5321786999702454,-0.6140798330307007,-0.7895128726959229,0.4961917996406555,-1.0170834064483643
0.619891881942749,-0.0311545729637146,-0.17127931118011475,0.026443898677825928,-0.5584903180369275,-0.7657559913157106,-0.5591350309415898,-0.5877725481987,0.5299065113067627,-0.6113285422325134,-0.7898486256599426,0.4652770459651947,-1.02932608127594
0.6399178504943848,0.07623928785324097,-0.16604214906692505,0.004571795463562012,-0.5557358093260963,-0.7726563932862053,-0.588826793631969,-0.5929935574531555,0.527568519115448,-0.608301043510437,-0.7822554111480713,0.3987472951412201,-0.9675403237342834
0.6598949432373047,0.14901578426361084,-0.16614454984664917,-0.022041678428649902,-0.5543122258045257,-0.7815459503102563,-0.618781407752716,-0.5989060401916504,0.5263586640357971,-0.6035380959510803,-0.9123739004135132,0.2759532630443573,-0.9772875308990479
0.6798887252807617,0.20868992805480957,-0.19675308465957642,-0.03117990493774414,-0.5529840783198261,-0.7946556978456415,-0.6507127119654631,-0.6072648763656616,0.5252289175987244,-0.5961241126060486,-0.8408493995666504,0.07829683274030685,-1.023992657661438
0.699887752532959,0.25744444131851196,-0.18837237358093262,-0.027796149253845215,-0.5476986773457131,-0.8076753716862727,-0.6763936360614877,-0.6169721484184265,0.5207239389419556,-0.5900779962539673,-0.35915401577949524,-0.016596650704741478,-0.8255206346511841
0.719937801361084,0.23462820053100586,-0.14546340703964233,-0.11382246017456055,-0.5407769712295435,-0.8158730324018807,-0.6904575955657235,-0.6243988275527954,0.5148022770881653,-0.587456226348877,-0.10413293540477753,-0.08018326014280319,-0.5730874538421631
0.7400517463684082,0.19150114059448242,-0.1143227219581604,-0.1580115556716919,-0.5329136920154561,-0.8238353156408023,-0.7018307252907298,-0.6320072412490845,0.5080451369285583,-0.5851982831954956,-0.10149179399013519,-0.1419106423854828,-0.6821164488792419
0.759882926940918,0.2187325358390808,-0.08051872253417969,-0.15184831619262695,-0.5247420405602797,-0.8342057080979524,-0.7158162353418688,-0.6410959362983704,0.5009897947311401,-0.5813823342323303,-0.22162321209907532,-0.17472432553768158,-0.7447763681411743
0.7799220085144043,0.24287199974060059,-0.15577375888824463,-0.15074384212493896,-0.5172634884348668,-0.8450189007119079,-0.7311009024389159,-0.6501291990280151,0.4945034682750702,-0.5768868327140808,-0.27241092920303345,-0.15042929351329803,-0.6707228422164917
0.7999320030212402,0.2940606474876404,-0.16016578674316406,-0.19456768035888672,-0.5115992893051188,-0.8544841322929774,-0.7445789211652052,-0.6576624512672424,0.4895724058151245,-0.5725374221801758,-0.2050989866256714,-0.1335473358631134,-0.5486677885055542
0.8199458122253418,0.3264126181602478,-0.14181533455848694,-0.1955186128616333,-0.505439361945198,-0.8626490612984419,-0.7554679753684982,-0.6645932197570801,0.4841919243335724,-0.5690993070602417,-0.15080302953720093,-0.15937688946723938,-0.5679332613945007
0.839702844619751,0.3460621237754822,-0.1829293668270111,-0.09878021478652954,-0.4989712677067085,-0.8712624272369313,-0.7679359923311488,-0.6718526482582092,0.47852247953414917,-0.565358579158783,-0.3082808554172516,-0.10015998780727386,-0.5973748564720154
0.8592720031738281,0.4048151969909668,-0.19015628099441528,-0.12329596281051636,-0.4965508133923929,-0.8821549742076464,-0.7835709349483304,-0.6788631081581116,0.47639575600624084,-0.5587413907051086,-0.5481535196304321,-0.30434802174568176,-0.4804728627204895
0.8798236846923828,0.4346587657928467,-0.1148662269115448,-0.1838025450706482,-0.4939112024380011,-0.8996404983808053,-0.7990469822507911,-0.6895111799240112,0.47407326102256775,-0.5475664734840393,-0.1836124211549759,-0.664967954158783,-0.5531773567199707
0.8998808860778809,0.415671706199646,-0.068543940782547,-0.1862640380859375,-0.4847181149467234,-0.9130341999536719,-0.8004189654636065,-0.700202465057373,0.46595895290374756,-0.540924072265625,0.635586142539978,-0.5676829814910889,-0.22492294013500214
0.9193730354309082,0.39975064992904663,-0.06376370787620544,-0.10982805490493774,-0.47086369747132906,-0.916942947315986,-0.7868976616524712,-0.7073679566383362,0.4536561667919159,-0.5420578718185425,1.0670560598373413,-0.4766659140586853,-0.2049536406993866
0.939877986907959,0.41875410079956055,-0.10945215821266174,-0.05407935380935669,-0.4543961024225352,-0.9205838678847813,-0.7722770285452002,-0.7151866555213928,0.4389197826385498,-0.5439278483390808,0.9511488080024719,-0.5834296345710754,-0.28762224316596985
0.9598989486694336,0.42091017961502075,-0.12245941162109375,-0.09034097194671631,-0.4401707101507399,-0.929675624213306,-0.7617426831355747,-0.725033164024353,0.4260939061641693,-0.541083037853241,0.6471009850502014,-0.8141936659812927,-0.2971205413341522
0.9798040390014648,0.33117127418518066,-0.12233796715736389,-0.08580887317657471,-0.4279611139927285,-0.9450376247539146,-0.7570011228434292,-0.7374213933944702,0.41501665115356445,-0.5328892469406128,0.439877986907959,-0.8805495500564575,-0.4424890875816345
0.9999659061431885,0.24858182668685913,-0.09753522276878357,0.028435230255126953,-0.41594400863394926,-0.9611378810558798,-0.7573859000949281,-0.7499399185180664,0.40405362844467163,-0.5237659811973572,0.2089899331331253,-0.711729884147644,-0.5505883693695068
1.0198078155517578,0.21603178977966309,-0.09114792943000793,0.03683954477310181,-0.40564836013519007,-0.9773624739348916,-0.7620197836973782,-0.7617472410202026,0.394614577293396,-0.5138292908668518,0.07915337383747101,-0.7738489508628845,-0.5606287717819214
1.0398077964782715,0.16423720121383667,-0.07026824355125427,0.02410745620727539,-0.3925099537376175,-0.9951161333483204,-0.7672548189340105,-0.7750313878059387,0.38250869512557983,-0.5030044913291931,0.28264522552490234,-0.7487425208091736,-0.8332171440124512
1.0598950386047363,0.15377360582351685,-0.049561500549316406,0.09361901879310608,-0.3736559404352801,-1.010590449610533,-0.7710367114409523,-0.7886918783187866,0.3650215268135071,-0.4946962296962738,0.35387200117111206,-0.6924528479576111,-0.923201322555542
1.0798258781433105,0.11938482522964478,-0.09205183386802673,0.16081535816192627,-0.35439822330577486,-1.027117985020837,-0.7782585576758575,-0.8026277422904968,0.3470260500907898,-0.4851408898830414,0.07502897083759308,-0.7433173656463623,-1.0644636154174805
1.0998468399047852,0.11721932888031006,-0.0661507248878479,0.18654164671897888,-0.336163965422343,-1.0470050341045936,-0.7884211838618398,-0.8174604773521423,0.3298681974411011,-0.472170889377594,0.16503062844276428,-0.9328117966651917,-0.9542105793952942
1.119872808456421,0.023085057735443115,0.06720250844955444,0.13497495651245117,-0.3166321726925165,-1.0656848990546226,-0.7896458027149058,-0.8316178917884827,0.311367928981781,-0.4598498046398163,0.6982944011688232,-0.8180131912231445,-0.8644874691963196
1.1398138999938965,-0.11466604471206665,0.07195013761520386,0.17954513430595398,-0.29115465694823006,-1.078342808717052,-0.783997671362584,-0.8440895080566406,0.2870584726333618,-0.4528910219669342,0.9034115672111511,-0.646077036857605,-1.1411259174346924
1.1598567962646484,-0.1282837986946106,0.018790245056152344,0.1974460482597351,-0.2625354120971333,-1.0910879580172956,-0.7821589956030339,-0.856732189655304,0.2595299184322357,-0.4457065463066101,0.6054449677467346,-0.7216876149177551,-1.2819538116455078
1.1798429489135742,-0.1281694769859314,0.012098520994186401,0.15246617794036865,-0.23533739875689824,-1.1072837970888836,-0.784848168775063,-0.8698316812515259,0.23317109048366547,-0.4347689747810364,0.44331902265548706,-0.8282714486122131,-1.2764135599136353
1.19986891746521,-0.17751485109329224,0.00878317654132843,0.27792996168136597,-0.2065961686739002,-1.1240540327947763,-0.7873136135275669,-0.882681131362915,0.20512965321540833,-0.4228426516056061,0.6146625876426697,-0.7347867488861084,-1.4477128982543945
1.2199087142944336,-0.2804872989654541,0.040174633264541626,0.2684241235256195,-0.17392709871833065,-1.1346589194430035,-0.7879153579423621,-0.8927152156829834,0.17305152118206024,-0.4160681366920471,0.6895197033882141,-0.41206327080726624,-1.518943428993225
1.2398366928100586,-0.40246307849884033,0.0378890186548233,0.26284870505332947,-0.14095231492205246,-1.1426106889497336,-0.7909316466979486,-0.9006985425949097,0.14048604667186737,-0.4111030101776123,0.3305692970752716,-0.31023573875427246,-1.6043546199798584
1.2598388195037842,-0.48528915643692017,0.08427604287862778,0.33659011125564575,-0.11237126324999859,-1.1490413236498322,-0.8064849886463697,-0.9066175222396851,0.1121349185705185,-0.4067804217338562,-0.6254283785820007,-0.11530396342277527,-1.6430809497833252
1.279836893081665,-0.37638771533966064,0.09905464947223663,0.44955384731292725,-0.09081301051734395,-1.1511136724894857,-0.8368466442118038,-0.9094552397727966,0.09068823605775833,-0.40579161047935486,-1.0271745920181274,0.12859489023685455,-1.500369668006897
1.2998378276824951,-0.19439435005187988,0.1609416902065277,0.3414139151573181,-0.07441733680863366,-1.1518706921328117,-0.8595847543325559,-0.9109981656074524,0.07434866577386856,-0.4056533873081207,-0.3781071603298187,-0.011267578229308128,-0.8977454900741577
1.3198847770690918,-0.15329432487487793,0.19860410690307617,0.32366806268692017,-0.06272836102307619,-1.1535494858374393,-0.8697715412299288,-0.9124100804328918,0.0626872330904007,-0.4044480323791504,-0.12094743549823761,-0.08223549276590347,-0.6627120971679688
1.3398327827453613,-0.15781915187835693,0.14088653028011322,0.3395749032497406,-0.05338304491495994,-1.154567651689108,-0.8759908824433592,-0.9133172631263733,0.053357694298028946,-0.40373802185058594,-0.08951934427022934,0.0824890062212944,-0.3975461423397064
1.3598289489746094,-0.10624462366104126,0.04892853647470474,0.3747307062149048,-0.0524594777991262,-1.1500578991852544,-0.8816832497377945,-0.911531925201416,0.05243542045354843,-0.40787273645401,-0.4607574939727783,0.2735312879085541,0.08320683240890503
1.3798279762268066,-0.1318766474723816,0.005064692348241806,0.3418142795562744,-0.061425801594349336,-1.1482911116047843,-0.8920165241562579,-0.9103444814682007,0.06138718128204346,-0.40927332639694214,-0.7559474110603333,0.01805293746292591,0.24711444973945618
1.3999547958374023,-0.23069661855697632,0.057257428765296936,0.3444105088710785,-0.07296457998732912,-1.1471003705354563,-0.9036777668737006,-0.9091501832008362,0.07289985567331314,-0.41003847122192383,-0.7285284996032715,0.17428942024707794,0.3059053421020508
1.4198858737945557,-0.22618699073791504,0.10392936319112778,0.331491619348526,-0.08247375571578207,-1.1437850549358266,-0.91050649085251,-0.907113790512085,0.08238028734922409,-0.41274458169937134,-0.281748503446579,0.17220860719680786,0.27771830558776855
1.4398717880249023,-0.18578243255615234,0.06776704639196396,0.2632371485233307,-0.08669927618837356,-1.1422436662190434,-0.9099161292104568,-0.9061517715454102,0.08659069985151291,-0.4139939546585083,0.1387106478214264,-0.0373820886015892,0.10369455069303513
1.4598448276519775,-0.18095284700393677,0.04781286418437958,0.24085348844528198,-0.08557692018855458,-1.1441549988517465,-0.9057641403529801,-0.9070293307304382,0.08547250926494598,-0.4123012125492096,0.24917176365852356,-0.20396646857261658,0.011552298441529274
1.4798219203948975,-0.19538390636444092,0.11740212142467499,0.1531769037246704,-0.08392911290345788,-1.1488388307855917,-0.8990808979770197,-0.9090778231620789,0.08383060991764069,-0.4081054627895355,0.4341735243797302,-0.2726077437400818,0.12234319746494293
1.4998507499694824,-0.20886462926864624,0.1418125331401825,0.173661470413208,-0.08301405203326176,-1.1530068498102524,-0.8871925131311154,-0.910840630531311,0.08291874080896378,-0.4043438136577606,0.6380171179771423,-0.24401578307151794,0.2778589725494385
1.5198159217834473,-0.26021695137023926,0.06574376672506332,0.15154409408569336,-0.08401307367905671,-1.1550711397168596,-0.873646357154051,-0.9115971922874451,0.08391427993774414,-0.40242910385131836,0.546451210975647,-0.08993513882160187,0.3543902039527893
1.5398938655853271,-0.22947853803634644,0.008585676550865173,0.09395161271095276,-0.08742697267096299,-1.1554502816492185,-0.8620112781446696,-0.9114820957183838,0.0873156413435936,-0.4019654393196106,0.4100533127784729,-0.09608881175518036,0.40047526359558105
1.5598177909851074,-0.21422618627548218,0.059226058423519135,0.08123302459716797,-0.09161292268575523,-1.1565156182830296,-0.8500080165593098,-0.9115673303604126,0.09148482978343964,-0.4008435904979706,0.4790570139884949,-0.09473583847284317,0.4679088294506073
1.579813003540039,-0.2927854657173157,-0.004913702607154846,0.09853419661521912,-0.09692313507273112,-1.1576033710717801,-0.8386424141938861,-0.9115449786186218,0.09677145630121231,-0.39965105056762695,0.2781468331813812,-0.13510768115520477,0.4821755588054657
1.5998129844665527,-0.3392321467399597,-0.017138928174972534,0.10652554035186768,-0.10445630302819855,-1.1600370670058318,-0.8303392041564317,-0.9118207693099976,0.1042664498090744,-0.3971291184425354,0.3340804874897003,-0.20099961757659912,0.5610554814338684
1.6198058128356934,-0.3651413321495056,0.09764714539051056,0.08975058794021606,-0.1133650088576292,-1.161778866580466,-0.8155725588168381,-0.9116226434707642,0.11312234401702881,-0.3951551914215088,0.6206606030464172,-0.14135687053203583,0.8215200304985046
1.639838695526123,-0.4398964047431946,0.1399591714143753,0.10434576869010925,-0.12227753000342442,-1.1619662355612823,-0.7947732846942148,-0.9107353091239929,0.12197304517030716,-0.3945678770542145,0.9004355669021606,-0.08108048141002655,0.8027012944221497
1.6598138809204102,-0.4028828740119934,0.04915255308151245,0.08250302076339722,-0.13087759412774178,-1.1594188200168074,-0.7703228310223247,-0.9087321758270264,0.1305042803287506,-0.39645251631736755,1.0106767416000366,-0.03418434411287308,1.006090521812439
1.6797857284545898,-0.33942168951034546,-0.03493988513946533,0.09521615505218506,-0.14420363302903347,-1.1576004162522189,-0.7423148822310103,-0.9063364267349243,0.1437043696641922,-0.3973706364631653,0.9312955141067505,-0.14523860812187195,1.3300445079803467
1.6998248100280762,-0.4080163240432739,-0.002087235450744629,0.0862112045288086,-0.1628554461887319,-1.157399307326144,-0.7129158516504457,-0.9036445021629333,0.1621365249156952,-0.3964070975780487,1.0564500093460083,-0.2677714228630066,1.5081697702407837
1.7197999954223633,-0.5078219771385193,-0.009452909231185913,0.06998920440673828,-0.18199509887735688,-1.1561735878583355,-0.6784045225136722,-0.900152325630188,0.18099208176136017,-0.3961915075778961,1.2849005460739136,-0.2303658276796341,1.6234508752822876
1.7397968769073486,-0.5596747994422913,-0.007233351469039917,0.12222123146057129,-0.20417496885945044,-1.1542074163346068,-0.6432915214544671,-0.895479679107666,0.20275934040546417,-0.3962384760379791,0.9905458688735962,-0.232924684882164,1.8069201707839966
1.759840965270996,-0.6161354184150696,0.02479119598865509,0.09217903017997742,-0.2297263736753296,-1.1519442357568457,-0.6110014968761,-0.8895561695098877,0.22771109640598297,-0.39602720737457275,0.9382343292236328,-0.16481877863407135,1.7833073139190674
1.7798058986663818,-0.5815337300300598,0.0008341073989868164,0.09762465953826904,-0.2557596788917803,-1.1472491313981703,-0.579615321354926,-0.8819825649261475,0.25298044085502625,-0.39762765169143677,0.7345417737960815,-0.08980713039636612,1.8205418586730957
1.799790859222412,-0.5245281457901001,-0.07160648703575134,0.16598433256149292,-0.28483877012443826,-1.1425849035618272,-0.5546584904093781,-0.8730549216270447,0.2810027301311493,-0.39851292967796326,0.20294247567653656,-0.051841724663972855,1.829513430595398
1.8197898864746094,-0.49507808685302734,-0.10647305846214294,0.16503781080245972,-0.3206652055332641,-1.1391067307576772,-0.5408628789365252,-0.8619625568389893,0.3151979148387909,-0.39707818627357483,-0.5635727047920227,-0.014143082313239574,1.9874674081802368
1.8398098945617676,-0.49167686700820923,-0.08358928561210632,0.13608351349830627,-0.36552387635927513,-1.1399302638686768,-0.5418877809588644,-0.8485788702964783,0.3574386239051819,-0.3900659680366516,-1.2999417781829834,-0.0781828761100769,2.012976884841919
1.859879970550537,-0.42539548873901367,0.017681807279586792,0.1229269802570343,-0.4112637155855785,-1.1466830546372873,-0.549993541432746,-0.8354077935218811,0.39976799488067627,-0.37719932198524475,-1.0829390287399292,-0.25429055094718933,1.8547306060791016
1.8797879219055176,-0.30888086557388306,0.18107935786247253,-0.05228906869888306,-0.4469329437346597,-1.1509074702391466,-0.5428900593361355,-0.8234434723854065,0.4322017729282379,-0.36761748790740967,0.22871509194374084,-0.4547484517097473,1.622890830039978
1.8997859954833984,-0.3883553147315979,0.1486285924911499,-0.07593768835067749,-0.4686161359165402,-1.147023715938648,-0.516299683179297,-0.8132744431495667,0.45165205001831055,-0.36687231063842773,0.7757084965705872,-0.29442718625068665,1.388132095336914
1.919832706451416,-0.43143534660339355,-0.053345710039138794,-0.008735448122024536,-0.49059008743050436,-1.1433122660426203,-0.49681969976225304,-0.8026803135871887,0.47114646434783936,-0.3656845986843109,-0.2237233966588974,-0.2596639096736908,1.328870415687561
1.939795970916748,-0.33356577157974243,-0.07168564200401306,0.054835617542266846,-0.5217670132268775,-1.1510376872028987,-0.5028379218737179,-0.7916784882545471,0.4984128177165985,-0.3533127009868622,-1.5054973363876343,-0.23238496482372284,1.2979146242141724
1.9597840309143066,-0.26767754554748535,0.05934262275695801,-0.05337810516357422,-0.5582018060408649,-1.1704890394930527,-0.5282710263778646,-0.7811506986618042,0.5296618342399597,-0.3305481970310211,-1.7509602308273315,-0.40966376662254333,1.1775811910629272
1.9797768592834473,-0.26427435874938965,0.27823686599731445,-0.16388839483261108,-0.5899776780439798,-1.191882467605178,-0.5518631144547707,-0.7720111608505249,0.5563424825668335,-0.30737921595573425,-1.2034127712249756,-0.42872223258018494,0.9654080867767334
1.9998159408569336,-0.2602002024650574,0.31821489334106445,-0.17794156074523926,-0.6108942124899309,-1.2050712240393027,-0.5613998130790153,-0.7649617195129395,0.573600172996521,-0.2929445803165436,-0.4246191680431366,-0.32829612493515015,0.7531018257141113
2.019798755645752,-0.17754065990447998,0.18710243701934814,-0.09532201290130615,-0.6285440160305752,-1.2127196510166087,-0.5660229416356131,-0.7575790882110596,0.5879676342010498,-0.2834926247596741,-0.6634501218795776,-0.21880291402339935,0.7790541052818298
2.0397748947143555,-0.07746559381484985,0.06214112043380737,-0.11292406916618347,-0.650632933909803,-1.2286385005797442,-0.58244746807113,-0.7495761513710022,0.6056901812553406,-0.26697397232055664,-1.3291599750518799,-0.3901703357696533,0.8531073331832886
2.059774875640869,-0.04295998811721802,0.1192052960395813,-0.1768883317708969,-0.6763391845411676,-1.2543993921241066,-0.6112709892168419,-0.7411587834358215,0.6259422898292542,-0.24265196919441223,-1.5621107816696167,-0.4065278172492981,0.8092504739761353
2.0798606872558594,-0.026277542114257812,0.12477999925613403,-0.2220064252614975,-0.6988226908744579,-1.2802115805724197,-0.6400759908371902,-0.7335034012794495,0.6433168053627014,-0.21935397386550903,-1.1782361268997192,-0.33739739656448364,0.6753287315368652
2.0998358726501465,0.07167798280715942,0.11268824338912964,-0.2674690783023834,-0.7153904132076156,-1.2978335035630013,-0.65694806386452,-0.7268905639648438,0.6559121608734131,-0.2034933865070343,-0.5203919410705566,-0.35035598278045654,0.5657261610031128
2.119813919067383,0.1357250213623047,0.035442233085632324,-0.23554134368896484,-0.7276942884855151,-1.3067138270220475,-0.6604167999889976,-0.7208234667778015,0.6651496887207031,-0.1949090212583542,-0.2121501863002777,-0.26794418692588806,0.6074551343917847
2.13976788520813,0.1378037929534912,-0.08781987428665161,-0.2495584487915039,-0.7426112772177104,-1.3179929893047886,-0.67030662610031,-0.7132891416549683,0.6762139797210693,-0.18426410853862762,-0.9077500104904175,-0.25044623017311096,0.5965160131454468
2.159766912460327,0.16455167531967163,-0.18911325931549072,-0.24600069224834442,-0.7592121144519668,-1.340290604658928,-0.6960533187742107,-0.7061930298805237,0.6883501410484314,-0.1657271683216095,-1.2802071571350098,-0.17973186075687408,0.578464150428772
2.17979097366333,0.24517673254013062,-0.12900876998901367,-0.26712316274642944,-0.7747676457666758,-1.3627295231865086,-0.7252894875212464,-0.6991716027259827,0.6995500326156616,-0.14761067926883698,-0.9820643067359924,-0.04778235778212547,0.4690072238445282
2.199767827987671,0.3021327257156372,-0.1521192193031311,-0.32115721702575684,-0.7858801578123309,-1.37289862242436,-0.7399729600879612,-0.6929715275764465,0.7074475288391113,-0.1389562338590622,-0.2964947819709778,0.09646838158369064,0.4457533359527588
2.2197628021240234,0.35208451747894287,-0.18192201852798462,-0.28011226654052734,-0.7947749894300403,-1.3708904723177506,-0.7391517577866736,-0.6864962577819824,0.7137060165405273,-0.13909240067005157,0.1428976058959961,0.044484011828899384,0.4157540798187256
2.2397680282592773,0.31491202116012573,-0.24687045812606812,-0.25575029850006104,-0.8013862588631643,-1.364145676820643,-0.7311598428393405,-0.6809095740318298,0.7183212041854858,-0.14274820685386658,0.15900084376335144,0.05525197088718414,0.3472882807254791
2.2598090171813965,0.27084559202194214,-0.33796632289886475,-0.061921536922454834,-0.8075482470520708,-1.3618793771034245,-0.7330612155494642,-0.6762412190437317,0.7225944995880127,-0.14337021112442017,-0.9461519122123718,0.39392510056495667,0.20048880577087402
2.279754877090454,0.28043854236602783,-0.48009413480758667,-0.49312257766723633,-0.8137820466757861,-1.3665736804458413,-0.7449731212483302,-0.6724827289581299,0.7268897294998169,-0.1392778903245926,0.07322727888822556,-0.33242759108543396,0.14981772005558014
2.299769878387451,0.19901639223098755,-0.05997622013092041,-0.4400520324707031,-0.8146523501765387,-1.3585626076649,-0.7360405652454334,-0.6707267165184021,0.7274870872497559,-0.1445273607969284,0.6966557502746582,0.5572702884674072,0.061859969049692154
2.3198118209838867,0.05411249399185181,-0.3675292134284973,0.0957016795873642,-0.8099005729852244,-1.3344460800928666,-0.7252139456370166,-0.6703999638557434,0.7242186069488525,-0.161467045545578,-0.8094685077667236,1.4677622318267822,-0.3428269922733307
2.339749813079834,0.19554728269577026,-0.8390803337097168,-0.5943793058395386,-0.8061808307624154,-1.3219438655447593,-0.7403720511292227,-0.6709350347518921,0.7216485738754272,-0.17049795389175415,-0.06105583906173706,0.16185323894023895,-0.04405755177140236
2.3598079681396484,0.34395885467529297,0.21601951122283936,-0.10717082023620605,-0.8067094964892828,-1.3189650824276928,-0.7369225885058374,-0.67005455493927,0.7220144867897034,-0.17240066826343536,0.2171647846698761,0.42876023054122925,-0.09941591322422028
2.3797998428344727,-0.023405075073242188,-0.2243472933769226,-0.21228820085525513,-0.7981001404648586,-1.2923972937959114,-0.723116805414281,-0.6711903810501099,0.7160311341285706,-0.19184082746505737,0.6832079887390137,0.9794759154319763,-0.3297286331653595
2.3998208045959473,0.22182363271713257,-0.17564475536346436,-0.07332119345664978,-0.7949843351208131,-1.2649284858081167,-0.7124519715447593,-0.6677923202514648,0.7138526439666748,-0.21087369322776794,0.12633727490901947,0.9655560851097107,0.26981738209724426
2.419745922088623,0.30795538425445557,-0.07168000936508179,-0.2335405796766281,-0.798095673192282,-1.247118198042229,-0.7065190256346799,-0.6618220806121826,0.7160280346870422,-0.22202572226524353,0.6427773833274841,0.29260507225990295,-0.07463769614696503
2.4397788047790527,0.20719504356384277,0.036051154136657715,0.08249026536941528,-0.7776251215192241,-1.2168992914483026,-0.6635573320592306,-0.6684225797653198,0.7015891075134277,-0.2469494640827179,2.63120436668396,0.379541277885437,-0.3777484893798828
2.4597418308258057,0.22305482625961304,-0.06907141208648682,0.22022682428359985,-0.762413177690821,-1.1691514259321423,-0.6143653440993722,-0.6656209230422974,0.6906685829162598,-0.2827115058898926,1.1276472806930542,0.5314493179321289,0.02166053093969822
2.479749917984009,0.33792805671691895,-0.2960749864578247,0.08064842224121094,-0.7557018397923038,-1.1600621008989678,-0.6052344787278965,-0.667258620262146,0.6857996582984924,-0.29059407114982605,-0.08694101870059967,-0.19091129302978516,-0.29051750898361206
2.4997398853302,0.3269079327583313,0.11329478025436401,-0.056700676679611206,-0.7533047581178665,-1.1682676284288798,-0.6095624858133503,-0.6711310148239136,0.6840530633926392,-0.28575223684310913,-0.009316809475421906,-0.1780158132314682,-0.060239776968955994
2.519765853881836,0.1719852089881897,0.2341894507408142,-0.10060638189315796,-0.7491510952407042,-1.1609907231371788,-0.6027734535413338,-0.6716343760490417,0.6810173988342285,-0.2917580306529999,0.6468803286552429,0.40462353825569153,-0.13787050545215607
2.539735794067383,0.29029953479766846,0.1821460723876953,-0.00020512938499450684,-0.7411316348617327,-1.1395577057434216,-0.585112342392716,-0.6701672673225403,0.6751231551170349,-0.3083580434322357,0.746516764163971,0.4147098958492279,-0.04312716796994209
2.5597329139709473,0.39927178621292114,0.06725621223449707,0.06644377112388611,-0.735755033886982,-1.1237808906863618,-0.5682980565114539,-0.668482780456543,0.6711470484733582,-0.320456862449646,0.6189143061637878,0.03225557506084442,0.05917251855134964
2.579730987548828,0.3406435251235962,0.10777103900909424,0.019135653972625732,-0.7323397038471945,-1.1148231765983017,-0.5534405157775492,-0.6676395535469055,0.6686112880706787,-0.32743939757347107,0.5611410140991211,-0.07898635417222977,0.10278937965631485
2.6000418663024902,0.258556067943573,0.11010468006134033,-0.019800633192062378,-0.7279583079077095,-1.104004783859586,-0.5368854056399529,-0.6666677594184875,0.6653468012809753,-0.33595794439315796,0.7494999170303345,0.0547884926199913,0.05135272443294525
2.6198298931121826,0.26761502027511597,0.06445008516311646,0.015483200550079346,-0.7223925805189816,-1.08968397054391,-0.5185353453137862,-0.665060818195343,0.6611815094947815,-0.34717872738838196,0.6454415321350098,0.12512852251529694,0.06860046833753586
2.6398658752441406,0.2792976498603821,0.03090512752532959,0.04672813415527344,-0.7176918332689896,-1.079864267647158,-0.5050499997980565,-0.6643533706665039,0.6576476097106934,-0.35515397787094116,0.5775338411331177,-0.06126612052321434,-0.04556507617235184
2.6597578525543213,0.2759971022605896,0.12176352739334106,0.09172794222831726,-0.7111377214485786,-1.0729673885619928,-0.492191670123379,-0.6656608581542969,0.6526961326599121,-0.3617779016494751,0.5330942273139954,-0.08831389248371124,-0.05121077969670296
2.6797938346862793,0.20975977182388306,0.11598962545394897,0.08022451400756836,-0.7050391043103588,-1.0693156391335288,-0.4829844931917426,-0.6678134799003601,0.648063600063324,-0.36611315608024597,0.3815152645111084,-0.10088206082582474,-0.17202851176261902
2.6998977661132812,0.15553659200668335,0.06943297386169434,0.08595579862594604,-0.6987674178438633,-1.067359332501331,-0.48070371449635185,-0.6706429719924927,0.6432744860649109,-0.36937248706817627,0.0958695188164711,0.13484710454940796,-0.2910330295562744
2.7198219299316406,0.17684155702590942,0.030703067779541016,0.07882228493690491,-0.6933429187375095,-1.066191821701598,-0.48438144966693425,-0.6732558608055115,0.6391118168830872,-0.37183672189712524,-0.13222791254520416,0.21117143332958221,-0.3250333368778229
2.739780902862549,0.18565863370895386,0.05482792854309082,0.02091914415359497,-0.6905083549858655,-1.0689039974252368,-0.49761271162117354,-0.6758474111557007,0.6369291543960571,-0.3708794414997101,-0.595719575881958,0.3116740882396698,-0.418981671333313
2.7680349349975586,0.24173760414123535,0.082999587059021,0.06413131952285767,-0.6859791357109418,-1.0823453426025538,-0.5417087275748801,-0.6833118200302124,0.6334309577941895,-0.3631119430065155,-0.7855948805809021,0.3743504285812378,-0.52238929271698
2.779770851135254,0.24173760414123535,0.082999587059021,0.06413131952285767,-0.6859791357109418,-1.0823453426025538,-0.5417087275748801,-0.6833118200302124,0.6334309577941895,-0.3631119430065155,-0.7855948805809021,0.3743504285812378,-0.52238929271698
2.7990949153900146,0.23797261714935303,0.0012348294258117676,0.013951241970062256,-0.6833895114101389,-1.0932543975263949,-0.5662343335414621,-0.6886869072914124,0.6314250230789185,-0.35638895630836487,-0.7560275197029114,0.07300682365894318,-0.6020181775093079
2.827873706817627,0.15709638595581055,0.03157174587249756,-0.04973101615905762,-0.6689486037425474,-1.115872176526525,-0.6050223343430431,-0.7046886682510376,0.6201615333557129,-0.3446933627128601,-0.3490302562713623,0.21201921999454498,-0.6854796409606934
2.8479809761047363,0.24963635206222534,-0.046090543270111084,-0.09588021039962769,-0.659697867748267,-1.1204173126017538,-0.6195507730652378,-0.7113826870918274,0.612878143787384,-0.3439696133136749,-0.23687025904655457,0.16192853450775146,-0.6360974311828613
2.8679428100585938,0.3201555013656616,-0.14403438568115234,-0.0463118851184845,-0.6515521682824539,-1.1238923080072827,-0.6290254846266243,-0.7170519232749939,0.6064213514328003,-0.34364163875579834,-0.16271419823169708,0.09228730946779251,-0.3988124132156372
2.88779878616333,0.26769518852233887,-0.17772209644317627,-0.031047582626342773,-0.6492467544413645,-1.1311484676362888,-0.6410740406504994,-0.7207897901535034,0.6045866012573242,-0.33902376890182495,-0.6024032831192017,-0.10997844487428665,-0.30505645275115967
2.908139705657959,0.21903777122497559,-0.14602130651474,-0.10450559854507446,-0.6472073663796274,-1.1450220907562614,-0.6572953129788693,-0.7265452742576599,0.6029608845710754,-0.32950013875961304,-0.31566351652145386,-0.2898017168045044,-0.3670436441898346
2.9293336868286133,0.22770506143569946,-0.005483865737915039,-0.12633368372917175,-0.6399921370283485,-1.1503781947621265,-0.6548475305863364,-0.7322523593902588,0.5971891283988953,-0.32737109065055847,0.8184544444084167,-0.3171890676021576,-0.2229093462228775
2.946378707885742,0.16163593530654907,-0.08636468648910522,-0.02838340401649475,-0.6271289063294194,-1.1415758675825747,-0.6321479798157187,-0.7362668514251709,0.5868223905563354,-0.33697301149368286,1.2315850257873535,-0.2307254523038864,-0.2451203614473343
2.9671008586883545,0.2038484811782837,-0.2468574047088623,0.07960596680641174,-0.6132166435250705,-1.134882859458855,-0.6102800301689395,-0.7413241267204285,0.575501024723053,-0.34530720114707947,0.9138753414154053,-0.38938939571380615,-0.23637551069259644
2.9845499992370605,0.23572051525115967,-0.2523428201675415,0.1261981725692749,-0.6027225639724757,-1.137198840975361,-0.5959969940454615,-0.7475614547729492,0.566887378692627,-0.3461077809333801,0.6590478420257568,-0.6141324043273926,-0.2756739854812622
3.007798910140991,0.17776000499725342,-0.21198630332946777,0.04952758550643921,-0.590662168152742,-1.1434713154600178,-0.5842547166592129,-0.755885124206543,0.5569111108779907,-0.3442205488681793,0.8251510262489319,-0.7015899419784546,-0.4177697002887726
3.0263798236846924,0.16140753030776978,-0.13088220357894897,0.04566311836242676,-0.573686530992266,-1.1471965518589387,-0.565173776188257,-0.7656709551811218,0.5427320599555969,-0.3452388644218445,1.3119131326675415,-0.6779240965843201,-0.46454861760139465
3.047086715698242,0.15195250511169434,-0.10137557983398438,0.08943703770637512,-0.5544073185350863,-1.1471351361431414,-0.5418429916754536,-0.7750452160835266,0.5264394879341125,-0.34952300786972046,1.139190673828125,-0.5922946929931641,-0.5076626539230347
3.065609931945801,0.1508798599243164,-0.17987215518951416,0.1114809513092041,-0.5384472488968232,-1.1531082567276394,-0.529881528624443,-0.784699559211731,0.5128035545349121,-0.3482515513896942,0.4382462203502655,-0.6356900334358215,-0.5059614777565002
3.0873208045959473,0.1800338625907898,-0.13791626691818237,0.13176685571670532,-0.5289010292844286,-1.1655583763794493,-0.5302907820766588,-0.7934373021125793,0.5045848488807678,-0.34036970138549805,-0.03289255127310753,-0.5702163577079773,-0.39482513070106506
3.107311725616455,0.1702193021774292,-0.07138338685035706,0.0686342716217041,-0.5214360103040877,-1.1780320894566334,-0.5329014126540795,-0.8010787963867188,0.498125821352005,-0.3318788409233093,0.2885981500148773,-0.5601944327354431,-0.4189597964286804
3.1270527839660645,0.14854592084884644,-0.003186523914337158,-0.016400694847106934,-0.5074429204900324,-1.1824229224308294,-0.5182820882826888,-0.8089006543159485,0.4859439730644226,-0.3309655487537384,1.47035813331604,-0.546285092830658,-0.3515174090862274
3.146951913833618,0.12814807891845703,0.05570310354232788,0.05514916777610779,-0.4882454997387105,-1.174746070774325,-0.4838498470489883,-0.8147938251495361,0.46907711029052734,-0.3407021164894104,1.8032238483428955,-0.4113350808620453,-0.33634763956069946
3.166998863220215,0.09952300786972046,-0.12322559952735901,0.16970360279083252,-0.4677994286398342,-1.1735664169202409,-0.45710521276201266,-0.823064386844635,0.45092323422431946,-0.34530165791511536,1.1981450319290161,-0.6867800354957581,-0.5860395431518555
3.186112880706787,0.09704101085662842,-0.10753491520881653,0.10775592923164368,-0.4511102021596453,-1.1812662277673651,-0.4399542121547239,-0.8325452208518982,0.4359649419784546,-0.3417645990848541,0.9265585541725159,-0.8558053970336914,-0.3783527612686157
3.206617832183838,-0.046697258949279785,-0.009074181318283081,0.08995294570922852,-0.43580991493569216,-1.1919076769507422,-0.4240513740056848,-0.8422341346740723,0.42214474081993103,-0.33531418442726135,0.9869600534439087,-0.8202033638954163,-0.530070960521698
3.2268338203430176,-0.1674041748046875,0.017743855714797974,0.1378668248653412,-0.4169463617566312,-1.19985307827415,-0.40911481563445845,-0.8521425724029541,0.40497031807899475,-0.3314397633075714,0.9315665364265442,-0.6242078542709351,-0.7177227735519409
3.245908737182617,-0.20380902290344238,-0.032502561807632446,0.20664498209953308,-0.39834662716338476,-1.208573059010593,-0.40060318534912925,-0.8618955612182617,0.38789495825767517,-0.3266094923019409,0.40626898407936096,-0.6189361810684204,-0.74225252866745
3.2658498287200928,-0.24305659532546997,-0.017917603254318237,0.2127620279788971,-0.3829362392738909,-1.2224412846467434,-0.4029208883666525,-0.8718575239181519,0.3736456334590912,-0.3166285455226898,0.014415070414543152,-0.6607165336608887,-0.7792293429374695
3.287231922149658,-0.3084728717803955,0.03605854511260986,0.17733332514762878,-0.36838072929349003,-1.2343239946024416,-0.4070308667052162,-0.8805988430976868,0.3601052761077881,-0.30800944566726685,0.14879174530506134,-0.3466089963912964,-0.7317661046981812
3.308088779449463,-0.37328773736953735,0.07742682099342346,0.1403684914112091,-0.3512119689059675,-1.2392491353706296,-0.4060741221611954,-0.8878207206726074,0.3440360426902771,-0.30563628673553467,0.4728562831878662,-0.2203844040632248,-0.9311681985855103
3.325798988342285,-0.3704671263694763,0.10472247004508972,0.16956374049186707,-0.3269760414487823,-1.2411507190784594,-0.3994949000049157,-0.8960278034210205,0.3211807608604431,-0.3065570592880249,0.8827458024024963,-0.176967054605484,-1.0720953941345215
3.345500946044922,-0.2943917512893677,0.06646403670310974,0.2637673318386078,-0.30270028294610984,-1.240487449067184,-0.3879893683670334,-0.9029349088668823,0.2980988025665283,-0.30958932638168335,0.9628282189369202,-0.1756904274225235,-0.8778205513954163
3.3674397468566895,-0.26180797815322876,0.05839723348617554,0.28273752331733704,-0.28034337121438757,-1.239855339909494,-0.37270237024792857,-0.908815860748291,0.2766856253147125,-0.3122478425502777,1.2102727890014648,-0.1501341164112091,-0.7912974953651428
3.3870320320129395,-0.2655556797981262,0.020100802183151245,0.2483612298965454,-0.25813156134650006,-1.236193433484518,-0.35243836125579425,-0.9132468700408936,0.2552744746208191,-0.31751397252082825,1.2759419679641724,-0.06926252692937851,-0.6835562586784363
3.4064788818359375,-0.21690058708190918,-0.09526078402996063,0.17254915833473206,-0.23861667111026533,-1.2348908006266355,-0.33394683003789705,-0.9173617362976074,0.23635871708393097,-0.3202846348285675,1.061884880065918,-0.28007808327674866,-0.5734503865242004
3.426360845565796,-0.18765759468078613,-0.03986489772796631,0.2096661627292633,-0.2232953363815941,-1.2368169901012867,-0.31893047484425485,-0.9212901592254639,0.22144433856010437,-0.31966665387153625,0.8805226683616638,-0.17487603425979614,-0.39400359988212585
3.446074962615967,-0.2461814284324646,-0.09491437673568726,0.17982208728790283,-0.2087001439846331,-1.2359098543609524,-0.30507587608320624,-0.9239541292190552,0.2071884274482727,-0.3215303421020508,0.6774321794509888,-0.06186959147453308,-0.524599015712738
3.466002941131592,-0.2603093385696411,-0.11565634608268738,0.14915698766708374,-0.19655502440078076,-1.2367550301842083,-0.300819470567511,-0.9265345931053162,0.19529184699058533,-0.3215506672859192,0.22960293292999268,-0.12302917242050171,-0.46634340286254883
3.486114025115967,-0.299194872379303,-0.02300824224948883,0.10846316814422607,-0.1882569552745438,-1.2394832115117311,-0.3019674940504093,-0.9289088845252991,0.18714693188667297,-0.319537878036499,-0.10019266605377197,-0.10696445405483246,-0.3809112310409546
3.50508189201355,-0.336006224155426,-0.0959291160106659,0.18054571747779846,-0.1841413755475264,-1.2430959512652413,-0.31125016726004867,-0.9307786226272583,0.18310248851776123,-0.3164251446723938,-0.647128701210022,-0.10533735156059265,-0.2837623655796051
3.5261309146881104,-0.2599329352378845,-0.12629760801792145,0.174015611410141,-0.18591462914904025,-1.2508437930108223,-0.3284545893330882,-0.9328925609588623,0.1848454773426056,-0.30910158157348633,-0.9127589464187622,-0.3645891547203064,-0.1318628340959549
3.5463578701019287,-0.32008689641952515,-0.08141650259494781,0.12593039870262146,-0.19129989806897163,-1.26346607957663,-0.34643153352739,-0.9357572793960571,0.19013524055480957,-0.2969965636730194,-0.9325374960899353,-0.5081950426101685,0.11305929720401764
3.5658349990844727,-0.4461866617202759,-0.13057942688465118,0.12273836135864258,-0.20057065907651692,-1.2744482438451374,-0.3615405274822187,-0.9372362494468689,0.19922858476638794,-0.2861751317977905,-0.811230480670929,-0.2572469711303711,0.3285697400569916
3.585649013519287,-0.42193835973739624,-0.14259015023708344,0.11498787999153137,-0.21409176239651834,-1.278897071466094,-0.37494177024863307,-0.9358344674110413,0.2124600112438202,-0.2812017500400543,-0.7944285869598389,0.05285201966762543,0.5859192609786987
3.6060988903045654,-0.34978604316711426,-0.08994930982589722,0.10047617554664612,-0.23172697090982766,-1.2793474730886378,-0.3862293304839708,-0.9322270750999451,0.22965867817401886,-0.27966004610061646,-0.7529187202453613,0.08724807947874069,0.7403011322021484
3.6262598037719727,-0.3516209125518799,-0.14293326437473297,0.0564083456993103,-0.2503685207479932,-1.280945912138488,-0.39468234862220525,-0.9284085035324097,0.24776101112365723,-0.27689772844314575,-0.5072741508483887,-0.05410461127758026,0.8382573127746582
3.6457090377807617,-0.33532726764678955,-0.17217040061950684,0.08508342504501343,-0.27004495556009206,-1.284329988721468,-0.3970993074429459,-0.9244842529296875,0.2667747735977173,-0.27232393622398376,-0.23346483707427979,-0.1766890287399292,1.0022937059402466
3.6656458377838135,-0.38269829750061035,-0.14520955085754395,0.14179974794387817,-0.2918999268426689,-1.283961545413143,-0.3935041098012905,-0.9185713529586792,0.2877722978591919,-0.2709500193595886,-0.15888631343841553,0.1424366682767868,1.1982430219650269
3.6845998764038086,-0.4009557366371155,-0.15462762117385864,0.14965194463729858,-0.3161803524430318,-1.2817785319109833,-0.3909201077539476,-0.9110103249549866,0.3109385371208191,-0.2708829343318939,-0.3127957582473755,-0.0017413622699677944,1.224359154701233
3.7054038047790527,-0.3744780421257019,-0.1705600619316101,0.18726304173469543,-0.3461312905521324,-1.2824593328318206,-0.39376343263684227,-0.9018586874008179,0.33926108479499817,-0.2674936056137085,-0.816881000995636,0.010542201809585094,1.5978842973709106
3.7242770195007324,-0.4043489098548889,-0.09125292301177979,0.20205247402191162,-0.3841226371808823,-1.287930667752931,-0.40821579830420257,-0.8902831673622131,0.37474584579467773,-0.25876927375793457,-1.5213959217071533,0.010596530511975288,1.615733027458191
3.7452638149261475,-0.4651845097541809,0.017054617404937744,0.11021675169467926,-0.4219277905249205,-1.2986842510219148,-0.432387284415989,-0.8787333965301514,0.4095199406147003,-0.2451958954334259,-1.4869962930679321,-0.06709737330675125,1.4842503070831299
3.7653636932373047,-0.45153433084487915,0.02762448787689209,0.12511684000492096,-0.4592169602083163,-1.308768759489889,-0.4551443771919054,-0.8658027648925781,0.44324633479118347,-0.2322029024362564,-1.615286111831665,0.009696914814412594,1.588714361190796
3.785207748413086,-0.42915791273117065,-0.12853646278381348,0.2309180498123169,-0.5004369422840769,-1.3273992186667025,-0.4950293024751099,-0.8515123724937439,0.4798089563846588,-0.21144777536392212,-3.049501419067383,0.002984150778502226,1.5093671083450317
3.8049519062042236,-0.34026026725769043,-0.24410337209701538,0.2872757315635681,-0.5459906820585085,-1.365403861988075,-0.5707709945147241,-0.8366502523422241,0.5192649960517883,-0.17429958283901215,-4.226149559020996,0.04435644671320915,1.5222543478012085
3.824910879135132,-0.22125715017318726,-0.0352250337600708,0.22932924330234528,-0.591172449608377,-1.4127652008881455,-0.6616507196049484,-0.8199416399002075,0.5573348999023438,-0.1306658536195755,-3.9433951377868652,0.09832211583852768,1.4295334815979004
3.845085859298706,-0.204653799533844,0.2403138279914856,0.14028358459472656,-0.6232295894267995,-1.4559974920246914,-0.7431316583149051,-0.8066530227661133,0.5836606025695801,-0.0930117815732956,-2.977240562438965,0.16709470748901367,0.8670029640197754
3.86505389213562,-0.15883469581604004,0.09413021802902222,0.07806091755628586,-0.6444069676708545,-1.4877550397274362,-0.8001829712171388,-0.7967014312744141,0.600724458694458,-0.06631160527467728,-2.023796796798706,0.057845357805490494,0.8211857080459595
3.885143756866455,-0.12078505754470825,0.015081524848937988,0.20710885524749756,-0.661921130350886,-1.51860026492379,-0.8521102409025247,-0.7877387404441833,0.6146333813667297,-0.04115423932671547,-2.264054536819458,0.01407444104552269,0.6406791806221008
3.9049549102783203,-0.05728703737258911,-0.0329364538192749,0.14411669969558716,-0.6749461606373343,-1.5555156971480437,-0.9077636475612233,-0.7806494832038879,0.6248552799224854,-0.011929744854569435,-2.225041627883911,-0.18418022990226746,0.5760955214500427
3.9245598316192627,-0.029663443565368652,0.06650590896606445,0.12108707427978516,-0.686392012781162,-1.5939455893750603,-0.9647324199751228,-0.773330569267273,0.6337503790855408,0.017905231565237045,-2.066230058670044,-0.1315760463476181,0.5414090752601624
3.9448328018188477,-0.05011206865310669,0.0845041275024414,0.04140162840485573,-0.6934441103314292,-1.6262748622551746,-1.0095410323870406,-0.7678660750389099,0.6391896605491638,0.042643845081329346,-1.3073939085006714,-0.187530055642128,0.346095472574234
3.9636118412017822,-0.0012497901916503906,0.11581015586853027,0.02039240673184395,-0.6992381829099789,-1.6465226542200428,-1.0354070905509332,-0.7631393074989319,0.6436348557472229,0.057900454849004745,-0.7189909815788269,-0.2322891801595688,0.349368691444397
3.9845168590545654,0.025493264198303223,0.028947114944458008,0.04691494256258011,-0.7052479538924086,-1.6620684571169293,-1.051144717744263,-0.7582815885543823,0.6482226252555847,0.06940280646085739,-0.5034105181694031,-0.26956287026405334,0.3711513578891754
4.004539966583252,0.009003221988677979,0.049237966537475586,-0.0033376291394233704,-0.7112794112509119,-1.675382166342245,-1.0640018082302598,-0.753387987613678,0.6528034806251526,0.07908226549625397,-0.335939884185791,-0.22998660802841187,0.32192718982696533
4.02326774597168,0.022579848766326904,0.08138132095336914,-0.025203578174114227,-0.7168818089075548,-1.683610291147612,-1.0708269350934858,-0.7490662336349487,0.6570371985435486,0.08486546576023102,-0.13633224368095398,-0.10461332648992538,0.32290321588516235
4.044111728668213,0.030408799648284912,0.010514676570892334,-0.0425255224108696,-0.7230988220987064,-1.6889055925554455,-1.0782788462988202,-0.7445355653762817,0.6617112159729004,0.08834774047136307,-0.4674879312515259,0.029584869742393494,0.32522645592689514
4.064164876937866,0.07375568151473999,-0.05873900651931763,-0.02049337327480316,-0.7272093705447065,-1.7006003759099355,-1.098170602079463,-0.7407480478286743,0.6647875308990479,0.09669578820466995,-0.8690431714057922,0.12022840231657028,0.3075706362724304
4.084154844284058,0.09303349256515503,0.023447692394256592,-0.10738919675350189,-0.7317697966971124,-1.7140275307961506,-1.121780361232143,-0.7363747358322144,0.6681873798370361,0.10619907081127167,-0.752098798751831,0.09082860499620438,0.3622521460056305
4.104671001434326,0.03561604022979736,0.0966041088104248,-0.13816402852535248,-0.7363450044971128,-1.7212209649340473,-1.13671568451005,-0.7325614094734192,0.6715843081474304,0.11103402823209763,-0.23186959326267242,0.2542709708213806,0.2899223566055298
4.124114036560059,0.011349678039550781,0.07929843664169312,-0.15683436393737793,-0.7427714439930934,-1.7151082253092673,-1.1396760588005794,-0.7289401888847351,0.6763319373130798,0.10593113303184509,0.022295724600553513,0.4961579144001007,0.34890931844711304
4.143971920013428,0.015150725841522217,0.012472331523895264,-0.09124195575714111,-0.7491396343375255,-1.7057667207697298,-1.1419604264355394,-0.7256153225898743,0.6810089945793152,0.09853565692901611,-0.1509658396244049,0.6264553070068359,0.3267245292663574
4.1639368534088135,0.0049326419830322266,-0.04643362760543823,-0.06722390651702881,-0.7553559998606661,-1.6972139313203225,-1.1519128942750583,-0.7222179174423218,0.6855478882789612,0.0917905643582344,-0.5130177736282349,0.8822221755981445,0.3579288721084595
4.183779716491699,0.027131199836730957,-0.07370352745056152,-0.02139247953891754,-0.7595593519397044,-1.6906039640564676,-1.1693897384952667,-0.7199413180351257,0.6886019706726074,0.08666954189538956,-0.5887477993965149,0.9992614984512329,0.23660629987716675
4.203738689422607,0.060814499855041504,-0.02341485023498535,-0.07473289966583252,-0.7631065685107582,-1.6757916593541322,-1.1797326742705103,-0.718712568283081,0.6911698579788208,0.07573999464511871,-0.07625345885753632,1.1777873039245605,0.18640102446079254
4.223899841308594,0.09132516384124756,-0.05808126926422119,-0.04730570316314697,-0.7653237366291593,-1.651736947821399,-1.1785551437059343,-0.7187972068786621,0.6927704811096191,0.05830727890133858,0.08187023550271988,1.1406744718551636,0.03812709450721741
4.244499683380127,0.12484294176101685,-0.2003841996192932,0.05365132912993431,-0.7656403581120231,-1.631745364287446,-1.1810977168189105,-0.7196001410484314,0.6929988265037537,0.04391332343220711,-0.3651684820652008,1.0526862144470215,0.03741946071386337
4.2619469165802,0.10755813121795654,-0.2003699541091919,0.03742599114775658,-0.7660015901019084,-1.6252843137658826,-1.2010535783905085,-0.7196187376976013,0.6932591795921326,0.03924942761659622,-1.016629934310913,0.9692460298538208,0.03528372198343277
4.284286975860596,0.06854552030563354,-0.1625804305076599,0.0852729082107544,-0.7643816616128861,-1.6264973819028412,-1.232176442059502,-0.7206910848617554,0.6920908093452454,0.04018482193350792,-1.4470094442367554,1.315878987312317,-0.04681650921702385
4.301764011383057,0.011968910694122314,-0.2870869040489197,-0.17413270473480225,-0.7620307044731085,-1.632655975210888,-1.2885314283434406,-0.7220520973205566,0.6903919577598572,0.04472295194864273,-2.067561626434326,1.4947794675827026,-0.09110036492347717
4.325033903121948,0.09512805938720703,-0.2598951458930969,-0.07401692867279053,-0.7540451213853875,-1.6444594287834617,-1.3501985157123435,-0.7269488573074341,0.6845929622650146,0.05364637449383736,-2.1222176551818848,1.5824689865112305,-0.2981250584125519
4.342504978179932,0.09906452894210815,-0.25302255153656006,-0.10324311256408691,-0.7485037834416649,-1.6450885403954572,-1.3959374928528163,-0.7306869626045227,0.6805432438850403,0.054384443908929825,-1.3208367824554443,1.5068236589431763,-0.0829927921295166
4.363611698150635,0.03259158134460449,-0.19250988960266113,-0.057413097470998764,-0.7426312997452654,-1.6308081339877423,-1.4226582004524624,-0.7353657484054565,0.6762287020683289,0.04418368265032768,-0.7757267355918884,1.7212979793548584,-0.3342351019382477
4.383601903915405,0.06385236978530884,-0.2527714967727661,0.026017069816589355,-0.7339931464554976,-1.611455021902155,-1.4457962105499969,-0.7418920993804932,0.6698399186134338,0.030180996283888817,-1.0713047981262207,1.7571502923965454,-0.37784186005592346
4.403238773345947,0.088173508644104,-0.32864415645599365,0.06440818309783936,-0.7236914934517023,-1.6006913496317594,-1.484109024778356,-0.7490319013595581,0.6621554493904114,0.022398998960852623,-1.8672199249267578,1.9282195568084717,-0.48077234625816345
4.423327922821045,0.0662110447883606,-0.3643059730529785,-0.05702805519104004,-0.7114408546539339,-1.5993142022703415,-1.542514564068012,-0.7571138143539429,0.6529257893562317,0.021597133949398994,-2.3644447326660156,2.051614761352539,-0.6178732514381409
4.443583011627197,0.08395034074783325,-0.2595561742782593,-0.15549230575561523,-0.6978635646739474,-1.5917346469597176,-1.5969139892218025,-0.7660488486289978,0.6425821781158447,0.01604212075471878,-1.847184419631958,2.2976436614990234,-0.6365628242492676
4.462284803390503,0.08071506023406982,-0.23559242486953735,-0.15485239028930664,-0.682380686488761,-1.5701554173977006,-1.640379083248901,-0.7760734558105469,0.6306424140930176,-0.0004973928444087505,-1.5597285032272339,2.603519916534424,-0.8703716397285461
4.484066963195801,0.11472612619400024,-0.36673617362976074,-0.09147661924362183,-0.6655784996182401,-1.5420619776805138,-1.6816089429524115,-0.7862350344657898,0.6175142526626587,-0.02259817160665989,-1.7122493982315063,2.8359265327453613,-0.7903441786766052
4.502089023590088,0.15679782629013062,-0.3103312849998474,-0.12851333618164062,-0.6501221122675672,-1.5135691933723732,-1.7293879619324097,-0.7947068214416504,0.6052836179733276,-0.04552850499749184,-1.9068422317504883,2.839609384536743,-0.986551821231842
4.523061752319336,0.17507082223892212,-0.23778069019317627,-0.18335115909576416,-0.6307177017345099,-1.4849901942511072,-1.7764630714859502,-0.8046332597732544,0.5897245407104492,-0.0692124143242836,-1.7510769367218018,2.9081294536590576,-1.184314250946045
4.54343581199646,0.18549072742462158,-0.29624706506729126,-0.10921894013881683,-0.6087977975395523,-1.4505467631826185,-1.8194977529130287,-0.8144122362136841,0.5718816518783569,-0.09840749204158783,-1.528282642364502,3.0596110820770264,-1.3406152725219727
4.5622029304504395,0.24125808477401733,-0.28025585412979126,-0.05785977840423584,-0.58638982306976,-1.4125908703090277,-1.8602246372590603,-0.8225417733192444,0.5533575415611267,-0.1312272548675537,-1.5276334285736084,3.0161590576171875,-1.3309499025344849
4.58275580406189,0.24652057886123657,-0.17158037424087524,-0.1528702974319458,-0.5663858595756311,-1.378030364672209,-1.9050621381059856,-0.8282161951065063,0.536585807800293,-0.16165922582149506,-1.8573813438415527,2.7776925563812256,-1.3526861667633057
4.602567911148071,0.18211114406585693,-0.12959939241409302,-0.1337626874446869,-0.545934660440674,-1.351203701522863,-1.9550812761586123,-0.8341191411018372,0.5192171335220337,-0.18616847693920135,-1.8352700471878052,2.6430134773254395,-1.4702128171920776
4.622612953186035,0.21774649620056152,-0.0763481855392456,-0.013310536742210388,-0.5261651231134943,-1.3214715612286734,-2.001471206821741,-0.8380009531974792,0.502220869064331,-0.21337413787841797,-1.590825080871582,2.6977179050445557,-1.3739453554153442
4.643222808837891,0.2931939363479614,-0.009038925170898438,-0.06283126771450043,-0.5067542057391392,-1.2910833515691316,-2.0403673532692927,-0.8403435349464417,0.4853419363498688,-0.24138329923152924,-1.059266448020935,2.2340335845947266,-1.4508360624313354
4.664130687713623,0.24795806407928467,-0.04046693444252014,-0.07004117965698242,-0.4850622080656737,-1.2624139988108147,-2.065957167399649,-0.8429135084152222,0.46626338362693787,-0.26850569248199463,-0.5875706076622009,1.8747289180755615,-1.2543922662734985
4.683713912963867,0.17396944761276245,-0.019845813512802124,0.020498216152191162,-0.4650473754828022,-1.237795525149493,-2.090104540528181,-0.8446999788284302,0.44846513867378235,-0.2921658456325531,-0.8725512623786926,1.6649043560028076,-1.4199024438858032
4.701117992401123,0.19201165437698364,0.04721879959106445,0.08269402384757996,-0.4433941906136268,-1.2203048027395524,-2.121620363938027,-0.8483836650848389,0.4290079176425934,-0.3101568818092346,-1.0315086841583252,1.475595235824585,-1.4868957996368408
4.722179889678955,0.1770637035369873,0.08773007988929749,0.03693997859954834,-0.4238222696136907,-1.205642148384025,-2.153090237608261,-0.8514258861541748,0.4112475514411926,-0.3254990577697754,-0.9179085493087769,1.2974343299865723,-1.388672113418579
4.742247819900513,0.12250077724456787,0.22086137533187866,0.029079139232635498,-0.40365914871154807,-1.1930682496578506,-2.1810937882215584,-0.8548005819320679,0.39278602600097656,-0.33916839957237244,-0.8025816679000854,1.1340004205703735,-1.4519938230514526
4.761615753173828,0.11891704797744751,0.24722030758857727,0.06281232833862305,-0.38199752014392974,-1.1835087905025894,-2.2075500607683476,-0.859197199344635,0.37277474999427795,-0.3504559397697449,-0.6319433450698853,0.7544249296188354,-1.470530390739441
4.782574892044067,0.1098935604095459,0.2698979675769806,0.1253596544265747,-0.35943462364719064,-1.1804828236127156,-2.2288292075814233,-0.8656919002532959,0.35174503922462463,-0.35616421699523926,-0.28287822008132935,0.34943094849586487,-1.326494812965393
4.8019068241119385,-0.04157745838165283,0.2426283359527588,0.13724467158317566,-0.3374227555988017,-1.1786897979513096,-2.2413688070418294,-0.8719967007637024,0.33105626702308655,-0.3605876564979553,0.03275793790817261,0.2589215636253357,-1.2615203857421875
4.821830749511719,-0.199546217918396,0.3077443242073059,0.0790032148361206,-0.3102938906996277,-1.1756205300169713,-2.2459909620985536,-0.878853440284729,0.3053385019302368,-0.36658576130867004,0.4534849524497986,0.2513246238231659,-1.4106966257095337
4.841917037963867,-0.3162088394165039,0.3460087776184082,0.045297056436538696,-0.27826537000986,-1.172357153999934,-2.2487004604639913,-0.8862141966819763,0.27468815445899963,-0.37305593490600586,0.5085022449493408,0.18439248204231262,-1.5922138690948486
4.8608479499816895,-0.3303266167640686,0.32997116446495056,0.04878968000411987,-0.24869528340098207,-1.1702367591161091,-2.2586413892945383,-0.8925126194953918,0.24613958597183228,-0.3779371380805969,-0.17747636139392853,0.17291221022605896,-1.5186821222305298
4.8816609382629395,-0.20190614461898804,0.3224712610244751,0.17909002304077148,-0.22622143489405025,-1.1722547714419906,-2.280730973899798,-0.8981456160545349,0.22429683804512024,-0.37818679213523865,-0.9298933148384094,0.2237834632396698,-1.391831398010254
4.901639938354492,-0.05516183376312256,0.2341393381357193,0.2722167372703552,-0.20941984288181562,-1.176283021089752,-2.309185098321259,-0.9030137062072754,0.20789244771003723,-0.3759613037109375,-0.7866496443748474,-0.13820324838161469,-1.2941395044326782
4.921669006347656,-0.10140854120254517,0.3254091739654541,0.18701592087745667,-0.18828985674803805,-1.1808194174344657,-2.3198133472591174,-0.9085705876350403,0.18717925250530243,-0.37344789505004883,0.8539931774139404,-0.04075462743639946,-1.057208776473999
4.941582918167114,-0.34169507026672363,0.4651956856250763,0.1156248152256012,-0.1539881439468066,-1.1725952392399217,-2.294345215248509,-0.9108530879020691,0.15338028967380524,-0.38317254185676575,2.5285861492156982,0.3735727071762085,-1.189481258392334
4.961866855621338,-0.32524681091308594,0.27518516778945923,0.28060972690582275,-0.11196569125691308,-1.1607400850541316,-2.2582504420046163,-0.9113559722900391,0.11173190176486969,-0.3961646854877472,2.150184392929077,0.23320919275283813,-1.2170060873031616
4.981630802154541,-0.1443932056427002,0.12429686635732651,0.4249958097934723,-0.08223187110699802,-1.1581814162671042,-2.2402136214782447,-0.912979781627655,0.08213922381401062,-0.39965108036994934,0.7881269454956055,-0.14550243318080902,-0.7493880391120911
5.003013849258423,-0.20767360925674438,0.1371697187423706,0.34590524435043335,-0.06826654616511763,-1.1606989771449046,-2.232774665432211,-0.9149459600448608,0.06821353733539581,-0.3977699875831604,0.5970008373260498,-0.05187714472413063,-0.24434855580329895
5.021397829055786,-0.29735660552978516,0.2332507073879242,0.3029598295688629,-0.05915737264200892,-1.1593088368544102,-2.220697542624027,-0.9149236083030701,0.059122875332832336,-0.39927342534065247,0.8442777991294861,0.19270659983158112,-0.10776610672473907
5.040304899215698,-0.30335891246795654,0.04862238094210625,0.24673116207122803,-0.05152853152581337,-1.1515950076106778,-2.202837461875261,-0.912202000617981,0.05150573328137398,-0.4064908027648926,1.0055052042007446,0.3868104815483093,0.09128180891275406
5.059546947479248,-0.20727288722991943,0.04966691508889198,0.2491120994091034,-0.04680090826732937,-1.1461559230994123,-2.186803364502234,-0.9101892113685608,0.046783823519945145,-0.41154202818870544,0.742630124092102,-0.034822262823581696,0.11463214457035065
5.081315040588379,-0.24133646488189697,0.06822209060192108,0.29350605607032776,-0.04449393300709081,-1.148994374851552,-2.1714667345050653,-0.9114497303962708,0.04447925463318825,-0.4089999496936798,0.7919934988021851,-0.28161919116973877,0.30832651257514954
5.100926876068115,-0.4017624258995056,-0.12976482510566711,0.3718070387840271,-0.04532288024149722,-1.1529497873300283,-2.1529935498601342,-0.9130263924598694,0.04530736431479454,-0.40537652373313904,0.7498472929000854,-0.04905872046947479,0.5412757992744446
5.120029926300049,-0.42807722091674805,-0.13289891183376312,0.3080040216445923,-0.04992701620028838,-1.153460674007215,-2.1341490677586643,-0.9130329489707947,0.049906276166439056,-0.40482115745544434,0.8664122819900513,-0.17705397307872772,0.6755587458610535
5.140836715698242,-0.3548329472541809,0.016316164284944534,0.23633453249931335,-0.05714013569475351,-1.1567632181179421,-2.1109046095993467,-0.9140115976333618,0.0571090467274189,-0.4016483426094055,1.0541746616363525,-0.3403869569301605,0.8514214158058167
5.161085844039917,-0.3951616883277893,0.04512522369623184,0.1933726668357849,-0.06282616042265138,-1.163675956551181,-2.0796018342511755,-0.9164531826972961,0.0627848356962204,-0.3951855003833771,1.4724286794662476,-0.3872012794017792,1.0083132982254028
5.1808788776397705,-0.42771458625793457,0.06915560364723206,0.25268685817718506,-0.07353446262276801,-1.1667206481054537,-2.0446829606954684,-0.9169813990592957,0.07346820831298828,-0.3921065330505371,1.121598243713379,-0.10722500085830688,1.3048287630081177
5.2008068561553955,-0.44444507360458374,7.296353578567505e-05,0.26989513635635376,-0.09496402453591539,-1.1659499115166547,-2.020442295909137,-0.9150214195251465,0.09482135623693466,-0.3921028971672058,0.2969544231891632,-0.1157737523317337,1.658246636390686
5.220803737640381,-0.39788544178009033,0.11440558731555939,0.3076894283294678,-0.12888602784328676,-1.1688326536434217,-2.003307919482623,-0.9126613736152649,0.12852948904037476,-0.3879813253879547,0.04547634348273277,-0.23765943944454193,2.07485032081604
5.240501880645752,-0.49166733026504517,0.30769097805023193,0.04995375871658325,-0.16496471429338408,-1.1706733355141736,-1.9761462345695466,-0.9085096120834351,0.1642175316810608,-0.3842434287071228,1.2354013919830322,-0.34428805112838745,2.218827247619629
5.260564804077148,-0.5335574150085449,0.43774324655532837,0.094105064868927,-0.19104112527461356,-1.1677460966580506,-1.9259780440645606,-0.9031338691711426,0.18988117575645447,-0.38509026169776917,2.1141576766967773,-0.1451856940984726,2.143037796020508
5.280541896820068,-0.4933736324310303,0.08769431710243225,0.1847962737083435,-0.21713898010725408,-1.157096397039323,-1.8728960187952937,-0.8941385746002197,0.2154366672039032,-0.39256006479263306,1.3685734272003174,0.019302671775221825,2.332029104232788
5.299499988555908,-0.4678266644477844,-0.0600300133228302,0.16114968061447144,-0.2566397405369828,-1.1522757361388674,-1.8421601205333438,-0.8837663531303406,0.25383177399635315,-0.3930986225605011,-0.15534308552742004,-0.2445065975189209,2.467743158340454
5.320875883102417,-0.41512763500213623,0.11175835132598877,0.1419832706451416,-0.3049646005643756,-1.1529660284279037,-1.8297530830796267,-0.8717987537384033,0.30025941133499146,-0.38705480098724365,-0.3733881115913391,-0.1739094853401184,2.4227471351623535
5.340860843658447,-0.3423301577568054,0.4234052002429962,0.014103710651397705,-0.34447554774883077,-1.1487852382291668,-1.804182000116835,-0.8586739301681519,0.33770307898521423,-0.38553330302238464,1.0853641033172607,-0.18910060822963715,2.1660871505737305
5.359604835510254,-0.38229846954345703,0.41722631454467773,-0.11681932210922241,-0.36881896721382573,-1.1341946347176717,-1.7537128641408162,-0.8452558517456055,0.3605140745639801,-0.39442649483680725,1.8718318939208984,-0.14910168945789337,2.033364772796631
5.379685878753662,-0.37994641065597534,0.028010815382003784,0.043331921100616455,-0.39352065204319997,-1.120709024842596,-1.7109941376230888,-0.8315862417221069,0.38344234228134155,-0.4017914831638336,0.3952845633029938,-0.015494458377361298,1.9603134393692017
5.399536848068237,-0.2619702219963074,-0.06315818428993225,0.040854454040527344,-0.43312601480771046,-1.1153032615173317,-1.6995580964037031,-0.8151171803474426,0.4197101891040802,-0.3992834985256195,-0.8581900596618652,0.020977353677153587,2.0252435207366943
5.419991970062256,-0.1095728874206543,0.31299859285354614,-0.09175723791122437,-0.4717286747138659,-1.1118739819617955,-1.6892704879430318,-0.798615038394928,0.4544268250465393,-0.3946015238761902,0.33399003744125366,-0.06769347935914993,1.8367606401443481
5.440029859542847,-0.22290891408920288,0.4671696126461029,-0.22083285450935364,-0.4906854029054876,-1.0919254550469255,-1.6470518032530947,-0.7827978134155273,0.47123053669929504,-0.40641024708747864,1.9111268520355225,0.08578316122293472,1.5648727416992188
5.460055828094482,-0.26357191801071167,0.05160802602767944,-0.061533123254776,-0.4994814983012051,-1.0636867446340137,-1.5967050204356688,-0.7673576474189758,0.4789704382419586,-0.4263209402561188,1.3805216550827026,0.3735574185848236,1.3367657661437988
5.479867935180664,-0.11679708957672119,-0.0721454918384552,-0.04442891478538513,-0.5138669315568987,-1.0400144648237963,-1.5625785949078024,-0.7510312795639038,0.49154841899871826,-0.44083118438720703,0.5530744791030884,0.27420374751091003,1.416045069694519
5.499902725219727,0.006479799747467041,-0.032868146896362305,0.01673799753189087,-0.533104967611622,-1.0242518811481978,-1.5385526726512784,-0.7357737421989441,0.5082098841667175,-0.4476158618927002,0.49074026942253113,0.11887045204639435,1.297473430633545
5.519748687744141,0.03842794895172119,0.03156358003616333,-0.024600565433502197,-0.5491342660570252,-1.0067772152834575,-1.5077718121889712,-0.7208621501922607,0.5219489932060242,-0.45599043369293213,0.7033291459083557,0.04241508990526199,1.4442964792251587
5.539655685424805,-0.006208956241607666,-0.1261478066444397,-0.0031261444091796875,-0.5656360440623106,-0.994061686886082,-1.4802385358133523,-0.7076888084411621,0.5359529256820679,-0.4603596329689026,0.4062045216560364,-0.20193038880825043,1.253831148147583
5.560232877731323,0.006591916084289551,-0.08658194541931152,-0.08651724457740784,-0.5838160178263143,-0.9859231995275423,-1.4568155464686772,-0.6956788301467896,0.5512118935585022,-0.46064770221710205,0.2485189139842987,-0.2755775451660156,1.3387365341186523
5.579843997955322,0.020054519176483154,-0.09950870275497437,-0.1552160382270813,-0.603183133903117,-0.9811456297561811,-1.4345505205378952,-0.6844679713249207,0.5672667622566223,-0.45794323086738586,0.2205297201871872,-0.5043599009513855,1.2775086164474487
5.599517822265625,0.0621342658996582,-0.10989463329315186,-0.0605887770652771,-0.6231969743915396,-0.9787196282234628,-1.41269298978985,-0.6737980842590332,0.5836341381072998,-0.4531747102737427,0.20287489891052246,-0.5122170448303223,1.3867906332015991
5.619578838348389,0.07074534893035889,-0.09443366527557373,-0.14566612243652344,-0.6426087316834799,-0.9749635223559947,-1.3866538399300026,-0.6625880599021912,0.5992858409881592,-0.4492589235305786,0.41504672169685364,-0.654277503490448,1.3999439477920532
5.639556884765625,0.06829071044921875,-0.1400970220565796,-0.19259008765220642,-0.6625359298843513,-0.9743597197529229,-1.3624043239449475,-0.6523056626319885,0.6151182651519775,-0.44286224246025085,0.04651711881160736,-0.8126839995384216,1.3202623128890991
5.659708023071289,0.13480901718139648,-0.158200204372406,-0.21560350060462952,-0.6815555163547548,-0.982750383970017,-1.3439968687390489,-0.646146297454834,0.6300017833709717,-0.43080466985702515,0.1517748236656189,-1.1380716562271118,1.1046128273010254
5.679613828659058,0.15710711479187012,-0.0614052414894104,-0.18354198336601257,-0.6983810206483504,-0.9922381631060454,-1.3234764845769187,-0.6412379741668701,0.6429786086082458,-0.4187987148761749,0.16189925372600555,-1.0730935335159302,1.198683738708496
5.699534893035889,0.16368240118026733,-0.08522921800613403,-0.2557765245437622,-0.7163554111564346,-1.000609722640154,-1.3033004397501842,-0.6348891258239746,0.6566402912139893,-0.40711113810539246,0.20579516887664795,-1.105825424194336,1.108425498008728
5.719545841217041,0.2201622724533081,-0.019901394844055176,-0.21160316467285156,-0.7335744712399417,-1.0082813810413525,-1.2877685718494412,-0.6283349990844727,0.6695289611816406,-0.3961391746997833,-0.051978014409542084,-0.6577401161193848,1.0906075239181519
5.73964786529541,0.27614694833755493,-0.054804861545562744,-0.4543556272983551,-0.7461655842337146,-1.003492007788946,-1.25808966365588,-0.6192713975906372,0.6788281798362732,-0.3945823609828949,0.9623211622238159,-0.7492583990097046,1.20279061794281
5.7596118450164795,0.30984270572662354,-0.08295834064483643,-0.27570855617523193,-0.7561461210148179,-0.9888566290764623,-1.2186497946967996,-0.6077401638031006,0.6861228942871094,-0.39985916018486023,1.0113067626953125,-0.5506263971328735,1.1516183614730835
5.779551029205322,0.38625669479370117,-0.26341718435287476,-0.323819100856781,-0.7611194278952816,-0.9686596573427778,-1.1689900454484725,-0.5967212319374084,0.6897324323654175,-0.41011348366737366,1.6092517375946045,-0.91013103723526,1.443339228630066
5.801407814025879,0.4652858376502991,0.04983067512512207,-0.09888726472854614,-0.7692430181861913,-0.9480497076859707,-1.1070298830759522,-0.5835720896720886,0.6955915689468384,-0.4190419018268585,1.66002357006073,-1.2606112957000732,1.6152468919754028
5.819582939147949,0.30545759201049805,-0.10378772020339966,-0.06361618638038635,-0.7726795058485588,-0.9292941654413518,-1.0436263235506367,-0.5736919045448303,0.6980563998222351,-0.42847976088523865,1.6914732456207275,-1.2803280353546143,1.3917675018310547
5.839480876922607,0.23721879720687866,-0.21177202463150024,-0.05531656742095947,-0.7721865806339427,-0.9121847978373638,-0.9840993302450403,-0.5665493607521057,0.6977033615112305,-0.4384426176548004,1.8352866172790527,-1.1330039501190186,1.1789356470108032
5.859545707702637,0.2297859787940979,-0.3528267741203308,0.06551894545555115,-0.7682358248136332,-0.8917998858919169,-0.9257062079496389,-0.5596352815628052,0.6948676109313965,-0.45162731409072876,1.6138551235198975,-0.8930463194847107,1.1066653728485107
5.879451751708984,0.23258620500564575,-0.3983076810836792,0.02643042802810669,-0.7650291824099879,-0.8741757610895432,-0.8753125974064532,-0.5532955527305603,0.6925580501556396,-0.4628470838069916,1.447413682937622,-0.8826660513877869,0.9361200928688049
5.899444818496704,0.18745023012161255,-0.32662254571914673,0.04244229197502136,-0.7597551512371956,-0.8577025123180413,-0.8285946422310237,-0.5483511686325073,0.6887439489364624,-0.47428128123283386,1.3892557621002197,-0.6475034356117249,0.8658517003059387
5.919461727142334,0.13200241327285767,-0.2984720468521118,0.06008020043373108,-0.7553263812474779,-0.8391684149187194,-0.7881023795500245,-0.5417314767837524,0.6855263113975525,-0.4863955080509186,1.1748096942901611,-0.31077536940574646,0.740126371383667
5.939443826675415,0.16886448860168457,-0.2299267053604126,0.12462764978408813,-0.7499081225234147,-0.8205146380147588,-0.7539173808149799,-0.5352739095687866,0.6815715432167053,-0.49894100427627563,1.0421929359436035,-0.1827688366174698,0.5488895177841187
5.959450721740723,0.19200736284255981,-0.22826451063156128,0.12381285429000854,-0.7425527911003066,-0.8036057814291478,-0.7240993658337315,-0.5303558111190796,0.6761708855628967,-0.5113860964775085,1.1258057355880737,-0.18857534229755402,0.4257320463657379
5.9794487953186035,0.1778363585472107,-0.16117417812347412,0.09758806228637695,-0.7300150975377108,-0.786269236563885,-0.6929488453378487,-0.5273695588111877,0.6668809056282043,-0.526451587677002,1.3884832859039307,-0.14140933752059937,0.2685181200504303
5.999534845352173,0.11215049028396606,-0.15326255559921265,0.07209557294845581,-0.7122481996954931,-0.7706157336093458,-0.6655358246575902,-0.5272353887557983,0.6535370945930481,-0.5430580973625183,1.2388659715652466,-0.1994229257106781,-0.08149813860654831
6.019470691680908,0.010572969913482666,-0.22089141607284546,0.056263506412506104,-0.6943850125857177,-0.7670688185533029,-0.6511766629082075,-0.5333240032196045,0.6399129629135132,-0.5532423257827759,0.7782437801361084,-0.34131500124931335,-0.3399182856082916
6.039541721343994,-0.05656135082244873,-0.09194910526275635,-0.012596487998962402,-0.68069466435214,-0.7689552432753104,-0.6456573154415773,-0.5404084324836731,0.6293330192565918,-0.5584789514541626,0.5735889673233032,-0.21008889377117157,-0.3538875877857208
6.059461832046509,-0.12149280309677124,0.11653941869735718,-0.051648855209350586,-0.6641640938391491,-0.7660043540293975,-0.6422570486525431,-0.5458962321281433,0.6164011359214783,-0.5674917697906494,0.8376054167747498,0.30900469422340393,-0.6697663068771362
6.0795018672943115,-0.18940037488937378,-0.011095285415649414,-0.006822645664215088,-0.6420052372189914,-0.7524479211848636,-0.6393514983992727,-0.547355055809021,0.5988026261329651,-0.5846690535545349,0.7974136471748352,0.7854149341583252,-0.6454071998596191
6.099493026733398,-0.14667999744415283,-0.07793807983398438,0.05070388317108154,-0.6240182946617291,-0.7349512617326449,-0.6395668196896276,-0.5441770553588867,0.5843008756637573,-0.6020497679710388,0.5147697329521179,0.9553573727607727,-0.6449129581451416
6.119515895843506,-0.10121256113052368,0.05150789022445679,0.035145699977874756,-0.6066887835305188,-0.7184287798959933,-0.6446721483233923,-0.5407400131225586,0.5701503157615662,-0.618489146232605,0.5840686559677124,0.961395263671875,-0.8296058177947998
6.139504909515381,-0.15030843019485474,0.11602205038070679,0.022566676139831543,-0.5879208171346654,-0.7035964242798859,-0.6555059649169974,-0.5383361577987671,0.5546321272850037,-0.634489893913269,0.1921493113040924,1.1414566040039062,-1.155900001525879
6.159494876861572,-0.19414979219436646,-0.12113940715789795,0.052506327629089355,-0.5675489460591574,-0.6920736963858947,-0.6751652080049164,-0.5380890369415283,0.5375669002532959,-0.6492165327072144,0.19811852276325226,1.0748893022537231,-1.3555574417114258
6.180728912353516,-0.11103284358978271,-0.10577082633972168,0.18332970142364502,-0.5490151430618005,-0.6829904441583997,-0.6978105118030772,-0.5383660793304443,0.5218473672866821,-0.6616927981376648,0.09882503002882004,0.9754753112792969,-1.264822244644165
6.199487686157227,-0.08893954753875732,-0.056355416774749756,0.2847443222999573,-0.5369052399792776,-0.6765998045192708,-0.7200086604314517,-0.5380441546440125,0.5114791393280029,-0.6699982285499573,-0.4187307357788086,0.8463885188102722,-1.0439064502716064
6.219485759735107,-0.17576086521148682,-0.09305745363235474,0.23381513357162476,-0.5319636350303355,-0.6751652955062811,-0.7486324065088645,-0.538655698299408,0.5072265863418579,-0.6727342009544373,-0.6767855882644653,0.761808454990387,-1.2193394899368286
6.2394819259643555,-0.18737536668777466,-0.10944324731826782,0.1894887089729309,-0.5280527866512547,-0.6758183601108871,-0.7809217726237971,-0.5403316617012024,0.5038523077964783,-0.6739248037338257,-0.8570189476013184,0.791878342628479,-1.1828404664993286
6.259484767913818,-0.13562315702438354,-0.13449960947036743,0.24381470680236816,-0.5283017242123302,-0.6797143097700429,-0.8181641857866807,-0.5428742170333862,0.5040673017501831,-0.6717169284820557,-1.1471296548843384,0.7096298933029175,-1.3748661279678345
6.279522895812988,-0.05837082862854004,-0.23818975687026978,0.27714473009109497,-0.5301655505893963,-0.6889950870035669,-0.8621145873718012,-0.548486590385437,0.5056761503219604,-0.6659234762191772,-1.3279489278793335,0.5381494760513306,-1.4180458784103394
6.2994537353515625,0.03422313928604126,-0.23417842388153076,0.2724156379699707,-0.5291597427292353,-0.7014033892222652,-0.9043483708638518,-0.5570350885391235,0.5048081874847412,-0.659454882144928,-0.8700302243232727,0.38576048612594604,-1.4247950315475464
6.319502830505371,0.05133253335952759,-0.21210026741027832,0.21277391910552979,-0.5220699950631167,-0.7113506139346455,-0.9382183797765313,-0.5658894777297974,0.49867546558380127,-0.6565758585929871,-0.608584463596344,0.3003220856189728,-1.3019486665725708
6.339479923248291,0.05001974105834961,-0.20516183972358704,0.1681010127067566,-0.5138206773380293,-0.7245463277936065,-0.9721610605768461,-0.5772109627723694,0.4915081560611725,-0.6521098613739014,-0.7597355246543884,0.05240744724869728,-1.4819058179855347
6.359477996826172,0.08253568410873413,-0.14937493205070496,0.1250462532043457,-0.5061095820730933,-0.7429743447268365,-1.0101803466492556,-0.5916756987571716,0.4847782254219055,-0.6441349983215332,-0.8704680800437927,-0.012473457492887974,-1.479681134223938
6.379487991333008,0.12840402126312256,-0.1372687816619873,0.0892479419708252,-0.4995898093963369,-0.7625717890358487,-1.0488460232959709,-0.6063551902770996,0.47906550765037537,-0.6346886157989502,-0.9992417097091675,-0.1305694729089737,-1.4452483654022217
6.399477958679199,0.18597227334976196,-0.06763756275177002,0.03825974464416504,-0.49449742042158473,-0.7859925642575749,-1.0882847092241723,-0.6227704882621765,0.47458934783935547,-0.6220305562019348,-1.0236239433288574,-0.33087068796157837,-1.3958293199539185
6.41947603225708,0.2020006775856018,0.020060181617736816,-0.07653164863586426,-0.4884336529099378,-0.8109725603856393,-1.124327414032049,-0.6401873826980591,0.46924325823783875,-0.6082523465156555,-0.804854154586792,-0.4439486861228943,-1.2456023693084717
6.439476013183594,0.23033183813095093,0.052776604890823364,-0.10396897792816162,-0.4812228813602426,-0.8328956893437386,-1.1529808888299937,-0.6558537483215332,0.4628635048866272,-0.5963332056999207,-0.6135183572769165,-0.41015955805778503,-1.016233205795288
6.459475040435791,0.29674041271209717,0.07060506939888,-0.14175301790237427,-0.4759213587875981,-0.8531478624360372,-1.1771011936929867,-0.6696347594261169,0.45815759897232056,-0.5845348834991455,-0.6532241106033325,-0.5234785079956055,-0.800494372844696
6.479472875595093,0.3671259880065918,0.05722081661224365,-0.18766415119171143,-0.47400223895724913,-0.8758854152246626,-1.1985086719581475,-0.6834254264831543,0.4564509093761444,-0.5697211623191833,-0.6277145147323608,-0.7736763954162598,-0.5484060049057007
6.49947190284729,0.42473751306533813,0.1332016885280609,-0.25484710931777954,-0.47567534640576814,-0.9003489285642995,-1.212918461991189,-0.6965576410293579,0.45793890953063965,-0.5523581504821777,-0.4525325894355774,-1.024052619934082,-0.12838557362556458
6.519507884979248,0.42153578996658325,0.21334710717201233,-0.30653226375579834,-0.4802738172728879,-0.9251854938076779,-1.218150941633211,-0.708370566368103,0.4620220363140106,-0.5336167216300964,-0.1713109165430069,-1.2277871370315552,0.1834031194448471
6.539456844329834,0.399506151676178,0.27930882573127747,-0.33786290884017944,-0.4854791395328988,-0.9472085462087064,-1.2112861668659605,-0.7179876565933228,0.4666321873664856,-0.5164766907691956,0.38554781675338745,-1.2796909809112549,0.624197244644165
6.559468746185303,0.3683091998100281,0.3365939259529114,-0.4466913342475891,-0.49140196005336007,-0.9614374648797303,-1.1865773920909897,-0.7229846119880676,0.47186243534088135,-0.5046179294586182,0.9962238669395447,-1.3290385007858276,1.1075016260147095
6.57947301864624,0.29491567611694336,0.3417428433895111,-0.46258169412612915,-0.4983993233106526,-0.9704706958550918,-1.1479756456321406,-0.7247710227966309,0.47802019119262695,-0.49618908762931824,1.3722820281982422,-1.3911231756210327,1.3858555555343628
6.599493026733398,0.1788322925567627,0.3660421073436737,-0.428510844707489,-0.5068883829642625,-0.9747947012579821,-1.1004378330339848,-0.72352534532547,0.48545923829078674,-0.49075496196746826,1.5674819946289062,-1.3163751363754272,1.6239882707595825
6.619462013244629,0.012691020965576172,0.39477071166038513,-0.37032371759414673,-0.5163599347808382,-0.972992620057095,-1.049074359266603,-0.718806803226471,0.4937179386615753,-0.48944807052612305,1.5475081205368042,-1.0125735998153687,1.6575183868408203
6.639465808868408,-0.07425057888031006,0.39787524938583374,-0.33066093921661377,-0.5255527756501239,-0.966102639390099,-1.000506638853005,-0.711653470993042,0.5016912817955017,-0.491787850856781,1.4574272632598877,-0.7589956521987915,1.4531135559082031
6.659458875656128,-0.10925173759460449,0.4124026894569397,-0.28960540890693665,-0.5308337295480227,-0.9542727516351598,-0.9533421347294182,-0.7036145329475403,0.5062525272369385,-0.49863314628601074,1.5687859058380127,-0.40469247102737427,1.3694956302642822
6.679495811462402,-0.11537092924118042,0.3777279257774353,-0.14851635694503784,-0.5363178083193825,-0.93366735065236,-0.9074589462535103,-0.6909493207931519,0.5109742879867554,-0.5113652348518372,1.2547235488891602,0.12311358004808426,1.3938469886779785
6.699457883834839,-0.01475447416305542,0.25316983461380005,-0.041594743728637695,-0.5473249882048387,-0.903980995419898,-0.8662053439236522,-0.6710061430931091,0.5204048752784729,-0.5281379222869873,0.8964165449142456,0.5866253972053528,1.6141411066055298
6.719454765319824,0.11354589462280273,0.12643498182296753,0.07914608716964722,-0.5644027249655607,-0.868377066474311,-0.8253447651348491,-0.6449027061462402,0.5349112749099731,-0.5458666086196899,0.742102861404419,0.7097962498664856,1.8775943517684937
6.739455699920654,0.16141897439956665,0.03455233573913574,0.17657744884490967,-0.5838406298603143,-0.8309927893042164,-0.7808512105374698,-0.6162530779838562,0.5512324571609497,-0.5624722242355347,0.8021116256713867,0.5255622863769531,1.990514874458313
6.759451866149902,0.12642788887023926,0.04064500331878662,0.22706657648086548,-0.6000715828605689,-0.7960082557315398,-0.7319013849899509,-0.5897306203842163,0.5647015571594238,-0.5773473381996155,1.041351556777954,0.1983596831560135,1.954749345779419
6.779451847076416,-0.0007405877113342285,0.06071770191192627,0.23684632778167725,-0.6108445713285889,-0.7640918717238699,-0.6781371539185745,-0.5667644739151001,0.5735595226287842,-0.5914453268051147,1.2849758863449097,-0.06304217875003815,1.9401202201843262
6.799463748931885,-0.17424994707107544,0.09474784135818481,0.22499001026153564,-0.6165335509584465,-0.7342956933328951,-0.6227181273205556,-0.5466974377632141,0.5782104134559631,-0.6056358218193054,1.3400298357009888,-0.14979171752929688,1.7535823583602905
6.819487810134888,-0.2653622627258301,0.13658058643341064,0.1842769980430603,-0.6195187540905722,-0.7075202390258636,-0.571354877229129,-0.5291630029678345,0.5806434154510498,-0.6187404990196228,1.2104568481445312,-0.15421558916568756,1.5986740589141846
6.839468955993652,-0.2901015877723694,0.17942923307418823,0.16296160221099854,-0.6221614539703225,-0.6817149705343604,-0.5227465644276833,-0.5120530724525452,0.5827929377555847,-0.630994439125061,1.1169664859771729,-0.107817642390728,1.6189943552017212
6.859468936920166,-0.3475782871246338,0.24993574619293213,0.2007337212562561,-0.6256261492121562,-0.6547529842279406,-0.47680743809612436,-0.49362364411354065,0.5856049656867981,-0.6429639458656311,0.9075586795806885,0.11505085229873657,1.463649868965149
6.879450798034668,-0.33781564235687256,0.208326518535614,0.2195892333984375,-0.6289602207861877,-0.6274147354918505,-0.4387763715480103,-0.474714994430542,0.5883042812347412,-0.654632568359375,0.6569498777389526,0.35097479820251465,1.2112584114074707
6.899483919143677,-0.20850810408592224,0.13865143060684204,0.24105864763259888,-0.6331409696088425,-0.6013138133483225,-0.407711167873987,-0.4560732841491699,0.5916798114776611,-0.6647646427154541,0.4781363606452942,0.39791834354400635,1.0990136861801147
6.91944694519043,-0.11346137523651123,0.00863569974899292,0.2618112564086914,-0.6378946751676026,-0.5767473173734504,-0.378355409190081,-0.4380677044391632,0.5955054759979248,-0.6734018325805664,0.463378369808197,0.3020494282245636,1.1402194499969482
6.939462900161743,-0.05929529666900635,-0.05964380502700806,0.28919291496276855,-0.6416562493024035,-0.5535629602083505,-0.3471560324012642,-0.4211583435535431,0.5985230803489685,-0.6814658641815186,0.5803889632225037,0.1337035447359085,1.1478030681610107
6.959443807601929,-0.05000174045562744,-0.0749555230140686,0.31087660789489746,-0.6425607334190783,-0.5332041001713907,-0.31621800110963444,-0.406922847032547,0.5992474555969238,-0.68943190574646,0.6093571186065674,0.024121038615703583,0.9953431487083435
6.979487895965576,-0.03469434380531311,-0.12402355670928955,0.30815988779067993,-0.6417932688443351,-0.5180939828443896,-0.2892757364306361,-0.39668703079223633,0.5986328721046448,-0.6959009766578674,0.5514377355575562,-0.16613580286502838,0.8421655297279358
6.99944281578064,-0.011616766452789307,-0.11118340492248535,0.28115612268447876,-0.6407174923662042,-0.5100176558882279,-0.2656731439250138,-0.39136797189712524,0.5977708101272583,-0.699643611907959,0.4603043794631958,-0.43034693598747253,0.7426467537879944
7.0194408893585205,-0.07011598348617554,-0.08959078788757324,0.29403138160705566,-0.6397644271540447,-0.5082527720100943,-0.24732591265775308,-0.3904096782207489,0.5970064997673035,-0.7008306384086609,0.3484540283679962,-0.45179179310798645,0.4753642976284027
7.039441823959351,-0.08857744932174683,-0.08883655071258545,0.29380011558532715,-0.6381405300525447,-0.5095628821457474,-0.23616416625922115,-0.3917998969554901,0.5957029461860657,-0.7011640071868896,0.22641955316066742,-0.3706277906894684,0.25972670316696167
7.059438705444336,-0.05625098943710327,-0.0883253812789917,0.25160038471221924,-0.6368777516508731,-0.5135791977225768,-0.22984977727443598,-0.39498206973075867,0.5946881771087646,-0.700239360332489,0.13943089544773102,-0.4309811294078827,0.12443459033966064
7.079466819763184,-0.06325441598892212,-0.060143232345581055,0.21228855848312378,-0.6356077509742035,-0.5219091859468581,-0.22806759286077766,-0.40117746591567993,0.593666672706604,-0.697579026222229,0.05182573199272156,-0.502635657787323,-0.08093924075365067
7.0994768142700195,-0.09927931427955627,-0.053545236587524414,0.16687166690826416,-0.6333265119419516,-0.5339813917659357,-0.23136488412731276,-0.4102575480937958,0.5918294191360474,-0.6938491463661194,-0.011563904583454132,-0.5068064332008362,-0.24448707699775696
7.119433879852295,-0.12613123655319214,-0.019687533378601074,0.12330561876296997,-0.63119107442678,-0.548339944309052,-0.23910843854991062,-0.4208354651927948,0.5901067852973938,-0.6889641880989075,-0.13606014847755432,-0.47508007287979126,-0.4088335633277893
7.139431953430176,-0.15635579824447632,0.007938623428344727,0.09915894269943237,-0.6299913208822352,-0.5643966977562419,-0.2520163595256725,-0.4322216808795929,0.5891377329826355,-0.6827160716056824,-0.31168797612190247,-0.36025530099868774,-0.5225497484207153
7.1594319343566895,-0.17541968822479248,0.04631400108337402,0.06186854839324951,-0.6306340414654183,-0.5800581842076922,-0.2685686745897694,-0.44265297055244446,0.5896569490432739,-0.6755465269088745,-0.4763982594013214,-0.2338564544916153,-0.5650544762611389
7.179458856582642,-0.19995862245559692,0.05328935384750366,0.029180049896240234,-0.632976222644868,-0.594757372791982,-0.2882139719917277,-0.4517596662044525,0.5915470123291016,-0.6678213477134705,-0.5712234973907471,-0.0751458927989006,-0.6345836520195007
7.199509859085083,-0.15340575575828552,0.05329573154449463,0.0024151206016540527,-0.6343126528348367,-0.6084510776832408,-0.30951376194344077,-0.4604097008705139,0.5926240086555481,-0.660923421382904,-0.488454133272171,-0.07845016568899155,-0.7141546607017517
7.219424724578857,-0.13789847493171692,0.03796529769897461,-0.030366718769073486,-0.6322246919549814,-0.6247030698765024,-0.3309548287584372,-0.4718124270439148,0.5909408926963806,-0.6543561816215515,-0.35679423809051514,-0.2889871597290039,-0.8307849764823914
7.239427804946899,-0.20528143644332886,0.09597563743591309,-0.10662287473678589,-0.6261896694287896,-0.6470062953792883,-0.3544859298283567,-0.4884290397167206,0.5860616564750671,-0.6465051770210266,-0.321869432926178,-0.5191343426704407,-1.0868728160858154
7.259434700012207,-0.28135383129119873,0.156155526638031,-0.12497317790985107,-0.6179104636444472,-0.673767376737283,-0.38395728574365623,-0.5085632801055908,0.5793332457542419,-0.6369743943214417,-0.549567699432373,-0.3565838634967804,-1.2829381227493286
7.279469966888428,-0.2464708685874939,0.17932188510894775,-0.1251157522201538,-0.6134577362214518,-0.6974662260900363,-0.419396891688917,-0.5251662731170654,0.5756981372833252,-0.6267153024673462,-0.9136232733726501,0.04268158599734306,-1.1987701654434204
7.29944372177124,-0.10459703207015991,0.18344587087631226,-0.13148212432861328,-0.6145168341807118,-0.7129547476960872,-0.45544773608726835,-0.5344106554985046,0.576563835144043,-0.6180448532104492,-1.0524969100952148,0.48972415924072266,-0.9682922959327698
7.319447994232178,0.0019844770431518555,0.06913739442825317,-0.06542152166366577,-0.619499136342455,-0.7178334675745176,-0.48797018576808154,-0.5355234146118164,0.58062744140625,-0.6132588386535645,-1.0287275314331055,0.882831335067749,-0.7204958200454712
7.339423894882202,0.08691483736038208,-0.07520109415054321,-0.012096285820007324,-0.6252152137029412,-0.7141575743395425,-0.5149654134646653,-0.5310830473899841,0.5852717757225037,-0.6127053499221802,-0.8101729154586792,1.0296151638031006,-0.5823444128036499
7.359462738037109,0.10814082622528076,-0.18249541521072388,0.02846825122833252,-0.6271669829842186,-0.7067288033647108,-0.5358909591931933,-0.5257740020751953,0.5868532657623291,-0.615763783454895,-0.45920124650001526,0.9553309082984924,-0.6005892157554626
7.379446983337402,0.03841972351074219,-0.25144779682159424,0.09356284141540527,-0.624547370078017,-0.6986797931002702,-0.5547330675444293,-0.5217877626419067,0.5847301483154297,-0.6211507320404053,-0.37158000469207764,0.9710915684700012,-0.7603729367256165
7.399420738220215,-0.04395139217376709,-0.2571694850921631,0.10819196701049805,-0.6199275164912493,-0.6933108700997619,-0.5786541866221296,-0.5201661586761475,0.5809761881828308,-0.6260141730308533,-0.5511791706085205,0.9800886511802673,-1.0393186807632446
7.41941499710083,-0.13337963819503784,-0.20527374744415283,0.11233043670654297,-0.6154719573974607,-0.6917846755279067,-0.6117884067027665,-0.5208563208580017,0.5773439407348633,-0.6287946701049805,-0.8526917099952698,1.12925386428833,-1.3285315036773682
7.439452886581421,-0.19618970155715942,-0.1196412444114685,0.11015260219573975,-0.6130816812038916,-0.6926106427707915,-0.656276832576643,-0.5222552418708801,0.575390636920929,-0.629424512386322,-1.3040857315063477,1.351844072341919,-1.634738802909851
7.459414005279541,-0.18397784233093262,-0.054869771003723145,0.10979080200195312,-0.6140547438540287,-0.6967360484441278,-0.7131969414136398,-0.5244878530502319,0.5761861801147461,-0.6268348693847656,-1.725659728050232,1.5107126235961914,-1.8413704633712769
7.479442834854126,-0.10414654016494751,0.011569857597351074,0.09723353385925293,-0.6181083618018665,-0.7018328516450917,-0.7749813971747174,-0.5261636972427368,0.5794945359230042,-0.6223648190498352,-1.786397933959961,1.5546706914901733,-1.7338804006576538
7.49944281578064,-0.025344491004943848,0.08065074682235718,0.07183659076690674,-0.6226599672700511,-0.7044758516254312,-0.8329252094395431,-0.5260930061340332,0.5831980109214783,-0.6189557909965515,-1.6253985166549683,1.5531463623046875,-1.5883612632751465
7.519412994384766,0.05623883008956909,0.05844670534133911,0.07977294921875,-0.626104834690516,-0.7059378068645827,-0.8861326026215345,-0.5256908535957336,0.5859928727149963,-0.6166534423828125,-1.4280749559402466,1.387379765510559,-1.4773471355438232
7.539410829544067,0.15570831298828125,0.03805065155029297,0.062374114990234375,-0.6285676763394418,-0.7090478553201136,-0.9332918639237584,-0.5266647934913635,0.5879867672920227,-0.6139183044433594,-1.2577197551727295,1.0612455606460571,-1.270468831062317
7.559407711029053,0.19220125675201416,0.016224205493927002,0.02892988920211792,-0.630557782752641,-0.7156527249804753,-0.974462641438258,-0.5299394130706787,0.589595377445221,-0.6095421314239502,-1.083421230316162,0.7350828051567078,-1.1344571113586426
7.579478740692139,0.19530361890792847,0.009322583675384521,0.005430757999420166,-0.6320946197225683,-0.7244913573847194,-1.010754055633189,-0.5347049832344055,0.5908359885215759,-0.6041551828384399,-0.9692252278327942,0.5349515676498413,-0.9759227633476257
7.599408864974976,0.20566189289093018,0.014151692390441895,-0.025790095329284668,-0.6338266070415712,-0.7349676136509322,-1.0431119667615893,-0.5403177738189697,0.5922324657440186,-0.5977603793144226,-0.9218028783798218,0.32996565103530884,-0.8579568862915039
7.6194047927856445,0.22126978635787964,0.019605815410614014,-0.07140076160430908,-0.6367946622190933,-0.7484108991098357,-1.0732487893433327,-0.5471060276031494,0.5946213603019714,-0.5891522765159607,-0.9503368139266968,0.11864274740219116,-0.7416564226150513
7.63940691947937,0.2514384388923645,-0.0027298331260681152,-0.13098245859146118,-0.6440599956703232,-0.7714373690765111,-1.1114509142256346,-0.557499349117279,0.6004469990730286,-0.5732870101928711,-1.789664387702942,-0.27314987778663635,-1.0446536540985107
7.659401893615723,0.2992776036262512,-0.13339418172836304,-0.4153209924697876,-0.6581642082808978,-0.8116133230784465,-1.1642706238683842,-0.573874831199646,0.6116655468940735,-0.5445484519004822,-1.8909928798675537,-0.3287097215652466,-0.7136632204055786
7.679409980773926,0.18638664484024048,-0.16929781436920166,-0.8549686670303345,-0.6707624651744867,-0.8318633220515093,-1.193444415679906,-0.5790411233901978,0.6215834617614746,-0.5275845527648926,-0.626744270324707,0.28882619738578796,-0.14847242832183838
7.69940185546875,0.11475950479507446,0.13625842332839966,-0.45197635889053345,-0.6708416486736968,-0.826879775507864,-1.2060764952595473,-0.5763684511184692,0.621645450592041,-0.530430257320404,-0.18351790308952332,0.8713467121124268,-0.5210673809051514
7.719401836395264,0.19232302904129028,0.12875157594680786,-0.24822843074798584,-0.6654759548543844,-0.811338377108342,-1.2153054140595358,-0.5704663991928101,0.6174336075782776,-0.5416123270988464,-0.11529650539159775,1.1232061386108398,-0.34631845355033875
7.739439010620117,0.21547067165374756,-0.12528634071350098,-0.2843276858329773,-0.6632011820652968,-0.7933502601725351,-1.2235300454915947,-0.5616315603256226,0.6156426072120667,-0.5527695417404175,-0.18898949027061462,0.9708753228187561,-0.17696122825145721
7.759397983551025,0.2645418047904968,0.01353996992111206,-0.23974204063415527,-0.6642449125324937,-0.7783238244392036,-1.2263048606480804,-0.5528108477592468,0.6164647936820984,-0.5606882572174072,0.05618011951446533,0.6985480189323425,0.03792606294155121
7.779397010803223,0.16758370399475098,0.07948356866836548,-0.20789045095443726,-0.6599561485511058,-0.7638461533315439,-1.2217291711123437,-0.5464594960212708,0.613082230091095,-0.5705367922782898,0.5108729004859924,0.4768275320529938,0.023788373917341232
7.799431800842285,0.16275626420974731,0.05284625291824341,-0.1984890103340149,-0.6540344518274308,-0.7465684108332777,-1.206084032832764,-0.5389770269393921,0.6083932518959045,-0.5825474262237549,0.6500603556632996,0.2184370756149292,0.4085608422756195
7.819400787353516,0.17704075574874878,0.03837364912033081,-0.16836905479431152,-0.6565840168788749,-0.745867967846009,-1.1943298152992325,-0.5375144481658936,0.6104146838188171,-0.5817835927009583,-0.36600780487060547,-1.1752877235412598,0.49184972047805786
7.839393854141235,0.04198402166366577,0.06831520795822144,-0.2759116291999817,-0.6776729040033606,-0.7859882700422173,-1.1910451452283166,-0.5511850714683533,0.6269818544387817,-0.5505349636077881,-0.6333547234535217,-2.464298963546753,1.3242779970169067
7.859392881393433,-0.23555141687393188,0.44488340616226196,-0.43821054697036743,-0.7011509412082663,-0.7904882647160366,-1.1496759935999337,-0.5430436730384827,0.645097553730011,-0.5375432968139648,1.584659218788147,-0.2561976909637451,2.421293258666992
7.879393815994263,-0.385969340801239,0.5740456581115723,-0.18329602479934692,-0.6955968633053038,-0.732211637251529,-1.0744967242922703,-0.5132006406784058,0.6408437490463257,-0.5709154605865479,2.4276342391967773,0.8786662817001343,1.1464508771896362
7.899434804916382,-0.14273011684417725,0.13797146081924438,-0.010506153106689453,-0.6712456528075706,-0.6693888193921244,-1.0140744626249123,-0.4858863055706024,0.6219618916511536,-0.6140666604042053,2.4239661693573,1.4972164630889893,1.135673999786377
7.919165849685669,0.06776043772697449,-0.1300259232521057,0.186210036277771,-0.6490395408061407,-0.6063642731884024,-0.9598065835075618,-0.4540061950683594,0.6044214963912964,-0.6546396017074585,1.5341756343841553,1.1330918073654175,0.8586617708206177
7.939483880996704,0.21913865208625793,-0.26089173555374146,0.30754512548446655,-0.6447642359876753,-0.5852696639942611,-0.9370608359512053,-0.4415203332901001,0.6010100245475769,-0.6662182807922363,0.17378075420856476,-0.2354169636964798,0.5123584866523743
7.959692001342773,0.23607459664344788,-0.1768810749053955,0.18911981582641602,-0.6490721082454617,-0.585244757809573,-0.9182823066195113,-0.44006943702697754,0.6044474840164185,-0.664064884185791,0.3935207426548004,-0.8116414546966553,1.1139875650405884
7.979385852813721,0.03629538416862488,-0.041816651821136475,0.15109920501708984,-0.651975555834696,-0.5816088979437511,-0.8832560711357227,-0.43668609857559204,0.6067579388618469,-0.6641913056373596,0.9575968384742737,-0.9070121049880981,1.1554611921310425
7.999434947967529,-0.14800286293029785,0.0434686541557312,0.15566325187683105,-0.6410168209860545,-0.5764036693560477,-0.8470134122862389,-0.4368208348751068,0.5980107188224792,-0.6719902157783508,1.4485836029052734,-0.7318565845489502,0.7600614428520203
8.019384860992432,-0.217922180891037,0.01986396312713623,0.1972610354423523,-0.6255129110419452,-0.5681655400998257,-0.8125028736988334,-0.43620696663856506,0.585513174533844,-0.6832993030548096,1.273120641708374,-0.5182968974113464,0.7504856586456299
8.039384841918945,-0.23131448030471802,-0.00036066770553588867,0.23951178789138794,-0.6161040890614188,-0.5623497156366665,-0.7852635237870436,-0.43514373898506165,0.5778599381446838,-0.6904548406600952,0.6940984129905701,-0.49926328659057617,0.6118884086608887
8.059384822845459,-0.2523179352283478,0.043192386627197266,0.218891441822052,-0.6142302244621569,-0.5610642522690639,-0.7675985885446397,-0.4348312318325043,0.5763296484947205,-0.6919292211532593,0.29742059111595154,-0.3642507493495941,0.5246688723564148
8.079474925994873,-0.2942105233669281,0.04923039674758911,0.2120952010154724,-0.6155619086301765,-0.5578517733306669,-0.754974842961254,-0.43219947814941406,0.5774173736572266,-0.6926707029342651,0.13577084243297577,-0.02292299084365368,0.41846856474876404
8.09942102432251,-0.25247427821159363,0.014275789260864258,0.23617321252822876,-0.6187386952175367,-0.5515497762675958,-0.7474430572049771,-0.42686235904693604,0.5800081491470337,-0.6938148140907288,-0.08639992773532867,0.1889931559562683,0.2672244906425476
8.119377851486206,-0.15105730295181274,-0.05414533615112305,0.268288254737854,-0.6240882133491268,-0.5462690356545788,-0.7458439341914087,-0.4215746223926544,0.5843576192855835,-0.693398118019104,-0.3148045837879181,0.22865144908428192,0.14060789346694946
8.13937783241272,-0.07224589586257935,-0.09962552785873413,0.2935361862182617,-0.6321139750217188,-0.5439807311125934,-0.7487513654645315,-0.4175460934638977,0.5908516049385071,-0.6903257966041565,-0.4755929708480835,0.16185520589351654,0.07830914109945297
