timestamp,acceleration_x,acceleration_y,acceleration_z,attitude_pitch,attitude_roll,attitude_yaw,gravity_x,gravity_y,gravity_z,rotation_x,rotation_y,rotation_z
0.0,0.24205344915390015,0.15224075317382812,-0.3397977352142334,-0.655421315117557,-0.47518528055413894,-2.8295737295791614,-0.3627045452594757,0.6094933152198792,-0.7049562931060791,0.3903776705265045,-0.8458502888679504,0.5681452751159668
0.020308971405029297,0.015968143939971924,0.25831133127212524,-0.38774198293685913,-0.6528362862729329,-0.4780629806527801,-2.813340859529712,-0.36545529961586,0.6074419021606445,-0.7053061723709106,0.3775162696838379,-0.37678804993629456,0.42871609330177307
0.04087090492248535,-0.10251045227050781,0.2939174175262451,-0.33732718229293823,-0.652769437017413,-0.475148173073818,-2.804793016870791,-0.36341652274131775,0.6073887944221497,-0.7064045667648315,-0.0842626765370369,0.12716691195964813,0.19875885546207428
0.06310296058654785,-0.0818733274936676,0.21126878261566162,-0.2548929452896118,-0.6593447450215223,-0.46894300865809224,-2.803446285463745,-0.35721346735954285,0.6125990748405457,-0.705068051815033,-0.4224068522453308,0.3710166811943054,0.2765054404735565
0.08231711387634277,0.03656816482543945,0.1798173189163208,-0.21498239040374756,-0.6699524058488088,-0.4606452396062237,-2.800582994187093,-0.348442405462265,0.6209486722946167,-0.7021471858024597,-0.340187668800354,0.28410112857818604,0.38890546560287476
0.09881401062011719,0.03656816482543945,0.1798173189163208,-0.21498239040374756,-0.6699524058488088,-0.4606452396062237,-2.800582994187093,-0.348442405462265,0.6209486722946167,-0.7021471858024597,-0.340187668800354,0.28410112857818604,0.38890546560287476
0.12299084663391113,0.06319451332092285,0.2117418646812439,-0.12973135709762573,-0.6771913027563832,-0.4411870902602574,-2.7806816430325223,-0.3327866792678833,0.6266065835952759,-0.704710841178894,0.208248570561409,0.10431521385908127,0.5390030145645142
0.14143800735473633,0.06008857488632202,0.16121870279312134,-0.028959989547729492,-0.6790544468405386,-0.43100118468462306,-2.7651457464462723,-0.3251030743122101,0.6280574798583984,-0.7070019841194153,0.1066037267446518,-0.026809697970747948,0.6854168176651001
0.16303610801696777,0.048520833253860474,0.11565166711807251,0.03292572498321533,-0.683696219726043,-0.4214885972026527,-2.746105939483481,-0.3171669542789459,0.6316627860069275,-0.7073947787284851,0.11295071989297867,-0.16010738909244537,0.8959757089614868
0.18443894386291504,-0.007807940244674683,0.11041784286499023,0.04868096113204956,-0.6873232262351651,-0.4109987157380966,-2.721876391343916,-0.308811753988266,0.6344704627990723,-0.7085778117179871,0.33699455857276917,-0.26577913761138916,1.003787636756897
0.20328497886657715,-0.07535630464553833,0.10000419616699219,0.06638896465301514,-0.6859316939743623,-0.39911394715576903,-2.693702016504322,-0.30071166157722473,0.6333942413330078,-0.7130106687545776,0.6226760149002075,-0.27453842759132385,0.999050498008728
0.22773504257202148,-0.09071612358093262,0.05407661199569702,0.13619160652160645,-0.6803622540918193,-0.38674381151222476,-2.6639439117849784,-0.29319486021995544,0.6290746331214905,-0.7199319005012512,0.7415161728858948,-0.31343647837638855,0.9871222376823425
0.24732518196105957,-0.055397748947143555,-0.021562933921813965,0.2282639741897583,-0.674157463988659,-0.37577026379500406,-2.634477961062444,-0.2867041230201721,0.6242393255233765,-0.7267228364944458,0.6874556541442871,-0.3872104287147522,0.9658203721046448
0.26832103729248047,-0.041035205125808716,-0.08172869682312012,0.2714599370956421,-0.6683703375457098,-0.36750073295697216,-2.606635016873065,-0.28197795152664185,0.6197078227996826,-0.7324279546737671,0.6338039040565491,-0.4867780804634094,0.879091203212738
0.28897786140441895,-0.025997668504714966,-0.10632729530334473,0.2943521738052368,-0.6623788039030568,-0.36365520508492544,-2.582187276342986,-0.2804749608039856,0.6149943470954895,-0.7369639277458191,0.6183938980102539,-0.617344081401825,0.7107921838760376
0.3052518367767334,-0.028439074754714966,-0.10525983572006226,0.29632920026779175,-0.656086548912435,-0.36541040244210987,-2.5632358339184265,-0.2831452488899231,0.6100205779075623,-0.740070104598999,0.5029246807098389,-0.6962970495223999,0.4709073305130005
0.3272678852081299,-0.013632774353027344,-0.09557777643203735,0.3146880865097046,-0.6495456088316919,-0.3699955323567116,-2.548286192825793,-0.2879723012447357,0.6048246026039124,-0.7424683570861816,0.5140485167503357,-0.6493359804153442,0.47946280241012573
0.3426249027252197,-0.0011217594146728516,-0.04422825574874878,0.3057733178138733,-0.6450076950774789,-0.3736452316381347,-2.533033686040811,-0.2916789948940277,0.6012045741081238,-0.7439600229263306,0.35176676511764526,-0.6615839004516602,0.42727237939834595
0.3664071559906006,-0.005716800689697266,0.01083749532699585,0.23605215549468994,-0.6404177005687741,-0.38113831805024573,-2.5226150386242217,-0.2982686460018158,0.5975304245948792,-0.7443072199821472,0.3853282928466797,-0.6715559959411621,0.2393893152475357
0.38672709465026855,-0.02287796139717102,0.07310837507247925,0.18648183345794678,-0.6349106614760143,-0.3891631124174917,-2.5142642243203173,-0.30547577142715454,0.5931056141853333,-0.7449229955673218,0.38901278376579285,-0.6232234835624695,0.15198558568954468
0.4077270030975342,-0.001145482063293457,0.051239073276519775,0.1707260012626648,-0.6291279039731779,-0.3982019458121926,-2.508353916577126,-0.313521146774292,0.5884398818016052,-0.7452805042266846,0.3119977116584778,-0.6354702115058899,0.10551345348358154
0.42675185203552246,0.058189988136291504,0.07504600286483765,0.15482032299041748,-0.6246961075441029,-0.40848025579038927,-2.503364907497872,-0.3221973776817322,0.5848507881164551,-0.744404673576355,0.26422303915023804,-0.6735057234764099,0.09249690175056458
0.4450829029083252,0.042298316955566406,0.08851587772369385,0.12373042106628418,-0.6204557103642818,-0.41940165981641325,-2.4987517734528386,-0.33131489157676697,0.5814059972763062,-0.7430999875068665,0.29220321774482727,-0.6768401265144348,0.08922062069177628
0.46643710136413574,0.008722782135009766,0.13349652290344238,0.06325119733810425,-0.615665521770571,-0.4301820356277484,-2.49464099776098,-0.3404639661312103,0.5775019526481628,-0.7420079708099365,0.26423466205596924,-0.6303863525390625,0.01008806936442852
0.48870301246643066,-0.02149292826652527,0.15635371208190918,0.04386943578720093,-0.6116533267985809,-0.441214576556176,-2.4930433564538697,-0.3496159613132477,0.5742218494415283,-0.7402958869934082,0.1552760750055313,-0.557789146900177,-0.039258264005184174
0.506680965423584,-0.02764478325843811,0.1691575050354004,0.0027998685836791992,-0.6097701365908843,-0.45162752387472677,-2.492943961362774,-0.35777682065963745,0.5726790428161621,-0.7375869154930115,0.01966536045074463,-0.4945097863674164,-0.03729978948831558
0.5253298282623291,-0.03986996412277222,0.16557180881500244,-0.03543961048126221,-0.6096955381382083,-0.46161420522962143,-2.494455699320175,-0.36514392495155334,0.5726178884506226,-0.7340154647827148,-0.027506133541464806,-0.38465580344200134,-0.06919790059328079
0.5460920333862305,-0.05641442537307739,0.15805351734161377,-0.05026823282241821,-0.6089274246417724,-0.4687306923097514,-2.4957560748610024,-0.37055686116218567,0.5719879865646362,-0.7317905426025391,0.04250204563140869,-0.27410614490509033,-0.05253761634230614
0.5663750171661377,-0.03281471133232117,0.12732350826263428,-0.0436018705368042,-0.607364197956817,-0.4752021587741056,-2.496806951469558,-0.3756934702396393,0.5707050561904907,-0.7301713824272156,0.05909348651766777,-0.307259202003479,-0.10189757496118546
0.5883469581604004,-0.062487006187438965,0.11913323402404785,-0.0985446572303772,-0.6051871781834203,-0.4831308687636601,-2.5000553296985855,-0.3820471465587616,0.5689160227775574,-0.7282681465148926,0.006480421870946884,-0.2688959240913391,-0.25111818313598633
0.6064279079437256,-0.12403172254562378,0.1140490174293518,-0.10466974973678589,-0.6037814618013715,-0.49131785167521524,-2.5087640488565115,-0.3883735239505768,0.5677593946456909,-0.7258204221725464,-0.24296529591083527,-0.026392202824354172,-0.42503127455711365
0.6264040470123291,-0.11903759837150574,0.05632936954498291,-0.04928511381149292,-0.6069864663295844,-0.49707214063596966,-2.5221981571169834,-0.3916739225387573,0.5703948140144348,-0.7219704389572144,-0.5664154887199402,0.19923390448093414,-0.34871402382850647
0.6466360092163086,-0.04761689901351929,-0.007681846618652344,-0.005588173866271973,-0.6159509240493328,-0.49999780830827206,-2.5356861072040213,-0.3913172781467438,0.5777349472045898,-0.7163051962852478,-0.6843640804290771,0.2645663022994995,-0.2028058022260666
0.6657309532165527,-0.03855693340301514,-0.05232447385787964,-0.015112817287445068,-0.624740358052891,-0.5012263325494125,-2.5457471355906964,-0.3897418677806854,0.5848866701126099,-0.7113429307937622,-0.4609602987766266,0.20517639815807343,-0.10594063252210617
0.6896679401397705,-0.07222366333007812,-0.03443562984466553,-0.040093421936035156,-0.6293502245106446,-0.5022337520917104,-2.5531432689800377,-0.3891562223434448,0.588619589805603,-0.7085791230201721,-0.24998272955417633,0.13948367536067963,-0.21678298711776733
0.7003960609436035,-0.07507878541946411,-0.0678529143333435,-0.015042543411254883,-0.6306727553886481,-0.5055015762382942,-2.561461838570726,-0.39109233021736145,0.589688241481781,-0.7066219449043274,-0.22772860527038574,0.04322691261768341,-0.2628558278083801
0.7192070484161377,-0.035248637199401855,-0.09867274761199951,0.02678549289703369,-0.6328057478119015,-0.5109661648304911,-2.570247539375624,-0.3943319022655487,0.5914095640182495,-0.703375518321991,-0.2679726183414459,-0.05637824162840843,-0.2512321174144745
0.7384541034698486,-0.013980239629745483,-0.10692411661148071,0.0324210524559021,-0.6346758357473805,-0.5177205872464521,-2.5786401228463314,-0.3985257148742676,0.5929164886474609,-0.6997337341308594,-0.21546858549118042,-0.11233755946159363,-0.2313649207353592
0.7642529010772705,0.041441500186920166,-0.08023637533187866,0.009490907192230225,-0.6351115814446403,-0.5251420679371124,-2.584842928061084,-0.40357816219329834,0.5932673215866089,-0.696533203125,-0.08265969157218933,-0.2536574900150299,-0.15966857969760895
0.7845120429992676,0.10481119155883789,-0.052672386169433594,-0.0007979273796081543,-0.6345727819789986,-0.5334505134465606,-2.588347761601478,-0.40951383113861084,0.5928335189819336,-0.6934313178062439,0.006469490006566048,-0.3400629460811615,-0.1297839879989624
0.8029701709747314,0.15169581770896912,-0.05274468660354614,0.022439002990722656,-0.6326933185446926,-0.5422754404720256,-2.590162393689911,-0.41619154810905457,0.5913189053535461,-0.6907435059547424,0.09749417006969452,-0.43143007159233093,-0.05455275997519493
0.8241031169891357,0.22194769978523254,-0.07968205213546753,0.04435539245605469,-0.629789474050951,-0.5505197054828307,-2.587375996327806,-0.4227685034275055,0.58897465467453,-0.688749372959137,0.28941264748573303,-0.5495901107788086,0.10868512839078903
0.8439128398895264,0.2681572437286377,-0.09554851055145264,0.05916774272918701,-0.6256950983770038,-0.5578020022735637,-2.5784266038912365,-0.42904579639434814,0.5856608152389526,-0.6876926422119141,0.39987435936927795,-0.7104719281196594,0.2652619481086731
0.8631341457366943,0.27316150069236755,-0.09352129697799683,0.08998370170593262,-0.6211120991215408,-0.5670986039792317,-2.5672814581704277,-0.436857670545578,0.5819399356842041,-0.6859310865402222,0.4942415654659271,-0.8490983843803406,0.2579216957092285
0.8831980228424072,0.27081769704818726,-0.0654294490814209,0.06763237714767456,-0.6139809060593038,-0.5762447370991923,-2.553803384361058,-0.4453628361225128,0.5761258602142334,-0.6853692531585693,0.6951566934585571,-0.8207800984382629,0.288715660572052
0.9042980670928955,0.2753446698188782,-0.02298980951309204,0.10574889183044434,-0.6043001747506055,-0.5837351833817729,-2.539127172005888,-0.453536719083786,0.568186342716217,-0.6866357922554016,0.8331444263458252,-0.7648251056671143,0.16656380891799927
0.9234950542449951,0.3090251386165619,-0.04711484909057617,0.09182804822921753,-0.5929601151743333,-0.591394680109049,-2.524383478679601,-0.46234530210494995,0.5588182806968689,-0.6884467601776123,0.7509621977806091,-0.8818575143814087,0.24987703561782837
0.9450089931488037,0.3783505856990814,-0.10412585735321045,0.13907188177108765,-0.5838300879318135,-0.6012784135320833,-2.508411983863908,-0.47199368476867676,0.551223635673523,-0.6880221366882324,0.731141209602356,-1.0016275644302368,0.3590799570083618
0.9621288776397705,0.41169652342796326,-0.08881008625030518,0.20783990621566772,-0.5783947863647038,-0.6139018112987422,-2.491938748226019,-0.48235979676246643,0.5466805100440979,-0.6844482421875,0.539290189743042,-1.143511414527893,0.42212027311325073
0.9825050830841064,0.3768005669116974,-0.023984849452972412,0.19103306531906128,-0.574783870133513,-0.6292594561963842,-2.476908482958642,-0.49397265911102295,0.5436534285545349,-0.6785514950752258,0.49406686425209045,-1.2482517957687378,0.42230817675590515
1.0033349990844727,0.3156129717826843,0.06535381078720093,0.09054511785507202,-0.5722425454847923,-0.6473130475566673,-2.4609157136126436,-0.5069732666015625,0.5415186882019043,-0.6706233024597168,0.5395915508270264,-1.4256641864776611,0.5098486542701721
1.0221779346466064,0.30429625511169434,0.11806267499923706,0.0944356918334961,-0.5682305664583411,-0.666764922831599,-2.441037748354632,-0.5212608575820923,0.5381414890289307,-0.6623374223709106,0.8656377792358398,-1.5521501302719116,0.5947942137718201
1.0436570644378662,0.32814985513687134,0.2303411364555359,0.16904878616333008,-0.5609465742019836,-0.6831134713997239,-2.4163043124663894,-0.5344790816307068,0.5319879651069641,-0.6567503213882446,0.8578134179115295,-1.502194881439209,0.492267370223999
1.0630359649658203,0.30557191371917725,0.27668213844299316,0.19517093896865845,-0.5498124830081866,-0.7058335693039433,-2.3967041268415747,-0.5530692934989929,0.5225273370742798,-0.6489063501358032,1.2302470207214355,-1.7602381706237793,0.21560542285442352
1.0821220874786377,0.30752331018447876,0.18430763483047485,0.16582465171813965,-0.5339409203850308,-0.7255156979423631,-2.3671583295538414,-0.5711645483970642,0.5089296698570251,-0.6440199017524719,1.511924147605896,-1.7389262914657593,0.5817664265632629
1.101897954940796,0.3293936252593994,0.2920573651790619,0.21589213609695435,-0.5172801337976324,-0.7464020096022401,-2.336968071638668,-0.5901662111282349,0.4945179522037506,-0.6380876898765564,1.5061181783676147,-1.8877032995224,0.22752118110656738
1.1234550476074219,0.2981172204017639,0.23392823338508606,0.3033914566040039,-0.4983427826663816,-0.7696663811786632,-2.3106588806110864,-0.6112579703330994,0.47797054052352905,-0.6307993531227112,1.3976359367370605,-1.7063664197921753,0.19693619012832642
1.1418559551239014,0.29614269733428955,0.1573745310306549,0.34783726930618286,-0.4845148150664565,-0.79455684624996,-2.2904952428939795,-0.6314240097999573,0.46577906608581543,-0.6199626326560974,0.849236249923706,-1.795701265335083,0.02378062903881073
1.1616740226745605,0.24949711561203003,0.11558625102043152,0.35492634773254395,-0.4736930648924433,-0.8280968363907769,-2.2833266026912975,-0.6555333733558655,0.4561758041381836,-0.6018136739730835,0.4435577392578125,-1.8555877208709717,-0.3643829822540283
1.1827619075775146,0.14492863416671753,0.17261210083961487,0.3094239830970764,-0.46112605454550915,-0.8645712781667868,-2.2842328946040333,-0.6813513040542603,0.44495683908462524,-0.581183135509491,0.36473914980888367,-1.7498323917388916,-0.6382980942726135
1.2016870975494385,0.13703209161758423,0.13880595564842224,0.37928467988967896,-0.44379546848000023,-0.8978129082911736,-2.2866276002713537,-0.7062153816223145,0.42937034368515015,-0.5629396438598633,0.6372779011726379,-1.466536521911621,-0.7768296599388123
1.2220849990844727,0.1758471131324768,0.1432158350944519,0.39976775646209717,-0.42200982071209037,-0.9236027146667026,-2.282274292799345,-0.7277879118919373,0.4095947742462158,-0.5500516295433044,0.8803646564483643,-1.3340742588043213,-0.742728054523468
1.2416961193084717,0.15240275859832764,0.11359193921089172,0.3963392972946167,-0.4004757764641138,-0.9512495601200783,-2.282130491306713,-0.7497232556343079,0.3898565173149109,-0.5347213745117188,0.3849513530731201,-1.4810224771499634,-1.0005972385406494
1.261368989944458,0.11479002237319946,0.008823186159133911,0.34965020418167114,-0.3821881914178365,-0.9858802158495641,-2.2923449362597723,-0.7736034393310547,0.3729516863822937,-0.5122937560081482,-0.09765636175870895,-1.576611042022705,-1.0007668733596802
1.281440019607544,0.09198349714279175,0.07662826776504517,0.3345385789871216,-0.36648785663085465,-1.0214997701774082,-2.307105149577546,-0.7962529063224792,0.35833874344825745,-0.48741647601127625,-0.09697756916284561,-1.4332118034362793,-1.105340838432312
1.3023030757904053,0.0965840220451355,0.11087936162948608,0.2957249879837036,-0.3455570263270005,-1.0520473451069434,-2.3160425029934473,-0.8171039819717407,0.33872082829475403,-0.46648621559143066,0.4625965654850006,-1.3333508968353271,-1.079682469367981
1.3222601413726807,0.03927105665206909,0.0788070559501648,0.23420009016990662,-0.32130014366809734,-1.079064449092939,-2.3164686202113605,-0.8364053964614868,0.31580042839050293,-0.44799110293388367,0.6361812353134155,-1.3474009037017822,-1.1724728345870972
1.3435471057891846,-0.12667417526245117,0.03554403781890869,0.21888017654418945,-0.29601532753813253,-1.105495005624619,-2.3207875107899825,-0.8548168540000916,0.2917111814022064,-0.429176926612854,0.11699672788381577,-1.1089839935302734,-1.185562014579773
1.3644368648529053,-0.15872704982757568,0.013803422451019287,0.2590939700603485,-0.27885909610127807,-1.1266178467606123,-2.3338651051766863,-0.868082582950592,0.27525898814201355,-0.41311630606651306,-0.4277068078517914,-0.6608470678329468,-0.8959872126579285
1.3785369396209717,0.09240788221359253,0.0031894445419311523,0.24768269062042236,-0.2674908335176448,-1.1440544302003461,-2.3457297748752928,-0.877945601940155,0.2643123269081116,-0.3991873860359192,0.11495181918144226,-0.9120980501174927,-0.6538493037223816
1.3988769054412842,0.14696425199508667,0.1020292341709137,0.07534253597259521,-0.2496936156441107,-1.165761292658451,-2.337444180111855,-0.8905860185623169,0.24710708856582642,-0.38183075189590454,1.2593692541122437,-1.3567708730697632,-0.7167748212814331
1.4225590229034424,-0.19155222177505493,0.224294051527977,0.11207893490791321,-0.2214350819165968,-1.185871802226072,-2.3185119562193943,-0.9041967391967773,0.21962988376617432,-0.36632099747657776,1.376294493675232,-1.0833816528320312,-1.2320544719696045
1.4422039985656738,-0.42983245849609375,0.03929127752780914,0.12029153108596802,-0.18734279498674872,-1.202673485746811,-2.3060666677172446,-0.9166794419288635,0.18624883890151978,-0.3535679876804352,1.0273467302322388,-0.8862811923027039,-1.3601912260055542
1.4620349407196045,-0.20512425899505615,-0.06615979969501495,0.10797405242919922,-0.15831191054719973,-1.2212064901563542,-2.296792978605827,-0.9277644753456116,0.15765145421028137,-0.33822929859161377,0.9537172317504883,-1.1204050779342651,-1.0774827003479004
1.4823529720306396,-0.19723695516586304,0.009318128228187561,0.06653794646263123,-0.12867084475574886,-1.2394020359172482,-2.2810439538643528,-0.9377726912498474,0.12831608951091766,-0.3226720988750458,1.5541614294052124,-0.8569698929786682,-1.247078776359558
1.5033049583435059,-0.39699363708496094,0.11644326150417328,0.12352120876312256,-0.09343991038526767,-1.2488002698497025,-2.2596199449137004,-0.9444674849510193,0.09330400079488754,-0.3150801658630371,1.4557652473449707,-0.2925597131252289,-1.3942118883132935
1.5216748714447021,-0.4388643503189087,-0.04261312261223793,0.33175280690193176,-0.060518040557021854,-1.250183228254824,-2.249467035033048,-0.9473050236701965,0.060481104999780655,-0.3145715296268463,0.5088438987731934,0.013236166909337044,-1.3466072082519531
1.5417649745941162,-0.4218323826789856,-0.21092793345451355,0.3152763247489929,-0.03452787474335115,-1.2524395743710413,-2.251270656347877,-0.9491850137710571,0.034521013498306274,-0.31281977891921997,0.390424519777298,-0.3678015470504761,-1.226114273071289
1.560572862625122,-0.35743439197540283,0.10251114517450333,0.3163551688194275,-0.004483434251005516,-1.260979945081377,-2.2415801979982137,-0.9523800611495972,0.004483419004827738,-0.30488070845603943,1.6564152240753174,-0.48304247856140137,-1.3847198486328125
1.5816619396209717,-0.41461026668548584,0.3653355538845062,0.35911113023757935,0.03306626825623144,-1.2711784435988067,-2.2104011934570207,-0.9549270868301392,-0.03306024149060249,-0.2949938178062439,1.9230823516845703,-0.3364022672176361,-1.2900749444961548
1.6013190746307373,-0.5165417790412903,0.0015800707042217255,0.5079785585403442,0.06201415787953387,-1.2719017640152945,-2.1913966540621135,-0.9538255333900452,-0.0619744174182415,-0.29389792680740356,0.6822314858436584,0.30223068594932556,-0.7766230702400208
1.6213710308074951,-0.3928631544113159,-0.3518601357936859,0.41883397102355957,0.06837447803580841,-1.2677410337354036,-2.189693455025903,-0.9521990418434143,-0.06832121312618256,-0.2977403402328491,-0.22171954810619354,0.0880637988448143,0.19620315730571747
1.6408929824829102,-0.29056793451309204,-0.17083251476287842,0.36271244287490845,0.060864058662943164,-1.2670596785912087,-2.190767242447722,-0.9524587392807007,-0.060826487839221954,-0.298534095287323,0.08557205647230148,-0.08068402111530304,0.4159775376319885
1.6612651348114014,-0.3743818402290344,-0.06451383978128433,0.2865929901599884,0.0548832788048295,-1.2704265658843406,-2.178406061628154,-0.9537888169288635,-0.05485573038458824,-0.29542791843414307,0.8349633812904358,-0.20856253802776337,0.4869607388973236
1.681286096572876,-0.43726134300231934,-0.1781599223613739,0.22460326552391052,0.05167577205192942,-1.27834851502568,-2.160352321394098,-0.9562629461288452,-0.051652777940034866,-0.28791216015815735,0.642559826374054,-0.44815605878829956,0.41467171907424927
1.7010769844055176,-0.46676474809646606,-0.3528274893760681,0.29959842562675476,0.042708637056193065,-1.2892424253380386,-2.151370697004902,-0.9597488641738892,-0.042695656418800354,-0.2775953412055969,-0.04698987305164337,-0.5191688537597656,0.699069619178772
1.7203071117401123,-0.5278043150901794,-0.3502325117588043,0.3924941122531891,0.025594351197735152,-1.2990741508059938,-2.151052040577403,-0.9629947543144226,-0.02559155784547329,-0.2683029770851135,-0.24702337384223938,-0.4859294593334198,0.9037725329399109
1.7409489154815674,-0.5496392250061035,-0.1813216507434845,0.3710714280605316,0.007353427445178247,-1.310275715301113,-2.1447342028828196,-0.9662297964096069,-0.00735336123034358,-0.2575766444206238,0.4754354953765869,-0.6545602679252625,1.0482209920883179
1.7609870433807373,-0.5055120587348938,-0.0710429847240448,0.27003443241119385,-0.012342660903888468,-1.3271642526289802,-2.1249556411510633,-0.9703943133354187,0.012342347763478756,-0.24121065437793732,0.7740998268127441,-0.9841648936271667,1.354596495628357
1.7810609340667725,-0.5418762564659119,-0.16194398701190948,0.30114853382110596,-0.03843347087177797,-1.3427817339122827,-2.107024471205616,-0.9733977913856506,0.03842401131987572,-0.22587703168392181,0.39341652393341064,-0.5261531472206116,1.572850227355957
1.801347017288208,-0.7631412148475647,-0.11605234444141388,0.26972121000289917,-0.06941609404402294,-1.3480369339262985,-2.0928555392309187,-0.9729427099227905,0.06936036050319672,-0.22038961946964264,0.30020883679389954,-0.08185235410928726,1.794556736946106
1.820896863937378,-0.7828178405761719,-0.09689498692750931,0.30927544832229614,-0.10821438177752699,-1.3484137797020703,-2.082223176606468,-0.9696693420410156,0.10800330340862274,-0.21926400065422058,-0.18177537620067596,0.01155704353004694,2.186239004135132
1.8396539688110352,-0.7549251317977905,-0.09999485313892365,0.27929583191871643,-0.1560317989830324,-1.3518442704642541,-2.0783791260934663,-0.9642674922943115,0.15539944171905518,-0.2145681530237198,-0.32107651233673096,-0.23567724227905273,2.451181411743164
1.860591173171997,-0.7332367300987244,-0.041670918464660645,0.1920420080423355,-0.20626197238733385,-1.3558425095362618,-2.0724811797190257,-0.9562773704528809,0.20480254292488098,-0.20878100395202637,-0.22818130254745483,-0.1163686066865921,2.5223917961120605
1.8811671733856201,-0.8021118640899658,-0.06520432233810425,0.18159069120883942,-0.25616815098292217,-1.3561667783887257,-2.0666813966618434,-0.9451720714569092,0.2533756196498871,-0.20603534579277039,-0.3158499002456665,-0.08708634972572327,2.491727352142334
1.900501012802124,-0.7910116910934448,-0.08550018072128296,0.1414872109889984,-0.3059171517681151,-1.3576673958442145,-2.0651103994370246,-0.931995689868927,0.30116787552833557,-0.20169851183891296,-0.5839184522628784,-0.04494120553135872,2.3900763988494873
1.9194190502166748,-0.7938395738601685,-0.05732622742652893,0.14910155534744263,-0.35423922143453235,-1.3584978668180288,-2.0687364737983716,-0.9168537855148315,0.34687691926956177,-0.19762463867664337,-0.7490350604057312,0.05194521322846413,2.260113477706909
1.9403159618377686,-0.7626818418502808,-0.030091851949691772,0.03994014859199524,-0.4012623652110993,-1.361744361855545,-2.0753659089219036,-0.9005263447761536,0.3905807435512543,-0.1910480558872223,-0.8651152849197388,-0.1376853585243225,2.2685306072235107
1.9593799114227295,-0.6155521273612976,-0.006437808275222778,0.028575897216796875,-0.44971197538822855,-1.3689061454952698,-2.084804384408928,-0.8822811245918274,0.4347061514854431,-0.1805841028690338,-0.8954868316650391,-0.16397039592266083,2.2673685550689697
1.980515956878662,-0.6061725616455078,0.1517048478126526,-0.03140734136104584,-0.49486459386213827,-1.3759830159799085,-2.0899130337752405,-0.8633860945701599,0.47491249442100525,-0.1703597605228424,-0.41176363825798035,-0.29311203956604004,2.0928921699523926
2.000133991241455,-0.528059184551239,0.1658976674079895,-0.06016676127910614,-0.5366109833402875,-1.3808957147749996,-2.0876787542277446,-0.8439958095550537,0.511226236820221,-0.16223016381263733,-0.2883477210998535,-0.3029455840587616,2.0535316467285156
2.020185947418213,-0.4706152081489563,0.04554736614227295,-0.0845940113067627,-0.5785542509611962,-1.386169844616283,-2.087768482212036,-0.8230250477790833,0.5468140244483948,-0.15370261669158936,-0.5653941631317139,-0.2778399586677551,2.073023796081543
2.0404651165008545,-0.3708815574645996,0.005859434604644775,-0.1584423929452896,-0.6198364821151805,-1.3979737143419682,-2.0953492521255725,-0.8018481135368347,0.5809020400047302,-0.13997383415699005,-0.7434489130973816,-0.3986175060272217,1.8985509872436523
2.0600860118865967,-0.26923424005508423,-0.0001596212387084961,-0.12708830833435059,-0.6592128215401473,-1.4099018628447992,-2.105800181656427,-0.7802653312683105,0.6124948263168335,-0.12663500010967255,-0.7107023000717163,-0.1471383273601532,1.8833954334259033
2.0802628993988037,-0.24110418558120728,-0.12854629755020142,-0.2050139307975769,-0.6970700125532934,-1.417248503562408,-2.1177407965451382,-0.7577056288719177,0.6419739723205566,-0.11726710200309753,-0.8192521929740906,0.1861058622598648,1.628061294555664
2.099760055541992,-0.15933406352996826,-0.1772645115852356,-0.2362322360277176,-0.728163491552027,-1.421925326550659,-2.134455621103428,-0.7381422519683838,0.6654999852180481,-0.11070703715085983,-0.9306050539016724,0.37653374671936035,1.2833539247512817
2.1198079586029053,-0.013596713542938232,-0.3098498582839966,-0.2105075716972351,-0.7534347923488324,-1.4312977263011124,-2.1601678365296375,-0.7222583889961243,0.6841479539871216,-0.10141272097826004,-1.3477848768234253,0.4774872064590454,0.997056245803833
2.13993501663208,0.14433395862579346,-0.3757728934288025,-0.06523925065994263,-0.775022645148358,-1.444282647178181,-2.1956521390180224,-0.7086955308914185,0.69973224401474,-0.09014111757278442,-1.2536712884902954,0.618502140045166,0.7480960488319397
2.1613030433654785,0.1855788230895996,-0.2186320424079895,-0.11236822605133057,-0.789405207627575,-1.4462003418755387,-2.2166887057106384,-0.6988082528114319,0.7099345326423645,-0.08752207458019257,-0.44069424271583557,0.7277346849441528,0.527553141117096
2.1783840656280518,0.15684771537780762,-0.2185044288635254,-0.09991054981946945,-0.7990204786885388,-1.4383623395902227,-2.2292296203580575,-0.6913020610809326,0.7166733145713806,-0.092090904712677,-0.7097899913787842,0.9161673784255981,0.3090464174747467
2.1976969242095947,0.19608652591705322,-0.37871283292770386,-0.09550052881240845,-0.8071591025469865,-1.4391927707450487,-2.2560516079892343,-0.6855732798576355,0.7223254442214966,-0.0907483920454979,-1.2295784950256348,0.9336451292037964,0.2903023660182953
2.218217134475708,0.30439555644989014,-0.3290840983390808,-0.015046127140522003,-0.8169070500736016,-1.4475647225454695,-2.29520382402996,-0.6792888045310974,0.7290322780609131,-0.08413618057966232,-1.498480200767517,1.0673613548278809,0.32126426696777344
2.238722085952759,0.3223552107810974,-0.279685378074646,-0.019573979079723358,-0.825025475263561,-1.4534513903292743,-2.335729469429527,-0.6738719344139099,0.7345650792121887,-0.07944042235612869,-1.3018032312393188,1.3270330429077148,0.16001638770103455
2.2597949504852295,0.34917521476745605,-0.24208885431289673,-0.059062592685222626,-0.8319343017985228,-1.4477882943856788,-2.364543087292227,-0.668358564376831,0.7392354011535645,-0.08263064920902252,-0.7596780061721802,1.490207314491272,0.196702241897583
2.279611825942993,0.41227883100509644,-0.27684032917022705,-0.005268573760986328,-0.8350545220716981,-1.4345583082518423,-2.3875290102680196,-0.6649186611175537,0.7413331270217896,-0.09115184843540192,-0.8026385307312012,1.4753361940383911,-0.07519931346178055
2.3006861209869385,0.4396320581436157,-0.39765238761901855,0.016471512615680695,-0.8360903705112207,-1.4222884419787185,-2.411437423222984,-0.6629902124404907,0.7420278787612915,-0.09918954223394394,-0.9028964042663574,1.5132806301116943,-0.053046610206365585
2.3192410469055176,0.4367384910583496,-0.4161229133605957,0.0686868280172348,-0.834736912905852,-1.415867998681318,-2.4435383251024065,-0.6633315682411194,0.741119921207428,-0.10359907150268555,-1.510582447052002,1.8778918981552124,-0.4956548511981964
2.339339017868042,0.23924797773361206,-0.37906140089035034,-0.013965606689453125,-0.8128432559153049,-1.425995754136369,-2.515530329137963,-0.6802422404289246,0.7262446880340576,-0.09919370710849762,-1.2555235624313354,2.2539727687835693,-2.04410457611084
2.359771966934204,-0.31049513816833496,-1.32611083984375,-0.6050887703895569,-0.7976233393006522,-1.4004356854671998,-2.536861483965601,-0.6882994771003723,0.7156982421875,-0.11840685456991196,-1.1258141994476318,2.3364481925964355,-0.004110468551516533
2.379326105117798,-0.3867642879486084,-0.6790603995323181,0.2982504963874817,-0.783499964301687,-1.3778201392924962,-2.588953419026545,-0.6952974200248718,0.7057632803916931,-0.13586659729480743,-1.9724113941192627,3.2671773433685303,-1.986387014389038
2.3990800380706787,0.12565207481384277,-0.4300426244735718,0.46338987350463867,-0.7634395056665254,-1.3700792174724172,-2.6568280595334555,-0.7079579830169678,0.6914104223251343,-0.14403881132602692,-2.253695011138916,2.289085865020752,-0.6661242246627808
2.4213879108428955,0.5071654319763184,-0.006467998027801514,0.49097275733947754,-0.7649954024638803,-1.371142391688634,-2.7183331135956506,-0.7070555686950684,0.6925336718559265,-0.14307253062725067,-2.1507256031036377,1.952877163887024,-0.3002096116542816
2.4395601749420166,0.20653074979782104,0.44046711921691895,0.23331297934055328,-0.7634030110399688,-1.3709121556363848,-2.775788060810241,-0.7081023454666138,0.6913840770721436,-0.14345405995845795,-1.7890338897705078,2.2637531757354736,-0.5357187390327454
2.4590790271759033,0.08477801084518433,0.5228845477104187,-0.1052127480506897,-0.7590759463645528,-1.3579857618109756,-2.8247278690104016,-0.7091065645217896,0.6882513761520386,-0.15322549641132355,-1.6279044151306152,2.3563284873962402,-0.5527986288070679
2.479038953781128,0.21324455738067627,0.36218029260635376,-0.2594943642616272,-0.7550854516365151,-1.344480170290293,-2.8708763042416297,-0.7096434235572815,0.6853508949279785,-0.16340312361717224,-1.566161870956421,2.2104005813598633,-0.5107746124267578
2.4981529712677,0.17673081159591675,0.13083302974700928,-0.2672886252403259,-0.7531087306233879,-1.330952697629656,-2.9154665394420816,-0.708682656288147,0.683910071849823,-0.17330904304981232,-1.5716967582702637,2.2870752811431885,-0.4451258182525635
2.518728017807007,0.08683198690414429,-0.10172981023788452,-0.15188997983932495,-0.7517759835047787,-1.3137425844478199,-2.9623772997935918,-0.7064760327339172,0.6829371452331543,-0.1857108324766159,-1.70553719997406,2.63325834274292,-0.48843520879745483
2.538566827774048,0.17959517240524292,-0.26757311820983887,-0.06910863518714905,-0.7528983971391142,-1.2930813276927167,-3.0095217296123407,-0.7017507553100586,0.6837565898895264,-0.2000565081834793,-1.6513192653656006,2.6347994804382324,-0.2176501452922821
2.558155059814453,0.2692906856536865,-0.3456467390060425,-0.052072107791900635,-0.761056371358208,-1.2724842452016458,-3.0536288785827193,-0.6921269297599792,0.6896867752075195,-0.21282057464122772,-1.6461349725723267,2.49859619140625,0.10398700833320618
2.578760862350464,0.2080438733100891,-0.33327192068099976,-0.08946262300014496,-0.7735426430898116,-1.2541000908340654,-3.096916621244531,-0.6798607110977173,0.6986741423606873,-0.2228085994720459,-1.677632451057434,2.4462430477142334,0.2289031445980072
2.5983431339263916,0.14461183547973633,-0.21864569187164307,-0.11638550460338593,-0.7875198226943678,-1.2336557351031803,-3.1370173107718293,-0.665882408618927,0.7086054086685181,-0.23340705037117004,-1.462816834449768,2.3841967582702637,0.2245907485485077
2.6181559562683105,0.18924742937088013,-0.17177778482437134,-0.11764207482337952,-0.8010953095690175,-1.2141269233517782,3.1118039067633814,-0.6521226167678833,0.7181187868118286,-0.24298423528671265,-1.2766774892807007,2.0152738094329834,0.2346595674753189
2.6386289596557617,0.2243654727935791,-0.14083266258239746,-0.08841460943222046,-0.8140525315007852,-1.1989350390811104,3.0823763891708538,-0.6396333575248718,0.727075457572937,-0.2494608461856842,-1.0809212923049927,1.671408772468567,0.2926853895187378
2.6582858562469482,0.19207006692886353,-0.07698607444763184,-0.10720893740653992,-0.8281769766603034,-1.1841059939872176,3.0601718606977677,-0.6262893080711365,0.7366998195648193,-0.25501951575279236,-0.8483682870864868,1.4378750324249268,0.43990516662597656
2.678586959838867,0.14030849933624268,0.0481419563293457,-0.13369527459144592,-0.8403210729930495,-1.1702007234974772,3.0438043544871536,-0.6143989562988281,0.7448573708534241,-0.26019516587257385,-0.6647751331329346,1.2013235092163086,0.2420782446861267
2.6982979774475098,0.04905742406845093,0.10103142261505127,-0.14127203822135925,-0.8490963282106089,-1.1608729059478655,3.0259774474117522,-0.6059267520904541,0.7506836652755737,-0.26329952478408813,-0.8461446166038513,1.1200528144836426,0.1389695107936859
2.7187979221343994,-0.02484184503555298,0.11188030242919922,-0.13399702310562134,-0.8594119204698263,-1.1599056996467711,2.9985058584934228,-0.5985406041145325,0.7574587464332581,-0.26077842712402344,-1.1623871326446533,1.0011184215545654,0.07000526040792465
2.738797903060913,0.006581425666809082,0.02737867832183838,-0.0714309811592102,-0.8714602289470795,-1.1659108478044362,2.965106038737391,-0.5916643142700195,0.7652696967124939,-0.25356602668762207,-1.4126445055007935,1.0311657190322876,0.2760646343231201
2.7581820487976074,0.1159980297088623,-0.07834005355834961,0.015935957431793213,-0.8898527746125638,-1.1779621398150704,2.9235379175328067,-0.5815740823745728,0.7769790887832642,-0.24098792672157288,-1.6425349712371826,0.9354676604270935,0.3318397104740143
2.778165102005005,0.16385102272033691,-0.07950043678283691,-0.0015616416931152344,-0.9052220865056667,-1.1920518692873006,2.8846177681021614,-0.5737478137016296,0.7865623235702515,-0.22832730412483215,-1.096427321434021,0.6955099105834961,0.19680051505565643
2.7982418537139893,0.20905464887619019,-0.03299295902252197,-0.049767106771469116,-0.9127473630447978,-1.1948251447495568,2.8668685840543384,-0.5688567161560059,0.7911869287490845,-0.22455543279647827,-0.23604649305343628,0.4624970555305481,0.10949257016181946
2.818168878555298,0.17119139432907104,-0.03938561677932739,-0.02597177028656006,-0.9132204278776171,-1.1847815204865966,2.8668560582933433,-0.5662261247634888,0.7914761900901794,-0.23011653125286102,0.12492077797651291,0.6103058457374573,-0.0691092386841774
2.8381669521331787,0.142561137676239,-0.11803269386291504,0.06211617588996887,-0.9098381488548098,-1.1670361045306814,2.8705419187083483,-0.564512312412262,0.7894043922424316,-0.24117811024188995,0.12124291062355042,0.9154322147369385,-0.11501877754926682
2.8581669330596924,0.23291969299316406,-0.25480371713638306,0.25959569215774536,-0.9116900742252384,-1.1478631071941676,2.8643458786136065,-0.5584505796432495,0.7905398607254028,-0.25135600566864014,-0.6334986090660095,1.5527540445327759,0.20795713365077972
2.8781700134277344,0.31717413663864136,-0.3606935143470764,0.22676360607147217,-0.9273871885246234,-1.1354406801354413,2.8338017312159587,-0.5439654588699341,0.800055205821991,-0.25300875306129456,-1.637697458267212,1.9584150314331055,0.35225909948349
2.8989241123199463,0.33747678995132446,-0.28262609243392944,-0.16213713586330414,-0.9437886467948525,-1.1467437062429524,2.778014288204539,-0.5347574353218079,0.8097867965698242,-0.24141208827495575,-1.961689829826355,1.317480206489563,-0.30119413137435913
2.9181699752807617,0.43897026777267456,-0.19428342580795288,-0.22223979234695435,-0.9479715882290789,-1.1772873107633413,2.7164835620722525,-0.5387473106384277,0.8122339248657227,-0.22366784512996674,-1.4424947500228882,0.7000414133071899,-0.6162398457527161
2.9382379055023193,0.513364315032959,-0.24524831771850586,-0.07638269662857056,-0.9425262229754737,-1.196580124110332,2.6787272324500737,-0.5470708608627319,0.8090454339981079,-0.21484653651714325,-0.3911741375923157,0.5324176549911499,-0.7811040282249451
2.9581689834594727,0.42514628171920776,-0.07298564910888672,-0.00680309534072876,-0.9249184758799802,-1.192657816269761,2.6680470415396456,-0.5593776702880859,0.7985717058181763,-0.22221606969833374,0.3532768785953522,0.7109236121177673,-1.0901213884353638
2.978170156478882,0.28731173276901245,0.06891846656799316,-0.10393226146697998,-0.9005709763510543,-1.1766550164065204,2.668533314109884,-0.5735359787940979,0.7836816906929016,-0.2385360449552536,0.4743620753288269,0.8150117993354797,-1.075487732887268
2.9981720447540283,0.33624809980392456,-0.06496888399124146,-0.12333360314369202,-0.879608841367104,-1.1648157098280898,2.6656189651884956,-0.5856375694274902,0.7704895734786987,-0.2517426609992981,0.19469210505485535,0.5717750191688538,-1.0107146501541138
3.0182080268859863,0.36451631784439087,0.0025448203086853027,-0.11431834101676941,-0.8570408903787362,-1.1612605835573242,2.657535929431383,-0.6005390882492065,0.7559086084365845,-0.2606816291809082,0.31738948822021484,0.4844586253166199,-1.288663625717163
3.038274049758911,0.26612621545791626,0.11693590879440308,-0.07576575875282288,-0.8270073455961645,-1.1516356902577878,2.65629204398623,-0.6184667348861694,0.7359083890914917,-0.2755678594112396,0.9045600891113281,0.5356318950653076,-1.489116907119751
3.058263063430786,0.1389203667640686,0.04202383756637573,-0.07591760158538818,-0.789116410136972,-1.1336731569357164,2.6666804889607993,-0.6382336020469666,0.7097311019897461,-0.2982279360294342,1.1917239427566528,0.496913880109787,-1.7079261541366577
3.0782289505004883,0.0359421968460083,-0.029020190238952637,0.025333285331726074,-0.7453802535187379,-1.122035517691636,2.67023422543826,-0.6620712280273438,0.6782512664794922,-0.31880560517311096,0.8166893720626831,0.41905078291893005,-2.1578402519226074
3.09834885597229,-0.08209288120269775,-0.0590130090713501,0.0981970727443695,-0.7001202860721241,-1.1258171282620542,2.6523116315027715,-0.6902915835380554,0.6443096995353699,-0.3291846215724945,-0.08790889382362366,0.4034333825111389,-2.4963533878326416
3.118191957473755,-0.14125323295593262,-0.08229804039001465,0.11985495686531067,-0.6570532849352172,-1.141285505868345,2.615011218537649,-0.7198763489723206,0.6107863187789917,-0.3297243118286133,-0.7274961471557617,0.4441011846065521,-2.6030545234680176
3.1381819248199463,-0.06112658977508545,-0.07914584875106812,0.22826433181762695,-0.6193100236647011,-1.1535332744429048,2.571254903495317,-0.744415283203125,0.5804734826087952,-0.32999467849731445,-0.8327018022537231,0.901462972164154,-2.197744131088257
3.158168077468872,-0.023924291133880615,-0.22316902875900269,0.09445449709892273,-0.5911928828983029,-1.1561096509588362,2.5352027486681847,-0.7599043250083923,0.55735182762146,-0.33452099561691284,-0.727310061454773,0.850721538066864,-1.6746721267700195
3.1781840324401855,-0.1256721019744873,-0.13729918003082275,-0.006439268589019775,-0.5636462770281857,-1.1539627643145136,2.5074776150094613,-0.7729331851005554,0.5342720150947571,-0.3422393500804901,-0.22833511233329773,0.8781508803367615,-1.8916969299316406
3.1981780529022217,-0.15696585178375244,-0.06197398900985718,-0.0019664764404296875,-0.5268885547464108,-1.1474604003918403,2.4891585821458673,-0.788071870803833,0.5028463006019592,-0.3550892174243927,0.13929235935211182,0.7137079834938049,-2.0288257598876953
3.218194007873535,-0.019693970680236816,-0.12120535969734192,0.06800985336303711,-0.4896262653729166,-1.1441811620641902,2.47057114995663,-0.8034108281135559,0.47029608488082886,-0.365174800157547,-0.05404302850365639,0.5188453197479248,-2.0557985305786133
3.238365888595581,0.04718518257141113,-0.24699094891548157,0.07675683498382568,-0.45495254809043867,-1.1461115740628183,2.449712270052796,-0.8184863924980164,0.439419686794281,-0.3701223134994507,-0.234279602766037,0.25493550300598145,-1.861054539680481
3.258193016052246,-0.08374077081680298,-0.24243086576461792,0.18561705946922302,-0.4238296106863309,-1.1515104320874827,2.4246524816676147,-0.832564651966095,0.41125422716140747,-0.3710876405239105,-0.6349232196807861,0.3292628228664398,-1.9818973541259766
3.2781920433044434,-0.18105655908584595,-0.16184267401695251,0.1929558515548706,-0.39172464729578715,-1.1615688139203395,2.387322170670406,-0.8479350209236145,0.38178297877311707,-0.3677605390548706,-1.1266460418701172,0.10186705738306046,-2.3849494457244873
3.2982170581817627,-0.07884931564331055,-0.10518395900726318,0.14188778400421143,-0.3544575423520131,-1.1752199337655391,2.3479108652477247,-0.8654102683067322,0.3470816910266876,-0.36138543486595154,-0.6425281763076782,-0.06875031441450119,-2.328153610229492
3.3181850910186768,0.10657364130020142,-0.1175931990146637,0.06647786498069763,-0.3162113388399472,-1.1868297115297306,2.3266844377206133,-0.8812165260314941,0.31096798181533813,-0.35602861642837524,0.3392675518989563,-0.31037306785583496,-2.0567448139190674
3.3381760120391846,0.08045816421508789,-0.09154340624809265,0.08108505606651306,-0.2710432906814539,-1.1939185310689087,2.3270236161039275,-0.8958724737167358,0.2677367925643921,-0.35458359122276306,1.2853115797042847,-0.4566550850868225,-2.1805579662323
3.358328104019165,0.020798563957214355,-0.024626702070236206,-0.04396378993988037,-0.21567175908240838,-1.203509229846056,2.3414404763271595,-0.9116829633712769,0.21400366723537445,-0.35076582431793213,1.9255682229995728,-0.8252511024475098,-2.4900758266448975
3.378185987472534,-0.0734071135520935,-0.04615476727485657,-0.02151203155517578,-0.1546348559123805,-1.2178820123362792,2.357218213123923,-0.9271727204322815,0.1540193259716034,-0.3415098488330841,1.5280669927597046,-0.8324213027954102,-2.605782985687256
3.398254156112671,-0.053310275077819824,-0.2297711819410324,0.1371164321899414,-0.101374362483292,-1.2340342749236521,2.359606936803977,-0.9389839768409729,0.10120081901550293,-0.3287363350391388,0.5313961505889893,-0.9144060015678406,-2.3479907512664795
3.4181909561157227,-0.010507702827453613,-0.20220890641212463,0.14220458269119263,-0.05670112564797056,-1.2526599487537964,2.3528703416192362,-0.9482935667037964,0.05667074769735336,-0.3122943043708801,0.37354567646980286,-0.8439158797264099,-2.096113681793213
3.438214063644409,-0.0626712441444397,0.03886541351675987,0.05443084239959717,-0.013259157220448984,-1.2690120506548122,2.3509002724531456,-0.9547237157821655,0.013258769176900387,-0.29719817638397217,0.7997868061065674,-0.7683134078979492,-2.158944606781006
3.4582178592681885,-0.04443550109863281,0.054662469774484634,0.006692409515380859,0.03173367594581814,-1.2854791060693311,2.3531173240767163,-0.9590892791748047,-0.0317283496260643,-0.28132015466690063,0.5969628691673279,-1.0044827461242676,-2.0789453983306885
3.4781899452209473,-0.03291821479797363,-0.07443992048501968,0.09483334422111511,0.07241273169840533,-1.3059787063092867,2.3501275200874385,-0.9626109004020691,-0.07234946638345718,-0.2610473334789276,0.2678338289260864,-0.9272781610488892,-1.8065077066421509
3.49822998046875,-0.07378494739532471,0.008358366787433624,0.27942800521850586,0.1034062746732537,-1.31630767096534,2.3468277776788597,-0.9626225233078003,-0.1032220870256424,-0.25040578842163086,0.3931875228881836,-0.13511407375335693,-1.2945159673690796
3.5181920528411865,-0.02843993902206421,0.13606758415699005,0.23496180772781372,0.12903999372600827,-1.3190269497004117,2.355844888474078,-0.9604211449623108,-0.1286821812391281,-0.24704673886299133,1.1057602167129517,-0.14519093930721283,-1.0058256387710571
3.5381929874420166,-0.0127066969871521,0.17211173474788666,0.09197273850440979,0.15316317759026574,-1.3264098504678383,2.3768944063448223,-0.9589271545410156,-0.15256503224372864,-0.23912853002548218,1.3192931413650513,-0.23117855191230774,-0.8304458856582642
3.558236837387085,-0.11574888229370117,-0.0007445365190505981,0.1630159616470337,0.17349473993912962,-1.331797723116501,2.3956999847253364,-0.9569898247718811,-0.17262567579746246,-0.23317591845989227,0.9608398675918579,0.04126380756497383,-0.6479911208152771
3.578197956085205,-0.21750938892364502,-0.1637302041053772,0.21347296237945557,0.18606578381442754,-1.3291979905186042,2.4086308885056624,-0.9541977643966675,-0.18499402701854706,-0.23512522876262665,0.6176586747169495,0.4370217025279999,-0.32204413414001465
3.5981929302215576,-0.22154492139816284,-0.10706177353858948,0.2854388356208801,0.19232401683495146,-1.3196635160107621,2.422307189588751,-0.9507725834846497,-0.1911405771970749,-0.24391970038414001,0.919596791267395,0.7222102284431458,0.0864744707942009
3.618227005004883,-0.12286883592605591,-0.12895679473876953,0.25799262523651123,0.1938646161744793,-1.308552765418027,2.443837980239422,-0.9477183222770691,-0.19265253841876984,-0.2543915808200836,1.0919796228408813,0.7776840925216675,0.19781199097633362
3.638309955596924,-0.1569763422012329,-0.2061336785554886,0.23657241463661194,0.1989542224129109,-1.2953440504424911,2.4621312599780545,-0.9433198571205139,-0.19764429330825806,-0.2666170597076416,0.7956754565238953,0.8425623178482056,-0.2311398833990097
3.658195972442627,-0.1718587875366211,-0.2848341166973114,0.15662223100662231,0.20924298474699413,-1.2848800545056647,2.4753211424917994,-0.9384775757789612,-0.20771946012973785,-0.2758849859237671,0.6296047568321228,0.40471675992012024,-0.3690446615219116
3.6782569885253906,-0.1973521113395691,-0.17934687435626984,0.19523590803146362,0.21842760608792844,-1.2833220669931786,2.4819055702795407,-0.9361776113510132,-0.21669486165046692,-0.2767941951751709,0.24674241244792938,0.02335262857377529,-0.26880326867103577
3.698198080062866,-0.39765995740890503,-0.018520846962928772,0.27894216775894165,0.22225697936202968,-1.2810811609986665,2.480422677560273,-0.9347528219223022,-0.2204316407442093,-0.27865225076675415,-0.22338809072971344,0.09923434257507324,-0.141170933842659
3.71819806098938,-0.4502772092819214,0.0692964494228363,0.29320859909057617,0.2204926485236035,-1.2804983632733813,2.4734935571931618,-0.9349614977836609,-0.21871037781238556,-0.27930787205696106,-0.4480118453502655,-0.2280322015285492,0.18470615148544312
3.73819899559021,-0.4443780183792114,0.045175254344940186,0.3306497633457184,0.2097655149739501,-1.2855454558605302,2.4660683498393268,-0.9385566711425781,-0.20823055505752563,-0.27522990107536316,-0.5021030902862549,-0.2820250391960144,0.5639231204986572
3.7582271099090576,-0.5767548680305481,0.11174170672893524,0.3166347146034241,0.1942443235134126,-1.2873587118677923,2.462868294080135,-0.9420440196990967,-0.1930251270532608,-0.27439847588539124,-0.21474912762641907,-0.059424545615911484,0.8443293571472168
3.7782020568847656,-0.5461122393608093,0.20790810883045197,0.2863937318325043,0.17638086810553313,-1.2889758941736766,2.46549452504346,-0.9456480145454407,-0.17546774446964264,-0.2737899720668793,-0.012400005012750626,-0.0703524723649025,0.9059268832206726
3.7982099056243896,-0.5403091907501221,0.19414439797401428,0.16420888900756836,0.1574094605139256,-1.2956596353991157,2.475559319224041,-0.9504898190498352,-0.15676023066043854,-0.26831966638565063,0.31917375326156616,-0.38946789503097534,1.2324740886688232
3.8183040618896484,-0.582076907157898,0.11854556202888489,0.23953142762184143,0.13149729669561885,-1.301988529597467,2.4878595887402604,-0.9557650685310364,-0.13111865520477295,-0.2632894217967987,0.18200774490833282,-0.082650326192379,1.6405234336853027
3.838261842727661,-0.7223975658416748,0.06853325664997101,0.20800915360450745,0.0938937972705538,-1.3011687941687458,2.499047834684762,-0.9596246480941772,-0.09375589340925217,-0.2651991546154022,-0.22066178917884827,0.19217929244041443,2.2528562545776367
3.8582041263580322,-0.765352725982666,0.111580491065979,0.15386158227920532,0.04596846739244334,-1.2987919563017578,2.5040642007085334,-0.962216854095459,-0.04595227912068367,-0.2683788537979126,-0.5232880115509033,0.0988093912601471,2.4852969646453857
3.8782060146331787,-0.7457389235496521,0.12618865072727203,0.1772175431251526,-0.006898705792731082,-1.2992596678436488,2.5078325898736393,-0.9633370637893677,0.006898650899529457,-0.26820576190948486,-0.523758053779602,-0.046035055071115494,2.7965831756591797
3.8982110023498535,-0.7313596606254578,0.11636603623628616,0.1354362666606903,-0.06470953672654342,-1.3013194183582883,2.515780110314401,-0.9618929624557495,0.06466438621282578,-0.2656700909137726,-0.23185761272907257,-0.10384020954370499,2.945383310317993
3.918205976486206,-0.7933114767074585,0.24312350153923035,0.10721099376678467,-0.11964972665104406,-1.3031931104901748,2.5302634309800722,-0.9575124979019165,0.11936444789171219,-0.26253026723861694,0.12373616546392441,-0.21020029485225677,2.7549827098846436
3.938199996948242,-0.7651345729827881,0.18513916432857513,0.16923359036445618,-0.17265106581336487,-1.3047433866514169,2.545888754490449,-0.9504721760749817,0.1717946082353592,-0.25901636481285095,-0.07962001860141754,-0.1900234818458557,2.7973625659942627
3.958245038986206,-0.7117670774459839,0.12447753548622131,0.12771093845367432,-0.22651476354229572,-1.3088025296937311,2.5587484443805932,-0.9412022829055786,0.22458268702030182,-0.2523905038833618,-0.14746268093585968,-0.480068176984787,2.7366273403167725
3.978214979171753,-0.649250328540802,0.17802083492279053,0.07067134976387024,-0.279476038451109,-1.3183584428519342,2.567846323573625,-0.9307363033294678,0.2758520543575287,-0.24007447063922882,-0.3131779134273529,-0.6686401963233948,2.6589152812957764
3.998215913772583,-0.6134912967681885,0.19734489917755127,0.034373968839645386,-0.3331522067596015,-1.3296957774323424,2.575818087136551,-0.9176824688911438,0.32702353596687317,-0.22564296424388885,-0.23836489021778107,-0.7526702880859375,2.706512928009033
4.018221139907837,-0.6147881150245667,0.24073132872581482,-0.06552927196025848,-0.38382797625768555,-1.3428263831401288,2.5844717741904626,-0.9032476544380188,0.37447264790534973,-0.2095561921596527,-0.17621003091335297,-0.8004194498062134,2.4257802963256836
4.038212060928345,-0.5870925188064575,0.20635730028152466,-0.09886312484741211,-0.43100969316875265,-1.3559390486963632,2.591340759796117,-0.8876540660858154,0.4177883565425873,-0.19370892643928528,-0.26792851090431213,-0.7925011515617371,2.3464560508728027
4.058225870132446,-0.4993928074836731,0.13236850500106812,-0.106348916888237,-0.47809051771325556,-1.369407500771576,2.59405463519395,-0.8699308633804321,0.4600846469402313,-0.1776019036769867,-0.4825347065925598,-0.7256672382354736,2.335716724395752
4.078210115432739,-0.4076364040374756,0.13231903314590454,-0.2087339609861374,-0.5258616099439346,-1.3863519844071708,2.5912105875644866,-0.8502217531204224,0.5019583702087402,-0.1586214303970337,-0.6439228653907776,-0.7941977381706238,2.288717746734619
4.098254919052124,-0.319247841835022,0.08887672424316406,-0.22240447998046875,-0.5722319764391975,-1.402871925086494,2.586254075436861,-0.828869104385376,0.5415098071098328,-0.14051057398319244,-0.571053683757782,-0.6298237442970276,2.21152663230896
4.118211984634399,-0.2254776954650879,0.07986456155776978,-0.2659187316894531,-0.6136638619521574,-1.4178495687273585,2.5828974634856654,-0.8079999685287476,0.57586669921875,-0.12455371022224426,-0.3170577883720398,-0.6825021505355835,1.7942713499069214
4.13823390007019,-0.09294915199279785,0.041158854961395264,-0.2596866488456726,-0.6460790139027133,-1.4295945149657527,2.5850954035308917,-0.7905042767524719,0.6020603179931641,-0.11236842721700668,-0.009318007156252861,-0.627621591091156,1.4974706172943115
4.158211946487427,0.012989163398742676,-0.11173224449157715,-0.2760990262031555,-0.6747111237220433,-1.4377926549211095,2.5896678467263476,-0.7739906311035156,0.6246717572212219,-0.10355494171380997,-0.09046387672424316,-0.4348854422569275,1.399728536605835
4.178212881088257,0.06347525119781494,-0.2166755199432373,-0.3216218948364258,-0.7014693698479891,-1.445461176771739,2.5876061574107743,-0.7579026818275452,0.6453408002853394,-0.0954924002289772,-0.40408235788345337,-0.2485032081604004,1.2140657901763916
4.198225975036621,0.14057964086532593,-0.21731960773468018,-0.3446465730667114,-0.7232486649787451,-1.455944365476566,2.5766871136531346,-0.7447208166122437,0.661823570728302,-0.08591073006391525,-0.6684461832046509,-0.036928996443748474,0.8722050189971924
4.217972993850708,0.19440650939941406,-0.2790442705154419,-0.32111120223999023,-0.7420956486600029,-1.4650240582808123,2.560289212993075,-0.7329349517822266,0.6758340001106262,-0.07781460136175156,-0.7217898368835449,0.19018954038619995,0.8686690330505371
4.238252878189087,0.26867085695266724,-0.27411311864852905,-0.2721160054206848,-0.7591821471353541,-1.4689875891145385,2.546360247267338,-0.7216432094573975,0.6883283853530884,-0.07372447848320007,-0.4302605092525482,0.3479119837284088,0.7579379081726074
4.258226156234741,0.31060338020324707,-0.24068301916122437,-0.3181832432746887,-0.7732889671160528,-1.4654484602982567,2.542375478973283,-0.7116500735282898,0.6984926462173462,-0.07524940371513367,-0.03567942976951599,0.2972652018070221,0.6046334505081177
4.278218984603882,0.3451225161552429,-0.3358796238899231,-0.267794132232666,-0.7850154042427536,-1.458741539485837,2.542091088255733,-0.7029410004615784,0.7068361043930054,-0.07909924536943436,-0.19038540124893188,0.41850775480270386,0.6129897236824036
4.298243999481201,0.31872981786727905,-0.4354014992713928,-0.2375146746635437,-0.7972843686678723,-1.4538756983464778,2.533482535231908,-0.6938822865486145,0.7154614329338074,-0.08150088042020798,-0.5433390736579895,0.6870858669281006,0.4774709939956665
4.318219900131226,0.3231620788574219,-0.3871570825576782,-0.2597510814666748,-0.8086255489438222,-1.4495114961811166,2.5209406660175953,-0.6854208707809448,0.723338782787323,-0.08354119211435318,-0.35877785086631775,0.7438643574714661,0.5294220447540283
4.338183164596558,0.32648909091949463,-0.35237109661102295,-0.2684905529022217,-0.8206628003234082,-1.4381464589588822,2.5164146225755504,-0.6757473349571228,0.7315978407859802,-0.09016727656126022,0.007906705141067505,0.789196252822876,0.49902594089508057
4.358222961425781,0.3034782409667969,-0.3316614627838135,-0.25368422269821167,-0.8276448462411053,-1.414039408244998,2.5268818066646173,-0.6683157086372375,0.7363398671150208,-0.10562973469495773,0.5407680869102478,0.812953531742096,0.2900388836860657
4.3782219886779785,0.2580036520957947,-0.33539319038391113,-0.22110050916671753,-0.8301868770018729,-1.3860974345069172,2.5421325613921972,-0.6632617712020874,0.7380574941635132,-0.12391600012779236,0.2732539176940918,0.859205424785614,0.20874729752540588
4.398221969604492,0.30301082134246826,-0.5274910926818848,-0.17422747611999512,-0.8349102759158246,-1.3683316499531382,2.546326701755368,-0.6575334072113037,0.7412362694740295,-0.13497667014598846,0.07441893965005875,0.5242296457290649,0.29914355278015137
4.418247938156128,0.314450204372406,-0.45348453521728516,-0.1264367550611496,-0.8378453305610128,-1.3563796691082521,2.5411672262290503,-0.6537444591522217,0.7432032227516174,-0.1423620879650116,-0.21902860701084137,1.0199358463287354,-0.20050212740898132
4.438230037689209,0.0683445930480957,-0.6911718249320984,-0.46099913120269775,-0.8385087039378811,-1.3307284651566913,2.5441941506009758,-0.6493991017341614,0.7436469197273254,-0.15896551311016083,0.07170206308364868,1.3834989070892334,0.43894675374031067
4.458189010620117,0.16339236497879028,-0.5029215216636658,-0.29232263565063477,-0.846666884778339,-1.302832119881343,2.546088026341844,-0.638840913772583,0.7490764260292053,-0.17540504038333893,-0.23097890615463257,1.2059794664382935,0.13326650857925415
4.47822904586792,0.17070603370666504,-0.27909767627716064,-0.1488618552684784,-0.8464938206410995,-1.280202465358205,2.5453384826066756,-0.6348325610160828,0.7489617466926575,-0.18985280394554138,0.2606123089790344,1.1881046295166016,0.06636626273393631
4.498224973678589,0.11782526969909668,-0.30017828941345215,-0.09067688882350922,-0.8467594371203838,-1.2452476375091357,2.5562597387487678,-0.6276212334632874,0.7491377592086792,-0.2118591070175171,0.3150142729282379,1.428338646888733,0.0418274812400341
4.518225908279419,0.09783172607421875,-0.3324407935142517,-0.06369620561599731,-0.8442603557053361,-1.2157616572278644,2.559445306126959,-0.6228560209274292,0.7474799752235413,-0.2309204787015915,0.0166133102029562,1.2970432043075562,-0.08780650049448013
4.538225889205933,0.14771521091461182,-0.33008915185928345,-0.05437159538269043,-0.8445103686190139,-1.1896235131846344,2.5606774724178307,-0.6164345741271973,0.7476460337638855,-0.24705050885677338,0.10406685620546341,1.2324750423431396,0.11148437857627869
4.558236837387085,-0.0008393526077270508,-0.24312365055084229,-0.1233055591583252,-0.8402154871024695,-1.1613215584993017,2.5659534792199317,-0.6121366620063782,0.7447869181632996,-0.2656715214252472,0.45246240496635437,1.282297968864441,-0.23582537472248077
4.578261137008667,-0.16103333234786987,-0.30710119009017944,-0.12630251049995422,-0.8373806877027278,-1.1239209829672685,2.574237183915614,-0.6036759614944458,0.7428922653198242,-0.289285808801651,0.004464303143322468,1.7347759008407593,0.12193134427070618
4.598237037658691,0.062007009983062744,-0.17680048942565918,0.0011499226093292236,-0.8365971556040147,-1.096097269049049,2.5701096933959104,-0.5959118604660034,0.7423675656318665,-0.30623412132263184,-0.11733082681894302,1.2975759506225586,-0.21007245779037476
4.6182310581207275,0.1546839475631714,-0.14825177192687988,-0.05074635148048401,-0.8357101993354985,-1.0730330680876672,2.5698571671250567,-0.5892693996429443,0.7417730093002319,-0.3202100098133087,0.11607517302036285,1.144874930381775,0.135527566075325
4.638229131698608,0.021912753582000732,-0.07927471399307251,-0.06969001889228821,-0.8356309229562486,-1.0458053327473789,2.574218833513609,-0.5803842544555664,0.7417198419570923,-0.3361632227897644,0.11418699473142624,1.2121745347976685,-0.11959367245435715
4.658231973648071,-0.011802613735198975,-0.02756679058074951,-0.07589113712310791,-0.8298090398019572,-1.0228151941241563,2.5737767731798216,-0.5761794447898865,0.7378025054931641,-0.3516601026058197,0.11756329238414764,1.1455599069595337,-0.26604312658309937
4.678241014480591,0.027511775493621826,-0.10868006944656372,-0.09806358814239502,-0.8265561447328291,-1.0020435217164392,2.5725808584844194,-0.5707703232765198,0.7356027960777283,-0.3648422956466675,-0.04601137340068817,1.020560622215271,-0.07466934621334076
4.6982581615448,0.017538487911224365,-0.13586312532424927,-0.07554000616073608,-0.8283027713643624,-0.9869846785741463,2.5664599601536575,-0.5641387104988098,0.7367848753929138,-0.37268689274787903,-0.391467422246933,0.9545066952705383,0.0034499969333410263
4.718232870101929,-0.017932534217834473,-0.06859242916107178,-0.05188286304473877,-0.8340382199294661,-0.9753871996098447,2.555652957378066,-0.5562708973884583,0.7406506538391113,-0.37682804465293884,-0.5392044186592102,1.0285013914108276,0.08249194175004959
4.737919092178345,-0.028880834579467773,-0.01669400930404663,-0.06955265998840332,-0.8426130216785892,-0.9651791718644647,2.5423321324398316,-0.5471535325050354,0.7463846802711487,-0.37885725498199463,-0.7343128323554993,0.9718813896179199,0.09020832180976868
4.758255958557129,-0.00393986701965332,-0.019395649433135986,-0.07769545912742615,-0.852992387156158,-0.961231645637878,2.523130644246077,-0.5392728447914124,0.7532519698143005,-0.37655866146087646,-0.8891233801841736,0.8442057371139526,0.04309335723519325
4.778240919113159,0.004193782806396484,0.005330562591552734,-0.09212732315063477,-0.8634612046158727,-0.9624508624483561,2.4980570158330417,-0.5332311987876892,0.7600962519645691,-0.37137362360954285,-0.7555416226387024,0.775246262550354,-0.004449489060789347
4.798274040222168,-0.02139103412628174,0.03944593667984009,-0.2034948170185089,-0.8733862526409756,-0.9610263545239082,2.4803933564291425,-0.5264908671379089,0.7665081024169922,-0.3677941858768463,-0.6609269976615906,0.7704587578773499,0.05581573024392128
4.818331956863403,-0.08951282501220703,0.15141427516937256,-0.17251154780387878,-0.878941809072144,-0.9558614515566011,2.4662166561422656,-0.5210980772972107,0.7700642347335815,-0.3680463135242462,-0.35513168573379517,0.8824987411499023,-0.05309078097343445
4.83837103843689,-0.08665096759796143,0.16591012477874756,-0.08249050378799438,-0.8781765982783777,-0.9361707059931351,2.4666149154841395,-0.5142247676849365,0.769575834274292,-0.3785842955112457,0.3224436044692993,1.0345293283462524,-0.03468460962176323
4.85826301574707,-0.05767321586608887,0.03813832998275757,0.07195556163787842,-0.8720023215255001,-0.9114177734812958,2.4724975247736882,-0.5084429979324341,0.7656185626983643,-0.39409905672073364,0.2368040680885315,0.9398161172866821,-0.17551656067371368
4.8782899379730225,0.013085663318634033,-0.08199113607406616,0.15648117661476135,-0.867573594688416,-0.8914511111761875,2.476158205714173,-0.5031062364578247,0.7627620697021484,-0.4062980115413666,0.2604430317878723,0.7824376225471497,0.012392240576446056
4.898226022720337,0.033253878355026245,0.03368723392486572,0.12024015188217163,-0.8633582735762392,-0.8717749691949909,2.483715884675777,-0.4974718987941742,0.7600293755531311,-0.41818323731422424,0.309460312128067,0.609167754650116,-0.09748928993940353
4.918278932571411,-0.003362298011779785,0.0501251220703125,0.12852519750595093,-0.8571988477920099,-0.8598354419818469,2.4844866731116944,-0.4959813952445984,0.7560120224952698,-0.4271395802497864,0.10356715321540833,0.5501790642738342,-0.2680426836013794
4.938209056854248,0.02067774534225464,0.003922700881958008,0.1519855260848999,-0.8543809845274783,-0.8525603388953104,2.479712591721085,-0.4944630265235901,0.7541645765304565,-0.4321368336677551,-0.15748673677444458,0.5233227610588074,-0.1570194661617279
4.958189964294434,0.05754655599594116,-0.027696609497070312,0.18006551265716553,-0.8549900969563303,-0.8487845099720416,2.4714064177225827,-0.4924829602241516,0.7545644044876099,-0.43369704484939575,-0.2884605824947357,0.4692598879337311,-0.1526387333869934
4.9783220291137695,0.09829089045524597,-0.0469818115234375,0.15948569774627686,-0.8568493056854403,-0.8486884341013563,2.460896045353744,-0.4913876950740814,0.755783200263977,-0.43281635642051697,-0.3441329598426819,0.338970422744751,-0.16610649228096008
4.998314142227173,0.1445949673652649,-0.06990152597427368,0.11955055594444275,-0.8578067725084007,-0.850143349695517,2.451366483010229,-0.49147287011146545,0.7564098238945007,-0.4316231906414032,-0.1529809981584549,0.24317002296447754,-0.16227927803993225
5.018193960189819,0.15841048955917358,-0.08171117305755615,0.07478094100952148,-0.8564538737786944,-0.8496861720083837,2.4457327944738947,-0.49204379320144653,0.7555241584777832,-0.4325232207775116,-0.06711295992136002,0.2368500828742981,-0.20808298885822296
5.038245916366577,0.16579830646514893,-0.15597426891326904,0.07054609060287476,-0.8536843834793871,-0.8506117932630426,2.438209825482455,-0.4940147399902344,0.7537069320678711,-0.4334457814693451,-0.13308055698871613,0.2593383491039276,-0.30308690667152405
5.058245897293091,0.21382465958595276,-0.2336527705192566,0.06845217943191528,-0.8521472674129408,-0.8518219920472501,2.4278143856889365,-0.4954102337360382,0.7526958584785461,-0.4336102306842804,-0.3122643828392029,0.3796772062778473,-0.2555394768714905
5.078213930130005,0.3004935681819916,-0.25898826122283936,0.08228075504302979,-0.8545700401993838,-0.8565974409704926,2.4117693312832977,-0.4960958659648895,0.7542886734008789,-0.4300437569618225,-0.6892778873443604,0.3523229658603668,-0.27423936128616333
5.098278045654297,0.3865048885345459,-0.24578392505645752,0.10246297717094421,-0.8624059528793255,-0.8729555712947569,2.3800757495803695,-0.49851951003074646,0.7594100832939148,-0.41806045174598694,-1.294684648513794,0.4088224768638611,-0.5286863446235657
5.118233919143677,0.3869204521179199,-0.1738508939743042,-0.12120828032493591,-0.8632928481381889,-0.8956645175312371,2.340761429941497,-0.5073578953742981,0.7599868178367615,-0.40621164441108704,-0.41659197211265564,0.312528520822525,-0.9730847477912903
5.138242959976196,0.2746533155441284,-0.024364829063415527,-0.29017624258995056,-0.8460062751622288,-0.8939118849172529,2.331916658536903,-0.5168101787567139,0.7486386299133301,-0.4152680039405823,0.7604073286056519,0.6456790566444397,-0.713912308216095
5.158226013183594,0.2460329532623291,-0.02719634771347046,-0.14219677448272705,-0.8256304266375227,-0.8784727654510056,2.3308852450243616,-0.5219727754592896,0.7349753975868225,-0.4328458905220032,0.3635239899158478,0.8580536246299744,-1.0018738508224487
5.178239107131958,0.3468933701515198,-0.1781579852104187,-0.002679169178009033,-0.8079194807164208,-0.8764242117081689,2.3116412897629433,-0.5310057997703552,0.7228510975837708,-0.4421755075454712,-0.18986111879348755,0.7471408247947693,-1.132568359375
5.198331117630005,0.42548537254333496,-0.10177820920944214,-0.0167086124420166,-0.7935060010708406,-0.883716168972879,2.2833741317276104,-0.5422150492668152,0.712816596031189,-0.44485440850257874,-0.3042348325252533,0.5451589822769165,-1.312656044960022
5.218271970748901,0.35063862800598145,-0.10483938455581665,-0.03709691762924194,-0.7740002612704143,-0.8951047961627213,2.2537211933355192,-0.5579902529716492,0.6990014910697937,-0.4472627639770508,-0.08987513184547424,0.4640969932079315,-1.471044898033142
5.238250017166138,0.2900272011756897,-0.16568982601165771,-0.08126693964004517,-0.7512682378296542,-0.9044989357612787,2.22674586893124,-0.5745119452476501,0.6825661659240723,-0.45170724391937256,-0.06735846400260925,0.4164159297943115,-1.5653709173202515
5.258258104324341,0.3032488226890564,-0.15645062923431396,-0.004623830318450928,-0.7277127916674644,-0.9191058581833682,2.195511872203261,-0.5936692953109741,0.665163516998291,-0.4528956115245819,-0.30806514620780945,0.26655319333076477,-1.6530406475067139
5.27826189994812,0.2761954069137573,-0.10398495197296143,0.014221727848052979,-0.706167077921484,-0.9347199318542904,2.162380341280808,-0.6120565533638,0.6489222645759583,-0.4519810676574707,-0.37232649326324463,0.39279335737228394,-1.6071189641952515
5.298289060592651,0.20955932140350342,-0.08377969264984131,-0.057817280292510986,-0.6825146854779779,-0.9462658832793294,2.131665191145158,-0.6295116543769836,0.6307463645935059,-0.45373353362083435,-0.12115132063627243,0.349372923374176,-1.7002722024917603
5.318250894546509,0.19436967372894287,-0.08527618646621704,-0.047095924615859985,-0.6571144758646741,-0.9607212454263094,2.101059870499262,-0.6489288806915283,0.6108347773551941,-0.45362114906311035,-0.49622395634651184,0.08577010780572891,-1.8214998245239258
5.338226079940796,0.16073036193847656,-0.15799003839492798,-0.028887450695037842,-0.634707426241279,-0.9897719129293732,2.0557804281335095,-0.6731051802635193,0.59294193983078,-0.4419834613800049,-1.216423511505127,-0.24556298553943634,-2.014662504196167
5.358315944671631,0.20024222135543823,-0.2215975522994995,0.021056950092315674,-0.6173947106310317,-1.025050246975031,2.002622522040179,-0.6969462633132935,0.5789127945899963,-0.423232764005661,-1.3733643293380737,-0.11858054250478745,-1.731611728668213
5.378262042999268,0.31614798307418823,-0.16734158992767334,0.1165730357170105,-0.5975893082450596,-1.048207479921572,1.9634573769513866,-0.7163554430007935,0.5626512169837952,-0.41262397170066833,-0.16903440654277802,-0.001375887542963028,-1.6395076513290405
5.398255109786987,0.3490232825279236,-0.010464072227478027,0.007347285747528076,-0.5648874826720123,-1.0549391415910265,1.9545877011042634,-0.7347349524497986,0.5353207588195801,-0.4166489839553833,0.8861307501792908,-0.27665334939956665,-1.6745551824569702
5.418259859085083,0.2596612572669983,-0.11824703216552734,0.039854228496551514,-0.5244526107631993,-1.0686235691613262,1.9473882361226391,-0.7587304711341858,0.5007392764091492,-0.41663941740989685,0.48235243558883667,-0.7013517618179321,-2.1096274852752686
5.4382569789886475,0.19491475820541382,-0.2900363802909851,0.10691392421722412,-0.4847137965026424,-1.0910178071396812,1.9320715749023705,-0.784911036491394,0.46595513820648193,-0.40841227769851685,0.30145835876464844,-0.7346126437187195,-1.977128267288208
5.45831298828125,0.15047574043273926,-0.2153192162513733,0.11492198705673218,-0.4467873807820295,-1.1101567602553912,1.922439691075976,-0.8078396320343018,0.4320704936981201,-0.4008868336677551,0.7427768111228943,-0.7546095848083496,-1.8395618200302124
5.478287935256958,0.10946071147918701,-0.06961342692375183,0.07860922813415527,-0.40471420690310794,-1.1241731417173377,1.9256506896988292,-0.8290499448776245,0.39375606179237366,-0.3970295786857605,1.29196298122406,-0.7826353907585144,-1.8490902185440063
5.498257875442505,0.06353402137756348,-0.03172099590301514,0.13806971907615662,-0.35974297649476655,-1.1365539016975195,1.9343792159500235,-0.8491174578666687,0.35203367471694946,-0.39379164576530457,1.3116254806518555,-0.768534243106842,-1.8478775024414062
5.5182578563690186,0.022880375385284424,-0.13196295499801636,0.15867957472801208,-0.31816639215667614,-1.1491693048508531,1.9422996323859159,-0.8666303157806396,0.3128255009651184,-0.3887057602405548,1.0491089820861816,-0.769765317440033,-1.6584595441818237
5.538293123245239,-0.0064234137535095215,-0.09482607245445251,0.15153592824935913,-0.28009986909681656,-1.1642757297769228,1.946004679716962,-0.8827062249183655,0.27645161747932434,-0.38000571727752686,0.9203842282295227,-0.8683130145072937,-1.6860687732696533
5.558210134506226,-0.0038988590240478516,-0.03334800899028778,0.1557537317276001,-0.241562178368509,-1.1792519001694355,1.9522197111012565,-0.8974835872650146,0.23921974003314972,-0.3705363869667053,1.1550343036651611,-0.7913545966148376,-1.6567142009735107
5.578262090682983,-0.07460284233093262,-0.031236320734024048,0.1636304259300232,-0.20116969552520078,-1.1932056502261252,1.962915059783252,-0.9108097553253174,0.199815571308136,-0.3612469434738159,1.2439055442810059,-0.8883067965507507,-1.7222497463226318
5.598261117935181,-0.25042712688446045,-0.02182266116142273,0.13043493032455444,-0.1598315549387564,-1.2109648395480737,1.97025710341951,-0.924026608467102,0.15915191173553467,-0.34762850403785706,0.8459838032722473,-0.9816546440124512,-1.8812259435653687
5.618299961090088,-0.43130820989608765,0.0401439368724823,0.2146029770374298,-0.1207328069233747,-1.2296075270977764,1.9685057632511223,-0.9354977607727051,0.12043971568346024,-0.33217185735702515,0.42967575788497925,-0.8825749754905701,-1.7861709594726562
5.638268947601318,-0.44362175464630127,0.07114823907613754,0.31751054525375366,-0.08765556112724009,-1.2451256554776957,1.9676353904145498,-0.9437988996505737,0.08754335343837738,-0.3187159299850464,0.7179627418518066,-0.6690056920051575,-1.3779560327529907
5.658262014389038,-0.4426092505455017,0.2107609212398529,0.27946826815605164,-0.05622137990828005,-1.255905991897937,1.9813391338520379,-0.9493281841278076,0.05619176849722862,-0.30922290682792664,1.634866714477539,-0.5088751912117004,-1.2688322067260742
5.678289175033569,-0.47185206413269043,0.36703237891197205,0.23214098811149597,-0.01907733825485795,-1.2624480332162813,2.0121975604053697,-0.9526628255844116,0.019076181575655937,-0.30343005061149597,2.3263514041900635,-0.2729460597038269,-1.2681936025619507
5.698263883590698,-0.38783639669418335,0.22224436700344086,0.2803342342376709,0.016373359392168083,-1.267162263482312,2.0470736306358384,-0.9541283845901489,-0.01637262850999832,-0.2989499270915985,1.9189687967300415,-0.22928805649280548,-1.0513157844543457
5.718269109725952,-0.3586043119430542,0.028444766998291016,0.3718290328979492,0.04063229351951903,-1.269725835478513,2.070054224818213,-0.9542314410209656,-0.040621113032102585,-0.29629799723625183,0.9492348432540894,-0.024807889014482498,-0.5876184105873108
5.738266944885254,-0.3732243776321411,-0.007629036903381348,0.48892417550086975,0.04770200117962586,-1.2703653344976822,2.0811571718230355,-0.9541225433349609,-0.04768391326069832,-0.29559531807899475,0.5948308110237122,0.04309037700295448,0.16827765107154846
5.758316993713379,-0.45741719007492065,0.08656669408082962,0.4406803250312805,0.04819408066496577,-1.26891365944556,2.0986129239068796,-0.9536699056625366,-0.04817542806267738,-0.2969730496406555,1.0732532739639282,0.22093583643436432,0.2397877424955368
5.77826714515686,-0.46395450830459595,0.10232245922088623,0.42868539690971375,0.05043328006278699,-1.2647015873748457,2.121692730665988,-0.9523051977157593,-0.050411902368068695,-0.30095404386520386,1.0996359586715698,0.23641227185726166,0.24796265363693237
5.798277139663696,-0.3974384665489197,-0.0635652244091034,0.4139476418495178,0.04924749079713707,-1.2629069821046572,2.1396430236683934,-0.9518199563026428,-0.04922758787870407,-0.30268052220344543,0.5173118114471436,0.0017595405224710703,0.4093100130558014
5.818361043930054,-0.3921201229095459,-0.17935818433761597,0.3344786763191223,0.03941712603231959,-1.2678502437510253,2.148550815808295,-0.9537203311920166,-0.039406917989254,-0.2981016933917999,0.08642372488975525,-0.4283764064311981,0.7506123185157776
5.838315010070801,-0.3946729302406311,-0.03991387411952019,0.30456364154815674,0.026846372538293112,-1.280629538074257,2.158199835078989,-0.9578508734703064,-0.026843147352337837,-0.28600895404815674,0.5921322703361511,-0.7231720685958862,0.7807646989822388
5.8582680225372314,-0.48275601863861084,0.005861489102244377,0.31936267018318176,0.013994722446470001,-1.2912682252002887,2.178773380343991,-0.9610916376113892,-0.013994265347719193,-0.2758750915527344,0.9092883467674255,-0.3138056993484497,1.046667218208313
5.87827205657959,-0.5663874745368958,-0.07712779194116592,0.21243393421173096,-0.0032296498887398255,-1.2970951943576232,2.200758930054501,-0.9627721309661865,0.0032296443823724985,-0.27029523253440857,0.7537366151809692,-0.3454533517360687,1.1797181367874146
5.898295164108276,-0.5061588883399963,-0.03558497130870819,0.11039605736732483,-0.022311845815731108,-1.3057852191744317,2.224611715607228,-0.9648493528366089,0.02230999432504177,-0.26185479760169983,1.0635545253753662,-0.5121220946311951,1.3367427587509155
5.918306112289429,-0.544929563999176,-0.026680853217840195,0.08522698283195496,-0.04465544976192708,-1.3133211599969066,2.2517388102136375,-0.9660720229148865,0.04464060813188553,-0.25438591837882996,0.9350258111953735,-0.25614967942237854,1.4959248304367065
5.938307046890259,-0.6097550392150879,-0.11910756677389145,0.08288225531578064,-0.07156136318060986,-1.3159555740391833,2.277500010083081,-0.9652267694473267,0.07150030136108398,-0.2514461278915405,0.8685170412063599,-0.24682950973510742,1.8025870323181152
5.958271026611328,-0.6689004898071289,-0.06589143723249435,0.08513069152832031,-0.10464140000025264,-1.3181201384523635,2.3031588625205863,-0.9629506468772888,0.1044505387544632,-0.2486286163330078,0.8058873414993286,-0.16019172966480255,2.0203475952148438
5.978273153305054,-0.710808277130127,-0.009446382522583008,0.1471954584121704,-0.14186465074157817,-1.3197841574215543,2.3273237280131673,-0.9589305520057678,0.14138928055763245,-0.2458893060684204,0.6198629140853882,-0.24922847747802734,2.161216974258423
5.998274087905884,-0.6639558672904968,-0.009920582175254822,0.09154817461967468,-0.18037666880689276,-1.3226546418584133,2.3527073849262274,-0.9536437392234802,0.17940014600753784,-0.24161839485168457,0.8362465500831604,-0.3824208676815033,2.178971767425537
6.0182740688323975,-0.6041565537452698,0.004725828766822815,0.04144491255283356,-0.2163021481577511,-1.324550067912269,2.3805413339100863,-0.9472349286079407,0.21461941301822662,-0.23808489739894867,0.9150312542915344,-0.3521483838558197,1.9913512468338013
6.038295030593872,-0.599844753742218,-0.09439016878604889,-0.06620168685913086,-0.25053705577072455,-1.325771614488825,2.4040243498169027,-0.9398433566093445,0.24792428314685822,-0.23500682413578033,0.4093993604183197,-0.3071107864379883,1.8713520765304565
6.058089971542358,-0.502034604549408,-0.16029074788093567,-0.04550635814666748,-0.28572977168141234,-1.3287948967990493,2.415578984967291,-0.9314980506896973,0.2818576991558075,-0.2299300879240036,-0.20091378688812256,-0.295464426279068,1.868523359298706
6.078376054763794,-0.3475332260131836,-0.14862394332885742,-0.03751501441001892,-0.3232294933473971,-1.3342730177827307,2.4180328601500425,-0.9218149781227112,0.31763046979904175,-0.22218960523605347,-0.3154812455177307,-0.3164655566215515,1.8096932172775269
6.098307847976685,-0.29128533601760864,-0.029147177934646606,-0.1094713807106018,-0.3568805252070207,-1.3396363211564226,2.4233501721706685,-0.9120684862136841,0.34935301542282104,-0.2146710902452469,-0.02112707681953907,-0.3788019120693207,1.566182017326355
6.11824107170105,-0.33906567096710205,-0.08840188384056091,-0.1286519169807434,-0.38636478381101036,-1.3435990105539117,2.426150888582372,-0.9024809002876282,0.37682366371154785,-0.2086436152458191,-0.5212196111679077,-0.0850624367594719,1.407867670059204
6.138280153274536,-0.3592948913574219,-0.28444454073905945,-0.09969794750213623,-0.4179684695123644,-1.3474165832763048,2.412220622379035,-0.8912085890769958,0.4059046506881714,-0.20245663821697235,-1.3976444005966187,0.22957609593868256,1.41843581199646
6.158310174942017,-0.29247593879699707,-0.27336493134498596,-0.1271158903837204,-0.4528548298460372,-1.3550016112558607,2.3845784782383235,-0.8783460855484009,0.4375343918800354,-0.1925404667854309,-1.7126432657241821,0.15697859227657318,1.4169002771377563
6.1782801151275635,-0.28428030014038086,-0.1396452784538269,-0.10397976636886597,-0.48616235713863937,-1.3631974786541072,2.357699384593095,-0.8651489615440369,0.46723634004592896,-0.18222935497760773,-1.1852962970733643,0.28261205554008484,1.337504267692566
6.198292016983032,-0.3531816601753235,-0.014667361974716187,-0.08747082948684692,-0.514114582104654,-1.36033146997874,2.347139354797215,-0.8515149354934692,0.4917640686035156,-0.18190783262252808,-0.36567723751068115,0.4294365644454956,1.185546636581421
6.218280076980591,-0.31089556217193604,-0.04749023914337158,-0.0897015929222107,-0.5374386934000398,-1.3524403192857193,2.3478622644220537,-0.8386252522468567,0.5119374394416809,-0.1860857754945755,-0.18432867527008057,0.3261224329471588,1.1980180740356445
6.238282918930054,-0.2616192698478699,-0.20060378313064575,-0.03429800271987915,-0.5642733130388247,-1.3470853282860111,2.3474964110342693,-0.8239214420318604,0.5348019003868103,-0.18745797872543335,-0.45570123195648193,0.23473943769931793,1.4155631065368652
6.2583019733428955,-0.3156201243400574,-0.21697598695755005,0.013663828372955322,-0.5946913528946961,-1.3451315834995117,2.3415659188445184,-0.8073198795318604,0.5602531433105469,-0.1853404939174652,-0.6957266330718994,0.3676765561103821,1.430745244026184
6.2782838344573975,-0.40194249153137207,-0.20647835731506348,0.01657627522945404,-0.6263900815484675,-1.3404264320427386,2.331496931405793,-0.7887466549873352,0.5862240195274353,-0.18498755991458893,-0.7770946621894836,0.6282296776771545,1.4680898189544678
6.29828405380249,-0.37634098529815674,-0.1853230595588684,-0.0639973133802414,-0.6578020883637148,-1.3330320246533998,2.3220236016740046,-0.7690751552581787,0.6113790273666382,-0.1863841414451599,-0.6895323395729065,0.6631316542625427,1.4115331172943115
6.318284034729004,-0.3214274048805237,-0.166875958442688,-0.11991700530052185,-0.6868245319596592,-1.324795632532807,2.3144665688302286,-0.749983549118042,0.6340848803520203,-0.18831050395965576,-0.6024519801139832,0.6903672218322754,1.2999403476715088
6.338395833969116,-0.2734256386756897,-0.1897391676902771,-0.1043967604637146,-0.7159342506844247,-1.31531941371482,2.3075752118227064,-0.7299922704696655,0.6563225984573364,-0.1906624138355255,-0.6548588871955872,0.6728795766830444,1.3924044370651245
6.3583338260650635,-0.21684569120407104,-0.18995040655136108,-0.09881588816642761,-0.7468290360738109,-1.3073278825619183,2.2990865322916485,-0.7085235714912415,0.6793151497840881,-0.1911163479089737,-0.6987888216972351,0.6538376808166504,1.4031914472579956
6.3784019947052,-0.2020304799079895,-0.14756762981414795,-0.15257184207439423,-0.7752649318691448,-1.299469469691873,2.2919074650646354,-0.6881060600280762,0.6999053359031677,-0.1914222538471222,-0.546515166759491,0.6795620918273926,1.2135728597640991
6.398426055908203,-0.12536334991455078,-0.14227545261383057,-0.06862571835517883,-0.8000551755535168,-1.2865083128423098,2.2882567113493226,-0.6687039136886597,0.7173945307731628,-0.19539706408977509,-0.3892224431037903,0.8777405619621277,1.10428786277771
6.418326139450073,-0.10772144794464111,-0.18398529291152954,-0.10644042491912842,-0.8207002449750253,-1.268628089391377,2.2869565789376822,-0.6508233547210693,0.7316233515739441,-0.2028704583644867,-0.33901968598365784,1.003797173500061,0.8686541318893433
6.438338041305542,-0.014842748641967773,-0.19898921251296997,-0.1311202347278595,-0.8365782603123161,-1.2520096417374489,2.2832928928550733,-0.6362497210502625,0.7423548698425293,-0.2099900096654892,-0.3310737609863281,0.922295331954956,0.600895881652832
6.458446025848389,0.09166872501373291,-0.2608073949813843,-0.09931610524654388,-0.8497773399550435,-1.2378399215191194,2.27731169085091,-0.6238951683044434,0.7511334419250488,-0.21576258540153503,-0.45087406039237976,1.004190444946289,0.4952845573425293
6.478358030319214,0.15721452236175537,-0.2883824110031128,-0.05122779309749603,-0.8605022030304262,-1.221329056849952,2.270828186865049,-0.6126434803009033,0.7581701278686523,-0.22326253354549408,-0.29823431372642517,1.1273725032806396,0.40518754720687866
6.498356103897095,0.19896537065505981,-0.2500572204589844,-0.05760493874549866,-0.8692598242851081,-1.2004220135426218,2.267026725504338,-0.6016294956207275,0.7638514637947083,-0.23360903561115265,-0.2520619332790375,1.2517247200012207,0.2920871078968048
6.5182740688323975,0.17158746719360352,-0.20689481496810913,-0.10520046949386597,-0.8744844355404615,-1.1781295007642982,2.261912827515822,-0.5925773978233337,0.7672129273414612,-0.24543118476867676,-0.3121182918548584,1.4244322776794434,0.09997472167015076
6.545673131942749,0.3327590823173523,-0.14782750606536865,-0.0673590898513794,-0.8766036215911586,-1.1139388316096832,2.260155529710546,-0.5741530060768127,0.7685704231262207,-0.28221970796585083,0.39577800035476685,1.656780481338501,0.05780993402004242
6.558109998703003,0.3327590823173523,-0.14782750606536865,-0.0673590898513794,-0.8766036215911586,-1.1139388316096832,2.260155529710546,-0.5741530060768127,0.7685704231262207,-0.28221970796585083,0.39577800035476685,1.656780481338501,0.05780993402004242
6.5871241092681885,0.3169037103652954,-0.2276133894920349,-0.021467477083206177,-0.870232291225602,-1.0434696544676463,2.270731111405064,-0.5570768713951111,0.7644786834716797,-0.32440343499183655,0.2181757688522339,1.6662157773971558,-0.04898016154766083
6.606859922409058,0.30663442611694336,-0.19741064310073853,-0.031310856342315674,-0.866774875720034,-1.0070991568843513,2.2721375590388333,-0.5471433401107788,0.7622452974319458,-0.34585583209991455,-0.37948593497276306,1.9744666814804077,-0.43750908970832825
6.626737833023071,0.22674477100372314,-0.35920250415802,-0.13197267055511475,-0.8620074516216601,-0.982415132063804,2.254135230120828,-0.5414572358131409,0.7591507434844971,-0.36126765608787537,0.0453052893280983,2.0607833862304688,-0.26575854420661926
6.646530866622925,0.27778422832489014,-0.48023754358291626,-0.206529438495636,-0.8558443951617462,-0.9352324006511871,2.2574142550208944,-0.5275704860687256,0.7551247477531433,-0.38917359709739685,0.4630756378173828,2.3072664737701416,-0.2977140545845032
6.666730165481567,0.2591570019721985,-0.27356868982315063,-0.14493128657341003,-0.8368432795222489,-0.887514963643657,2.2648666139332727,-0.5194412469863892,0.7425324320793152,-0.4228786826133728,1.036818027496338,1.9942113161087036,-0.8037508130073547
6.686377048492432,0.23034381866455078,-0.20784765481948853,0.024042725563049316,-0.8146504847632442,-0.8425149426221197,2.269241162063741,-0.5120667815208435,0.7274858355522156,-0.45667508244514465,0.49307766556739807,2.1218109130859375,-0.672989547252655
6.706379175186157,0.26228612661361694,-0.18485265970230103,0.08709540963172913,-0.8052015423388014,-0.8099438259621893,2.2599141285438256,-0.5018794536590576,0.7209703326225281,-0.4778270721435547,-0.29809999465942383,1.829456090927124,-0.42669448256492615
6.726377010345459,0.30509817600250244,-0.07760119438171387,0.08308994770050049,-0.8080721987763736,-0.7842507915380383,2.245263878169792,-0.4879746735095978,0.7229565978050232,-0.4890957474708557,-0.5004507899284363,1.8462369441986084,-0.10496589541435242
6.746157884597778,0.2850128412246704,-0.01879638433456421,0.011141836643218994,-0.8104640022794273,-0.7508603975732295,2.240064605830856,-0.47019341588020325,0.7246070504188538,-0.5038480162620544,0.15284401178359985,1.9150233268737793,-0.006638352759182453
6.7668139934539795,0.2772075831890106,-0.004124283790588379,-0.028866291046142578,-0.8025141830826451,-0.7068738798758342,2.247153385261706,-0.45131027698516846,0.7191054821014404,-0.5283998250961304,0.6306424736976624,1.977181315422058,-0.17707392573356628
6.786114931106567,0.30562087893486023,-0.24635493755340576,0.005399167537689209,-0.7907245796074002,-0.6635884012039854,2.252903452864393,-0.4332147538661957,0.7108630537986755,-0.5540745854377747,0.43499138951301575,1.9303419589996338,-0.15888285636901855
6.80619215965271,0.4007852077484131,-0.37162673473358154,0.05631762742996216,-0.7862181797155134,-0.6240451554070217,2.256548405300596,-0.41283953189849854,0.7076863646507263,-0.5733615159988403,0.063695028424263,1.7169109582901,0.14442633092403412
6.826542139053345,0.4355461597442627,-0.3275268077850342,0.017337560653686523,-0.7892218135335204,-0.5881611599712544,2.263790735055408,-0.39082255959510803,0.7098053097724915,-0.5860324501991272,-0.03503164276480675,1.399954080581665,0.47770044207572937
6.845041036605835,0.43785589933395386,-0.11877423524856567,-0.022909224033355713,-0.7938943259745345,-0.5514599511425837,2.2812037944246732,-0.3673143982887268,0.713088870048523,-0.5971468091011047,0.35356754064559937,1.0008352994918823,0.8027575016021729
6.865296125411987,0.41411012411117554,0.1142047643661499,-0.13390451669692993,-0.789843346851204,-0.5126669323485387,2.311560628150356,-0.3452928960323334,0.7102429866790771,-0.613455593585968,1.0560063123703003,0.7001824975013733,0.8030135035514832
6.885722875595093,0.3343520164489746,0.2254229187965393,-0.21543002128601074,-0.775835410041407,-0.4755743981943843,2.347838760258373,-0.32682937383651733,0.7003126740455627,-0.634621798992157,1.3024061918258667,0.5028573870658875,0.8332492113113403
6.905513048171997,0.20440807938575745,0.2550894021987915,-0.27323323488235474,-0.7607436187357858,-0.4380927170469724,2.387964811302802,-0.3072674870491028,0.689460277557373,-0.655920147895813,1.3321284055709839,0.4381093382835388,1.1150881052017212
6.927255868911743,0.11726361513137817,0.4547766447067261,-0.27997058629989624,-0.74110876323823,-0.39925180755509976,2.4336327841177745,-0.2867734432220459,0.6751062870025635,-0.6797003149986267,1.8866736888885498,0.3256036639213562,1.0817281007766724
6.945719957351685,-0.015312135219573975,0.5305173993110657,-0.23352664709091187,-0.7096467994365212,-0.36060510958606795,2.480275092545372,-0.26766201853752136,0.6515658497810364,-0.7098020911216736,2.182811975479126,0.4058344066143036,1.0201009511947632
6.965682029724121,-0.08713193237781525,0.39842724800109863,-0.09624356031417847,-0.6762594900711233,-0.32398754242118355,2.526078132323766,-0.2482866644859314,0.6258801221847534,-0.7393428683280945,2.079511880874634,0.317783921957016,1.2329890727996826
6.985452890396118,-0.04550983011722565,0.2666490077972412,0.018155813217163086,-0.6489347825310591,-0.290952446865139,2.5729856385951435,-0.2285531908273697,0.6043380498886108,-0.7632423639297485,1.6559947729110718,0.07767294347286224,1.4239728450775146
7.005272150039673,-0.06258523464202881,0.2024558186531067,0.10435903072357178,-0.6271076227467698,-0.2654069592348466,2.6175500391941915,-0.21239331364631653,0.5868051648139954,-0.7813761830329895,1.462005376815796,-0.16341538727283478,1.431700587272644
7.02553915977478,-0.11939007043838501,0.20600539445877075,0.13206613063812256,-0.6061106798238723,-0.24450362950913598,2.6607073606525122,-0.19895395636558533,0.5696752667427063,-0.7974255084991455,1.4752284288406372,-0.20743584632873535,1.4462666511535645
7.045275926589966,-0.19043800234794617,0.18553704023361206,0.16704857349395752,-0.5839883914577171,-0.22466540034829688,2.70141182256996,-0.18585887551307678,0.5513557195663452,-0.8133039474487305,1.4482107162475586,-0.11646465957164764,1.2899017333984375
7.064811944961548,-0.1700807809829712,0.0880439281463623,0.20225292444229126,-0.5611556597282441,-0.2078829567133112,2.737936767990549,-0.17473722994327545,0.532164990901947,-0.8284125328063965,1.4436391592025757,-0.17698171734809875,1.2858909368515015
7.08517599105835,-0.12523625791072845,0.0322493314743042,0.24706172943115234,-0.5386325109584367,-0.192152851677028,2.7744891578549002,-0.1639329493045807,0.5129625797271729,-0.8426122069358826,1.40878427028656,-0.15136821568012238,1.2952501773834229
7.1050331592559814,-0.11175738275051117,-0.04049569368362427,0.30386966466903687,-0.5157219754128751,-0.17859164101854927,2.8085204430164152,-0.15453889966011047,0.4931630492210388,-0.8561004400253296,1.3144621849060059,-0.19426527619361877,1.1781173944473267
7.125253915786743,-0.07669588923454285,-0.1125788688659668,0.32667964696884155,-0.4938957820196798,-0.16782284500291839,2.838040295671044,-0.1470741480588913,0.47405967116355896,-0.8681224584579468,1.3636729717254639,-0.23255379498004913,1.0314254760742188
7.145254850387573,-0.04359835386276245,-0.17106938362121582,0.32363224029541016,-0.47265207025221107,-0.16064875107237003,2.8650528319042485,-0.1424214243888855,0.45524919033050537,-0.8788995146751404,1.092854380607605,-0.2718869149684906,0.9734904766082764
7.165271997451782,-0.021486297249794006,-0.13905620574951172,0.318131685256958,-0.45538381692442964,-0.1559537481602566,2.888146565610145,-0.13949379324913025,0.43980705738067627,-0.8871929049491882,0.9629113674163818,-0.30750954151153564,0.7951318621635437
7.183640003204346,0.0012789666652679443,-0.06106364727020264,0.23431897163391113,-0.4381878733035693,-0.15374200556695578,2.907460345985075,-0.1386689841747284,0.4242992401123047,-0.8948413729667664,0.9955928921699524,-0.26731371879577637,0.6738135814666748
7.204267978668213,0.005014926195144653,-0.0073233842849731445,0.20794826745986938,-0.4209354252412285,-0.15027022870481246,2.924353685246301,-0.1366371065378189,0.4086143970489502,-0.9024215340614319,0.9495563507080078,-0.10272568464279175,0.5831966400146484
7.223190069198608,-0.0053766220808029175,0.003131568431854248,0.1546158790588379,-0.40354552168795604,-0.1456172740300201,2.938410124371026,-0.13344772160053253,0.3926815390586853,-0.9099411964416504,0.9898888468742371,0.01576395146548748,0.42865830659866333
7.243891000747681,-0.018640592694282532,0.00100630521774292,0.09480142593383789,-0.38411788621302556,-0.13987821164926678,2.9489460174760147,-0.12926270067691803,0.37474143505096436,-0.9180740714073181,1.0323271751403809,0.13885515928268433,0.26046258211135864
7.264891862869263,-0.038601115345954895,-0.06945821642875671,0.07348161935806274,-0.36617623145644895,-0.13448034054668515,2.9549277246121797,-0.12518660724163055,0.3580477833747864,-0.9252730011940002,0.7875605225563049,0.1597154438495636,0.05213441699743271
7.284701108932495,-0.02246175706386566,-0.15014639496803284,0.07993102073669434,-0.3545821277747164,-0.13114445429189422,2.9566814340327063,-0.12263394147157669,0.3471985161304474,-0.9297387599945068,0.3939596712589264,0.10704556852579117,-0.03821296989917755
7.303544998168945,-0.019768990576267242,-0.09341096878051758,0.05104243755340576,-0.3473639403939365,-0.12933111109558895,2.955273957744187,-0.12126787006855011,0.34042036533355713,-0.932420551776886,0.3768386244773865,0.1629418581724167,-0.19457611441612244
7.3250720500946045,-0.08437596261501312,-0.00988858938217163,-0.04808175563812256,-0.3377617200372629,-0.12639047944203016,2.9500526738938744,-0.11893201619386673,0.3313761055469513,-0.9359727501869202,0.5046412944793701,0.3066358268260956,-0.425337016582489
7.343871831893921,-0.09149105101823807,-0.018971800804138184,-0.0773877501487732,-0.32571055627051726,-0.12246713690957992,2.940531367474296,-0.11573843657970428,0.31998205184936523,-0.9403276443481445,0.5685666799545288,0.38123950362205505,-0.5843318104743958
7.364576101303101,-0.037440940737724304,-0.03302109241485596,-0.11709189414978027,-0.3127211030250069,-0.11808302443028967,2.9298122275695424,-0.11209506541490555,0.3076488971710205,-0.9448739886283875,0.5940787196159363,0.40934649109840393,-0.5667173862457275
7.3834710121154785,-0.03020012378692627,-0.02260550856590271,-0.14894092082977295,-0.2998286339504093,-0.11270520683499576,2.919580779507649,-0.10744928568601608,0.29535648226737976,-0.949325680732727,0.5903995633125305,0.4011263847351074,-0.5795285105705261
7.403501987457275,0.003482051193714142,-0.024673670530319214,-0.1991223692893982,-0.285955525418594,-0.1102065505953256,2.907094836231604,-0.1055174469947815,0.28207430243492126,-0.9535723328590393,0.6388818621635437,0.20070618391036987,-0.7892154455184937
7.426586866378784,-0.0016451254487037659,-0.027668297290802002,-0.2592960596084595,-0.27248283059789374,-0.112968141867324,2.8892432025830184,-0.10856898874044418,0.26912349462509155,-0.9569666981697083,0.5035426020622253,0.039655257016420364,-1.0544860363006592
7.443609952926636,-0.09177164733409882,-0.030832737684249878,-0.34194737672805786,-0.2598836703270041,-0.11702084526184824,2.8679518670978394,-0.11283333599567413,0.2569681406021118,-0.9598104357719421,0.5464386343955994,0.18469756841659546,-1.0772552490234375
7.4647300243377686,-0.2195999175310135,0.05010734498500824,-0.37123221158981323,-0.24371049490278512,-0.11339321746615957,2.8497854245699203,-0.10980670154094696,0.2413051277399063,-0.964216947555542,0.8822394609451294,0.656339168548584,-0.8553233742713928
7.484199047088623,-0.2988940179347992,0.10341255366802216,-0.309174120426178,-0.22037317708628332,-0.10009773791853342,2.834804501219088,-0.09751393646001816,0.2185937911272049,-0.9709314107894897,1.259045124053955,0.9833390712738037,-0.9178270697593689
7.5033040046691895,-0.30464038252830505,0.07863123714923859,-0.1750776171684265,-0.19141068031864214,-0.08346888365614512,2.815858518800387,-0.0818493589758873,0.19024400413036346,-0.9783189296722412,1.4005423784255981,1.0347723960876465,-1.1932061910629272
7.523169040679932,-0.28292232751846313,0.08416275680065155,-0.025938332080841064,-0.1634514008420786,-0.06776335871876397,2.791804597838079,-0.0668090209364891,0.162724569439888,-0.9844070672988892,1.1960712671279907,0.9521493911743164,-1.367584228515625
7.543846845626831,-0.295436292886734,0.09760400652885437,0.08478981256484985,-0.13980481877608048,-0.053484082068007456,2.7640511563246397,-0.05293700098991394,0.1393498331308365,-0.9888272285461426,1.0328110456466675,0.9228033423423767,-1.5168602466583252
7.564393997192383,-0.3246629238128662,0.11583128571510315,0.15800750255584717,-0.11811640700205238,-0.038883619771287195,2.733368313618886,-0.03860296308994293,0.11784195154905319,-0.9922817349433899,1.0121880769729614,0.9320188164710999,-1.6256659030914307
7.583832025527954,-0.3138501048088074,0.15390990674495697,0.1966344714164734,-0.09758782758572053,-0.02385097870002935,2.700540208648645,-0.023735247552394867,0.09743300825357437,-0.9949589967727661,0.9223814010620117,0.90297931432724,-1.6985242366790771
7.603639841079712,-0.28215405344963074,0.16560819745063782,0.15987837314605713,-0.08023606634077449,-0.010160824141727028,2.666389023234352,-0.010127960704267025,0.08015000075101852,-0.9967313408851624,0.7365774512290955,0.8081230521202087,-1.7431663274765015
7.622637987136841,-0.26809439063072205,0.1792539805173874,0.1623668670654297,-0.06688978268718997,0.004172536012590587,2.6316004968034203,0.004163193050771952,0.06683991104364395,-0.9977550506591797,0.6063745021820068,0.9045956134796143,-1.7245397567749023
7.6435370445251465,-0.2219921350479126,0.15014708042144775,0.19541329145431519,-0.055891074000485395,0.02073212523834397,2.5978769311726895,0.020698269829154015,0.055861979722976685,-0.9982239603996277,0.5320044159889221,0.9595521092414856,-1.6255946159362793
7.6638569831848145,-0.12331300973892212,0.08315042406320572,0.24752646684646606,-0.04691759806053922,0.03666119913732961,2.5663856722820695,0.036612652242183685,0.04690038785338402,-0.9982283711433411,0.4407447874546051,0.8120352625846863,-1.5111384391784668
7.6834728717803955,-0.04782135412096977,0.04274437949061394,0.2809811234474182,-0.04065625738591053,0.04927060757627802,2.5364812122816653,0.04920997843146324,0.0406450591981411,-0.9979611039161682,0.29424750804901123,0.6143680810928345,-1.4599720239639282
7.7035439014434814,-0.04070198908448219,0.03188590332865715,0.26980578899383545,-0.03846675059115017,0.058631769525357015,2.507733265744975,0.05855483561754227,0.03845726326107979,-0.9975431561470032,0.08013241738080978,0.4639962315559387,-1.400746464729309
7.723615884780884,-0.05792556703090668,0.056810684502124786,0.25115567445755005,-0.04067383149284447,0.06657474283489158,2.4807663004369447,0.06647055596113205,0.04066261649131775,-0.9969595074653625,-0.11508491635322571,0.44367846846580505,-1.3104647397994995
7.742419004440308,-0.06266093999147415,0.08440733700990677,0.22914910316467285,-0.045308030843427716,0.07380524471238105,2.455445284581427,0.07366258651018143,0.045292530208826065,-0.9962542057037354,-0.15753638744354248,0.40073809027671814,-1.2612050771713257
7.7615978717803955,-0.06412367522716522,0.06912487745285034,0.22626549005508423,-0.04997566954951785,0.08043930530772911,2.4309391223304244,0.0802522674202919,0.049954868853092194,-0.9955220222473145,-0.1289934664964676,0.384813517332077,-1.23348069190979
7.783391952514648,-0.0675007775425911,0.02747994288802147,0.2621167302131653,-0.05450215310334558,0.08648993510029611,2.4061855489016595,0.08625387400388718,0.054475173354148865,-0.9947827458381653,-0.13640441000461578,0.3347054719924927,-1.283092975616455
7.803354024887085,-0.04349900782108307,-0.060243427753448486,0.27363842725753784,-0.06067754667923898,0.09025039986155338,2.380602381641485,0.08996206521987915,0.06064032018184662,-0.9940973520278931,-0.2804039716720581,0.205125629901886,-1.317483901977539
7.823352098464966,-0.010855622589588165,-0.10586316138505936,0.2793046236038208,-0.07113326147804458,0.09138325746748142,2.3552505243957156,0.09102534502744675,0.07107328623533249,-0.9933090806007385,-0.538602888584137,0.05760931223630905,-1.2986422777175903
7.843116044998169,0.012965559959411621,-0.1564207524061203,0.24529027938842773,-0.08670530045736585,0.08952539918460069,2.3310633181847145,0.08906999975442886,0.08659670501947403,-0.9922537803649902,-0.7706643342971802,-0.02672465518116951,-1.248623013496399
7.86225700378418,0.010647602379322052,-0.1732495278120041,0.2029227614402771,-0.10690965997524786,0.08711200144202524,2.308115357654534,0.08650513738393784,0.10670612007379532,-0.9905204176902771,-1.048234462738037,0.021339545026421547,-1.22347891330719
7.883282899856567,0.009351998567581177,-0.18425248563289642,0.1620970368385315,-0.13110003883149626,0.08569512167335827,2.286066462418883,0.08485579490661621,0.13072481751441956,-0.9877806305885315,-1.1458467245101929,0.0706363394856453,-1.1555774211883545
7.898893117904663,0.05702193081378937,-0.1627928465604782,0.1113775372505188,-0.15721425766237448,0.08442283476148768,2.266694486558914,0.08328265696763992,0.15656742453575134,-0.984149694442749,-1.3165169954299927,0.05663282051682472,-1.0003595352172852
7.918282985687256,0.11586880683898926,-0.11997722089290619,0.04964989423751831,-0.18575634353964068,0.08072011197120245,2.2491397221266385,0.07924535125494003,0.18468992412090302,-0.979596734046936,-1.3803467750549316,-0.1412498950958252,-0.9712418913841248
7.938321828842163,0.1449698656797409,-0.08466280996799469,-0.01720571517944336,-0.21560191792192224,0.07359582331988601,2.232355593090788,0.07182703912258148,0.21393544971942902,-0.9742035269737244,-1.5049631595611572,-0.2009827345609665,-0.8867477774620056
7.964526891708374,0.13905388116836548,-0.028971746563911438,-0.0320887565612793,-0.24694345315145175,0.06707004130540792,2.2184510617971216,0.06498666107654572,0.24444128572940826,-0.9674839377403259,-1.4683386087417603,-0.12170016765594482,-0.6556854248046875
7.986594915390015,0.18063656985759735,0.09928420186042786,-0.10090649127960205,-0.27327577538249503,0.06372842350048713,2.210046725223614,0.061322059482336044,0.2698870897293091,-0.9609373211860657,-1.0412012338638306,-0.01973048225045204,-0.33105069398880005
8.004217863082886,0.2942676246166229,0.18002107739448547,-0.23061197996139526,-0.28941060596124324,0.0607577719222328,2.2070053345875023,0.05819517374038696,0.28538739681243896,-0.95664381980896,-0.6220194101333618,-0.25634488463401794,-0.08186989277601242
8.021272897720337,0.36873137950897217,0.060703426599502563,-0.36782270669937134,-0.3013345943161775,0.05014355192126144,2.2073791656439536,0.04786408320069313,0.29679492115974426,-0.9537409543991089,-0.6375640034675598,-0.836362898349762,0.01451251283288002
8.042513132095337,0.3293733298778534,0.04399716854095459,-0.54583740234375,-0.31603498775976885,0.031216817388480055,2.2086273299357737,0.0296659916639328,0.31080037355422974,-0.9500121474266052,-0.8606257438659668,-0.8953468799591064,0.06021963059902191
8.065717935562134,0.11044173687696457,0.07927235960960388,-0.5247176289558411,-0.33278089456521415,0.021588376180614134,2.212288141381002,0.020402399823069572,0.32667261362075806,-0.9449173212051392,-0.7435436248779297,-0.18784776329994202,0.31362998485565186
8.084226846694946,0.054620541632175446,0.08455324172973633,-0.37493979930877686,-0.34335753066885955,0.02652024477095207,2.2252800437929623,0.024969322606921196,0.3366505205631256,-0.9412985444068909,-0.34213972091674805,0.151003897190094,0.904107928276062
8.103940963745117,0.18869028985500336,0.011562377214431763,-0.15967535972595215,-0.3464467289971171,0.03496686518174056,2.2483975035889996,0.03288261219859123,0.33955779671669006,-0.9400102496147156,-0.13238266110420227,-0.21402309834957123,1.1708801984786987
8.123863935470581,0.26921433210372925,-0.024814605712890625,-0.04598736763000488,-0.348670128025095,0.031417590913104795,2.2735620805480137,0.02952227182686329,0.34164825081825256,-0.9393640756607056,-0.17496725916862488,-0.916685163974762,1.1825941801071167
8.144896030426025,0.1703793853521347,0.05997845530509949,-0.0422629714012146,-0.35122036023631875,0.018917413026950974,2.2986143977282443,0.017761513590812683,0.34404391050338745,-0.9387855529785156,-0.04002249985933304,-1.1092236042022705,1.1986924409866333
8.165820837020874,0.012034723535180092,0.1469353437423706,-0.0635254979133606,-0.34641746490863773,0.008164782558157445,2.326309233611012,0.007679669186472893,0.3395302891731262,-0.9405637979507446,0.4501056373119354,-0.9021924138069153,1.4363244771957397
8.181259870529175,-0.06045735627412796,0.16598618030548096,-0.052789926528930664,-0.3343654744569716,0.0024090550256991106,2.3590392256846435,0.0022756364196538925,0.3281698524951935,-0.9446160197257996,0.6656952500343323,-0.8070911169052124,1.6370400190353394
8.20380711555481,-0.05165328457951546,0.10730564594268799,0.013461828231811523,-0.3205657751716843,-0.0024574607995736606,2.39451715001959,-0.002332268748432398,0.31510356068611145,-0.9490544199943542,0.6779158711433411,-0.8408063650131226,1.707759141921997
8.230809926986694,-0.06654249131679535,0.03725132346153259,0.0645708441734314,-0.3087886798648678,-0.00911450448465286,2.429464352640339,-0.008683290332555771,0.30390483140945435,-0.9526628255844116,0.523884117603302,-0.927834153175354,1.5894938707351685
