timestamp,acceleration_x,acceleration_y,acceleration_z,attitude_pitch,attitude_roll,attitude_yaw,gravity_x,gravity_y,gravity_z,rotation_x,rotation_y,rotation_z
0.0,0.08407577872276306,-0.08568841218948364,0.05547201633453369,-0.8461648973103189,-0.7023628829159487,1.0756665128700122,-0.42822256684303284,0.7487437725067139,-0.5059725046157837,-2.7081258296966553,2.073087453842163,-0.7459661364555359
0.01960897445678711,0.13710078597068787,-0.06797075271606445,0.05275505781173706,-0.8767108746229922,-0.7138659375416685,1.006655653068758,-0.41883909702301025,0.7686390280723572,-0.48349541425704956,-2.484426736831665,2.0156569480895996,-0.677249014377594
0.04038095474243164,0.21079480648040771,-0.060320138931274414,0.02927851676940918,-0.9017946574491816,-0.7231965139891927,0.9452604700196218,-0.4104408323764801,0.7844412326812744,-0.4649626910686493,-1.9460312128067017,1.8069654703140259,-0.5804020762443542
0.060434818267822266,0.2602269947528839,-0.05886077880859375,-0.0018619894981384277,-0.9192434649947837,-0.7269043334479077,0.8976942708131826,-0.4030035138130188,0.7951430678367615,-0.4531398117542267,-1.3057410717010498,1.606001615524292,-0.44229358434677124
0.0809018611907959,0.26566240191459656,-0.10239934921264648,0.013852804899215698,-0.9288236528083137,-0.7225880164639926,0.8657641250957057,-0.39598771929740906,0.8009161353111267,-0.4491402506828308,-0.7213758826255798,1.36471688747406,-0.37801846861839294
0.10048294067382812,0.2673822045326233,-0.10234987735748291,-0.0037287473678588867,-0.9319073244466639,-0.7155437842479835,0.8443227657125426,-0.3911920487880707,0.8027587532997131,-0.450052410364151,-0.3964087963104248,1.0843398571014404,-0.3843846321105957
0.12077188491821289,0.23426854610443115,-0.09416186809539795,0.000417858362197876,-0.9325060997392388,-0.7105508447322303,0.8262676710137021,-0.38862642645835876,0.8031156659126282,-0.4516355097293854,-0.3903903365135193,0.880092442035675,-0.39787644147872925
0.14051389694213867,0.2027551829814911,-0.11466026306152344,0.02090209722518921,-0.9337975678813831,-0.7110619128864228,0.8058025087871896,-0.3881799876689911,0.8038844466209412,-0.4506506323814392,-0.5267833471298218,0.7120450139045715,-0.45035940408706665
0.1614089012145996,0.1965177357196808,-0.11394190788269043,0.0316314697265625,-0.9367774605290269,-0.7193797577160538,0.7803632757214384,-0.3903349041938782,0.8056532740592957,-0.4456024765968323,-0.6911419630050659,0.48941802978515625,-0.49122491478919983
0.18160390853881836,0.19008350372314453,-0.0711057186126709,0.0007499456405639648,-0.9415242450889697,-0.7347089794732998,0.7518415852255195,-0.3945513069629669,0.8084561228752136,-0.43672409653663635,-0.760897159576416,0.2960416376590729,-0.43672260642051697
0.20148897171020508,0.16644570231437683,-0.007469236850738525,-0.03986835479736328,-0.9473424004884847,-0.7530704749216233,0.7241067193867264,-0.3992795944213867,0.8118667602539062,-0.4259672164916992,-0.7383605241775513,0.11324049532413483,-0.37123313546180725
0.22166085243225098,0.1417190134525299,0.04653036594390869,-0.06824871897697449,-0.9515646869638412,-0.771073357711011,0.7010227969343277,-0.4044906198978424,0.814324676990509,-0.4162483513355255,-0.5338625907897949,-0.01008800882846117,-0.28498736023902893
0.24301886558532715,0.1450263261795044,0.06838279962539673,-0.11237525939941406,-0.9557537777313135,-0.7857360331967507,0.6840899593817794,-0.4081335663795471,0.8167489171028137,-0.40785786509513855,-0.42077308893203735,-0.10890930145978928,-0.1391904652118683
0.26431798934936523,0.1491079032421112,0.0796811580657959,-0.1631738841533661,-0.959374294355026,-0.7994337221768378,0.6731376191257389,-0.4115590751171112,0.8188325762748718,-0.400165319442749,-0.307733952999115,-0.35718587040901184,-0.041425518691539764
0.2857527732849121,0.14231345057487488,0.11808109283447266,-0.21398377418518066,-0.9625293080217147,-0.8126715791819483,0.6676031746527276,-0.4149422347545624,0.8206395506858826,-0.39290404319763184,-0.11038791388273239,-0.5040995478630066,0.03621935844421387
0.30443572998046875,0.1260232925415039,0.1255001425743103,-0.25258633494377136,-0.9628974148806668,-0.8218390182346148,0.6699069294162293,-0.4183053970336914,0.8208498358726501,-0.3888779282569885,0.16681815683841705,-0.5801931023597717,0.08488689363002777
0.32282280921936035,0.12610799074172974,0.12779998779296875,-0.2629573941230774,-0.9607442086920963,-0.8270081823588246,0.6787817081066895,-0.4216097295284271,0.8196181654930115,-0.3879062831401825,0.3133370876312256,-0.7034567594528198,0.07028414309024811
0.3449218273162842,0.11979684233665466,0.18528807163238525,-0.2831214666366577,-0.9566666009838106,-0.8370926032633853,0.6870721889516958,-0.4279785752296448,0.8172752261161804,-0.3858696222305298,0.3251223564147949,-0.9941794276237488,-0.0454656220972538
0.3639817237854004,0.0863940417766571,0.3030259609222412,-0.3553926348686218,-0.9508632788229036,-0.8528620801536207,0.6953801511734904,-0.437575101852417,0.813917338848114,-0.3821867108345032,0.44431790709495544,-1.257749319076538,-0.05199092626571655
0.38594675064086914,0.013720065355300903,0.358984112739563,-0.36680173873901367,-0.9427082715612927,-0.8658908167383051,0.7108154719252102,-0.4475579857826233,0.8091524243354797,-0.38074159622192383,0.8127752542495728,-1.2513959407806396,0.03634500131011009
0.4043159484863281,-0.0386810302734375,0.2940073013305664,-0.26056957244873047,-0.9313274972571414,-0.8657361028766163,0.7396471320814436,-0.4544830322265625,0.8024128675460815,-0.38675400614738464,1.1743069887161255,-1.0473852157592773,0.21050697565078735
0.4237480163574219,-0.05941370129585266,0.2504628300666809,-0.09665718674659729,-0.9201792297167515,-0.8551754216242712,0.7759821230362667,-0.45709630846977234,0.7957102060317993,-0.3973765969276428,1.1522314548492432,-0.8290254473686218,0.3411147892475128
0.4476799964904785,-0.09536483883857727,0.14498203992843628,0.039604008197784424,-0.9115813036411401,-0.8434691197895366,0.8095833966977009,-0.4575068950653076,0.7904732823371887,-0.4072340428829193,0.8834713697433472,-0.698316752910614,0.3489949107170105
0.46039867401123047,-0.12821504473686218,0.03764498233795166,0.08255195617675781,-0.9069474541353506,-0.8362407060385839,0.8342208269652385,-0.4572647213935852,0.7876265645027161,-0.4129810333251953,0.557532012462616,-0.539518415927887,0.3064687252044678
0.4803810119628906,-0.12262633442878723,-0.024995028972625732,0.09496176242828369,-0.9049237303706268,-0.8322619573044355,0.8513304362689237,-0.45679569244384766,0.786378026008606,-0.4158693253993988,0.36587363481521606,-0.440358966588974,0.2619570195674896
0.5004029273986816,-0.05777984857559204,-0.06828725337982178,0.11931949853897095,-0.9049286806253753,-0.8305744697843623,0.864508080530113,-0.45609042048454285,0.7863811254501343,-0.41663700342178345,0.24416357278823853,-0.4658512771129608,0.28883275389671326
0.5241777896881104,-0.00483974814414978,-0.10493463277816772,0.14393335580825806,-0.9053418484058497,-0.8299228260339971,0.8785096088703694,-0.4555789530277252,0.7866362929344177,-0.41671469807624817,0.37881869077682495,-0.5794304013252258,0.3258432149887085
0.5415868759155273,-0.009371906518936157,-0.10258865356445312,0.16100233793258667,-0.9030284477869698,-0.8261356856314999,0.8978194489762481,-0.45533454418182373,0.7852058410644531,-0.41966933012008667,0.6710365414619446,-0.5525115132331848,0.29914820194244385
0.5609428882598877,-0.005818784236907959,-0.1299925446510315,0.2020699381828308,-0.895522327996758,-0.8159157528189986,0.9234685683297834,-0.45530185103416443,0.7805356979370117,-0.4283272325992584,0.9870687127113342,-0.4433773159980774,0.23702506721019745
0.5818288326263428,0.03815761208534241,-0.19733083248138428,0.24488568305969238,-0.8844936375758066,-0.8021681717845535,0.9518975879563164,-0.4555312693119049,0.7735942006111145,-0.4405033588409424,1.0120936632156372,-0.42611175775527954,0.199490487575531
0.6022758483886719,0.07376238703727722,-0.24127471446990967,0.2745373547077179,-0.873987563480314,-0.7927789962048976,0.9756948927615706,-0.4571394622325897,0.7668941617012024,-0.4504406452178955,0.8044573664665222,-0.46506935358047485,0.10014105588197708
0.6234607696533203,0.09004262089729309,-0.249259352684021,0.2643633782863617,-0.8645370868029716,-0.7894333704571933,0.9923682146170318,-0.4607549011707306,0.7607949376106262,-0.4570513367652893,0.6505096554756165,-0.48702970147132874,0.010086111724376678
0.6423888206481934,0.10932910442352295,-0.19594711065292358,0.23564675450325012,-0.8558380249408428,-0.7898689450633279,1.0055549991799204,-0.46563708782196045,0.755120575428009,-0.46149206161499023,0.5947167277336121,-0.5605434775352478,-0.023747816681861877
0.6617088317871094,0.12482818961143494,-0.11785322427749634,0.21860206127166748,-0.8461868895768437,-0.7924210788689341,1.0178439536375472,-0.4719809293746948,0.7487583756446838,-0.4653976857662201,0.6740308403968811,-0.6258967518806458,-0.10128240287303925
0.6816740036010742,0.1366194784641266,-0.04348260164260864,0.2055683135986328,-0.8341380917225286,-0.7961486962623244,1.0303920809369866,-0.48012542724609375,0.7407177686691284,-0.4699116349220276,0.7814412117004395,-0.6930364966392517,-0.16606594622135162
0.703423023223877,0.1314816176891327,0.010406196117401123,0.17423933744430542,-0.8200591203974896,-0.8000894504087238,1.0446026039863054,-0.4894070327281952,0.7311861515045166,-0.4752342104911804,0.8645233511924744,-0.7435424327850342,-0.16421307623386383
0.7218689918518066,0.11017632484436035,0.06585001945495605,0.15102618932724,-0.8057288580333306,-0.8039046435893967,1.0598686159534754,-0.49871090054512024,0.7213356494903564,-0.480585515499115,0.9013642072677612,-0.7349314093589783,-0.11852530390024185
0.7404918670654297,0.08882200717926025,0.09125411510467529,0.14626097679138184,-0.7926017773365559,-0.8052371164734241,1.0772181145397888,-0.5061346888542175,0.7121821045875549,-0.48644042015075684,0.8257009387016296,-0.6351911425590515,0.02311566099524498
0.7614870071411133,0.051472485065460205,0.12116646766662598,0.13175278902053833,-0.7861382446637326,-0.8072476001134261,1.0910214981620343,-0.5104263424873352,0.707629919052124,-0.48859483003616333,0.29541897773742676,-0.5647952556610107,0.1598948985338211
0.7804358005523682,-0.03545105457305908,0.12281566858291626,0.14428839087486267,-0.7877357082053734,-0.8145935088703544,1.094298743007946,-0.5131786465644836,0.708757758140564,-0.4840557873249054,-0.2158154845237732,-0.36153507232666016,0.09605884552001953
0.8009200096130371,-0.10964137315750122,0.09301924705505371,0.14337199926376343,-0.7946323491023602,-0.8248291854963203,1.085945047573838,-0.5145041346549988,0.7136061191558838,-0.4754490256309509,-0.642440915107727,-0.06197704002261162,0.009899039752781391
0.8204679489135742,-0.13076961040496826,0.08473503589630127,0.13569480180740356,-0.8038216246493363,-0.8358255070810914,1.0692100554361972,-0.5148144364356995,0.7200133800506592,-0.4653456509113312,-0.8124887347221375,0.12921981513500214,-0.1023884266614914
0.8417477607727051,-0.10496336221694946,0.06481152772903442,0.10586589574813843,-0.8140946109088021,-0.8492035538102183,1.046609293185109,-0.515413224697113,0.7271043062210083,-0.4535068869590759,-1.0472805500030518,0.15184728801250458,-0.17965492606163025
0.8630609512329102,-0.06826961040496826,0.054524004459381104,0.07369416952133179,-0.8249412508877302,-0.8681916191300657,1.017558520110879,-0.5178815126419067,0.7345079183578491,-0.4385165870189667,-1.129643201828003,0.04788794368505478,-0.2915385663509369
0.8814609050750732,-0.05731821060180664,0.10515099763870239,0.019923925399780273,-0.8328023437365444,-0.8908725579207306,0.9880210139521203,-0.5231872200965881,0.7398197054862976,-0.4230153560638428,-0.848999559879303,-0.12930025160312653,-0.37066909670829773
0.9016280174255371,-0.11591744422912598,0.22525829076766968,-0.04528859257698059,-0.8345876346063803,-0.9111142207731238,0.965370229571144,-0.5305973887443542,0.7410196661949158,-0.4115290641784668,-0.4716648459434509,-0.2002473771572113,-0.44788435101509094
0.9229178428649902,-0.2551543712615967,0.39825284481048584,-0.09263405203819275,-0.8294354646616714,-0.9251308793215364,0.9502417940738614,-0.5393555164337158,0.7375502586364746,-0.40634357929229736,0.019162485376000404,-0.012798396870493889,-0.5562548041343689
0.940504789352417,-0.31656414270401,0.3749387860298157,-0.08775562047958374,-0.8188518856981688,-0.9230489239708862,0.9469168096764411,-0.5447030067443848,0.730362057685852,-0.41215282678604126,0.3210298418998718,0.46919941902160645,-0.37819474935531616
0.960986852645874,-0.1876869797706604,0.1533358097076416,0.011262476444244385,-0.8133497364477343,-0.911166047955045,0.9460177982412996,-0.5429344177246094,0.7265927195549011,-0.421052485704422,-0.1363939791917801,0.720779299736023,-0.10498721897602081
0.9811949729919434,-0.04952394962310791,-0.09614032506942749,0.09144377708435059,-0.8201180722741445,-0.9070576512819425,0.9324502616261598,-0.5373138785362244,0.73122638463974,-0.420240193605423,-1.0107698440551758,0.6524617075920105,0.0435829684138298
1.00053071975708,0.001892685890197754,-0.23152339458465576,0.08621317148208618,-0.8371055657435855,-0.9171813282413845,0.9033825978991498,-0.5316015481948853,0.7427080869674683,-0.4071665406227112,-1.484081506729126,0.47561389207839966,0.08035950362682343
1.0207467079162598,-0.014974057674407959,-0.19436532258987427,0.022327184677124023,-0.8551015051613512,-0.9349279673765172,0.8693519480588928,-0.5279031991958618,0.7546375393867493,-0.38966724276542664,-1.3169151544570923,0.3009463846683502,-0.02837081253528595
1.0405387878417969,-0.05355757474899292,-0.08884048461914062,-0.040019869804382324,-0.8649555213148505,-0.9513575036665378,0.8413912461549604,-0.5281533002853394,0.7610664367675781,-0.3766061067581177,-0.7054858207702637,0.19749979674816132,-0.23716339468955994
1.0604498386383057,-0.04921203851699829,-0.039225995540618896,-0.040272653102874756,-0.8652487302236048,-0.9591699939498224,0.8260542963869058,-0.5308966040611267,0.7612565755844116,-0.37234029173851013,-0.18699273467063904,0.19917573034763336,-0.28600940108299255
1.0807766914367676,-0.01303398609161377,-0.07013225555419922,0.01207682490348816,-0.8619483116928013,-0.9608192646016607,0.8180468547190972,-0.5335663557052612,0.7591122984886169,-0.3729013502597809,-0.10961557179689407,0.25663086771965027,-0.2820247411727905
1.1005418300628662,0.035968124866485596,-0.13530713319778442,0.031193047761917114,-0.8600353228858792,-0.9630053246490067,0.8079105466097523,-0.5355713367462158,0.7578656077384949,-0.3725626468658447,-0.3336857855319977,0.2832920253276825,-0.24155880510807037
1.120438814163208,0.09225404262542725,-0.1309950351715088,0.011231750249862671,-0.8612618552660493,-0.9681425634968914,0.7937011523846361,-0.5367120504379272,0.7586652636528015,-0.3692792057991028,-0.478477418422699,0.27637553215026855,-0.19480541348457336
1.1433038711547852,0.151666522026062,-0.09573179483413696,0.00572359561920166,-0.8639594196721001,-0.9743999205599525,0.7784788968284739,-0.5373172163963318,0.7604199051856995,-0.36476290225982666,-0.4806051254272461,0.25534144043922424,-0.13794709742069244
1.1598708629608154,0.2108507752418518,-0.10550469160079956,0.002817988395690918,-0.8672191633224157,-0.979978199789983,0.7652004630959761,-0.5372821092605591,0.7625328302383423,-0.3603772222995758,-0.4087650179862976,0.1895659863948822,-0.08023209869861603
1.180440902709961,0.2555750608444214,-0.11166179180145264,-0.009503453969955444,-0.870089920627722,-0.9854533337019463,0.7549939541727227,-0.5374201536178589,0.7643868923187256,-0.35621917247772217,-0.2891079783439636,0.0390322208404541,-0.05033942312002182
1.2005996704101562,0.2779432535171509,-0.0830337405204773,-0.02111053466796875,-0.8718390856102203,-0.990884509948164,0.7489813833742628,-0.5382277369499207,0.76551353931427,-0.35256198048591614,-0.11659366637468338,-0.12333058565855026,-0.009985513985157013
1.2204647064208984,0.270146906375885,-0.07676851749420166,-0.029642194509506226,-0.8724179147753381,-0.9944610280351436,0.7490522495064469,-0.5391135215759277,0.7658858299255371,-0.3503931760787964,0.050387248396873474,-0.2330966740846634,0.068967305123806
1.2404427528381348,0.2562153935432434,-0.060372114181518555,-0.025114893913269043,-0.8737348655706177,-0.9971024242080317,0.7526743214892074,-0.5391896367073059,0.7667319178581238,-0.34842029213905334,0.06517479568719864,-0.3045746684074402,0.1664917916059494
1.2604289054870605,0.23937219381332397,-0.046150267124176025,-0.025092899799346924,-0.8762810054655569,-0.999996475452647,0.7572636605028659,-0.5385512709617615,0.7683640122413635,-0.3458024859428406,0.0482751801609993,-0.34635815024375916,0.20328332483768463
1.280517816543579,0.23866689205169678,-0.032815396785736084,-0.06189483404159546,-0.8792685830544799,-1.004240807810691,0.7625195052218123,-0.5380749106407166,0.7702726721763611,-0.34228000044822693,0.07832474261522293,-0.513644814491272,0.23089776933193207
1.3004398345947266,0.21167439222335815,0.042848289012908936,-0.10881650447845459,-0.8820320721878525,-1.012246985924202,0.7686309766083194,-0.5389907360076904,0.7720320224761963,-0.3368317484855652,0.13299281895160675,-0.7535432577133179,0.20919528603553772
1.3204407691955566,0.1332661509513855,0.11999958753585815,-0.14977028965950012,-0.883781920186657,-1.0213279825416168,0.7771018816411603,-0.540874183177948,0.7731429934501648,-0.3312172591686249,0.21321427822113037,-0.7713162302970886,0.2236180454492569
1.3404698371887207,0.09986048936843872,0.14119023084640503,-0.10854345560073853,-0.8845582546592297,-1.0259696554837208,0.7891414492746981,-0.5418923497200012,0.7736351490020752,-0.32839202880859375,0.40170255303382874,-0.6273888349533081,0.2560131847858429
1.3594727516174316,0.17732912302017212,0.09938520193099976,-0.061902374029159546,-0.8857567731697635,-1.0263876330218358,0.8045690801633599,-0.5412359833717346,0.7743940353393555,-0.32768499851226807,0.327158123254776,-0.653494119644165,0.3382759392261505
1.3805208206176758,0.2426345944404602,0.09660160541534424,-0.05209439992904663,-0.8879405060579896,-1.0324760424357375,0.8161717750374696,-0.5417678952217102,0.775773823261261,-0.32351598143577576,0.21523034572601318,-0.86986243724823,0.17932717502117157
1.4006268978118896,0.24913811683654785,0.13607656955718994,-0.06881818175315857,-0.8855010278238648,-1.045303179949204,0.8249040319628456,-0.5475084185600281,0.7742322087287903,-0.31748855113983154,0.43171557784080505,-1.0850563049316406,-0.09960721433162689
1.4205207824707031,0.2731420397758484,0.1753867268562317,-0.0815521776676178,-0.877076407869392,-1.0602247667623481,0.8366480946133008,-0.5578557848930359,0.7688727974891663,-0.3124602437019348,0.584900438785553,-1.356660008430481,-0.24892008304595947
1.440539836883545,0.3091864585876465,0.2185247540473938,-0.08988332748413086,-0.8672051818051774,-1.08268658820087,0.8483358585604457,-0.5714088082313538,0.7625237703323364,-0.30339667201042175,0.5543665885925293,-1.805006742477417,-0.2308609038591385
1.4604907035827637,0.29840242862701416,0.26860713958740234,-0.10210642218589783,-0.857444842374121,-1.1074448499736658,0.8665061070581856,-0.5853744149208069,0.7561730146408081,-0.2924705743789673,1.0772426128387451,-1.9835857152938843,-0.07545864582061768
1.4806180000305176,0.29801440238952637,0.248141348361969,-0.022959113121032715,-0.8456847215203225,-1.1166350980063047,0.9068537303663595,-0.5959880948066711,0.7484254240989685,-0.2909599840641022,1.7752611637115479,-2.0014846324920654,0.1816341131925583
1.50050687789917,0.32519060373306274,0.21643823385238647,0.13456329703330994,-0.8322054444570843,-1.115472520453219,0.9639898459114383,-0.6046552658081055,0.7394179701805115,-0.29606229066848755,2.277621269226074,-2.1535115242004395,0.25723427534103394
1.5204877853393555,0.27918368577957153,0.08350467681884766,0.22457686066627502,-0.8153383473863952,-1.1081624179085234,1.032423783907171,-0.6135494709014893,0.7279576063156128,-0.30599769949913025,2.5587387084960938,-2.0927135944366455,0.2903973162174225
1.5404620170593262,0.24243545532226562,-0.03405541181564331,0.27672672271728516,-0.7991725825110954,-1.1003680555286093,1.0974867786037625,-0.6215553283691406,0.716779351234436,-0.31606388092041016,2.0468032360076904,-1.844101905822754,0.2678280174732208
1.5604686737060547,0.286323606967926,-0.1072167158126831,0.21356269717216492,-0.7877229025886076,-1.104802261995898,1.1412926380268524,-0.6302415132522583,0.7087486982345581,-0.31697148084640503,1.298475742340088,-1.7681043148040771,0.09683161973953247
1.580461025238037,0.39236247539520264,-0.05277848243713379,0.11964762210845947,-0.7778723572620918,-1.1190976209913315,1.1723975757185985,-0.6409586668014526,0.701765239238739,-0.3109623193740845,1.3251323699951172,-1.892048954963684,-0.007163071073591709
1.6010208129882812,0.40064728260040283,0.2120344638824463,0.09519404172897339,-0.7609256380159505,-1.124963835652145,1.2177456174571706,-0.6534091830253601,0.6895920634269714,-0.3122808337211609,2.4424192905426025,-1.756335735321045,-0.05143106356263161
1.6205577850341797,0.31014037132263184,0.2998989224433899,0.16339051723480225,-0.736630765205881,-1.1075397059928356,1.2866760006627573,-0.6626641750335693,0.6717960238456726,-0.33100828528404236,2.9670605659484863,-1.1983351707458496,0.013851253315806389
1.6404328346252441,0.2498788833618164,0.06978374719619751,0.34966805577278137,-0.7099209173425585,-1.0838460509487615,1.3512328368087987,-0.6702584624290466,0.6517738103866577,-0.354886531829834,2.427339792251587,-0.7534315586090088,-0.16177582740783691
1.6604499816894531,0.24258285760879517,-0.053995609283447266,0.3834874629974365,-0.6881723357793419,-1.0695701559896627,1.3929847713176646,-0.6773973107337952,0.635126531124115,-0.37114307284355164,1.4649035930633545,-0.5616527199745178,-0.26130062341690063
1.680534839630127,0.17307603359222412,0.04357600212097168,0.2140006422996521,-0.6671661416487188,-1.0678687753447227,1.4160326924341586,-0.6883043050765991,0.6187622547149658,-0.3786429762840271,1.2683087587356567,-0.7553569078445435,-0.774124801158905
1.7004368305206299,0.1539989709854126,0.23867321014404297,0.1559181809425354,-0.6362861783774043,-1.073060697756118,1.4350983833178228,-0.7067180871963501,0.5942124724388123,-0.3840065598487854,1.5299667119979858,-0.8720328211784363,-1.1578631401062012
1.7204499244689941,0.17878222465515137,0.2757570743560791,0.2287864089012146,-0.5991604097912911,-1.0803490481243359,1.4524340753058216,-0.7284648418426514,0.5639493465423584,-0.3889731466770172,1.406890630722046,-0.8942956924438477,-1.4359288215637207
1.740445852279663,0.18031686544418335,0.15122675895690918,0.30613988637924194,-0.5643893460167339,-1.0933931043819702,1.4609894934248302,-0.7504463791847229,0.5348999500274658,-0.38821694254875183,0.7835121750831604,-0.8753552436828613,-1.2425426244735718
1.760523796081543,0.10759949684143066,0.1626577377319336,0.3228398859500885,-0.5397445499368356,-1.1099199511658948,1.458845072539682,-0.7683355212211609,0.5139168500900269,-0.3815099000930786,0.26622074842453003,-0.6472830176353455,-1.1314197778701782
1.7804749011993408,4.2557716369628906e-05,0.21487662196159363,0.24198657274246216,-0.5150715369910349,-1.1228329310173464,1.4530043985386951,-0.7843900918960571,0.4925971031188965,-0.37693530321121216,0.4168151021003723,-0.37158071994781494,-1.3119162321090698
1.8005037307739258,-0.0007988214492797852,0.22096595168113708,0.22616422176361084,-0.48692142305165975,-1.128738112096127,1.4509906084680668,-0.7988227605819702,0.4679073393344879,-0.37808069586753845,0.5755980014801025,-0.13710801303386688,-1.2809187173843384
1.8204426765441895,0.022554457187652588,0.08445397019386292,0.2763262391090393,-0.45999386800591524,-1.132141699776617,1.4482510157690704,-0.8112202286720276,0.4439426064491272,-0.3805742561817169,0.2859230637550354,-0.09440901130437851,-1.2989838123321533
1.8405208587646484,-0.034297049045562744,-0.030458569526672363,0.2960470914840698,-0.4342695399884743,-1.138693066084829,1.4368146742576495,-0.8237962126731873,0.420747846364975,-0.3799093961715698,-0.11930154263973236,-0.042260415852069855,-1.4814577102661133
1.8603909015655518,-0.08824342489242554,-0.09359204769134521,0.2862595319747925,-0.41008960900574754,-1.1471115912806022,1.4163996499158147,-0.835996687412262,0.3986915051937103,-0.3770340383052826,-0.5856055617332458,0.003597887232899666,-1.47411048412323
1.8798298835754395,-0.10465532541275024,-0.08094829320907593,0.28683018684387207,-0.3896040533593843,-1.1564373119784859,1.3874184553284277,-0.8467759490013123,0.37982216477394104,-0.3724319636821747,-0.9504262804985046,0.24958838522434235,-1.5186171531677246
1.9004437923431396,0.030072033405303955,-0.09483897686004639,0.3292245864868164,-0.36809462673100746,-1.1594643031962206,1.3569903110044663,-0.8551910519599915,0.3598383367061615,-0.3730478286743164,-0.7015814185142517,0.5748044848442078,-1.537766456604004
1.9204418659210205,0.30704814195632935,-0.1522895097732544,0.254988431930542,-0.3447306301399178,-1.1589467925789443,1.3364426016949753,-0.8624680638313293,0.3379431664943695,-0.3767535388469696,-0.01430966705083847,0.0008221631869673729,-1.3949447870254517
1.940483808517456,0.40180689096450806,-0.2044822871685028,0.060886263847351074,-0.31648994073720715,-1.1733252529856857,1.3351244092863463,-0.8762484192848206,0.3112327456474304,-0.3678625822067261,0.9500902891159058,-1.431502103805542,-1.3131489753723145
1.9604439735412598,0.08385884761810303,-0.2246725857257843,0.19007426500320435,-0.28246021635777385,-1.2034875300749002,1.341979952448187,-0.8963130712509155,0.2787192165851593,-0.34487465023994446,0.7357905507087708,-1.4054654836654663,-1.6646736860275269
1.980193853378296,-0.3742663264274597,-0.28682127594947815,0.29548826813697815,-0.2433165510254944,-1.2220697248907302,1.3371095513123255,-0.912125825881958,0.24092280864715576,-0.3316362500190735,0.2908281087875366,-0.395508736371994,-2.095489501953125
2.000480890274048,-0.30896562337875366,-0.31261950731277466,0.15617963671684265,-0.20454575538777378,-1.2306213286679781,1.3286393652699193,-0.9230442047119141,0.20312240719795227,-0.3266965448856354,0.3451046347618103,-0.5260836482048035,-1.795975685119629
2.0204429626464844,-0.18393731117248535,-0.1933959722518921,0.010229736566543579,-0.16719632043180624,-1.247657225908334,1.3276296338036535,-0.9350203275680542,0.1664184182882309,-0.3131166994571686,0.7970569729804993,-1.0773377418518066,-1.8473228216171265
2.040444850921631,-0.4314420819282532,-0.08776789903640747,0.12287649512290955,-0.12591157032076541,-1.2654155205938311,1.33021922151458,-0.9461823105812073,0.1255791336297989,-0.29827624559402466,0.6028237342834473,-0.531440019607544,-1.9321731328964233
2.060443878173828,-0.579694926738739,-0.18732228875160217,0.37347710132598877,-0.09334153180174812,-1.267019597607885,1.325166991672047,-0.9500596523284912,0.09320604801177979,-0.297823965549469,-0.18960422277450562,0.34885266423225403,-1.2580008506774902
2.0804519653320312,-0.44852155447006226,-0.17000392079353333,0.4199633002281189,-0.07932778070614212,-1.2586375446736777,1.3130100001449754,-0.9486799240112305,0.07924460619688034,-0.3061479926109314,-0.3035088777542114,0.47553426027297974,-0.47058823704719543
2.1004538536071777,-0.39904356002807617,-0.04025770723819733,0.3382590711116791,-0.07320576604625145,-1.2521027853125208,1.312799403515357,-0.9471021294593811,0.07314039766788483,-0.3124869763851166,0.5252863168716431,0.20245853066444397,-0.2218257337808609
2.1204428672790527,-0.5679004788398743,-0.01189497858285904,0.3835603892803192,-0.06364995634450266,-1.2478903862157136,1.3270847043111145,-0.9463968873023987,0.06360698491334915,-0.31668105721473694,1.0813335180282593,0.0985393151640892,-0.2304099202156067
2.1404778957366943,-0.6950379610061646,-0.19774416089057922,0.5404171943664551,-0.05704328510725704,-1.242688555233422,1.3454137106320458,-0.9451141357421875,0.05701235309243202,-0.3217281997203827,0.6097110509872437,0.3583226799964905,0.21349447965621948
2.1605348587036133,-0.706230640411377,-0.3669931888580322,0.6807535886764526,-0.06477709303310049,-1.2311483810646382,1.3495660703676824,-0.940894603729248,0.06473179906606674,-0.33245646953582764,-0.4046851694583893,0.7224157452583313,0.6605697870254517
2.1804656982421875,-0.7363069653511047,-0.420264333486557,0.49610865116119385,-0.08575940586545998,-1.2166617048429846,1.3457045069025766,-0.9344999194145203,0.08565432578325272,-0.34550437331199646,-0.544525682926178,0.7624149322509766,1.1059876680374146
2.200500011444092,-0.7943075299263,-0.26139193773269653,0.3059053421020508,-0.10719341218434947,-1.2005822452453812,1.3476974833377067,-0.9268991351127625,0.10698824375867844,-0.3597383201122284,-0.011639061383903027,0.7941990494728088,0.9546732902526855
2.220442771911621,-0.7770923376083374,-0.10927826911211014,0.13623255491256714,-0.12158628152453368,-1.181327284826759,1.3612313819312232,-0.9182811975479126,0.12128692865371704,-0.37689417600631714,0.5458991527557373,1.0365909337997437,1.0259523391723633
2.2404417991638184,-0.8121073842048645,-0.09104582667350769,-0.05809009075164795,-0.14606906706161338,-1.1623608269508938,1.3799391631721427,-0.907970130443573,0.1455501914024353,-0.39294442534446716,-0.08767567574977875,0.4981955587863922,1.819036841392517
2.260504722595215,-0.9082995653152466,-0.22420446574687958,-0.012060672044754028,-0.19092313890507062,-1.1556559893357643,1.3825545145330604,-0.8984325528144836,0.1897653341293335,-0.3959898054599762,-1.6044098138809204,0.2966499924659729,2.501568078994751
2.2805557250976562,-1.145207166671753,-0.24210131168365479,0.1408889889717102,-0.2605261631237025,-1.1527309421451803,1.3656950408103823,-0.8830370306968689,0.2575889825820923,-0.3922928273677826,-2.3944151401519775,0.37684187293052673,3.0930588245391846
2.3004767894744873,-1.301986813545227,-0.10068830847740173,0.17071694135665894,-0.33492714593334827,-1.14052757469686,1.356510238033646,-0.858352541923523,0.32870036363601685,-0.39393776655197144,-1.3615882396697998,1.2759038209915161,3.3695170879364014
2.320443868637085,-1.3292486667633057,0.09449991583824158,0.016851693391799927,-0.3995681368947191,-1.1099159596738168,1.3701740093617247,-0.8251091837882996,0.38902053236961365,-0.40970441699028015,-0.2904580235481262,1.0053342580795288,2.9584667682647705
2.340449810028076,-1.054858922958374,0.04052266478538513,-0.17023569345474243,-0.45307632996531366,-1.0899412632653205,1.3930640144049438,-0.7971460819244385,0.43773353099823,-0.4158696234226227,-0.5630983710289001,0.13878348469734192,2.8101961612701416
2.360476016998291,-0.9986310005187988,-0.09206056594848633,0.03814917802810669,-0.5120659614766846,-1.0818415142598856,1.4008027961200327,-0.7695879936218262,0.48997926712036133,-0.4094564914703369,-1.5683722496032715,0.5483767986297607,2.850337028503418
2.3804428577423096,-0.9975503087043762,-0.03659898042678833,-0.01652953028678894,-0.5788556994770871,-1.0717789031029044,1.3958162579903957,-0.7350088357925415,0.5470663905143738,-0.4005999267101288,-1.7428032159805298,0.5532584190368652,2.7004966735839844
2.4005308151245117,-0.7338969707489014,0.21947979927062988,-0.22780898213386536,-0.6354679794301901,-1.065365978371509,1.3933499875512216,-0.7041675448417664,0.5935541987419128,-0.38966840505599976,-1.0661002397537231,0.20397217571735382,2.1319549083709717
2.420447826385498,-0.52236407995224,0.27857351303100586,-0.27478742599487305,-0.6765867331065263,-1.0591815481981852,1.4008701175693288,-0.679875910282135,0.6261352896690369,-0.3817371726036072,-0.6633764505386353,0.034323133528232574,1.8988646268844604
2.4404428005218506,-0.37842655181884766,0.09987199306488037,-0.1362026333808899,-0.7202507344127206,-1.0558476692302814,1.4020337316949067,-0.6541662216186523,0.6595731377601624,-0.3701755404472351,-1.5703465938568115,0.35123416781425476,1.8991360664367676
2.4604649543762207,-0.3403241038322449,0.11482268571853638,-0.0870758593082428,-0.7689179672811544,-1.0613056651500596,1.3809732599568618,-0.6273883581161499,0.6953580379486084,-0.3505157232284546,-1.862448811531067,0.38489750027656555,1.6151117086410522
2.480447769165039,-0.08986258506774902,0.2627532482147217,-0.09964656829833984,-0.8123779126160872,-1.0679639997262154,1.361241135615071,-0.602642297744751,0.7259246706962585,-0.33144474029541016,-1.5670363903045654,0.2999836504459381,1.3753083944320679
2.5004429817199707,0.09783333539962769,0.30706655979156494,-0.08314085006713867,-0.8433474626400435,-1.0733497062964474,1.349010549124904,-0.5843750834465027,0.7468732595443726,-0.31731081008911133,-0.7229724526405334,0.09426325559616089,1.1517539024353027
2.520444869995117,0.2850058078765869,0.1555401086807251,-0.01400691270828247,-0.8714319048774237,-1.072086003052197,1.3479811999795328,-0.5653250217437744,0.7652514576911926,-0.30789244174957275,-0.7587941288948059,0.12492316216230392,1.212164044380188
2.5404539108276367,0.38786011934280396,-0.052071452140808105,0.0037719011306762695,-0.9011407765690402,-1.0772131322076284,1.3398488883884614,-0.5466278195381165,0.7840355038642883,-0.2940855622291565,-1.1323438882827759,-0.052578385919332504,1.1922985315322876
2.5604448318481445,0.5001420378684998,-0.1846819519996643,0.04733362793922424,-0.9332830959825636,-1.0931518118408017,1.3220742591284405,-0.528584361076355,0.8035783767700195,-0.27360615134239197,-1.4981898069381714,-0.04211393743753433,0.9954856634140015
2.5798606872558594,0.584176778793335,-0.1435459852218628,0.12198758125305176,-0.957686188590894,-1.1247421759859988,1.282914543625829,-0.519113302230835,0.817862331867218,-0.24823878705501556,-1.2933522462844849,0.0018809472676366568,0.3765619695186615
2.6004467010498047,0.6668149828910828,-0.3800598978996277,-0.03477603197097778,-0.9771333360248343,-1.1426244503796532,1.2624453945762686,-0.5089017748832703,0.8288971781730652,-0.23226799070835114,-0.8597548007965088,-0.07096636295318604,0.8714187741279602
2.620537757873535,0.7309145927429199,-0.3533347249031067,0.04082705080509186,-1.000070486175916,-1.1565814774080219,1.248835861180963,-0.4945559501647949,0.8415090441703796,-0.21743226051330566,-0.7269593477249146,-0.20669347047805786,0.8709438443183899
2.6404848098754883,0.6986024379730225,-0.43812453746795654,0.07991471886634827,-1.0204136371481678,-1.1712554768067809,1.2356481449942012,-0.48182088136672974,0.8523244261741638,-0.20344987511634827,-0.7511639595031738,-0.06202373281121254,0.7118757367134094
2.660511016845703,0.6682875156402588,-0.6330143213272095,0.04805999994277954,-1.0365647923269812,-1.1807989205314504,1.2236715060842864,-0.4709455668926239,0.860660195350647,-0.19358307123184204,-0.36818796396255493,-0.011980184353888035,0.6025235652923584
2.680408000946045,0.7080300450325012,-0.697359561920166,-0.016045138239860535,-1.0468408737599728,-1.176910136965877,1.2299826823642235,-0.4619973301887512,0.8658469915390015,-0.19200840592384338,0.2736518979072571,-0.1306232064962387,0.4891447126865387
2.7004168033599854,0.7388654351234436,-0.6892096996307373,-0.04190531373023987,-1.049742055683993,-1.1620768795839609,1.2516996037655905,-0.4567914307117462,0.8672948479652405,-0.19784075021743774,0.6335174441337585,-0.3738720715045929,0.04938635602593422
2.7204208374023438,0.8033962249755859,-0.7979409098625183,0.053457438945770264,-1.0395881165037,-1.1486451848925554,1.2780159990144748,-0.4621029496192932,0.8621956706047058,-0.20755591988563538,0.9446219801902771,-0.3794894814491272,-0.2314121127128601
2.7405128479003906,0.9072098731994629,-1.008080244064331,0.2513028383255005,-1.0235611544818162,-1.1208951333431332,1.313112840772163,-0.4685502052307129,0.8539664149284363,-0.22627845406532288,1.6139894723892212,-0.02533647045493126,-0.6526579856872559
2.760443687438965,0.9362732172012329,-0.9645224213600159,0.08765283226966858,-0.9858732084585835,-1.0689838765439688,1.3730644433522814,-0.4840637445449829,0.8337545394897461,-0.2655855417251587,2.919395923614502,0.288568377494812,-1.1356157064437866
2.780447006225586,1.1807541847229004,-0.7643337249755859,0.16911929845809937,-0.9282768727495441,-1.005930226524538,1.4402549408673095,-0.5061326622962952,0.8005886077880859,-0.32076114416122437,3.1597132682800293,0.3277837634086609,-1.8683847188949585
2.8004448413848877,1.4509050846099854,-0.8657680153846741,0.12748801708221436,-0.8696429699640854,-0.9673953514477341,1.4965318641221084,-0.5311816334724426,0.7640986442565918,-0.36605918407440186,3.356330156326294,-0.5397367477416992,-1.6701444387435913
2.820443868637085,1.5105631351470947,-0.9281477332115173,0.19672304391860962,-0.7979967934291092,-0.9677186204905411,1.535089646933399,-0.5749857425689697,0.7159590125083923,-0.39597228169441223,2.543593645095825,-2.2435219287872314,-2.228562831878662
2.8405258655548096,1.2233521938323975,-0.8751090168952942,0.3378649950027466,-0.741695852017435,-1.007771298375497,1.5497537854375791,-0.62351393699646,0.6755392551422119,-0.3935442864894867,1.6586482524871826,-2.909435272216797,-1.9826825857162476
2.8604049682617188,0.7268635034561157,-0.7175377607345581,0.18972471356391907,-0.6994036323260026,-1.0746397096724212,1.549981991465988,-0.6729541420936584,0.6437614560127258,-0.3642852008342743,0.3189966082572937,-3.8668553829193115,-1.6747485399246216
2.8804516792297363,-0.004340052604675293,-0.25841063261032104,0.03382807970046997,-0.6616036435094823,-1.1708437282739281,1.524745297308435,-0.7267390489578247,0.6143829226493835,-0.3072197437286377,-0.06446962058544159,-3.696035623550415,-2.938429832458496
2.9004878997802734,-0.9932667016983032,0.05944138765335083,0.08593738079071045,-0.5935072995656576,-1.2418996588678495,1.5005175087987843,-0.7845500111579895,0.5592719316482544,-0.26776108145713806,0.5010636448860168,-2.5093305110931396,-3.9270198345184326
2.920444965362549,-1.2014050483703613,0.19985970854759216,-0.10432097315788269,-0.5134442168667481,-1.3098244525896006,1.4864749417025904,-0.8415635228157043,0.49118027091026306,-0.22475002706050873,0.6983428597450256,-3.437692165374756,-4.063986778259277
2.940445899963379,-1.8924264907836914,0.15042078495025635,-0.1469767689704895,-0.43406589044272414,-1.378629660867733,1.4791310015431365,-0.8905630111694336,0.42056310176849365,-0.1732746958732605,0.28885674476623535,-2.9517579078674316,-3.6143431663513184
2.960444927215576,-2.2749619483947754,0.22742801904678345,0.007706746459007263,-0.37593884349452805,-1.4348931603968986,1.4594266429609286,-0.9215867519378662,0.36714595556259155,-0.12602338194847107,-0.9763433933258057,-1.848442792892456,-2.4443726539611816
2.980475902557373,-1.4371918439865112,0.2961738705635071,-0.17229612171649933,-0.3488112210933755,-1.4689404900967267,1.4289691620798113,-0.9349091053009033,0.3417808711528778,-0.09555663168430328,-1.546789288520813,-0.4708978831768036,-0.5343292951583862
3.0004518032073975,-0.8703343272209167,0.4391461908817291,-0.1186022162437439,-0.35497447157013784,-1.4772953823650194,1.3959463439879751,-0.9335597157478333,0.3475664258003235,-0.08754397928714752,-1.393664836883545,0.7356956005096436,0.7952020764350891
3.020443916320801,-0.34159618616104126,0.3116329312324524,-0.15642940998077393,-0.38447615341992586,-1.4628820908115912,1.3779133783666255,-0.9216026663780212,0.3750735819339752,-0.09984191507101059,-0.47985711693763733,1.2054435014724731,1.8487107753753662
3.04044771194458,-0.22252041101455688,0.05661177635192871,-0.19904381036758423,-0.4225231377797217,-1.4333536497920845,1.3874565341784308,-0.9034561514854431,0.4100629985332489,-0.12496127933263779,0.897453784942627,1.435330867767334,1.9587810039520264
3.0605218410491943,-0.4432491660118103,-0.25466442108154297,-0.29372507333755493,-0.4562588251509452,-1.3892456546510707,1.4215443587859662,-0.8829531669616699,0.4405927062034607,-0.16208548843860626,1.3182220458984375,1.4115537405014038,1.801730751991272
3.0796778202056885,-0.42578256130218506,-0.48532959818840027,-0.0643535852432251,-0.4867450410517252,-1.3471391944848599,1.4490312732918844,-0.8618455529212952,0.4677514433860779,-0.1960376352071762,0.309429794549942,1.6885335445404053,1.803052544593811
3.1004438400268555,-0.39305490255355835,-0.594511866569519,0.10740414261817932,-0.5265424810716083,-1.306028847678679,1.4543639819633483,-0.8344232439994812,0.5025471448898315,-0.2262396216392517,-0.7077158093452454,2.1362853050231934,2.2004172801971436
3.1204447746276855,-0.3131365180015564,-0.39279139041900635,0.0936824381351471,-0.5746402833200002,-1.2645304688556986,1.4509884367303665,-0.800327718257904,0.5435329079627991,-0.2530757188796997,-0.8062081933021545,2.1237905025482178,2.2489962577819824
3.1404428482055664,-0.26057934761047363,-0.2177981734275818,-0.011778295040130615,-0.6185927058033783,-1.2226472129013726,1.4535417467541918,-0.7658183574676514,0.5798892378807068,-0.2779403030872345,-0.3755913972854614,1.9144233465194702,1.991392731666565
3.1604487895965576,-0.26033127307891846,-0.23980671167373657,-0.09025973081588745,-0.6531371021885584,-1.1799259232270987,1.4684729369877312,-0.734282374382019,0.6076807975769043,-0.30257776379585266,0.2357153296470642,1.4985411167144775,1.7346121072769165
3.180464744567871,-0.23258119821548462,-0.301207959651947,6.118416786193848e-05,-0.6832891714595474,-1.1388190306889092,1.4884916108577078,-0.7042627334594727,0.6313471794128418,-0.32467666268348694,-0.16964006423950195,1.4623949527740479,1.6077617406845093
3.200532913208008,-0.23841619491577148,-0.4475274682044983,0.10760590434074402,-0.7150527508625757,-1.0996025724546534,1.4974695387713792,-0.6727775931358337,0.6556572318077087,-0.34275904297828674,-0.6660277843475342,1.8505284786224365,1.643383264541626
3.220463752746582,-0.19667190313339233,-0.39488691091537476,0.08368399739265442,-0.7535600257534432,-1.0612747389713189,1.4981277661129058,-0.6366257667541504,0.6842392683029175,-0.35570240020751953,-0.977898895740509,1.9228107929229736,1.7355536222457886
3.2404139041900635,-0.143504798412323,-0.27069270610809326,-0.012855887413024902,-0.7902689301948823,-1.021434234345334,1.5012104220505675,-0.6001170873641968,0.7105425596237183,-0.3674083948135376,-0.631801426410675,1.8309181928634644,1.5208474397659302
3.2604458332061768,-0.08758330345153809,-0.17136788368225098,-0.02456355094909668,-0.8172616154632505,-0.97922904469448,1.5113019345411858,-0.5679494738578796,0.7292749285697937,-0.38156431913375854,-0.31348854303359985,1.6799100637435913,1.1448240280151367
3.280472755432129,-0.08277678489685059,-0.19583594799041748,-0.025110632181167603,-0.8363808564787134,-0.9421595423375398,1.518829884520867,-0.5420400500297546,0.7422226071357727,-0.3940787613391876,-0.37790626287460327,1.533096194267273,0.7738100290298462
3.3004469871520996,-0.0891605019569397,-0.2775813937187195,-0.013916969299316406,-0.8543262341348001,-0.9110655332809641,1.5188838741055342,-0.5189175009727478,0.754128634929657,-0.4025106132030487,-0.7748493552207947,1.623895287513733,0.7048856019973755
3.3204479217529297,-0.08462226390838623,-0.2933593988418579,0.03205078840255737,-0.8780972372481053,-0.8838319803297738,1.5092947303820041,-0.49376213550567627,0.7695251107215881,-0.4050061106681824,-1.1573809385299683,1.8233801126480103,0.8125536441802979
3.3404479026794434,-0.10974988341331482,-0.09782612323760986,-0.054886311292648315,-0.902434313619269,-0.8513021930564959,1.5061761571951604,-0.4661015570163727,0.7848377823829651,-0.4083857238292694,-0.18699805438518524,1.5968397855758667,0.9288706183433533
3.360485792160034,-0.17024993896484375,0.42132288217544556,-0.3414791524410248,-0.8970614266355148,-0.7905288483004135,1.5511651691394022,-0.44342803955078125,0.7814968824386597,-0.43890103697776794,2.686551570892334,1.116867184638977,0.5280581712722778
3.380443811416626,-0.22230759263038635,0.7009902000427246,-0.1481773853302002,-0.847598616391346,-0.6995971677868679,1.6343781639900452,-0.42612993717193604,0.7496933937072754,-0.5063331127166748,4.111926078796387,1.6970739364624023,0.09022098779678345
3.400449752807617,-0.09368231892585754,0.21912944316864014,0.04910653829574585,-0.7868272526733812,-0.6139385991020905,1.6909890632893825,-0.40677544474601746,0.7081165909767151,-0.5771521329879761,2.7498178482055664,2.5815749168395996,-0.7212405204772949
3.4204518795013428,0.012256324291229248,-0.4275962710380554,-0.009359121322631836,-0.7501265863982369,-0.5542455092018349,1.7017156330162153,-0.38504382967948914,0.6817314028739929,-0.6220800280570984,0.7830173373222351,2.4810636043548584,-0.5419465899467468
3.440445899963379,0.22588670253753662,-0.541458249092102,-0.09286177158355713,-0.7456737634550099,-0.5144447643296015,1.696174306868763,-0.361476331949234,0.6784669160842896,-0.6395448446273804,-0.4324107766151428,1.9388172626495361,-0.02550901472568512
3.460448741912842,0.32711371779441833,-0.298641562461853,0.07154840230941772,-0.7595077752434151,-0.4828402344179247,1.6878907982587243,-0.33669623732566833,0.6885645985603333,-0.6422727704048157,-0.8453028202056885,1.7240235805511475,-0.043957144021987915
3.4804439544677734,0.34491342306137085,-0.08812606334686279,0.13220679759979248,-0.7643724163398454,-0.46607906098412666,1.6725257498616197,-0.32437509298324585,0.6920841336250305,-0.6448257565498352,-0.022880423814058304,0.9674362540245056,-0.6865921020507812
3.5004477500915527,0.26766955852508545,-0.030496418476104736,0.032105326652526855,-0.7514343835991847,-0.46103215319388574,1.6582727910341692,-0.32507315278053284,0.6826875805854797,-0.6544197201728821,0.5702252388000488,0.675451397895813,-0.7384964227676392
3.5204548835754395,0.19080933928489685,-0.07192784547805786,-0.07007402181625366,-0.7375590114756824,-0.45741603230439615,1.6425516924985701,-0.3268567621707916,0.6724833250045776,-0.6640263199806213,-0.03030168078839779,0.7753984928131104,-0.9416186213493347
3.540444850921631,0.18779432773590088,-0.2397993803024292,-0.11745625734329224,-0.7375100072286604,-0.4632253040854799,1.6128086318900792,-0.33072343468666077,0.6724470257759094,-0.6621457934379578,-0.8140754103660583,0.6200706362724304,-0.9328024387359619
3.5604476928710938,0.2647607922554016,-0.31014060974121094,-0.09018087387084961,-0.745328294764137,-0.473433533787311,1.586141194403665,-0.3350580632686615,0.6782131195068359,-0.6540360450744629,-0.7883875966072083,0.12893272936344147,-0.4175609350204468
3.5795140266418457,0.2854619026184082,0.11552822589874268,-0.00945812463760376,-0.7544483098251018,-0.4865935202765627,1.5703657448368435,-0.3407292664051056,0.6848868131637573,-0.6440758109092712,-0.5442438721656799,-0.2689392566680908,-0.3346034586429596
3.600492000579834,0.07513529062271118,0.4002065658569336,-0.03213244676589966,-0.7538060004726006,-0.5031829318542929,1.5513149780947628,-0.3515787720680237,0.6844186186790466,-0.6387201547622681,0.004169408231973648,0.03511000797152519,-0.907089352607727
3.6204729080200195,-0.15734151005744934,0.38250184059143066,-0.01517343521118164,-0.7373216756117634,-0.5080599989274297,1.5333835835545224,-0.36012980341911316,0.6723076105117798,-0.6467680335044861,0.6820772886276245,0.6800347566604614,-0.9053131937980652
3.6404457092285156,-0.031339019536972046,0.2556498646736145,0.0874485969543457,-0.7198030857257134,-0.497634304433146,1.5239646392253217,-0.35893505811691284,0.6592366099357605,-0.6607365608215332,0.38078129291534424,0.8743629455566406,-0.5990868210792542
3.6604537963867188,0.12509435415267944,0.1287214159965515,0.17334473133087158,-0.7140015672528771,-0.4900621073451602,1.5120993349469614,-0.35571572184562683,0.654863178730011,-0.6667987108230591,-0.2800510823726654,0.6757895350456238,-0.44346094131469727
3.6804447174072266,0.13429006934165955,-0.0018239617347717285,0.26132088899612427,-0.7220334159063133,-0.4879349988417127,1.4965124943385373,-0.35181936621665955,0.660912036895752,-0.662886381149292,-0.9041035771369934,0.5687086582183838,-0.22449395060539246
3.7004787921905518,0.15183377265930176,-0.04986000061035156,0.27170950174331665,-0.7345480675837397,-0.48767107025790796,1.4815395894776664,-0.34774139523506165,0.6702518463134766,-0.6556206345558167,-0.545608639717102,0.47653961181640625,-0.19588282704353333
3.720463752746582,0.17961016297340393,-0.06446307897567749,0.2490198016166687,-0.7311407866336213,-0.4813323960126893,1.4772858627394374,-0.3446339964866638,0.667719304561615,-0.6598321795463562,0.8561883568763733,0.4086586534976959,-0.23336653411388397
3.7404537200927734,0.23319202661514282,-0.008329272270202637,0.17788463830947876,-0.693502214446367,-0.4650860200737018,1.4973651592483859,-0.3449016213417053,0.6392343640327454,-0.6873298287391663,3.136077880859375,-0.06187965348362923,-0.047346264123916626
3.7604470252990723,0.20073992013931274,0.2152252197265625,0.21456372737884521,-0.6299774776334139,-0.43742899363036397,1.5401066750547225,-0.34229573607444763,0.5891265869140625,-0.7319587469100952,3.8545353412628174,0.30438995361328125,0.2593162953853607
3.7804439067840576,0.038411885499954224,-0.06634867191314697,0.3317071199417114,-0.567716189695778,-0.40328128624215204,1.5845162850761505,-0.3308771550655365,0.5377079248428345,-0.7754937410354614,2.997931957244873,0.5305973887443542,0.6088080406188965
3.8004636764526367,0.1891903281211853,-0.1608140468597412,0.38731062412261963,-0.5385541601284373,-0.3769393816428097,1.619095465351091,-0.3159756362438202,0.5128953456878662,-0.7981840372085571,0.8438158631324768,0.18101900815963745,0.8986059427261353
3.8204448223114014,0.3433096706867218,-0.13406693935394287,0.3023890256881714,-0.5414023129052695,-0.3734505621247775,1.6360177668982854,-0.3126547932624817,0.5153382420539856,-0.7979182004928589,-0.3860985338687897,-0.6984285116195679,0.4481678605079651
3.8404769897460938,0.30110764503479004,0.03148549795150757,0.16867291927337646,-0.5490647601936657,-0.3903809281890901,1.6362364866892416,-0.32460615038871765,0.5218896865844727,-0.7888358235359192,-0.08286695182323456,-0.7826150059700012,-0.017551284283399582
3.860407829284668,0.09184122085571289,-0.0791175365447998,0.030596435070037842,-0.5456245181282052,-0.3968728636622394,1.6406710080048024,-0.3304123878479004,0.5189520120620728,-0.7883630990982056,0.4115593135356903,-0.12948213517665863,0.2884826362133026
3.8798437118530273,0.07507213950157166,-0.13035988807678223,0.03773176670074463,-0.5422938121076827,-0.3927303745547569,1.6497227715202847,-0.32780349254608154,0.5161020755767822,-0.7913175821304321,0.14768077433109283,-0.016943251714110374,0.15459834039211273
3.9004459381103516,0.18559029698371887,-0.15551519393920898,-0.00644838809967041,-0.5417341332639284,-0.3974900858234709,1.6462600697946725,-0.33167797327041626,0.515622615814209,-0.7900146245956421,-0.2092825472354889,-0.31599751114845276,-0.40914905071258545
3.920419692993164,0.17117154598236084,-0.12188941240310669,-0.1136847734451294,-0.5449303660894368,-0.4123016655219971,1.632641118637582,-0.3426803648471832,0.5183585286140442,-0.7835015058517456,-0.5329542756080627,-0.3963656723499298,-0.4932910203933716
3.9404468536376953,0.03152844309806824,-0.03449571132659912,-0.14164113998413086,-0.5510362645799469,-0.4254739202221115,1.615504010050426,-0.3516578674316406,0.5235704183578491,-0.7760224342346191,-0.5876107811927795,0.0314612090587616,-0.6236492395401001
3.9604568481445312,-0.054551273584365845,-0.01702982187271118,-0.10367518663406372,-0.5566941072829774,-0.43085107064636946,1.594468497187817,-0.35458266735076904,0.5283823609352112,-0.7714163064956665,-0.7140599489212036,0.4890018701553345,-0.741020143032074
3.9804530143737793,-0.008911550045013428,-0.037352800369262695,-0.07293999195098877,-0.5662822184006747,-0.4324391213175672,1.5705894499085924,-0.3536677956581116,0.5364983081817627,-0.7662171125411987,-1.027611255645752,0.5764657258987427,-0.6926476359367371
4.000457763671875,0.03373265266418457,-0.013480186462402344,-0.1146935224533081,-0.5814443795086379,-0.436541635194109,1.5432322697899294,-0.35332801938056946,0.5492315292358398,-0.7573004364967346,-1.2884762287139893,0.49608951807022095,-0.783267617225647
4.020447731018066,-0.025631338357925415,-0.01530379056930542,-0.15508794784545898,-0.5987348055770316,-0.44450834340809353,1.5106971070028892,-0.3552128076553345,0.5635977983474731,-0.7457756400108337,-1.4430803060531616,0.5473030209541321,-0.9223887324333191
4.0404839515686035,-0.097890704870224,-0.04010581970214844,-0.1040162444114685,-0.6178203249711568,-0.45410466637405206,1.4728216606725477,-0.3575688898563385,0.5792598128318787,-0.7325315475463867,-1.6416748762130737,0.6425206661224365,-1.0624034404754639
4.060439825057983,-0.07190746068954468,-0.04324394464492798,-0.053754448890686035,-0.6387874985515178,-0.4671989416684811,1.4291027454033967,-0.3615795075893402,0.596222460269928,-0.7167838215827942,-1.8068822622299194,0.6043873429298401,-1.1655937433242798
4.080102920532227,-0.007431149482727051,-0.015084147453308105,-0.09952127933502197,-0.6597938724306333,-0.4859423794293953,1.3818710489006627,-0.36901846528053284,0.6129540205001831,-0.6986507177352905,-1.7512437105178833,0.35678496956825256,-1.2318141460418701
4.100529670715332,-0.02990853786468506,0.06464982032775879,-0.15867382287979126,-0.6760330852747194,-0.5110152140565052,1.332793328476711,-0.38149896264076233,0.6257035136222839,-0.6804069876670837,-1.4998811483383179,0.24031348526477814,-1.3808817863464355
4.120447874069214,-0.11086586117744446,0.1462099552154541,-0.18998491764068604,-0.6854951315721113,-0.5359202216686172,1.2842013122709948,-0.39528346061706543,0.6330564022064209,-0.6655753254890442,-1.2463361024856567,0.36205023527145386,-1.3886704444885254
4.140474796295166,-0.13432163000106812,0.16431546211242676,-0.1393335461616516,-0.6934736295394789,-0.5543836825247893,1.2392382586931552,-0.4048324525356293,0.6392123699188232,-0.6538488268852234,-1.2706241607666016,0.660619854927063,-1.1221034526824951
4.160444736480713,-0.10597607493400574,0.09906554222106934,-0.03338140249252319,-0.7077096322690153,-0.5649350573410098,1.1992595387975404,-0.40679553151130676,0.6500951647758484,-0.641789436340332,-1.6274343729019165,0.817990779876709,-0.7454293966293335
4.180445671081543,-0.10629910230636597,0.03790283203125,0.02204585075378418,-0.7302258555900606,-0.5755460834803501,1.1590874814386816,-0.4055112302303314,0.6670379042625427,-0.6249969005584717,-1.8378510475158691,0.7686993479728699,-0.6086235046386719
4.200486898422241,-0.14597594738006592,0.0067269206047058105,0.03989362716674805,-0.7540589375846202,-0.5875035035997973,1.1193418215882462,-0.40402716398239136,0.6846030354499817,-0.606696605682373,-1.7285488843917847,0.714556872844696,-0.56548011302948
4.220496892929077,-0.17036351561546326,0.006064355373382568,0.04548442363739014,-0.7719496787987501,-0.6002961340378692,1.0820148724517318,-0.40477079153060913,0.6975336074829102,-0.5912760496139526,-1.2295145988464355,0.5766584277153015,-0.6875891089439392
4.240444898605347,-0.16676926612854004,0.01467365026473999,0.03846287727355957,-0.7779464044571868,-0.6120739581980486,1.0506530956425661,-0.40929579734802246,0.7018179893493652,-0.5830338001251221,-0.5680782198905945,0.46726781129837036,-0.811403751373291
4.259684801101685,-0.15421777963638306,0.0016354918479919434,0.09355854988098145,-0.7743642010691949,-0.6207086121971775,1.0248786926597733,-0.41577431559562683,0.6992617249488831,-0.581519365310669,-0.3032878637313843,0.48693588376045227,-0.8882245421409607
4.280488967895508,-0.0867319405078888,-0.08973866701126099,0.15833038091659546,-0.7709184378972219,-0.6291569333864535,0.9984664195200936,-0.4220876693725586,0.696794331073761,-0.5799307227134705,-0.5849497318267822,0.5171025395393372,-0.8299030661582947
4.300503730773926,0.003510028123855591,-0.1943163275718689,0.2176527976989746,-0.7756862600769416,-0.6397859229532066,0.9681729715238645,-0.426239550113678,0.7002061605453491,-0.5727400779724121,-1.1423274278640747,0.5392979383468628,-0.6314794421195984
4.3204498291015625,0.0823354721069336,-0.2545105218887329,0.23110055923461914,-0.7925372220318371,-0.6561013249121047,0.9304717508743149,-0.4282675087451935,0.7121368050575256,-0.5562806129455566,-1.809565544128418,0.473434180021286,-0.5042141675949097
4.340446949005127,0.1285933256149292,-0.29776084423065186,0.2018449306488037,-0.8190762433628185,-0.6830009814892944,0.8825595426882102,-0.4309920370578766,0.7305153012275696,-0.5297105312347412,-2.2910797595977783,0.2871190011501312,-0.46056535840034485
4.360443830490112,0.13215816020965576,-0.2881545424461365,0.125423401594162,-0.8485810180458386,-0.7201517651238305,0.8281298486573497,-0.43596065044403076,0.7503431439399719,-0.496913880109787,-2.224372625350952,0.0262644961476326,-0.45726561546325684
4.3804638385772705,0.07442030310630798,-0.20300304889678955,0.05016613006591797,-0.8698093847924588,-0.7586711702597495,0.7778524511267554,-0.44371354579925537,0.7642059922218323,-0.46808910369873047,-1.5060423612594604,-0.025074681267142296,-0.5328112244606018
4.400455951690674,0.013001948595046997,-0.08044326305389404,0.0007300376892089844,-0.8776512349949936,-0.7867871320842419,0.7416920401435694,-0.4524398446083069,0.7692402601242065,-0.4511847198009491,-0.6938767433166504,0.005395964719355106,-0.590225100517273
4.420445919036865,-0.01559913158416748,-0.05897963047027588,0.025421082973480225,-0.8751560438924694,-0.8018254124727429,0.7202261042856074,-0.4605514109134674,0.7676435112953186,-0.4456634521484375,-0.23952054977416992,0.1188729926943779,-0.5259807705879211
4.440443992614746,0.011221557855606079,-0.10765975713729858,0.03440093994140625,-0.872358416967911,-0.812935410911256,0.7034043028033735,-0.46703213453292847,0.7658475637435913,-0.44199371337890625,-0.3724620044231415,0.05050325393676758,-0.42458435893058777
4.460479736328125,0.017418354749679565,-0.173662006855011,-0.005385994911193848,-0.873368103247746,-0.8277041448148759,0.6845956541243694,-0.47293898463249207,0.7664964199066162,-0.43452492356300354,-0.576575517654419,-0.08213584125041962,-0.33480748534202576
4.480506896972656,0.0020345747470855713,-0.1336979866027832,-0.01877772808074951,-0.8774626523523252,-0.8465496264714083,0.6629055094747055,-0.47868865728378296,0.7691197395324707,-0.4234525263309479,-0.7278545498847961,-0.13273438811302185,-0.3137943744659424
4.50044584274292,-0.012996762990951538,-0.07253944873809814,-0.03422793745994568,-0.8819611737106717,-0.8684545329435354,0.6385163634017373,-0.48520269989967346,0.7719869613647461,-0.4106267988681793,-0.7238650321960449,-0.177740216255188,-0.36266568303108215
4.520445823669434,-0.01358705759048462,-0.033699989318847656,-0.061873167753219604,-0.8849822057956199,-0.8911818289046922,0.6142308419883916,-0.4925927519798279,0.7739037275314331,-0.3980267643928528,-0.638461172580719,-0.2076435089111328,-0.38133761286735535
4.540465831756592,0.0014241039752960205,-0.016465365886688232,-0.08681440353393555,-0.8870694526670635,-0.9130084371540335,0.5918923747609858,-0.4998829960823059,0.7752239108085632,-0.38619282841682434,-0.6387180089950562,-0.24886411428451538,-0.33348461985588074
4.560445785522461,0.03539407253265381,-0.008504033088684082,-0.08757331967353821,-0.890512636239064,-0.9373557018068531,0.5678977913679694,-0.5069822072982788,0.7773942947387695,-0.3723265528678894,-0.7851525545120239,-0.3269178867340088,-0.2883947789669037
4.580500841140747,0.057043492794036865,0.029266715049743652,-0.13973456621170044,-0.8972520786048181,-0.9661211555014223,0.540277878583547,-0.5131592154502869,0.7816157937049866,-0.35460445284843445,-1.0141782760620117,-0.3809719681739807,-0.17034243047237396
4.6004908084869385,0.06235229969024658,0.01889282464981079,-0.20354312658309937,-0.9071689500382559,-0.9968981722847629,0.5093883846092199,-0.5172931551933289,0.7877630591392517,-0.33442071080207825,-1.2223925590515137,-0.2442980259656906,-0.10417484492063522
4.620446681976318,0.12480080127716064,0.022379934787750244,-0.1748097836971283,-0.9184589054271824,-1.0344958867265162,0.46584472402593563,-0.5218192338943481,0.7946670651435852,-0.3101755380630493,-1.5847820043563843,-0.08281289786100388,-0.34705600142478943
4.640446901321411,0.19795870780944824,-0.08111178874969482,-0.16970455646514893,-0.9280824839756151,-1.0804238022102528,0.40889822327836,-0.528738796710968,0.8004721403121948,-0.28227606415748596,-1.8878672122955322,0.027951428666710854,-0.4960235357284546
4.660499811172485,0.23197805881500244,-0.21551764011383057,-0.19047755002975464,-0.9357959131838035,-1.1317720277813512,0.34320549662618594,-0.5369250178337097,0.8050714731216431,-0.25213414430618286,-1.9740856885910034,0.10138951241970062,-0.5526784062385559
4.680455684661865,0.263286828994751,-0.32545340061187744,-0.1599811613559723,-0.9423267732033607,-1.1851095529854723,0.27281810270296314,-0.5447199940681458,0.8089281916618347,-0.22116819024085999,-2.088287115097046,0.2650044560432434,-0.5467263460159302
4.700536727905273,0.2882773280143738,-0.3683127164840698,-0.14948323369026184,-0.9444016049663654,-1.2330533491714217,0.20478314030712416,-0.5531089305877686,0.8101462721824646,-0.19425155222415924,-1.6514785289764404,0.4634532034397125,-0.6589155197143555
4.720524787902832,0.3175290822982788,-0.32694411277770996,-0.13340407609939575,-0.939314137906876,-1.2642975274601067,0.15312260342012515,-0.5628294348716736,0.8071534037590027,-0.17811939120292664,-1.0592108964920044,0.5781150460243225,-0.829750120639801
4.740501880645752,0.2955870032310486,-0.33619970083236694,-0.12020689249038696,-0.9244365777277159,-1.2780134546620394,0.12125873999323429,-0.5766538977622986,0.7982815504074097,-0.17383000254631042,-0.38504788279533386,0.6201987266540527,-1.1312750577926636
4.760440826416016,0.24798685312271118,-0.34629034996032715,-0.09836022555828094,-0.9033791507633824,-1.2834588724319702,0.09831826414954785,-0.5935831069946289,0.7854229211807251,-0.17541296780109406,-0.44234099984169006,0.6587652564048767,-1.287119746208191
4.780629873275757,0.1763858199119568,-0.33038222789764404,-0.06869719922542572,-0.8812649194010247,-1.2963092493239918,0.0648407050782213,-0.612359881401062,0.7715442180633545,-0.17243744432926178,-1.0159633159637451,0.6930347084999084,-1.4041908979415894
4.80054783821106,0.1308799386024475,-0.274466872215271,0.013118505477905273,-0.8607367297798117,-1.3188086523405802,0.01380842411551377,-0.631291925907135,0.7583230137825012,-0.16253259778022766,-1.4784702062606812,0.9682297110557556,-1.43143892288208
4.820573806762695,0.09157079458236694,-0.16861683130264282,-0.08621436357498169,-0.8384133961195086,-1.3331056683623863,-0.03271839719847278,-0.6498441696166992,0.7435832023620605,-0.1574380248785019,-0.8365584015846252,1.034050464630127,-1.5096272230148315
4.840549945831299,0.08640819787979126,-0.019289493560791016,-0.1395275592803955,-0.8105151046231828,-1.32818148316419,-0.053106001245390125,-0.6689430475234985,0.7246422171592712,-0.1655566543340683,0.040178850293159485,0.9931106567382812,-1.5112388134002686
4.865141868591309,0.09631437063217163,-0.13778430223464966,0.0648263692855835,-0.7525461936540881,-1.30080617980749,-0.07600557633004565,-0.7035074234008789,0.6834995746612549,-0.1946939378976822,-0.4269413650035858,1.183154821395874,-1.3861498832702637
4.880455017089844,0.09631437063217163,-0.13778430223464966,0.0648263692855835,-0.7525461936540881,-1.30080617980749,-0.07600557633004565,-0.7035074234008789,0.6834995746612549,-0.1946939378976822,-0.4269413650035858,1.183154821395874,-1.3861498832702637
4.9072747230529785,0.059366464614868164,-0.05884420871734619,0.06264862418174744,-0.7156644774319445,-1.2916386883788682,-0.13436701286875705,-0.7254431843757629,0.6561189889907837,-0.20794285833835602,-0.8346831798553467,1.1548779010772705,-1.2816123962402344
4.925854682922363,0.11551642417907715,0.01163029670715332,0.20231634378433228,-0.6964609526406713,-1.2889008726145408,-0.16921489839326526,-0.7368390560150146,0.6415068507194519,-0.21339422464370728,-1.2774518728256226,1.3811559677124023,-1.2862040996551514
4.943588733673096,0.23272860050201416,-0.0838538408279419,0.27071166038513184,-0.6803505343892274,-1.2962139838731774,-0.21840250989255272,-0.7482315301895142,0.6290655732154846,-0.21077513694763184,-1.9082618951797485,0.9448643922805786,-1.3033037185668945
4.9631876945495605,0.05405235290527344,-0.028164207935333252,-0.13226905465126038,-0.6607639118892698,-1.3200704549166553,-0.27422397097543144,-0.7648372054100037,0.613720178604126,-0.19588647782802582,-1.5124653577804565,0.07293666154146194,-1.9608923196792603
4.979529857635498,0.05405235290527344,-0.028164207935333252,-0.13226905465126038,-0.6607639118892698,-1.3200704549166553,-0.27422397097543144,-0.7648372054100037,0.613720178604126,-0.19588647782802582,-1.5124653577804565,0.07293666154146194,-1.9608923196792603
5.003551006317139,-0.271873414516449,0.2586944103240967,0.14784249663352966,-0.571702392415261,-1.326308190762451,-0.31655691126119717,-0.8159715533256531,0.5410645008087158,-0.20356766879558563,-0.14345817267894745,0.9786654710769653,-2.313398599624634
5.022984981536865,-0.25861918926239014,0.003925144672393799,0.07727618515491486,-0.5343050694204047,-1.3211375045438076,-0.3385987527601529,-0.8339405655860901,0.5092430710792542,-0.21263693273067474,-0.6436797380447388,0.6985190510749817,-1.695282220840454
5.045315742492676,-0.2923312783241272,0.03060409426689148,0.026996612548828125,-0.5107719570635592,-1.3139338547088812,-0.36147859609083044,-0.843746542930603,0.48885083198547363,-0.221622496843338,-0.6073707342147827,1.1589553356170654,-1.2305597066879272
5.063549995422363,-0.21091723442077637,0.08282321691513062,-0.02291874587535858,-0.488084036790037,-1.2984000129365822,-0.376489101793203,-0.8506671786308289,0.4689345061779022,-0.2376251220703125,0.010827537626028061,1.0325875282287598,-1.294532060623169
5.084610939025879,-0.14545083045959473,0.1593945026397705,-0.12953081727027893,-0.4596651393272018,-1.282215462122237,-0.3703665235491943,-0.859142005443573,0.4436480402946472,-0.25505170226097107,1.3955152034759521,0.3255622386932373,-1.3040519952774048
5.1081156730651855,-0.35531747341156006,0.1765061318874359,0.0024912655353546143,-0.4225667255791045,-1.2623685202504284,-0.3403583722216232,-0.869002103805542,0.4101027548313141,-0.2768596112728119,2.102262020111084,0.5616244077682495,-1.4784835577011108
5.126115798950195,-0.617510974407196,0.03895959258079529,0.17795059084892273,-0.3840797523425212,-1.2348074595803213,-0.3113234135695201,-0.8753020763397217,0.37470608949661255,-0.30568191409111023,1.4357390403747559,0.9479777216911316,-1.2513922452926636
5.14644980430603,-0.6502861976623535,0.026004046201705933,0.2661686837673187,-0.362514493799696,-1.21052717318867,-0.30882663347023603,-0.874982476234436,0.3546264171600342,-0.3296147882938385,-0.4752599596977234,1.3330758810043335,-0.7042657136917114
5.1680638790130615,-0.6792393326759338,-0.05927777290344238,0.1867201030254364,-0.36820022511483874,-1.192055335532689,-0.3339903146631756,-0.8668573498725891,0.3599368631839752,-0.3449690043926239,-1.9908113479614258,1.4736219644546509,0.42157188057899475
5.1881678104400635,-0.7236473560333252,0.1070367693901062,0.3729665279388428,-0.401894561379264,-1.1741729852405371,-0.3790060450587516,-0.8488776683807373,0.3911626636981964,-0.35552576184272766,-2.8764779567718506,1.9419739246368408,0.9943922758102417
5.208582878112793,-0.7478170394897461,0.16566932201385498,0.5054726004600525,-0.4445808803942675,-1.145025032350469,-0.4180272044162544,-0.8221902251243591,0.43007954955101013,-0.3728737533092499,-1.830065131187439,2.511197566986084,1.4825776815414429
5.226513862609863,-0.8345069885253906,0.05210867524147034,0.3801518678665161,-0.47693763164633923,-1.0913055786828156,-0.41685828243448836,-0.7882194519042969,0.4590606987476349,-0.4098455309867859,0.40134015679359436,2.6792333126068115,1.259376883506775
5.248327732086182,-0.847244143486023,0.11506238579750061,0.31399834156036377,-0.48063846303849944,-1.0233086700746754,-0.37829707239691857,-0.757095456123352,0.4623453915119171,-0.46156612038612366,2.1436445713043213,2.253527879714966,0.9336256384849548
5.267956733703613,-0.7584820985794067,-0.10135823488235474,0.2543196678161621,-0.4728302811683558,-0.9586239516108124,-0.32128397057788516,-0.7286089658737183,0.45540785789489746,-0.5115981101989746,2.1660563945770264,1.4078953266143799,1.1976134777069092
5.287775993347168,-0.7308248281478882,-0.30345970392227173,0.19700121879577637,-0.47918082519920974,-0.9216354349729761,-0.2697932895627264,-0.7068735361099243,0.46105241775512695,-0.5364330410957336,0.9178341627120972,-0.03276233747601509,1.9729585647583008
5.307663917541504,-0.685158371925354,-0.1857471764087677,0.0765487551689148,-0.5072211947125885,-0.9127309006788732,-0.2331418172505399,-0.6915658712387085,0.4857501685619354,-0.5345871448516846,0.3349301218986511,-0.5854266285896301,2.2617146968841553
5.32751989364624,-1.0466089248657227,0.05928671360015869,0.06519854068756104,-0.5446704936669021,-0.8998208268096777,-0.1914526263165092,-0.6698826551437378,0.5181362628936768,-0.531781792640686,0.16010475158691406,-0.29388996958732605,2.8392579555511475
5.347563743591309,-1.1277978420257568,0.08239775896072388,-0.013181567192077637,-0.5884821234902506,-0.8833543952308006,-0.14213572280724732,-0.6428625583648682,0.5550991296768188,-0.5278187990188599,0.24986901879310608,-0.7969935536384583,3.2494285106658936
5.367334842681885,-1.101536512374878,0.11162132024765015,0.013382673263549805,-0.6354227539628018,-0.8721600445003048,-0.08669515602312937,-0.6162674427032471,0.5935177803039551,-0.5176399350166321,0.29484766721725464,-1.2080246210098267,3.1211888790130615
5.387531757354736,-1.2439351081848145,0.06562972068786621,0.15004312992095947,-0.6776730231727134,-0.8625253056769409,-0.03504120247069998,-0.5916666388511658,0.6269819140434265,-0.506778359413147,-0.10522998869419098,-0.9660854339599609,2.8070485591888428
5.40726900100708,-1.1296238899230957,-0.11504495143890381,0.16157007217407227,-0.7243750786759952,-0.8592335194749056,0.0014493581892494052,-0.5671840310096741,0.6626675724983215,-0.48905426263809204,-0.7054363489151001,-1.1523618698120117,2.597510576248169
5.4273576736450195,-0.8631904125213623,-0.03322869539260864,0.016358762979507446,-0.7711642921521618,-0.8643652134131783,0.03341746421535666,-0.5454857349395752,0.6969706416130066,-0.46548593044281006,-0.44093814492225647,-1.611936330795288,2.4290294647216797
5.447170734405518,-0.771979570388794,0.2115376591682434,-0.12278401851654053,-0.8042585260876689,-0.8682656781294901,0.07723471227136494,-0.5293968319892883,0.7203165292739868,-0.4481998682022095,0.6205406188964844,-1.8224719762802124,2.150557279586792
5.467049837112427,-0.8051009774208069,0.2618221640586853,-0.20227420330047607,-0.8230433292477312,-0.8671281813021128,0.1307340637279149,-0.5184769034385681,0.7332186698913574,-0.4399682879447937,0.7672341465950012,-1.8551318645477295,1.6431325674057007
5.487176895141602,-0.6580575108528137,0.012729406356811523,-0.07410222291946411,-0.8421934257882385,-0.8749016274535121,0.1653446702575846,-0.5110098719596863,0.7461053729057312,-0.4268438518047333,-0.3268378674983978,-1.5224342346191406,1.3542324304580688
5.507355690002441,-0.4430304169654846,-0.11239039897918701,-0.008138686418533325,-0.8703443435591801,-0.9022189256164371,0.1694557814179119,-0.5057916045188904,0.7645509243011475,-0.3995456397533417,-1.10775625705719,-1.4894685745239258,1.0441358089447021
5.52695894241333,-0.24313414096832275,0.06371456384658813,-0.03530430793762207,-0.8973847921726857,-0.9405599215515289,0.16053895772551027,-0.503844678401947,0.7816985845565796,-0.3675430119037628,-0.7341821789741516,-1.7244309186935425,0.7196077704429626
5.546751976013184,-0.12593376636505127,0.2553584575653076,-0.10120552778244019,-0.9121637165572836,-0.9764835407053832,0.16146369633941987,-0.5070923566818237,0.7908298373222351,-0.3427031636238098,-0.16521655023097992,-1.942981481552124,0.5818653702735901
5.566788673400879,-0.024628281593322754,0.23735558986663818,-0.0812101662158966,-0.9207839287648304,-1.0113666453080945,0.16790198301538353,-0.5129387974739075,0.7960762977600098,-0.3211793601512909,-0.15215282142162323,-1.958577275276184,0.3884039521217346
5.5868659019470215,0.07989263534545898,0.10116392374038696,-0.008900254964828491,-0.9316902467693859,-1.0529681779664355,0.16048419033190245,-0.518277645111084,0.802629292011261,-0.2952532172203064,-0.8372192978858948,-1.6277879476547241,0.30353546142578125
5.606698989868164,0.20367419719696045,0.008473336696624756,-0.07965987920761108,-0.9477917716303547,-1.1091506393628314,0.1297670672005958,-0.5223998427391052,0.812129020690918,-0.2598939538002014,-1.3653087615966797,-1.573301076889038,0.28935059905052185
5.6287360191345215,0.31628596782684326,0.08445006608963013,-0.2769598364830017,-0.963332037622046,-1.1723009101932809,0.09258808475315378,-0.5260637998580933,0.8210980296134949,-0.22148379683494568,-1.2148683071136475,-1.6583112478256226,0.20762470364570618
5.64629602432251,0.4379304051399231,0.025023221969604492,-0.27961426973342896,-0.9737721287850336,-1.2320214138062446,0.05777699079763378,-0.5302307605743408,0.8270122408866882,-0.18683162331581116,-1.0505999326705933,-1.402063250541687,0.1416589915752411
5.666407823562622,0.5126585960388184,-0.11335253715515137,-0.2501971125602722,-0.9842648050372351,-1.2852279760745573,0.02367038971552443,-0.5310606956481934,0.8328654170036316,-0.15591561794281006,-1.1237233877182007,-1.115100383758545,0.2319682389497757
5.686787843704224,0.590198814868927,-0.22559106349945068,-0.20959383249282837,-0.9950399033790137,-1.3430901089734082,-0.020991368471243287,-0.530414879322052,0.8387807011604309,-0.12291046231985092,-1.457635760307312,-0.9843947291374207,0.17701198160648346
5.706448793411255,0.6491190791130066,-0.30542492866516113,-0.30031102895736694,-1.0035023421675129,-1.4051189279474516,-0.07089952563390979,-0.5299936532974243,0.8433581590652466,-0.08862030506134033,-1.3249467611312866,-0.9542166590690613,0.1649516522884369
5.7263689041137695,0.7178807258605957,-0.2833106517791748,-0.38281434774398804,-1.008511691088313,-1.4719513186606037,-0.11922860672269414,-0.5305179357528687,0.846039354801178,-0.05261050537228584,-1.3608101606369019,-1.7163769006729126,-0.2588593363761902
5.746547698974609,0.6991510987281799,-0.3534003496170044,-0.36457449197769165,-1.0042448374704214,-1.5403651758000867,-0.15924938535236804,-0.536477267742157,0.843756914138794,-0.016330661252141,-0.8077889680862427,-1.7874231338500977,-0.174113929271698
5.766195774078369,0.6882842779159546,-0.4255521893501282,0.10559546947479248,-1.007823524833937,-1.5898013157108521,-0.18765705682992365,-0.5336059331893921,0.8456722497940063,0.010142396204173565,-0.7790159583091736,-0.500645637512207,0.6886414289474487
5.786424875259399,0.6237341165542603,-0.692010223865509,-0.2064121961593628,-1.0229467665543477,-1.6235951165607074,-0.22858950098923328,-0.5201269388198853,0.8536465764045715,0.0274876207113266,-1.3473577499389648,0.32814568281173706,0.520329475402832
5.806303024291992,0.7391598224639893,-0.5027345418930054,-0.45761048793792725,-1.027169282423011,-1.6500861884769007,-0.2713320586733042,-0.5156186819076538,0.8558382391929626,0.04096922650933266,-0.4657133221626282,0.6578419208526611,0.2442891150712967
5.825948715209961,1.0064606666564941,-0.4158515930175781,-0.650305986404419,-1.035128565809844,-1.6261136019524538,-0.2567031892514683,-0.5096344351768494,0.8599280118942261,0.02822037972509861,1.1254520416259766,0.46511170268058777,0.5172662734985352
5.846778869628906,1.0881538391113281,-0.6370888948440552,-0.5236583948135376,-1.046447729476518,-1.5750472535931808,-0.20421770457631502,-0.5006446838378906,0.8656502366065979,0.002128216903656721,1.3662281036376953,0.1255505084991455,0.4487176835536957
5.866523742675781,1.0437735319137573,-0.7827953100204468,-0.3118918538093567,-1.0511303198794029,-1.528722813134464,-0.1487120962825729,-0.49615082144737244,0.8679850697517395,-0.020887134596705437,1.5625731945037842,-0.36268025636672974,0.08965136855840683
5.886109828948975,1.012632131576538,-0.5934904217720032,-0.22999948263168335,-1.0474461994706215,-1.4747285972238318,-0.06931880543609449,-0.49748021364212036,0.8661497235298157,-0.04793936386704445,2.5026636123657227,-1.143807053565979,-0.2027360498905182
5.906645774841309,0.8641256093978882,-0.28326165676116943,0.009000532329082489,-1.0329382915718033,-1.3977207492171786,0.05305746468704848,-0.5046438574790955,0.8588079810142517,-0.08822421729564667,3.8136954307556152,-1.470276951789856,-0.24001941084861755
5.927442789077759,0.6130938529968262,-0.25849050283432007,0.034965142607688904,-1.0117659340083536,-1.3029619823503757,0.1925381013166636,-0.5114551782608032,0.8477697372436523,-0.1403576135635376,3.548440933227539,-1.214553952217102,-0.42795130610466003
5.945775985717773,0.49461430311203003,-0.38626915216445923,0.05959872901439667,-0.9860280134807622,-1.25187317924953,0.28755743666479916,-0.5241706967353821,0.833840012550354,-0.17307838797569275,1.8160314559936523,-1.7688491344451904,-0.37086808681488037
5.967226982116699,0.46034663915634155,-0.20746493339538574,0.026271581649780273,-0.9771555251435791,-1.277697401868604,0.3096835950559548,-0.535526692867279,0.8289095759391785,-0.16161704063415527,-0.1379302442073822,-2.5541348457336426,-0.1745280623435974
5.986079692840576,0.20265114307403564,0.02316296100616455,0.07637651264667511,-0.9716828917924403,-1.3267054879842302,0.30932665407962107,-0.5471945405006409,0.8258358836174011,-0.13628257811069489,0.7471588850021362,-2.130824327468872,-0.4187335669994354
6.00599479675293,0.03800010681152344,0.37723106145858765,-0.0022311806678771973,-0.9470884640537434,-1.3096415841017153,0.37616309772151224,-0.5642452836036682,0.8117184638977051,-0.15079927444458008,3.599095344543457,-1.9260082244873047,-1.0489212274551392
6.02557373046875,0.14272600412368774,0.2111414670944214,-0.05692809820175171,-0.9002582097562433,-1.2609825529119416,0.49832437785637346,-0.5918227434158325,0.7834873795509338,-0.18945558369159698,4.415683269500732,-3.053370475769043,-1.2409379482269287
6.045717716217041,0.015448808670043945,-0.15418243408203125,0.09576055407524109,-0.8504531320057285,-1.2471889119315296,0.6092452423105016,-0.6254037022590637,0.7515794038772583,-0.20975901186466217,3.8086628913879395,-3.930952787399292,-1.3539894819259644
6.065489768981934,-0.5827906131744385,-0.10033047199249268,0.11566419899463654,-0.7985687591138295,-1.2636225272936261,0.6893080713486402,-0.6650730967521667,0.7163581848144531,-0.21097058057785034,2.774639129638672,-3.5730440616607666,-2.0607588291168213
6.085412979125977,-1.2252020835876465,0.2534593939781189,0.09725286066532135,-0.7322610948746407,-1.310110981087784,0.726157128955776,-0.718538761138916,0.668552815914154,-0.19167418777942657,1.937890648841858,-3.6994855403900146,-3.335818290710449
6.105343818664551,-1.073061227798462,0.056297481060028076,-0.14798784255981445,-0.6607198694464709,-1.356903592183805,0.7638503539531829,-0.7715584635734558,0.6136853694915771,-0.16759438812732697,2.8912582397460938,-3.213366746902466,-2.9340806007385254
6.125467777252197,-1.2264988422393799,0.3819146156311035,-0.2826296091079712,-0.5846871498544125,-1.3579448617826981,0.8518126271435503,-0.8150661587715149,0.551938533782959,-0.1761564016342163,5.756946563720703,-2.1012041568756104,-3.107680559158325
6.145075798034668,-0.9472289681434631,0.6894536018371582,-0.14026521146297455,-0.49564677303429394,-1.3282749602485788,0.9780879449723613,-0.8539184331893921,0.4756006896495819,-0.21125149726867676,6.064930438995361,-1.4466140270233154,-3.1487159729003906
6.164949893951416,-0.6253851056098938,0.2689252197742462,0.4515393078327179,-0.41233809678923233,-1.3048779461872408,1.0658868351914328,-0.8839839100837708,0.40075254440307617,-0.2407696545124054,3.378009080886841,0.10229019820690155,-2.7205724716186523
6.185176849365234,-0.49578118324279785,-0.4739181697368622,0.7187390327453613,-0.3754864500461957,-1.28213532630462,1.0724501790903342,-0.8918378353118896,0.3667251169681549,-0.26483580470085144,-2.059788703918457,1.731284499168396,-0.47716766595840454
6.205068826675415,-0.28518885374069214,-0.713585615158081,0.7028806209564209,-0.40998800050188156,-1.2782969353163949,0.98622932948734,-0.8781716227531433,0.398598313331604,-0.2644497752189636,-6.006829261779785,1.8154585361480713,1.2814786434173584
6.224971771240234,-0.13064134120941162,-0.29661810398101807,0.43420058488845825,-0.47926045564740966,-1.2972496536116038,0.8616028966148811,-0.8543440103530884,0.4611230790615082,-0.23971202969551086,-6.225282669067383,1.6199214458465576,1.9792371988296509
6.244802951812744,-0.15210437774658203,0.16794484853744507,0.18355178833007812,-0.5365903743258414,-1.3143018688605947,0.7638990112275367,-0.8313398361206055,0.5112085342407227,-0.21803666651248932,-3.1748838424682617,1.3675785064697266,1.1999824047088623
6.265183925628662,-0.06283658742904663,0.2838515043258667,-0.02542605996131897,-0.5617421737803289,-1.3079462412077982,0.7343618530799864,-0.8172597885131836,0.5326614379882812,-0.21990469098091125,-0.12798503041267395,0.8273000121116638,0.786813497543335
6.284758806228638,0.0871850848197937,0.044033944606781006,-0.07232540845870972,-0.5754078926851783,-1.2835352257179833,0.7565360345902054,-0.8045923113822937,0.5441770553588867,-0.2377026528120041,1.300836443901062,0.4711208641529083,1.0616339445114136
6.304615020751953,-0.00028383731842041016,-0.17976516485214233,-0.02026844024658203,-0.589420061495521,-1.2533896602916237,0.7954320400269127,-0.7897400259971619,0.5558790564537048,-0.25944045186042786,1.165333867073059,0.5192863345146179,1.2376160621643066
6.323974847793579,-0.13036644458770752,-0.27477067708969116,-0.022810041904449463,-0.6071903410108014,-1.2265110740962855,0.8203834893169341,-0.77306067943573,0.5705622434616089,-0.2771930396556854,0.22116410732269287,0.7825520038604736,1.102728247642517
6.344543933868408,-0.11945199966430664,-0.3338357210159302,-0.09731271862983704,-0.6308324477341186,-1.208570487753987,0.8234938225609715,-0.7551361322402954,0.5898171663284302,-0.28615596890449524,-0.81178218126297,0.8193336725234985,1.3098227977752686
6.3635478019714355,-0.044271230697631836,-0.3258475065231323,-0.09300762414932251,-0.6694317637285239,-1.2010543950558763,0.8083194610058948,-0.7311804890632629,0.6205404996871948,-0.2833808958530426,-1.6157797574996948,0.8991129994392395,1.8706927299499512
6.3847126960754395,-0.15634721517562866,-0.2474302053451538,-0.04779684543609619,-0.7197189132216517,-1.1930305423062897,0.786927172583273,-0.6989689469337463,0.659173309803009,-0.2773679196834564,-1.5608410835266113,1.3363956212997437,2.1293628215789795
6.406023979187012,-0.32561004161834717,-0.07931327819824219,-0.059777647256851196,-0.7648046863799441,-1.1679332945416585,0.778362196135963,-0.6637545228004456,0.6923961043357849,-0.2828736901283264,-0.7162548303604126,1.6337960958480835,1.7381268739700317
6.42495584487915,-0.2586522698402405,-0.030223727226257324,-0.11459746956825256,-0.7956968912358423,-1.1344413322869995,0.7830025315623287,-0.6342157125473022,0.7143514752388,-0.29575714468955994,-0.48604902625083923,1.3943026065826416,1.2847554683685303
6.444199800491333,-0.12659096717834473,-0.1798255443572998,-0.08494359254837036,-0.8229272082142165,-1.1081768809481602,0.7841012904776433,-0.6085927486419678,0.73313969373703,-0.30351459980010986,-0.6539804935455322,1.193524718284607,1.3036201000213623
6.464175701141357,-0.09739375114440918,-0.17181313037872314,-0.038777172565460205,-0.8543348110561638,-1.084991424816144,0.7837288082072753,-0.5807373523712158,0.7541342377662659,-0.3066360354423523,-0.718104898929596,1.1731033325195312,1.456567645072937
6.484144687652588,-0.07942897081375122,-0.03440260887145996,-0.06696271896362305,-0.8831063326209098,-1.0584886001586065,0.7883381327531245,-0.5532615184783936,0.772714376449585,-0.31115007400512695,-0.4018073081970215,1.1410316228866577,1.2206921577453613
6.503998756408691,0.006331384181976318,-0.0030136704444885254,-0.15511199831962585,-0.9046378814643851,-1.0311004927907435,0.7964549748044614,-0.5301350951194763,0.7862014174461365,-0.31755951046943665,-0.2896304130554199,0.9406371116638184,0.9282920956611633
6.523813724517822,0.0652891993522644,-0.02913057804107666,-0.22822833061218262,-0.9220568315468123,-1.010374858533528,0.8016976630626751,-0.5117614269256592,0.7968460321426392,-0.32114914059638977,-0.3498893082141876,0.7606449127197266,0.7797760963439941
6.543859004974365,0.05881589651107788,-0.0034890174865722656,-0.19086650013923645,-0.9387984698373028,-0.9910392481052234,0.8056623409004507,-0.494225412607193,0.8068488836288452,-0.32362931966781616,-0.31982600688934326,0.9142400622367859,0.7972903251647949
6.563841819763184,0.07000154256820679,-0.008615732192993164,-0.16412752866744995,-0.9549921442511369,-0.9635307673580109,0.8148456012100918,-0.4743441939353943,0.8163092136383057,-0.32960110902786255,-0.1478293538093567,1.0480661392211914,0.8439583778381348
6.583517789840698,0.07286766171455383,0.022070765495300293,-0.19685852527618408,-0.9681093452133447,-0.9288114782317004,0.8321912923005839,-0.4540017247200012,0.8238154649734497,-0.3394269049167633,0.20745496451854706,0.9902769923210144,0.8330681920051575
6.605309963226318,0.025176316499710083,0.14667284488677979,-0.254560261964798,-0.9765620747028331,-0.886530127067439,0.8608669148344442,-0.43383729457855225,0.82857745885849,-0.3538992404937744,0.5403634309768677,0.9005763530731201,0.848074734210968
6.622382879257202,-0.06784242391586304,0.2894821763038635,-0.27813008427619934,-0.9801099847203323,-0.8367680316742967,0.898933995007349,-0.41351133584976196,0.8305586576461792,-0.37306922674179077,0.8199772834777832,0.9530417323112488,0.797271728515625
6.642251968383789,-0.07962757349014282,0.23648524284362793,-0.19382405281066895,-0.9804994428135955,-0.7815208580835207,0.9400271025084783,-0.3920521140098572,0.8307754397392273,-0.39510416984558105,0.7451613545417786,1.222280502319336,0.8361243605613708
6.6625657081604,0.02297532558441162,0.07314556837081909,-0.09034878015518188,-0.9840898815915307,-0.724843720999853,0.9757717112317488,-0.3670610189437866,0.8327685594558716,-0.4144424498081207,0.3039219379425049,1.4165902137756348,0.8053447008132935
6.683990955352783,0.1341698169708252,-0.015000641345977783,-0.05263659358024597,-0.9909260782120436,-0.678573235485795,0.9978640296843068,-0.3439171612262726,0.8365337252616882,-0.42653515934944153,0.014909617602825165,1.3578131198883057,0.5742365121841431
6.703783988952637,0.23932239413261414,-0.056516945362091064,-0.06679224967956543,-0.9979768251325996,-0.6418053574900948,1.0118002137679205,-0.3244664967060089,0.8403761386871338,-0.43415382504463196,-0.10217607766389847,1.1185781955718994,0.4688142240047455
6.7233898639678955,0.3113677203655243,-0.011287808418273926,-0.10679858922958374,-1.0037135716053631,-0.6156408246344535,1.021236877479673,-0.3102080821990967,0.8434716463088989,-0.43855059146881104,0.02868654951453209,0.7090557217597961,0.2960934340953827
6.7423577308654785,0.3006970286369324,-0.0015192031860351562,-0.09429565072059631,-1.0042193967573259,-0.5921497002702906,1.0339589570628949,-0.29958316683769226,0.8437432646751404,-0.4453618824481964,0.3087728023529053,0.6379252076148987,0.3017804026603699
6.76320481300354,0.2591080069541931,-0.058352649211883545,-0.0018867850303649902,-1.0003264134582073,-0.5655644103596787,1.0509402980925278,-0.2893967628479004,0.8416473269462585,-0.4559379816055298,0.4556373357772827,0.5766637921333313,0.2468276023864746
6.783207893371582,0.2688975930213928,-0.09285670518875122,0.08389401435852051,-0.9959408150760849,-0.5441068444193421,1.0639260814123166,-0.2814556062221527,0.8392708897590637,-0.4651959240436554,0.30020684003829956,0.49460259079933167,0.10438792407512665
6.803099870681763,0.2510627806186676,-0.08184671401977539,0.10617488622665405,-0.9906429068259548,-0.5310978754666367,1.068621436109029,-0.2776283621788025,0.8363785743713379,-0.47264522314071655,0.3096003830432892,0.4390142261981964,-0.17223156988620758
6.8229289054870605,0.23040759563446045,-0.1662256121635437,0.15659606456756592,-0.9830278755674224,-0.5245192865376347,1.065699898840623,-0.27769461274147034,0.8321801424026489,-0.4799603223800659,0.18359379470348358,0.4346272349357605,-0.2968970835208893
6.841404914855957,0.26392337679862976,-0.17210686206817627,0.16046330332756042,-0.9805950859261294,-0.5273756682438565,1.055936345376127,-0.28008243441581726,0.8308287262916565,-0.48091310262680054,-0.23357632756233215,0.044375497847795486,-0.3157259225845337
6.860406875610352,0.20065560936927795,-0.04029428958892822,0.06323254108428955,-0.9813502422514643,-0.5431207152565282,1.0411689228363195,-0.28729504346847534,0.8312487006187439,-0.47590649127960205,-0.13066934049129486,-0.34240445494651794,-0.28703615069389343
6.883324861526489,0.06337657570838928,0.17928826808929443,-0.016146600246429443,-0.9774486777474858,-0.5499427977585092,1.039341029150243,-0.2922278940677643,0.8290735483169556,-0.47669699788093567,0.47315144538879395,-0.09095977991819382,-0.042128849774599075
6.903406858444214,-0.05330425500869751,0.19392627477645874,0.045558035373687744,-0.9644387164794478,-0.5358514145850345,1.0522985416169768,-0.2909645736217499,0.8217291831970215,-0.49000075459480286,0.8622365593910217,0.4301972985267639,0.006192049477249384
6.923101902008057,0.012066870927810669,0.029585599899291992,0.12758177518844604,-0.952077275331958,-0.5125346430687454,1.0668729338652476,-0.28442099690437317,0.8146220445632935,-0.505465567111969,0.5986946821212769,0.5931639671325684,0.11610802263021469
6.942968845367432,0.11425715684890747,-0.17102426290512085,0.14998185634613037,-0.9469959981181834,-0.4913582204694276,1.080802001081019,-0.27560362219810486,0.8116644620895386,-0.5150179266929626,0.24306218326091766,0.3948397636413574,0.34958478808403015
6.962752819061279,0.1370064914226532,-0.2699410319328308,0.16696757078170776,-0.9489736764161509,-0.47357386508689975,1.0945676040923222,-0.2656686007976532,0.8128181099891663,-0.5184080004692078,-0.016575125977396965,0.2555338144302368,0.418418824672699
6.982877731323242,0.11660787463188171,-0.2987184524536133,0.158938467502594,-0.9529653648586782,-0.46098339730995586,1.1059506322277386,-0.2576754093170166,0.8151368498802185,-0.5188016891479492,-0.008373560383915901,0.07436420768499374,0.3307068645954132
7.003023862838745,0.09463468194007874,-0.23466557264328003,0.11640536785125732,-0.952076456715754,-0.4534728096748685,1.115336095025719,-0.2540890574455261,0.8146215677261353,-0.5213736295700073,0.4064750671386719,-0.07099902629852295,0.11745382845401764
7.020566940307617,0.08983489871025085,-0.18218523263931274,0.11542320251464844,-0.940998346494419,-0.4450564144027547,1.127568187304613,-0.25356173515319824,0.8081465363502502,-0.5316066741943359,0.8572990894317627,-0.05822242796421051,0.0683816522359848
7.040721893310547,0.08737176656723022,-0.17698192596435547,0.15567940473556519,-0.9244494012253561,-0.4339849777532757,1.1419649677710662,-0.2532500624656677,0.7982892990112305,-0.5464417338371277,0.9538756012916565,-0.008235602639615536,-0.01615033484995365
7.062219858169556,0.09636124968528748,-0.1725832223892212,0.13768476247787476,-0.9075301979786717,-0.4275298715303396,1.1518500361692507,-0.25528162717819214,0.7879855036735535,-0.5602769255638123,0.8661991953849792,-0.15867134928703308,-0.12554292380809784
7.082270860671997,0.0882558524608612,-0.044875264167785645,0.046124160289764404,-0.8909161024675963,-0.4266603074769776,1.15965732812468,-0.2601766288280487,0.7776480317115784,-0.5723387002944946,0.8528967499732971,-0.37129369378089905,-0.14652998745441437
7.1020307540893555,0.008506804704666138,0.09402632713317871,0.010945916175842285,-0.8723417959841206,-0.42978499232549405,1.1656678768787805,-0.2679367661476135,0.7658368945121765,-0.5845542550086975,0.9804401993751526,-0.3439164161682129,-0.26347577571868896
7.122533798217773,-0.05948397517204285,0.05509138107299805,0.07438331842422485,-0.8544415602884553,-0.4311822308103654,1.1696772292030277,-0.27443942427635193,0.7542043328285217,-0.5965390801429749,0.6863229870796204,-0.10558425635099411,-0.24447466433048248
7.1422929763793945,-0.03546890616416931,-0.008479714393615723,0.10432195663452148,-0.8442574995486115,-0.4338237182517198,1.1678960374444254,-0.27922841906547546,0.7474780678749084,-0.6027503609657288,0.20144835114479065,-0.07922597974538803,-0.29556548595428467
7.162064790725708,-0.0035171210765838623,-7.814168930053711e-05,0.054258882999420166,-0.8406902701601462,-0.4432658863186945,1.1595666468504067,-0.28604891896247864,0.745103657245636,-0.6024918556213379,-0.0805337056517601,-0.2390546202659607,-0.36954015493392944
7.1822288036346436,-0.023285984992980957,0.04444229602813721,0.02939707040786743,-0.8392115549630051,-0.4593195783095435,1.1453741930878059,-0.29617205262184143,0.7441166043281555,-0.5988093018531799,-0.1937316209077835,-0.29380565881729126,-0.5636614561080933
7.2010817527771,-0.04558807611465454,0.037069499492645264,0.040711283683776855,-0.8386904986392409,-0.48075459137953036,1.123672817764615,-0.30911773443222046,0.7437684535980225,-0.5926674008369446,-0.439227819442749,-0.2434653490781784,-0.7404708862304688
7.220883846282959,-0.032283633947372437,0.026418983936309814,0.035605013370513916,-0.8409988095876639,-0.5065367544893705,1.0951976785777902,-0.32345977425575256,0.7453094124794006,-0.5829988121986389,-0.6597191095352173,-0.21857011318206787,-0.8134307265281677
7.241915702819824,0.0014888644218444824,0.06715422868728638,0.007061362266540527,-0.8451366679438597,-0.5349405958654795,1.0630562217465775,-0.33831140398979187,0.7480618357658386,-0.570919394493103,-0.7274014949798584,-0.25335854291915894,-0.8450714945793152
7.2616729736328125,0.03283339738845825,0.14665758609771729,-0.05181431770324707,-0.8475926663037431,-0.5650606037272482,1.031371809828449,-0.35436663031578064,0.7496894598007202,-0.5589187145233154,-0.5648725032806396,-0.3881880044937134,-0.8276334404945374
7.281814813613892,-0.004437118768692017,0.2840801477432251,-0.11803287267684937,-0.8454710709756946,-0.5940276777712044,1.003594389091432,-0.37129533290863037,0.7482836842536926,-0.5497375130653381,-0.26949167251586914,-0.40086597204208374,-0.8367624282836914
7.30167293548584,-0.08520135283470154,0.36619412899017334,-0.15553200244903564,-0.8382224161440511,-0.6177522559241629,0.9803857092979619,-0.38736340403556824,0.7434554696083069,-0.5451821088790894,-0.027271511033177376,-0.18396607041358948,-0.8086449503898621
7.321554899215698,-0.08481323719024658,0.2940213680267334,-0.131508469581604,-0.8310393746246203,-0.6297263086120063,0.9646394379148563,-0.3969983160495758,0.7386324405670166,-0.5448067784309387,-0.06934804469347,0.13828423619270325,-0.43343690037727356
7.341439723968506,-0.03099575638771057,0.16090500354766846,-0.09354245662689209,-0.8317393753568826,-0.6318565637957914,0.9553880089495689,-0.3978525400161743,0.7391040921211243,-0.5435425043106079,-0.3750896751880646,0.3207457363605499,-0.07359373569488525
7.3614068031311035,-0.07244241237640381,0.05710560083389282,-0.06187921762466431,-0.8395336445738268,-0.630315094151584,0.94620671892481,-0.3936068117618561,0.7443317770957947,-0.5394849181175232,-0.5776340961456299,0.5166623592376709,0.004862030036747456
7.381500720977783,-0.11149066686630249,0.0045264363288879395,-0.05246967077255249,-0.8487625680078089,-0.6259600133757608,0.9360418758570439,-0.3872123956680298,0.7504631280899048,-0.5356040596961975,-0.531390368938446,0.6694735288619995,-0.02010142244398594
7.400494813919067,-0.1109999418258667,-0.030835211277008057,-0.03844404220581055,-0.8559364843490839,-0.6192128416317942,0.9261318005150486,-0.3804551661014557,0.7551851272583008,-0.5338063836097717,-0.44961878657341003,0.7463758587837219,-0.10950593650341034
7.421490669250488,-0.12136128544807434,-0.054239630699157715,-0.011374711990356445,-0.8606007089277177,-0.6123093745284851,0.9143553703757528,-0.37473249435424805,0.7582343220710754,-0.533531904220581,-0.3772624135017395,0.8554558753967285,-0.22843043506145477
7.44130277633667,-0.1356903612613678,-0.08429747819900513,0.022481977939605713,-0.8648677380352446,-0.6042560683283354,0.9008237594954551,-0.3685821294784546,0.7610094547271729,-0.5338650345802307,-0.5170465707778931,0.9823399186134338,-0.25842005014419556
7.461280822753906,-0.12166902422904968,-0.09865713119506836,0.053523898124694824,-0.8713623586256499,-0.5970574232606792,0.8828476367848477,-0.3619430363178253,0.7652066946029663,-0.53240567445755,-0.6612167954444885,1.1256625652313232,-0.3182193636894226
7.481330871582031,-0.05286949872970581,-0.15717452764511108,0.08885091543197632,-0.880298069387692,-0.5897671834508581,0.8618967553348917,-0.3542350232601166,0.7709287405014038,-0.5293263792991638,-0.8348670601844788,1.2006261348724365,-0.2933119237422943
7.501117706298828,0.037718355655670166,-0.23910367488861084,0.11257916688919067,-0.8925915626694133,-0.5847699014693835,0.8384374854209932,-0.34632742404937744,0.7787002921104431,-0.523147463798523,-1.0116157531738281,1.0970655679702759,-0.26296594738960266
7.520450830459595,0.09731841087341309,-0.3133510947227478,0.10677611827850342,-0.9074647404908693,-0.5846638210862244,0.8134686123938227,-0.3398416340351105,0.7879452109336853,-0.5134686827659607,-1.062041163444519,0.8656471371650696,-0.20752720534801483
7.540507793426514,0.1080997884273529,-0.28384000062942505,0.07518136501312256,-0.9217446342284095,-0.587870366348328,0.7902971854641312,-0.3352116346359253,0.7966573238372803,-0.5029615163803101,-0.8464061617851257,0.6649671196937561,-0.20637254416942596
7.560657024383545,0.08030524849891663,-0.20763003826141357,0.02656775712966919,-0.928935832167766,-0.5906984423227253,0.7721821415580743,-0.3334333300590515,0.8009833097457886,-0.4972403943538666,-0.37280741333961487,0.508141279220581,-0.30612051486968994
7.5807390213012695,0.06551644206047058,-0.1506037712097168,0.022433102130889893,-0.9282664972641849,-0.5925770575876247,0.7586951074617239,-0.3346662223339081,0.8005824089050293,-0.4970577359199524,-0.05197533965110779,0.39638814330101013,-0.3862694203853607
7.600452899932861,0.0626935064792633,-0.1475200057029724,0.0026325583457946777,-0.9238715246581245,-0.5938724259044091,0.7488070727813545,-0.3372754156589508,0.7979410886764526,-0.49953505396842957,0.06608365476131439,0.25163841247558594,-0.3523743152618408
7.620856761932373,0.04874640703201294,-0.0694434642791748,-0.06970369815826416,-0.9176987907706009,-0.5968069098061186,0.7416469161140687,-0.34150153398513794,0.794205367565155,-0.5026077032089233,0.21561507880687714,0.03900710120797157,-0.37006115913391113
7.6439878940582275,-0.001657038927078247,0.011621296405792236,-0.094668447971344,-0.9084219919354547,-0.5997605769154049,0.7373476811324832,-0.34712836146354675,0.7885342836380005,-0.5076569318771362,0.38907334208488464,0.024495268240571022,-0.33794352412223816
7.665485858917236,-0.011630654335021973,0.002679109573364258,-0.10594576597213745,-0.8992467144923291,-0.6001973618126402,0.7374903713634828,-0.3514217138290405,0.7828584313392639,-0.513454258441925,0.3679307699203491,-0.11747447401285172,-0.18034185469150543
7.680534839630127,-0.00985071063041687,-0.015978872776031494,-0.13073593378067017,-0.8918691627555234,-0.600889261654721,0.7423476012834319,-0.355032742023468,0.7782468795776367,-0.5179609060287476,0.4189607799053192,-0.33549734950065613,0.02567940391600132
7.700591802597046,-0.08409994840621948,0.00036519765853881836,-0.16699093580245972,-0.8857416702465175,-0.600852710066714,0.7531843425151643,-0.3577030599117279,0.7743844389915466,-0.521897554397583,0.4756612479686737,-0.4853530824184418,0.1367502063512802
7.72045373916626,-0.21895843744277954,-0.030420780181884766,-0.21558380126953125,-0.8774536387793507,-0.6014585265147276,0.764751810218845,-0.36163851618766785,0.7691139578819275,-0.5269546508789062,0.5913524031639099,-0.4448089301586151,0.004245839547365904
7.7406768798828125,-0.2487562894821167,-0.059086740016937256,-0.1871253252029419,-0.8681856428524224,-0.6024855771750758,0.7733641586262902,-0.3662034571170807,0.7631577253341675,-0.5324334502220154,0.46871238946914673,-0.32372546195983887,-0.0719820111989975
7.761964797973633,-0.19501295685768127,-0.09069085121154785,-0.16598892211914062,-0.860761420047762,-0.6055674990660782,0.7768652902536395,-0.3710575997829437,0.7583391070365906,-0.5359459519386292,0.24672886729240417,-0.24910636246204376,-0.1609092354774475
7.780434846878052,-0.13397768139839172,-0.07687461376190186,-0.13658833503723145,-0.8570834640336809,-0.6122203315557101,0.7731805782755105,-0.37621521949768066,0.7559365034103394,-0.5357444286346436,-0.08180826902389526,-0.15500950813293457,-0.25160109996795654
7.800455808639526,-0.07837089896202087,-0.04127979278564453,-0.11990785598754883,-0.856809794606149,-0.6243574914492066,0.760667444219791,-0.3828107714653015,0.7557572722434998,-0.531306803226471,-0.3569132387638092,-0.10688432306051254,-0.4353421628475189
7.820711851119995,0.01252049207687378,0.002853870391845703,-0.11758798360824585,-0.857431002114469,-0.6418171874499996,0.7406102582294669,-0.3917471766471863,0.7561639547348022,-0.5241661071777344,-0.4448820948600769,-0.15938445925712585,-0.5806064009666443
7.840435981750488,0.09871158003807068,0.1269431710243225,-0.14524096250534058,-0.8551880589407723,-0.6624813142551024,0.7187051195319927,-0.4035363793373108,0.7546942830085754,-0.5172956585884094,-0.1839231699705124,-0.2569435238838196,-0.6899236440658569
7.861660957336426,0.14237505197525024,0.29265111684799194,-0.2062520980834961,-0.8454777643096506,-0.6800295963616245,0.7030690861156681,-0.41714006662368774,0.7482881546020508,-0.5158089995384216,0.317420095205307,-0.2777227461338043,-0.7226061820983887
7.8798558712005615,0.1383093297481537,0.4017183780670166,-0.1411929726600647,-0.8283262993392925,-0.6861894478770277,0.6980658402781303,-0.4283789098262787,0.7368007898330688,-0.5230831503868103,0.7032780051231384,0.045834023505449295,-0.596897542476654
7.900555849075317,0.2198697030544281,0.35524511337280273,-0.01664048433303833,-0.811168596057938,-0.6837109081868137,0.6979194017121061,-0.43500345945358276,0.7250924110412598,-0.5338661670684814,0.5955066680908203,0.15503942966461182,-0.493134081363678
7.920452833175659,0.3466114103794098,0.3055639863014221,-0.014904201030731201,-0.7984442129538408,-0.6818088402116141,0.6992867367146334,-0.4397663474082947,0.7162712812423706,-0.5418127179145813,0.4441353976726532,-0.0934024229645729,-0.20170588791370392
7.940452814102173,0.34917351603507996,0.36184370517730713,-0.03614652156829834,-0.7913123609244481,-0.6808493930969883,0.705946663252034,-0.44245052337646484,0.7112763524055481,-0.5461899042129517,0.4354710876941681,-0.24975599348545074,0.10061536729335785
7.960450887680054,0.23578661680221558,0.3813380002975464,0.002717912197113037,-0.7875730662926432,-0.6757544336048026,0.7190816872103198,-0.4413225054740906,0.7086430191993713,-0.550508439540863,0.4251004755496979,-0.15401588380336761,0.37369102239608765
7.981334686279297,0.17937293648719788,0.3099284768104553,0.07339078187942505,-0.7872896671331765,-0.664077698321213,0.73797931349846,-0.4349881708621979,0.7084429860115051,-0.5557820796966553,0.4158998429775238,-0.05720589682459831,0.6526228785514832
8.000486850738525,0.18562009930610657,0.2097066044807434,0.11833393573760986,-0.7901073759860583,-0.6477758808092697,0.7631480751217952,-0.42466431856155396,0.7104288339614868,-0.5612050294876099,0.44852015376091003,-0.12169833481311798,0.9111669659614563
8.020624876022339,0.167568176984787,0.11448919773101807,0.149339497089386,-0.7936078694535398,-0.6287424172463951,0.7943231755368106,-0.4124411940574646,0.7128880023956299,-0.5671708583831787,0.6017136573791504,-0.18892282247543335,1.040192723274231
8.040486812591553,0.12728479504585266,0.02160954475402832,0.1932099461555481,-0.794347202017484,-0.6059450503969631,0.8317836426719849,-0.39910489320755005,0.7134063243865967,-0.5759919285774231,0.8510738015174866,-0.21510782837867737,1.1293717622756958
8.06047773361206,0.06711798906326294,-0.028242290019989014,0.22803056240081787,-0.7916744239075078,-0.5804047249953718,0.8735273238308041,-0.38530951738357544,0.7115308046340942,-0.5875886678695679,0.9919337630271912,-0.20382551848888397,1.1048924922943115
8.080536842346191,-0.0007253289222717285,-0.08394819498062134,0.2742666006088257,-0.7853479858029261,-0.5551570713450996,0.9133536108417908,-0.37271830439567566,0.7070713043212891,-0.6009420156478882,1.0311185121536255,-0.09128308296203613,0.9141362309455872
8.099493980407715,0.006860524415969849,-0.15317457914352417,0.34158241748809814,-0.7771991425683747,-0.5311770446271132,0.9481172585962026,-0.36110860109329224,0.7012854814529419,-0.6146537661552429,0.9334467649459839,0.026853052899241447,0.8038675785064697
8.120527744293213,0.06058192253112793,-0.18951618671417236,0.35170799493789673,-0.770047008636263,-0.5097101431712464,0.9792270562360236,-0.3502700626850128,0.6961689591407776,-0.6266255974769592,0.8147074580192566,-0.11056455224752426,0.765653133392334
8.14057183265686,0.06297644972801208,-0.1226765513420105,0.31490767002105713,-0.7625201846697041,-0.49468803274013373,1.0072906219199687,-0.343295693397522,0.6907459497451782,-0.6364103555679321,0.8436098694801331,-0.30550429224967957,0.6211853623390198
8.160511016845703,-0.008340030908584595,-0.014781057834625244,0.2924301028251648,-0.7515611868821951,-0.48479617083194476,1.0306209941113125,-0.3404911756515503,0.6827802062034607,-0.6464340090751648,0.9181315302848816,-0.2789005637168884,0.35849112272262573
8.180468797683716,-0.05185598134994507,-0.0044165849685668945,0.28561246395111084,-0.7383545738931887,-0.4775273908874873,1.0481031561656216,-0.3398981988430023,0.6730719208717346,-0.6568434834480286,0.8137602806091309,-0.19027243554592133,0.20671740174293518
8.200486898422241,-0.01010933518409729,-0.00845789909362793,0.2705880403518677,-0.7283288529754883,-0.4734289055621708,1.060700900993972,-0.3402630090713501,0.6656234264373779,-0.6642037630081177,0.5017537474632263,-0.27987244725227356,0.15871797502040863
8.220455884933472,-0.02726885676383972,0.04176008701324463,0.23254358768463135,-0.72298287032238,-0.47513137307369074,1.0672990432972982,-0.34301620721817017,0.6616242527961731,-0.6667782068252563,0.20896492898464203,-0.2875923216342926,0.030708281323313713
8.240452766418457,-0.09081992506980896,0.0630597472190857,0.2040461301803589,-0.7210737563339392,-0.4791631070978516,1.0680916819169153,-0.3462833762168884,0.660191535949707,-0.6665094494819641,-0.011169001460075378,-0.17653539776802063,-0.043281905353069305
8.260433673858643,-0.09074655175209045,0.056446969509124756,0.17134320735931396,-0.7228502098617814,-0.48403667658584293,1.0651544416086571,-0.34898126125335693,0.661524772644043,-0.663774847984314,-0.24200528860092163,-0.1431882679462433,-0.07862752676010132
8.280465841293335,-0.08665996789932251,0.08234614133834839,0.1127893328666687,-0.7273491361029226,-0.4924985197878292,1.0578812936048432,-0.35317462682724,0.6648919582366943,-0.6581689119338989,-0.3933834731578827,-0.21186089515686035,-0.20174771547317505
8.300452709197998,-0.12592145800590515,0.08811688423156738,0.08108437061309814,-0.7321562325301498,-0.5037383380369936,1.0463655641636371,-0.35900288820266724,0.6684748530387878,-0.6513510942459106,-0.45913559198379517,-0.12293688207864761,-0.30825871229171753
8.320453882217407,-0.13489410281181335,0.07118308544158936,0.07369208335876465,-0.7383649324155973,-0.5148855815500201,1.0313965507712652,-0.36419039964675903,0.6730795502662659,-0.6436841487884521,-0.6372613906860352,-0.007197147235274315,-0.3560396134853363
8.340452671051025,-0.07295554876327515,0.057529985904693604,0.02264195680618286,-0.7467066502464461,-0.5269960279398865,1.0137022126553255,-0.36912208795547485,0.6792253851890564,-0.6343515515327454,-0.7309332489967346,-0.07490535080432892,-0.3715474605560303
8.360454797744751,-0.038844794034957886,0.11167508363723755,-0.06870228052139282,-0.7545638982500724,-0.5445851085014483,0.993499367541325,-0.3774454891681671,0.6849709749221802,-0.6231769919395447,-0.6635385155677795,-0.2747393846511841,-0.5150125026702881
8.380486965179443,-0.08571454882621765,0.16774511337280273,-0.12786865234375,-0.7580544983005457,-0.5658424479105316,0.9710480383477338,-0.38932210206985474,0.6875099539756775,-0.6129913330078125,-0.5117253065109253,-0.2881850600242615,-0.6979206800460815
8.400469779968262,-0.12391623854637146,0.1901121735572815,-0.1340196132659912,-0.7581627761203714,-0.5884881330311613,0.9453477009408269,-0.4030613303184509,0.6875885725021362,-0.6039564609527588,-0.5486587285995483,-0.20756104588508606,-0.8331494927406311
