timestamp,acceleration_x,acceleration_y,acceleration_z,attitude_pitch,attitude_roll,attitude_yaw,gravity_x,gravity_y,gravity_z,rotation_x,rotation_y,rotation_z
0.0,0.15149641036987305,0.013892769813537598,-0.17616915702819824,-0.7208140456002815,-0.8687918697383443,2.911156477398897,-0.5736308097839355,0.6599964499473572,-0.4851314425468445,-0.7012468576431274,0.4670734107494354,-0.18466517329216003
0.02022695541381836,0.1498691439628601,0.034199655055999756,-0.18207234144210815,-0.7269067318259507,-0.871492763613339,2.894979284088878,-0.5718509554862976,0.6645614504814148,-0.48098301887512207,-0.6120842099189758,0.3295856714248657,-0.12497463822364807
0.03997182846069336,0.15568280220031738,0.05657702684402466,-0.19425466656684875,-0.732792451620759,-0.875130752869048,2.8818736820387416,-0.5705844759941101,0.6689478754997253,-0.47638431191444397,-0.520176112651825,0.17584501206874847,-0.05747479945421219
0.061647891998291016,0.14794284105300903,0.07448625564575195,-0.22972139716148376,-0.7383758731641757,-0.8798516989996621,2.872089848630168,-0.569939911365509,0.6730876564979553,-0.4712978005409241,-0.39170295000076294,0.016861673444509506,0.03961585462093353
0.08140993118286133,0.13317394256591797,0.08347982168197632,-0.2650940418243408,-0.7436621604200524,-0.8848224361169826,2.866454916670104,-0.5695143342018127,0.6769877672195435,-0.4661986529827118,-0.2744305431842804,-0.1353747397661209,0.09254564344882965
0.10138893127441406,0.11957317590713501,0.10085088014602661,-0.2850416898727417,-0.7483280562099551,-0.8906699448350853,2.863597192240448,-0.5697685480117798,0.6804144382476807,-0.4608689248561859,-0.2018277794122696,-0.24874727427959442,0.13627628982067108
0.1192317008972168,0.11603635549545288,0.10323166847229004,-0.29361310601234436,-0.7533781661250646,-0.8978797685525399,2.8606380609226907,-0.5703819990158081,0.6841066479682922,-0.454601526260376,-0.2953556776046753,-0.22521425783634186,0.08713296800851822
0.13992071151733398,0.18501728773117065,0.08637857437133789,-0.37532052397727966,-0.7599566557448987,-0.903206589980826,2.8577899322404923,-0.5692488551139832,0.6888900399208069,-0.4487608075141907,-0.2973718047142029,-0.15467190742492676,0.4159112274646759
0.1603689193725586,0.16678792238235474,0.09283983707427979,-0.44971421360969543,-0.7715044935916319,-0.9065562614987128,2.8612178521489597,-0.5644471645355225,0.6972145438194275,-0.4419177770614624,-0.29473212361335754,-0.5064089894294739,0.5030478239059448
0.18075180053710938,0.020531177520751953,0.12414735555648804,-0.449864000082016,-0.7798231724107892,-0.9216888570478571,2.861444274253163,-0.566429615020752,0.703153669834137,-0.42980509996414185,-0.057127945125103,-0.9050303101539612,0.2587380111217499
0.2006988525390625,-0.05313175916671753,0.2557125687599182,-0.3371456265449524,-0.7825252910364551,-0.9259636420380324,2.875096734624768,-0.5667413473129272,0.7050724625587463,-0.4262363314628601,0.7018522620201111,-0.4066481590270996,0.6563329696655273
0.22025775909423828,-0.029537439346313477,0.2280765175819397,-0.19342434406280518,-0.7815178005600659,-0.8996382495479706,2.913994516782177,-0.5558813214302063,0.7043576240539551,-0.4414480924606323,1.2853766679763794,0.034177012741565704,0.6828063726425171
0.24183988571166992,-0.11390727758407593,0.06348085403442383,-0.055771589279174805,-0.7724218300139396,-0.8792227558607598,2.943223358753889,-0.5516659617424011,0.6978718638420105,-0.4567711353302002,0.8227019906044006,-0.05712972953915596,0.15374107658863068
0.26203298568725586,-0.02867060899734497,-0.0354883074760437,0.05427283048629761,-0.7692532355756532,-0.8670113519102898,2.961870095170663,-0.5477302074432373,0.6955989599227905,-0.4649020731449127,0.3829983174800873,-0.03736863285303116,0.35238757729530334
0.2799098491668701,-0.06325548887252808,-0.08751547336578369,0.16986316442489624,-0.7710526287629069,-0.8623567521637655,2.969852026904715,-0.5446089506149292,0.6968905329704285,-0.46663132309913635,-0.014622535556554794,-0.07432371377944946,0.1522994041442871
0.29999876022338867,-0.09076803922653198,0.007066607475280762,0.19156008958816528,-0.7719353399636043,-0.8624079509543588,2.9722492289407008,-0.5441654324531555,0.6975233554840088,-0.4662030041217804,0.17110593616962433,-0.11023546755313873,0.037846650928258896
0.3232388496398926,-0.09979486465454102,0.11110067367553711,0.20565655827522278,-0.7674524158372747,-0.8590303361908092,2.9804767096373492,-0.544950008392334,0.6943040490150452,-0.4700760543346405,0.5360491871833801,-0.12425452470779419,0.004220900591462851
0.3399686813354492,-0.10121047496795654,0.13479864597320557,0.23566845059394836,-0.7599091173507668,-0.8520443097723243,2.9938132008579403,-0.5455790758132935,0.6888555884361267,-0.4773065745830536,0.6143859028816223,-0.12606282532215118,0.05104086548089981
0.35941076278686523,-0.06626719236373901,0.10048598051071167,0.2599596679210663,-0.7537535463999039,-0.8462021655586736,3.006540531518324,-0.545945942401886,0.6843803524971008,-0.4832872152328491,0.4776269495487213,-0.1861741840839386,0.10049955546855927
0.37990379333496094,-0.01091766357421875,0.0353851318359375,0.27499818801879883,-0.750691118084932,-0.8428620648249177,3.0176776582988016,-0.5458908677101135,0.682144284248352,-0.48650023341178894,0.3249048590660095,-0.24903923273086548,0.20987901091575623
0.40003490447998047,0.049639761447906494,-0.03567230701446533,0.2731661796569824,-0.7508542881759476,-0.8423645466164672,3.0268897250073032,-0.545565664768219,0.6822636127471924,-0.4866976737976074,0.18443818390369415,-0.34837719798088074,0.2275630384683609
0.4199347496032715,0.09912651777267456,-0.06839174032211304,0.2595793306827545,-0.7509021941737806,-0.8447116854985144,3.034926058844768,-0.5466820597648621,0.6822986006736755,-0.48539409041404724,0.3043958842754364,-0.4297827482223511,0.17027510702610016
0.43993473052978516,0.12495285272598267,-0.04781848192214966,0.247842937707901,-0.7469587135015161,-0.8449614697121137,3.0472900386564845,-0.5488114356994629,0.6794103384017944,-0.4870396852493286,0.6166671514511108,-0.4482658803462982,0.10971590131521225
0.459979772567749,0.14491504430770874,-0.048621416091918945,0.2319231927394867,-0.7390359688431387,-0.8449467426365951,3.0619319291746296,-0.5528129935264587,0.6735756993293762,-0.49060535430908203,0.6644982695579529,-0.5327312350273132,0.012275448068976402
0.4800088405609131,0.16572511196136475,-0.0788722038269043,0.2382355034351349,-0.7311473425287925,-0.8470949384160498,3.0744547011451777,-0.5578301548957825,0.6677241921424866,-0.4929198920726776,0.5472560524940491,-0.5349075794219971,0.03251786530017853
0.4999518394470215,0.1564185619354248,-0.04638940095901489,0.19579744338989258,-0.7253045571618502,-0.8515752421258493,3.0841330017201964,-0.5629585385322571,0.6633633971214294,-0.4929775893688202,0.39407584071159363,-0.567792534828186,-0.014901045709848404
0.5199368000030518,0.12468957901000977,0.028880834579467773,0.15062552690505981,-0.7197126017284873,-0.8587283196804327,3.090544824799596,-0.5692697167396545,0.6591686010360718,-0.4913542568683624,0.3509733974933624,-0.5779181718826294,-0.0890389233827591
0.5399508476257324,0.10115444660186768,0.07926368713378906,0.11128270626068115,-0.7135628669092389,-0.867052681787041,3.095368739494214,-0.5764199495315552,0.6545315980911255,-0.48921236395835876,0.3237827718257904,-0.5757255554199219,-0.13962407410144806
0.5599668025970459,0.07463979721069336,0.13805371522903442,0.06979286670684814,-0.7071451190948383,-0.8752262183587091,3.099764254514345,-0.5836119651794434,0.6496660709381104,-0.48716649413108826,0.3474281132221222,-0.5102817416191101,-0.12632456421852112
0.579932689666748,0.06095403432846069,0.16344022750854492,0.07422196865081787,-0.701683687913802,-0.880893140152974,3.1042210556329732,-0.5890912413597107,0.6455045342445374,-0.4861024022102356,0.24779118597507477,-0.34219521284103394,-0.06946426630020142
0.5999348163604736,0.0761333703994751,0.12788748741149902,0.08025789260864258,-0.6987501806603393,-0.8833782414140705,3.107826300540729,-0.5917584300041199,0.6432612538337708,-0.4858364164829254,0.15455202758312225,-0.15567032992839813,0.012172890827059746
0.6200189590454102,0.06932675838470459,0.12459301948547363,0.0627366304397583,-0.6972346947917265,-0.8838358712450848,3.1104132795802424,-0.5927338004112244,0.6421002149581909,-0.4861832857131958,0.10949593037366867,-0.05955764651298523,-0.016089290380477905
0.6399378776550293,0.033374011516571045,0.13842302560806274,0.04827311635017395,-0.695496980039141,-0.8835326626031487,3.1114480106035813,-0.5934478044509888,0.6407670974731445,-0.4870700538158417,0.053394865244627,0.013504935428500175,-0.08142121136188507
0.6599359512329102,-0.00016826391220092773,0.1338929533958435,0.03616207838058472,-0.6937073344024008,-0.8836184601222692,3.109938580983356,-0.5943752527236938,0.639392077922821,-0.48774588108062744,-0.04044032469391823,0.06618057191371918,-0.11931439489126205
0.6799337863922119,-0.04052269458770752,0.12584030628204346,0.03359025716781616,-0.6927895657597068,-0.8842320359337678,3.1056275885797744,-0.5951279997825623,0.6386861205101013,-0.4877528250217438,-0.1615086793899536,0.14987334609031677,-0.14447228610515594
0.6999349594116211,-0.02631932497024536,0.09254300594329834,0.04277494549751282,-0.6939833266603115,-0.8844984190534854,3.0990596562170025,-0.5946676135063171,0.6396042704582214,-0.48711076378822327,-0.2965238094329834,0.21716681122779846,-0.09836182743310928
0.7199349403381348,-0.05282336473464966,0.09241783618927002,-0.0073798298835754395,-0.6955765766006895,-0.885745970389437,3.091167020459765,-0.5944850444793701,0.6408281922340393,-0.48572322726249695,-0.2412574589252472,0.14747312664985657,-0.1975906938314438
0.7399449348449707,-0.16606450080871582,0.15464168787002563,-0.0772964358329773,-0.6926601509171423,-0.8889785728870739,3.083048370163347,-0.5975006222724915,0.6385865807533264,-0.4849746525287628,-0.03937383368611336,0.06747309863567352,-0.4358971118927002
0.7599897384643555,-0.25683802366256714,0.2504381537437439,-0.1259048581123352,-0.6848114669012896,-0.8944123807682779,3.0728570672074893,-0.6040171384811401,0.6325269937515259,-0.4848434031009674,-0.11576109379529953,0.05771305412054062,-0.6845364570617676
0.780031681060791,-0.2330857515335083,0.25935399532318115,-0.12195587158203125,-0.6772832090864007,-0.9003900928969409,3.058068680976588,-0.610618531703949,0.6266782283782959,-0.48416897654533386,-0.36817318201065063,0.29277029633522034,-0.5089676976203918
0.7999367713928223,-0.08224022388458252,0.07351785898208618,-0.07407820224761963,-0.6801640294753925,-0.9017080511290316,3.0417709918438556,-0.6098374724388123,0.6289205551147461,-0.4822419285774231,-0.8044281601905823,0.5643362998962402,-0.09491539001464844
0.8199338912963867,-0.007534384727478027,-0.05550891160964966,-0.06939852237701416,-0.6922522247913113,-0.9015050272678464,3.023291931698525,-0.603732705116272,0.6382725834846497,-0.4776137173175812,-1.0214303731918335,0.5997145175933838,0.086497001349926
0.8399629592895508,-0.00811922550201416,-0.0900314450263977,-0.0639955997467041,-0.7046346732146248,-0.9021477076174086,3.004888504072105,-0.5977920889854431,0.6477555632591248,-0.4722897708415985,-0.7991315722465515,0.4888300895690918,-0.006742570549249649
0.8599448204040527,-0.037997543811798096,-0.14911764860153198,-0.08874863386154175,-0.7110467971944241,-0.9020920494191071,2.9923885299252424,-0.5944945216178894,0.6526272892951965,-0.46973827481269836,-0.34222090244293213,0.33724573254585266,-0.09375324100255966
0.8799319267272949,-0.07370215654373169,-0.15764933824539185,-0.07264500856399536,-0.710707151107443,-0.8996171041105806,2.98688535496482,-0.5935037136077881,0.6523698568344116,-0.47134602069854736,-0.03721588850021362,0.28124794363975525,-0.196075901389122
0.8999338150024414,-0.07042431831359863,-0.11236798763275146,-0.019055932760238647,-0.7074187654223629,-0.8975194700696877,2.9811293770915026,-0.5941874980926514,0.6498740911483765,-0.4739249646663666,-0.1460522711277008,0.31004321575164795,-0.3316875696182251
0.9199328422546387,-0.008923649787902832,-0.1764695644378662,0.034467995166778564,-0.7062943561470147,-0.8973937462361934,2.9706843607829594,-0.5946988463401794,0.6490190625190735,-0.4744551479816437,-0.38664382696151733,0.37503287196159363,-0.21706832945346832
0.9399347305297852,0.06371152400970459,-0.22303694486618042,0.018568724393844604,-0.7094644010609201,-0.8968720658898413,2.9603708305837877,-0.5928405523300171,0.6514275074005127,-0.47347894310951233,-0.3935556411743164,0.32377713918685913,-0.05982303246855736
0.9599356651306152,0.0991353988647461,-0.18288439512252808,0.0034204423427581787,-0.7122745853133889,-0.8964015833137405,2.9527472392535503,-0.5911855697631836,0.6535570621490479,-0.4726128876209259,-0.20441515743732452,0.23363330960273743,-0.08973409980535507
0.9817566871643066,0.13017898797988892,-0.19907742738723755,0.0025231540203094482,-0.7123396353477119,-0.8955512045705004,2.9486434418720275,-0.5907502174377441,0.6536062955856323,-0.4730888605117798,-0.05221395939588547,0.11784057319164276,-0.1156691387295723
0.999964714050293,0.1407923698425293,-0.20028162002563477,0.003109753131866455,-0.710303539957051,-0.8948292220218071,2.947275871510015,-0.5914455056190491,0.6520639061927795,-0.47434690594673157,0.07725363224744797,0.04548940807580948,-0.09085371345281601
1.0198838710784912,0.12955814599990845,-0.1990727186203003,0.020615041255950928,-0.7084489016499693,-0.8942188253191616,2.947648440972553,-0.592097818851471,0.6506567001342773,-0.47546425461769104,0.047636762261390686,-0.005507993046194315,-0.051489707082509995
1.0398988723754883,0.10543477535247803,-0.1934071183204651,0.01120913028717041,-0.7073381737776426,-0.8955071147821138,2.947202595232728,-0.5932735800743103,0.6498128175735474,-0.47515255212783813,-0.0022347080521285534,-0.10642537474632263,-0.05378120765089989
1.0599370002746582,0.09899699687957764,-0.14743846654891968,-0.013785779476165771,-0.70624260586728,-0.8990022513870531,2.946952728642593,-0.5954875349998474,0.6489797234535217,-0.47351887822151184,0.07304608821868896,-0.22703701257705688,-0.05794311687350273
1.0799357891082764,0.09255921840667725,-0.11029642820358276,-0.0164182186126709,-0.7033552480858456,-0.9031319093651767,2.94894523553792,-0.598906934261322,0.6467803120613098,-0.4722139537334442,0.20869247615337372,-0.3105752468109131,-0.07546208053827286
1.0999538898468018,0.09485870599746704,-0.08566814661026001,-0.01328355073928833,-0.6989013313061945,-0.9078732267783931,2.952613111478462,-0.603403627872467,0.6433770060539246,-0.4711371958255768,0.3057541251182556,-0.39783671498298645,-0.09162428975105286
1.119964838027954,0.12612062692642212,-0.09984809160232544,-0.026699304580688477,-0.6938353199456733,-0.912755954174161,2.9587441156212217,-0.6082677841186523,0.6394904851913452,-0.47017258405685425,0.3616062104701996,-0.4855661988258362,-0.02045261301100254
1.1399328708648682,0.17084962129592896,-0.0904703140258789,-0.022331178188323975,-0.6897421942177977,-0.9184034537605101,2.9666391760556823,-0.6129883527755737,0.6363383531570435,-0.46831512451171875,0.3655901551246643,-0.5796598792076111,0.08353418111801147
1.1599349975585938,0.20097315311431885,-0.07966387271881104,-0.007774233818054199,-0.6869916847286278,-0.924709513714385,2.975766372017649,-0.6173245310783386,0.6342141628265381,-0.4654923379421234,0.3817378580570221,-0.6322224140167236,0.13110409677028656
1.179959774017334,0.2287362813949585,-0.07064718008041382,0.0028446316719055176,-0.684784896237559,-0.9303041896218982,2.987464024690092,-0.6210398077964783,0.6325064301490784,-0.46286657452583313,0.47340333461761475,-0.6733433604240417,0.24001248180866241
1.1999497413635254,0.2186884880065918,-0.061325788497924805,0.01941370964050293,-0.6830153677549915,-0.9351511036732125,3.0018228171662122,-0.6241755485534668,0.6311348080635071,-0.46051475405693054,0.5245035886764526,-0.7281484007835388,0.2538420855998993
1.2199440002441406,0.19368129968643188,-0.034458279609680176,0.03064042329788208,-0.6802685410009286,-0.9407882326609485,3.0167594018432657,-0.6281600594520569,0.629001796245575,-0.4580085575580597,0.567143440246582,-0.7892236709594727,0.2318216860294342
1.2399427890777588,0.2050880789756775,-0.022876381874084473,0.040582865476608276,-0.677973509548833,-0.9477793081989067,3.0321001548530297,-0.6325172781944275,0.6272159814834595,-0.454446941614151,0.5156857967376709,-0.8787784576416016,0.291181355714798
1.2599108219146729,0.22057878971099854,-0.023569762706756592,0.05500549077987671,-0.6779822161532467,-0.9573620878791541,3.046561207549762,-0.6368385553359985,0.6272227764129639,-0.44836175441741943,0.4022575616836548,-1.003156065940857,0.36664140224456787
1.2799758911132812,0.19375169277191162,0.02492278814315796,0.05782514810562134,-0.6805709200080062,-0.9708607225316379,3.060085636337872,-0.6414903998374939,0.6292368769645691,-0.43880653381347656,0.35953888297080994,-1.2058606147766113,0.44380608201026917
1.2999348640441895,0.15740180015563965,0.07073724269866943,0.022281765937805176,-0.6847499986993368,-0.986903569102788,3.0769016452898703,-0.6462476849555969,0.6324793696403503,-0.4270058274269104,0.5505592226982117,-1.4554649591445923,0.6611471176147461
1.3199329376220703,0.18665951490402222,0.100619375705719,-0.010985851287841797,-0.6889264208941406,-0.9996570268852834,3.104590669789377,-0.6494128704071045,0.6357088088989258,-0.4172978401184082,1.0041213035583496,-1.5636121034622192,0.80149906873703
1.3400278091430664,0.20952099561691284,0.2408103346824646,0.09401732683181763,-0.6884806957299737,-1.0067003409686275,3.1403317192835467,-0.6525752544403076,0.6353647112846375,-0.41286495327949524,1.3347713947296143,-1.3472003936767578,0.613753080368042
1.3599376678466797,0.1738516092300415,0.1799386739730835,0.21873611211776733,-0.682258098572395,-1.0074082018073438,-3.1071204777822174,-0.6561972498893738,0.6305472254753113,-0.41450634598731995,1.2552467584609985,-1.0127015113830566,0.3836841583251953
1.3800208568572998,0.1738528609275818,-0.059372782707214355,0.3355347514152527,-0.676306038337667,-1.006745263929236,-3.0793469721160602,-0.6590823531150818,0.6259164214134216,-0.4169403314590454,0.8955641388893127,-0.6891400814056396,0.2608349025249481
1.3999948501586914,0.2339937686920166,-0.15923678874969482,0.355781227350235,-0.6720614441088154,-1.0103167345065323,-3.0627951530474964,-0.6628115177154541,0.6226004958152771,-0.4159923195838928,0.4262784719467163,-0.7824661731719971,0.00745896203443408
1.419933795928955,0.26349151134490967,-0.09758120775222778,0.3473728895187378,-0.6642924178674356,-1.0260441757693906,-3.0594930644861518,-0.6733884215354919,0.6165021657943726,-0.4080112874507904,0.2722320258617401,-0.990618109703064,-0.5133317708969116
1.4393048286437988,0.2107175588607788,-0.04221189022064209,0.3290356397628784,-0.649116817322545,-1.0480357249916303,-3.0607895225949484,-0.6902250647544861,0.6044830679893494,-0.39773064851760864,0.4021015763282776,-1.1203879117965698,-0.8187137246131897
1.4599378108978271,0.1907438039779663,0.02350151538848877,0.27057814598083496,-0.6291244639799178,-1.072161763965727,-3.061216166315246,-0.7100920677185059,0.5884370803833008,-0.38666704297065735,0.5851868987083435,-1.2844191789627075,-0.9124494791030884
1.4799346923828125,0.21742641925811768,0.08826130628585815,0.20046603679656982,-0.6068623253050813,-1.0954749705952238,-3.0550046360375047,-0.730381190776825,0.5702928304672241,-0.37591153383255005,0.8890633583068848,-1.4214057922363281,-0.810381293296814
1.4999656677246094,0.11460757255554199,0.0967070460319519,0.24047058820724487,-0.5840353025967668,-1.1181014155430946,-3.0447583691896187,-0.7502124905586243,0.5513948202133179,-0.3648907244205475,0.8012229800224304,-1.3615001440048218,-0.9115881323814392
1.5199508666992188,0.03597843647003174,0.055715858936309814,0.29950690269470215,-0.5602123878960932,-1.1406078055273765,-3.0413237063752243,-0.7699568271636963,0.5313661098480225,-0.3532940745353699,0.4812101423740387,-1.0671095848083496,-1.0567792654037476
1.539933681488037,0.14664119482040405,0.011332035064697266,0.30162563920021057,-0.5399809376821684,-1.1603321301658291,-3.0442408539234282,-0.7864727973937988,0.5141196250915527,-0.3422597348690033,0.15529611706733704,-0.7462582588195801,-0.8786499500274658
1.559492826461792,0.17650675773620605,0.02504551410675049,0.24745473265647888,-0.5245439046058082,-1.1734075852079016,-3.046550767636964,-0.7981042265892029,0.5008182525634766,-0.3349791467189789,0.4159192442893982,-0.47764578461647034,-0.6318430304527283
1.57993483543396,0.1243666410446167,0.14123955368995667,0.16823002696037292,-0.5081222312605167,-1.1747652464525404,-3.033027958748082,-0.8060377836227417,0.4865375757217407,-0.33702266216278076,1.3172248601913452,-0.3609023988246918,-0.475787490606308
1.5999348163604736,0.03813236951828003,0.1987067461013794,0.16210874915122986,-0.4853471393064116,-1.1677720845297908,-3.002581341275195,-0.81364506483078,0.466515451669693,-0.3469078540802002,1.9266070127487183,-0.4091491997241974,-0.6100152730941772
1.6199378967285156,-0.024248361587524414,0.09392845630645752,0.17871534824371338,-0.457765776175916,-1.1626203492438878,-2.970594687040446,-0.8233469128608704,0.44194501638412476,-0.3560681939125061,1.673341989517212,-0.5342845320701599,-0.8047509789466858
1.6399338245391846,-0.10096567869186401,0.0016529262065887451,0.18347758054733276,-0.43073257630200873,-1.1659501136698749,-2.9511897143928434,-0.8352068662643433,0.41753658652305603,-0.3579007387161255,0.996182382106781,-0.6106554865837097,-0.9803254008293152
1.6599438190460205,-0.17014288902282715,-0.0005020201206207275,0.16518494486808777,-0.40623697782977686,-1.1756665040676615,-2.9457416734242354,-0.8478320240974426,0.3951553702354431,-0.353600412607193,0.44951263070106506,-0.5827358961105347,-1.0730869770050049
1.6799848079681396,-0.1644045114517212,0.06755909323692322,0.1602737009525299,-0.38389400878597757,-1.1869764860352683,-2.9491812658768874,-0.8597503304481506,0.37453386187553406,-0.347209095954895,0.1471308022737503,-0.40318888425827026,-1.102140188217163
1.700021743774414,-0.09425568580627441,0.0686165988445282,0.19746828079223633,-0.3641036403650051,-1.195746029657114,-2.9564365414935616,-0.8694894909858704,0.3561118543148041,-0.34230467677116394,-0.03594449535012245,-0.1791445016860962,-0.9909064769744873
1.7199327945709229,-0.09949541091918945,0.006750524044036865,0.2781534492969513,-0.3478639625936572,-1.2006271283119796,-2.967038281970502,-0.8764262199401855,0.340890496969223,-0.34010404348373413,-0.28050121665000916,0.015074602328240871,-0.9175934195518494
1.739961862564087,-0.11357003450393677,-0.005525946617126465,0.27419042587280273,-0.33293159961031865,-1.2042599697521685,-2.9795575901927918,-0.882310152053833,0.32681503891944885,-0.33870455622673035,-0.26163235306739807,-0.020063677802681923,-0.8831188082695007
1.7599329948425293,-0.04271841049194336,0.08139541745185852,0.1916845738887787,-0.31801116589809436,-1.2123891640669306,-2.989313814075257,-0.8895021080970764,0.3126780688762665,-0.3331945240497589,-0.009762546047568321,-0.4882219135761261,-0.8786453604698181
1.779883861541748,-0.051948368549346924,0.0933728814125061,0.1530093550682068,-0.3005032530016241,-1.2268353059432666,-2.9922900145858513,-0.8992388844490051,0.29600095748901367,-0.322107195854187,0.33000126481056213,-0.8241899013519287,-0.8552365303039551
1.7999358177185059,-0.09048581123352051,0.05160459876060486,0.16581040620803833,-0.28110840515741636,-1.2444265978315376,-2.9898840969489315,-0.9100330471992493,0.2774207293987274,-0.30802226066589355,0.5573108196258545,-0.9692341089248657,-0.9414342641830444
1.8199739456176758,-0.10292845964431763,0.004724681377410889,0.12089625000953674,-0.2589001396220745,-1.2619061768952249,-2.981342140506408,-0.9209210872650146,0.2560175061225891,-0.2938697934150696,0.9059542417526245,-1.0253674983978271,-0.9162381291389465
1.8399887084960938,-0.1162920594215393,-0.026345491409301758,0.05029881000518799,-0.23467024078200568,-1.2783090965514505,-2.9647530868146075,-0.9312849640846252,0.23252227902412415,-0.2804318070411682,1.33437979221344,-1.0349632501602173,-0.9403840899467468
1.859933853149414,-0.17430663108825684,-0.029152274131774902,0.07607510685920715,-0.20737803710260458,-1.2922325924218443,-2.9417718799186003,-0.9408514499664307,0.2058948278427124,-0.2690834701061249,1.5463391542434692,-0.8227035403251648,-1.0451706647872925
1.8799328804016113,-0.20753353834152222,-0.04415065050125122,0.10708734393119812,-0.1790939856273009,-1.3018234391931744,-2.9185345759369388,-0.9486250877380371,0.1781381219625473,-0.2614910304546356,1.3213751316070557,-0.5622588396072388,-1.0571644306182861
1.8999347686767578,-0.17998075485229492,-0.09767502546310425,0.14831897616386414,-0.15450237169069536,-1.3083364563718651,-2.9035145057951777,-0.9542508125305176,0.15388841927051544,-0.2563663721084595,0.7883192300796509,-0.3635697364807129,-0.9036075472831726
1.919975757598877,-0.20488601922988892,-0.09373047947883606,0.11984094977378845,-0.13558841498152668,-1.3134169750420073,-2.8956597250717677,-0.9581847190856934,0.13517335057258606,-0.2522108852863312,0.5599774718284607,-0.2623084485530853,-0.7602230310440063
1.9399688243865967,-0.19868141412734985,-0.008651398122310638,0.06321704387664795,-0.11874780054961628,-1.3175705979219365,-2.8859020007455967,-0.9612918496131897,0.11846891790628433,-0.24876387417316437,0.816072940826416,-0.3246806561946869,-0.638293981552124
1.9600028991699219,-0.17807745933532715,0.007540129125118256,0.10129296779632568,-0.10159759083336811,-1.321871493668684,-2.8713188916280985,-0.9641803503036499,0.10142289847135544,-0.24509172141551971,1.0297820568084717,-0.21633519232273102,-0.6522198915481567
1.9800658226013184,-0.1702597737312317,-0.08860677480697632,0.08754104375839233,-0.08527688392953728,-1.324032978168181,-2.851850621063187,-0.9661844372749329,0.08517356216907501,-0.24337902665138245,1.218092441558838,-0.15501758456230164,-0.46721068024635315
1.9999628067016602,-0.1324874758720398,-0.11903024464845657,0.05401898920536041,-0.07108594974821109,-1.3253522940677118,-2.8291632330359393,-0.96757972240448,0.07102609425783157,-0.24237340688705444,1.349359154701233,-0.1598357856273651,-0.3832840919494629
2.019045829772949,-0.07203799486160278,-0.13216833770275116,0.06666499376296997,-0.05695804931264408,-1.325425152521777,-2.8044880097717306,-0.9684742093086243,0.05692725628614426,-0.2425224781036377,1.3830435276031494,-0.02599143050611019,-0.35274872183799744
2.0399017333984375,-0.032293856143951416,-0.17798157036304474,0.04896187782287598,-0.04574961226847479,-1.3259974899292253,-2.7800893107865896,-0.9691711068153381,0.045733653008937836,-0.2421075999736786,1.2054522037506104,-0.15672209858894348,-0.16919010877609253
2.0594139099121094,-0.2534213066101074,-0.21068820357322693,0.09968045353889465,-0.03873133315508204,-1.327599705900761,-2.760967503505156,-0.9698452353477478,0.03872165083885193,-0.24062581360340118,0.8014530539512634,-0.06095784530043602,-0.06310276687145233
2.079941749572754,-0.4724648594856262,-0.18796630203723907,0.21435672044754028,-0.0354315992870892,-1.3255148486538437,-2.751133368155239,-0.9694602489471436,0.035424187779426575,-0.2426770031452179,0.26166996359825134,0.26519063115119934,-0.001315753674134612
2.099946975708008,-0.5444768071174622,-0.18907421827316284,0.27917739748954773,-0.037670172803084635,-1.3155164491848896,-2.7502975583913747,-0.9669062495231628,0.03766126558184624,-0.25233709812164307,-0.1850057989358902,0.7520999908447266,0.24676698446273804
2.1199398040771484,-0.6562683582305908,-0.20050810277462006,0.2760547399520874,-0.04549450306633301,-1.297068414071509,-2.7555133530399725,-0.9617737531661987,0.045478809624910355,-0.27004274725914,-0.5479130744934082,1.0681893825531006,0.3831510543823242
2.139934778213501,-0.7304465770721436,-0.17556320130825043,0.3245517909526825,-0.0609005226728209,-1.2730595937191869,-2.766584172854027,-0.954230546951294,0.06086288392543793,-0.29281342029571533,-0.8465954065322876,1.1709949970245361,0.853070855140686
2.159871816635132,-0.6654537320137024,-0.13751143217086792,0.1869252622127533,-0.0872987840133449,-1.2521934061883773,-2.778481658547434,-0.9460574984550476,0.08718793839216232,-0.31204724311828613,-1.4681566953659058,0.9274418354034424,1.0269694328308105
2.179989814758301,-0.7536932826042175,-0.10486655682325363,-0.026579439640045166,-0.11897149724816189,-1.2435286573895032,-2.799602883652882,-0.9402307868003845,0.11869103461503983,-0.31918466091156006,-1.3597214221954346,0.25308141112327576,1.6091989278793335
2.199885845184326,-0.7929997444152832,-0.03444080054759979,-0.12279894948005676,-0.16743951412507263,-1.242386595102779,-2.8102432965695088,-0.9333186149597168,0.1666582226753235,-0.3180273771286011,-1.152512788772583,0.12522898614406586,2.443748950958252
2.2199349403381348,-1.1075632572174072,0.07844409346580505,-0.14271926879882812,-0.22087870384025363,-1.2360117807106614,-2.80857517554716,-0.921535313129425,0.21908706426620483,-0.320583313703537,-0.44903621077537537,0.473540723323822,2.579190969467163
2.2399659156799316,-1.131278157234192,0.0012267827987670898,-0.15221700072288513,-0.2709673384877066,-1.219141880038222,-2.7975285201063134,-0.9045494794845581,0.2676635980606079,-0.3318832814693451,-0.37412095069885254,0.9142308831214905,2.5079259872436523
2.260037899017334,-1.0603907108306885,-0.18089398741722107,-0.14312583208084106,-0.3200905955085234,-1.1996751867269106,-2.791166310777503,-0.8845862150192261,0.31465256214141846,-0.34423986077308655,-0.8142602443695068,0.7825254797935486,2.3227667808532715
2.2799108028411865,-0.880169153213501,-0.2073219120502472,-0.18450820446014404,-0.3677297055781137,-1.1884260076773345,-2.7932814102681984,-0.8657568693161011,0.3594978451728821,-0.3481760621070862,-1.1130868196487427,0.4468272626399994,1.9804902076721191
2.2999367713928223,-0.8013255000114441,-0.19888031482696533,-0.09726330637931824,-0.41069155425066195,-1.1838244009328835,-2.803562981764016,-0.8490498661994934,0.39924347400665283,-0.346004456281662,-1.3605939149856567,0.43448564410209656,1.68080735206604
2.3199357986450195,-0.6616003513336182,-0.1902538239955902,-0.09681963920593262,-0.4504334476188287,-1.1828670567307213,-2.8207331365812367,-0.8333643078804016,0.4353557825088501,-0.3405429720878601,-1.599172592163086,0.37420374155044556,1.409429669380188
2.3400418758392334,-0.5365281105041504,-0.1397114098072052,-0.11988222599029541,-0.48621981857138047,-1.1874863558997109,-2.8440145592277744,-0.8199477791786194,0.4672871530056,-0.3306487202644348,-1.6608988046646118,0.2112220972776413,1.1333951950073242
2.359935760498047,-0.41096949577331543,-0.07012152671813965,-0.11808428168296814,-0.5171706676909088,-1.1951284521992351,-2.867652066318084,-0.8086046576499939,0.4944227933883667,-0.31891217827796936,-1.3406373262405396,0.18561553955078125,0.9822637438774109
2.379934787750244,-0.3702528476715088,0.03304189443588257,-0.13799256086349487,-0.5415690189253923,-1.1998418802162394,-2.883518926869073,-0.7986162304878235,0.5154811143875122,-0.31063103675842285,-0.8500304818153381,0.13276751339435577,0.7931467890739441
2.3999319076538086,-0.2835140824317932,0.04197406768798828,-0.1323378086090088,-0.5607993460906787,-1.2044229317091506,-2.8947059500548367,-0.7906284332275391,0.531863272190094,-0.3033616244792938,-0.8485108017921448,-0.002911144867539406,0.6604635119438171
2.4199328422546387,-0.21433651447296143,-0.019381701946258545,-0.057220280170440674,-0.5791229582915904,-1.2147712345464508,-2.9121572793853225,-0.7844581007957458,0.5472900867462158,-0.29171764850616455,-1.1540722846984863,-0.08935655653476715,0.5314123630523682
2.4399898052215576,-0.1347714066505432,0.0016402006149291992,-0.011587858200073242,-0.5973420266593372,-1.2297040891386277,-2.9362393402267815,-0.7791996002197266,0.5624467730522156,-0.276589572429657,-1.3283755779266357,-0.07379259914159775,0.5314022898674011
2.459937810897827,-0.08202379941940308,0.04694688320159912,-0.014349430799484253,-0.6149390261554268,-1.245877706979348,-2.9615409226522837,-0.7740705609321594,0.5769087076187134,-0.2607511878013611,-1.1758407354354858,-0.104591965675354,0.4840836226940155
2.479942798614502,-0.023309648036956787,0.11799752712249756,-0.022844597697257996,-0.6296738294102744,-1.2614571294725976,-2.9826522984390986,-0.7698575258255005,0.5888811945915222,-0.24604572355747223,-0.9156110882759094,-0.20185601711273193,0.4085952043533325
2.4999446868896484,0.031037211418151855,0.049557387828826904,0.010924756526947021,-0.6431885997895018,-1.2762099494600367,-3.0010461898728122,-0.7657174468040466,0.5997499823570251,-0.23232974112033844,-0.9633331894874573,-0.17516972124576569,0.43417587876319885
2.5199546813964844,0.05156582593917847,0.007165074348449707,0.021936804056167603,-0.6570522597641576,-1.2931169410712555,-3.02447211799938,-0.7614659070968628,0.6107854843139648,-0.21705090999603271,-1.2225066423416138,-0.11788575351238251,0.33264920115470886
2.53995680809021,0.1700037717819214,0.0026131272315979004,0.017228856682777405,-0.6698600335002097,-1.3132168276923977,-3.053635636330321,-0.7580469846725464,0.6208762526512146,-0.19969338178634644,-1.3310385942459106,-0.08265665918588638,0.3700341582298279
2.559340000152588,0.2573620676994324,-0.04598325490951538,0.03933294117450714,-0.6833598249562387,-1.3331940081761706,-3.084744892834008,-0.7536693811416626,0.6314019560813904,-0.18252132833003998,-1.361177682876587,0.06703305244445801,0.3806506097316742
2.5799436569213867,0.28233158588409424,-0.06412369012832642,0.03149275481700897,-0.697110102414938,-1.351293316942009,-3.11722975609372,-0.7483046054840088,0.642004668712616,-0.1669449806213379,-1.3896045684814453,0.16133195161819458,0.3093474209308624
2.599965810775757,0.3304367661476135,-0.07273274660110474,0.02837933599948883,-0.7064648649744582,-1.3675397171788353,3.13477559478734,-0.745002806186676,0.6491487622261047,-0.15354710817337036,-1.1289551258087158,0.2703157067298889,0.2368350476026535
2.619935989379883,0.4998401403427124,-0.14373230934143066,0.04159657657146454,-0.7158916372543708,-1.37897393909813,3.107885100861907,-0.7406697273254395,0.6562904119491577,-0.14384569227695465,-1.0812674760818481,0.31986406445503235,0.21462109684944153
2.640000820159912,0.6025019884109497,-0.20894074440002441,0.06592954695224762,-0.7232257364608344,-1.3914395667530892,3.0791872873277244,-0.7376490831375122,0.6618063449859619,-0.13373951613903046,-1.162961721420288,0.31346723437309265,0.11099352687597275
2.659942865371704,0.6132148504257202,-0.22683268785476685,0.022406108677387238,-0.7295033710023693,-1.4060152257118772,3.048680487517297,-0.7354072332382202,0.6664994955062866,-0.12229006737470627,-1.2259809970855713,0.320765882730484,0.11252013593912125
2.679935932159424,0.5790858864784241,-0.25204235315322876,0.05406467616558075,-0.7354373462165377,-1.4185093937924758,3.0166739865461967,-0.7329556345939636,0.6709115505218506,-0.11249051243066788,-1.152459740638733,0.5764520168304443,0.0803394764661789
2.699955940246582,0.6543084979057312,-0.16939473152160645,0.03939121961593628,-0.7405647880755232,-1.422970099090977,2.99192232488659,-0.7300379276275635,0.674704909324646,-0.10871178656816483,-0.7472565770149231,0.6329982876777649,0.14859281480312347
2.7199339866638184,0.776069700717926,-0.18276280164718628,0.028301775455474854,-0.7454357417118639,-1.4196719727614848,2.978614262212408,-0.7264176607131958,0.6782920360565186,-0.110622838139534,-0.2561619281768799,0.5823071002960205,0.22134558856487274
2.739980697631836,0.8240326642990112,-0.19913971424102783,0.013201296329498291,-0.752169974641052,-1.4065403915485137,2.9789744927094923,-0.7203797698020935,0.6832249164581299,-0.11940240859985352,0.10022037476301193,0.7130977511405945,0.37452441453933716
2.7599568367004395,0.7892544269561768,-0.242296040058136,-0.014084935188293457,-0.7578752202816038,-1.3898491665712718,2.9812242145266445,-0.714440643787384,0.687379777431488,-0.13070563971996307,-0.05169204622507095,0.8457746505737305,0.25227469205856323
2.7799229621887207,0.796664834022522,-0.21434074640274048,-0.08909426629543304,-0.7634978686868698,-1.3736147205918705,2.979825668580352,-0.7084232568740845,0.6914526224136353,-0.14152702689170837,-0.0983303114771843,0.7917795181274414,0.3344103991985321
2.7999367713928223,0.8474090695381165,-0.040745317935943604,-0.18194431066513062,-0.7705819245876921,-1.358604005426248,2.9823409695952963,-0.7014130353927612,0.6965528726577759,-0.1511092185974121,0.15939092636108398,0.6068085432052612,0.3845229744911194
2.8200018405914307,0.7829833030700684,-0.043547868728637695,-0.04532313346862793,-0.7777882472432552,-1.338730156615585,2.990302022226525,-0.6933684945106506,0.7017053365707397,-0.1638595163822174,0.21320436894893646,0.8238195180892944,0.4239893853664398
2.8399457931518555,0.8078176975250244,-0.1469287872314453,-0.021095260977745056,-0.7836340689782064,-1.3159387809990268,3.001290960371636,-0.6854727268218994,0.7058582901954651,-0.17858116328716278,0.43419164419174194,0.6591072678565979,0.34898561239242554
2.85994291305542,0.8831649422645569,-0.22459250688552856,0.020877689123153687,-0.785958392162028,-1.2931359287575417,3.0187500251660766,-0.6796433329582214,0.7075027823448181,-0.1937139630317688,0.7164058685302734,0.3586525619029999,0.12703187763690948
2.879978656768799,0.7869486808776855,-0.27629345655441284,0.023456722497940063,-0.7792930042688423,-1.27326021857758,3.0416050346465386,-0.680152416229248,0.7027766108512878,-0.2085610181093216,0.9429876208305359,0.019894924014806747,-0.16813020408153534
2.899932861328125,0.666414737701416,-0.3930322527885437,0.14713014662265778,-0.7678309905359072,-1.2616099598216204,3.0608315625036697,-0.685305118560791,0.6945764422416687,-0.2189074456691742,0.6643783450126648,-0.06809476763010025,-0.6175514459609985
2.9200258255004883,0.490567147731781,-0.33833467960357666,0.23569762706756592,-0.7483377362259999,-1.258611790350215,3.0676694866931666,-0.6974000930786133,0.6804215312004089,-0.22507743537425995,0.401141881942749,-0.10918538272380829,-1.1007319688796997
2.939955711364746,0.4879290461540222,-0.23008620738983154,0.14894695580005646,-0.7198680173715345,-1.263111873470164,3.0673164424637047,-0.7165820002555847,0.6592854261398315,-0.2277127504348755,0.5971903204917908,-0.40221619606018066,-1.620553731918335
2.9599390029907227,0.3865736126899719,-0.09966742992401123,0.0001856088638305664,-0.6802204004184866,-1.269945135216194,3.0773681556951,-0.7425154447555542,0.628964364528656,-0.2303796261548996,1.346201777458191,-1.0385255813598633,-2.035400629043579
2.9799399375915527,0.1790727972984314,-0.12300980091094971,0.08956971764564514,-0.6337514795138935,-1.2878438653080206,3.0890047941778493,-0.7737690806388855,0.5921719074249268,-0.22497616708278656,0.3687182366847992,-1.198659062385559,-1.8596076965332031
2.99996280670166,-0.20868974924087524,-0.34728044271469116,0.12387198209762573,-0.6047214576093319,-1.3275182847092148,3.0563251770837927,-0.798436164855957,0.5685329437255859,-0.19816695153713226,-2.0013375282287598,-1.0604515075683594,-1.8537896871566772
3.020030975341797,-0.48694097995758057,0.17520183324813843,-0.2067309468984604,-0.5764228250245387,-1.3955369461151688,2.9837643841904984,-0.8255742788314819,0.5450282692909241,-0.14618948101997375,-2.9754412174224854,-1.6670745611190796,-2.2753355503082275
3.0399367809295654,-0.7217139005661011,0.4080049991607666,-0.17931759357452393,-0.5326787877385564,-1.4569890858707966,2.925246335565547,-0.8558771014213562,0.5078427791595459,-0.0978277325630188,-0.9028623700141907,-1.385062336921692,-2.757312774658203
3.0590877532958984,-0.896083414554596,0.44601792097091675,-0.22394870221614838,-0.47937406885551,-1.4830418460986683,2.9334018627149216,-0.8838695287704468,0.46122390031814575,-0.07776322960853577,1.7564001083374023,-1.7319949865341187,-2.4401471614837646
3.079936981201172,-0.7490038275718689,0.1805741786956787,-0.15716099739074707,-0.4294603226711865,-1.503609611051887,2.973050776329802,-0.9071394205093384,0.4163801968097687,-0.06103958934545517,1.974157691001892,-1.8752102851867676,-2.2030093669891357
3.0999937057495117,-0.7705169320106506,0.012563258409500122,-0.03390800580382347,-0.3929156958830828,-1.5235585845048296,3.009277882593171,-0.9227662086486816,0.38288354873657227,-0.043621841818094254,1.5596824884414673,-1.3255077600479126,-1.3514318466186523
3.1199727058410645,-0.7126603126525879,0.26103273034095764,-0.0013594664633274078,-0.3644272895952298,-1.5311842323789897,3.0358781054720763,-0.9335954189300537,0.356414258480072,-0.037001024931669235,1.170946717262268,-0.7389305233955383,-1.2900205850601196
3.1399338245391846,-0.31080538034439087,0.13981661200523376,-0.038947585970163345,-0.3482922470186681,-1.5361548326492658,3.056654383269311,-0.9393932223320007,0.3412930965423584,-0.03255500644445419,0.7329370379447937,-0.30687442421913147,-0.28883105516433716
3.159932851791382,-0.30632543563842773,0.038103580474853516,0.16113591194152832,-0.3474622285455608,-1.5334749031352723,3.069076908389618,-0.9395853281021118,0.34051278233528137,-0.03508295118808746,0.5342596769332886,-0.008877957239747047,0.22293181717395782
3.1799707412719727,-0.14119428396224976,0.026927709579467773,0.10987406969070435,-0.3553350237898313,-1.5299382349335702,3.0827368809323397,-0.936747670173645,0.3479044735431671,-0.03829503431916237,0.7716634273529053,-0.10057254880666733,0.5692251920700073
3.199943780899048,-0.1743614673614502,0.050360262393951416,0.05762451887130737,-0.36576074502709566,-1.5251034340385414,3.10080106279361,-0.9328774213790894,0.35765981674194336,-0.04265555739402771,0.793656051158905,-0.03789913281798363,0.5019657015800476
3.2199649810791016,-0.2245888113975525,-0.0501367449760437,-0.013268295675516129,-0.3749463942464194,-1.5209677204223702,3.1143884280747725,-0.9293725490570068,0.36622264981269836,-0.04634770378470421,0.42908304929733276,-0.0012408100301399827,0.5336378216743469
3.239935874938965,-0.2177714705467224,-0.0866895318031311,-0.01517082005739212,-0.3889487601682689,-1.5157436760935232,3.120319998778857,-0.9239066243171692,0.37921589612960815,-0.0509149543941021,0.03938889876008034,0.27277690172195435,0.9063723087310791
3.2600479125976562,-0.276633620262146,-0.025096416473388672,-0.007452674210071564,-0.4090097072215144,-1.509281385214316,3.1195659751271005,-0.9157798886299133,0.3977009057998657,-0.056405313313007355,-0.18774588406085968,0.3825400471687317,1.0576332807540894
3.279958724975586,-0.24482476711273193,0.025270044803619385,-0.032234907150268555,-0.4314922423711066,-1.5031905749287138,3.116422087137983,-0.9062678813934326,0.4182267487049103,-0.061362434178590775,-0.28400540351867676,0.3556195795536041,1.171207308769226
3.299956798553467,-0.21219366788864136,-0.03705492615699768,-0.036854088306427,-0.45681558968416586,-1.497626439597699,3.1117728907356055,-0.8950604796409607,0.44109246134757996,-0.06560859829187393,-0.30799829959869385,0.3972508907318115,1.3557034730911255
3.3199338912963867,-0.09259891510009766,-0.10681530833244324,-0.027146942913532257,-0.485859575634313,-1.4916671403665203,3.107178844670525,-0.8815070986747742,0.4669686257839203,-0.06989888846874237,-0.35181474685668945,0.42944133281707764,1.4634637832641602
3.339932918548584,-0.08683490753173828,-0.141708105802536,-0.049641065299510956,-0.5140047673841216,-1.483477976478962,3.1043014112794713,-0.867465078830719,0.4916684627532959,-0.07593871653079987,-0.10962732881307602,0.5171560645103455,1.2651005983352661
3.359970808029175,-0.10989153385162354,-0.23053693771362305,-0.17030596733093262,-0.5367308181429875,-1.4720250597152416,3.107793462090531,-0.8551964163780212,0.5113292336463928,-0.08474459499120712,0.025827286764979362,0.5265107154846191,1.1519607305526733
3.380049705505371,-0.145643413066864,-0.301855206489563,-0.18116189539432526,-0.5613255717756261,-1.4598003322543378,3.1001127690878953,-0.8413410782814026,0.53230881690979,-0.09377089142799377,-0.7124830484390259,0.9307559132575989,1.0798203945159912
3.40002179145813,-0.14865458011627197,-0.25795120000839233,-0.2907845377922058,-0.5817486467001574,-1.4520244556730442,3.0886202205573903,-0.8296170830726624,0.5494858026504517,-0.09900113940238953,-0.6696733832359314,0.5009739995002747,0.9651892781257629
3.419996738433838,-0.044404566287994385,-0.09127753973007202,-0.15728998184204102,-0.6027305604807367,-1.45572358074443,3.0675299591926892,-0.8183426856994629,0.566893994808197,-0.0945868045091629,-1.3108762502670288,0.3628654181957245,0.8554161190986633
3.439955711364746,-0.16622555255889893,-0.1318020224571228,-0.08088606595993042,-0.6207513132913687,-1.4665355945422498,3.0324183936813833,-0.8090247511863708,0.5816465020179749,-0.0846564844250679,-1.6241741180419922,0.5753737688064575,0.6681466698646545
3.460094928741455,-0.049149394035339355,-0.1494596004486084,-0.07124023884534836,-0.6373048882058086,-1.4757976669248,2.996290075163014,-0.8000785112380981,0.5950315594673157,-0.07623586058616638,-1.4971576929092407,0.6211636066436768,0.6934313178062439
3.4800219535827637,0.020843923091888428,-0.15471673011779785,-0.035454317927360535,-0.6514386354117974,-1.4825024558062656,2.9618668474465877,-0.7921146750450134,0.6063310503959656,-0.07012118399143219,-1.3379554748535156,0.7643721103668213,0.4336690604686737
3.500131845474243,0.01852172613143921,-0.19325405359268188,-0.0869671031832695,-0.6614277017869084,-1.4853501153526347,2.930953769065329,-0.7862371802330017,0.6142441034317017,-0.06734496355056763,-1.2341279983520508,0.8455959558486938,0.39198794960975647
3.5199317932128906,0.04286837577819824,-0.15743917226791382,-0.11148243397474289,-0.6709736709502451,-1.485303975276256,2.902199405477227,-0.7803561687469482,0.6217488646507263,-0.06687749922275543,-1.1176278591156006,0.8938834071159363,0.36846238374710083
3.5399279594421387,0.052743375301361084,-0.10092705488204956,-0.11128949373960495,-0.6798386686498821,-1.483951807126247,2.87578740630397,-0.7747434973716736,0.6286675930023193,-0.06745188683271408,-1.0530484914779663,0.9576204419136047,0.36568230390548706
3.5590767860412598,0.06384742259979248,-0.15522199869155884,-0.06736284494400024,-0.689555623548589,-1.480800693836565,2.8466842366743768,-0.7684068083763123,0.6361944079399109,-0.06934055685997009,-1.293857455253601,1.199866533279419,0.39540719985961914
3.587195873260498,0.0931239128112793,-0.17634916305541992,-0.10073971748352051,-0.7120067140598763,-1.4729684319537206,2.7722836530246133,-0.7534328103065491,0.653354287147522,-0.07394278049468994,-1.5676661729812622,1.4798634052276611,0.4350212514400482
3.6080968379974365,0.13348692655563354,-0.12392467260360718,-0.12612342834472656,-0.7232336455716246,-1.4696401030740895,2.733213239993144,-0.7458374500274658,0.6618123054504395,-0.07570449262857437,-1.4619724750518799,1.4382996559143066,0.4100860357284546
3.626478672027588,0.13447165489196777,-0.11253559589385986,-0.12559831142425537,-0.7339008986582611,-1.4644045568487973,2.697181559626653,-0.738368809223175,0.6697714328765869,-0.07885411381721497,-1.351814866065979,1.4819421768188477,0.3687960207462311
3.64821195602417,0.14682459831237793,-0.13754576444625854,-0.10914313048124313,-0.7435819617089875,-1.4580274546487508,2.662197989684145,-0.7313735485076904,0.6769287586212158,-0.08282757550477982,-1.3712897300720215,1.5110784769058228,0.3426864743232727
3.6670737266540527,0.17400014400482178,-0.1390446424484253,-0.09837246686220169,-0.7539395676275383,-1.4540269971957,2.624474558422453,-0.7240338325500488,0.6845160126686096,-0.08493131399154663,-1.5046921968460083,1.4837785959243774,0.3665424585342407
3.6880197525024414,0.19128108024597168,-0.11494046449661255,-0.08219718933105469,-0.7647386237189931,-1.4535622257645646,2.5818246549653496,-0.7166107296943665,0.6923484206199646,-0.08439822494983673,-1.6959834098815918,1.485203742980957,0.3295508623123169
3.7080798149108887,0.22882145643234253,-0.07746893167495728,-0.07469505071640015,-0.7746031741128704,-1.457467889027369,2.534637208132079,-0.7101142406463623,0.6994324922561646,-0.08082244545221329,-1.7828987836837769,1.4150347709655762,0.2761012613773346
3.7280797958374023,0.2587418556213379,-0.036340415477752686,-0.0614132285118103,-0.7835583363189886,-1.4640542199592987,2.486409215970543,-0.7043748497962952,0.7058046460151672,-0.07547331601381302,-1.688406229019165,1.3267543315887451,0.21566350758075714
3.747945785522461,0.23780667781829834,-0.009412229061126709,-0.05178433656692505,-0.7901113086577367,-1.4697778829459345,2.4421271659809403,-0.7001785635948181,0.7104316353797913,-0.07097253203392029,-1.5249948501586914,1.2364532947540283,0.12280880659818649
3.7666897773742676,0.2121589183807373,-0.008835196495056152,-0.003504037857055664,-0.7942870165345618,-1.4757782116272642,2.4000054206528416,-0.6976325511932373,0.7133641242980957,-0.06648794561624527,-1.5110204219818115,1.1804287433624268,-0.012562376447021961
3.7875938415527344,0.1979956030845642,-0.03647822141647339,0.029600314795970917,-0.7952807702537783,-1.4854744911804647,2.354477265511561,-0.6975379586219788,0.7140601873397827,-0.059660058468580246,-1.672444462776184,1.0999228954315186,-0.18086229264736176
3.8076539039611816,0.17693674564361572,0.02956181764602661,-0.045756153762340546,-0.793255667697323,-1.4992335955010654,2.307557712334873,-0.6997333765029907,0.7126410007476807,-0.0501604862511158,-1.5778388977050781,0.805672824382782,-0.26965200901031494
3.8280258178710938,0.08743476867675781,0.22318178415298462,-0.11336255073547363,-0.7888267322988433,-1.51625287039576,2.267144006806818,-0.7036304473876953,0.7095269560813904,-0.0384165421128273,-1.195483684539795,0.4355383813381195,-0.33534273505210876
3.8478379249572754,-0.013147950172424316,0.26876598596572876,-0.0594068206846714,-0.7838933161043563,-1.5286015159063489,2.237558870902695,-0.7075400352478027,0.7060418725013733,-0.029872247949242592,-0.9176628589630127,0.4748104214668274,-0.24679192900657654
3.867579936981201,-0.09608227014541626,0.16969150304794312,0.05771893262863159,-0.7810734304686595,-1.533838536800928,2.212098417091194,-0.7096734046936035,0.7040421366691589,-0.02623990923166275,-0.9260492920875549,0.8298808932304382,-0.1109769195318222
3.8874549865722656,-0.18016666173934937,0.09519374370574951,0.13542115688323975,-0.779726805135882,-1.5329150999020413,2.1837024537517338,-0.7105957269668579,0.70308518409729,-0.026931120082736015,-1.1009767055511475,1.2426464557647705,-0.12664435803890228
3.9073996543884277,-0.15990179777145386,0.054459989070892334,0.1291269063949585,-0.7771878201762353,-1.5288006932840197,2.151169967596088,-0.7122601270675659,0.7012774348258972,-0.02992941252887249,-1.1889140605926514,1.3861491680145264,-0.21234706044197083
3.927734851837158,-0.08853882551193237,0.09589594602584839,0.07220757007598877,-0.773351870061506,-1.5244816364280631,2.119749095108141,-0.7148059010505676,0.6985376477241516,-0.03312970697879791,-0.9984908103942871,1.2236179113388062,-0.2637854218482971
3.9490537643432617,-0.03593277931213379,0.10932499170303345,0.01809084787964821,-0.7686906962117628,-1.5204957045188643,2.0942356958861934,-0.7179124355316162,0.695194661617279,-0.036141928285360336,-0.8148941397666931,0.9656949043273926,-0.2976834177970886
3.9678187370300293,-0.02695220708847046,0.057874202728271484,0.0289309024810791,-0.7639864172929344,-1.5172442715534984,2.0733971881368056,-0.7210489511489868,0.6918054819107056,-0.03865060955286026,-0.6788482666015625,0.8393321633338928,-0.23030713200569153
3.9869678020477295,-0.027719080448150635,-0.014596879482269287,0.056834522634744644,-0.7611683149700817,-1.5121178480357498,2.056077225829726,-0.7227844595909119,0.6897678375244141,-0.04246063902974129,-0.558008074760437,0.8969899415969849,-0.12227854877710342
4.008540868759155,-0.018679797649383545,-0.03161531686782837,0.04086608067154884,-0.7594062967120137,-1.5034149407537527,2.0417929484775637,-0.7235992550849915,0.6884909868240356,-0.048831041902303696,-0.47707825899124146,0.9359560012817383,-0.1677195429801941
4.027415752410889,-0.009409189224243164,-0.018047451972961426,0.008899562060832977,-0.7557480101392768,-1.4935987653176763,2.0298617715071003,-0.7255915403366089,0.685833215713501,-0.05612543225288391,-0.39751073718070984,0.8704835176467896,-0.22564347088336945
4.045133829116821,-0.0072699785232543945,-0.06647360324859619,0.025855302810668945,-0.7521405931894809,-1.4848407703673134,2.0174980213371825,-0.7275323271751404,0.6832034587860107,-0.06268991529941559,-0.5019526481628418,0.8749847412109375,-0.2201225906610489
4.06708288192749,0.02395331859588623,-0.09854400157928467,0.052089937031269073,-0.7485475658901165,-1.4772393139424902,2.002568988306252,-0.7294739484786987,0.6805753111839294,-0.06844722479581833,-0.5343316197395325,0.8997623324394226,-0.22873520851135254
4.086997985839844,0.08862310647964478,-0.06699544191360474,0.05656915158033371,-0.744565491184372,-1.4684826980855226,1.9894943239071328,-0.7315370440483093,0.6776523590087891,-0.07510847598314285,-0.3532479703426361,0.8690842986106873,-0.2630690336227417
4.105649948120117,0.13005369901657104,-0.06805914640426636,0.03711676597595215,-0.7395702467147596,-1.456649127616502,1.9824410426937018,-0.7339508533477783,0.6739704608917236,-0.08414420485496521,-0.10693620890378952,0.7863311171531677,-0.29565414786338806
4.126041889190674,0.1575717329978943,-0.1266789436340332,0.031557440757751465,-0.7337549869011442,-1.4422326102262295,1.9812297708622262,-0.7365360260009766,0.6696630716323853,-0.09521698951721191,0.053765032440423965,0.7614685297012329,-0.2970317304134369
4.146693706512451,0.15290230512619019,-0.15050816535949707,0.051572248339653015,-0.7267845317107491,-1.4267214494114473,1.9813864162749892,-0.7395723462104797,0.6644701361656189,-0.10729723423719406,0.06323900073766708,0.7843400835990906,-0.41671115159988403
4.164735794067383,0.15421009063720703,-0.17050129175186157,0.05817592144012451,-0.7173958695750523,-1.4107133654283082,1.9818555930549229,-0.7438859939575195,0.6574246287345886,-0.12011124938726425,0.11193539202213287,0.7805455923080444,-0.4893433749675751
4.184672832489014,0.12825697660446167,-0.19628101587295532,0.06476390361785889,-0.7070239575354857,-1.3943677249798065,1.982866313256482,-0.7484962344169617,0.6495739817619324,-0.13344359397888184,0.11485592275857925,0.7993831038475037,-0.5344485640525818
4.206610679626465,0.030056536197662354,-0.18319380283355713,0.07643534243106842,-0.6947316378105269,-1.3791599464545847,1.9810244844963356,-0.7541623115539551,0.6401792764663696,-0.14632052183151245,-0.027128752321004868,0.8463429808616638,-0.7142156362533569
4.2265777587890625,0.003237128257751465,-0.17262369394302368,0.09065468609333038,-0.680068430943871,-1.3652123773058478,1.9760858316478283,-0.761156439781189,0.6288462281227112,-0.15872402489185333,-0.02075175940990448,0.8579786419868469,-0.7712143659591675
4.245558738708496,0.03406137228012085,-0.1723882555961609,0.08239752054214478,-0.6652338061831718,-1.3509820934021934,1.972195624200294,-0.7678413391113281,0.6172431111335754,-0.17155447602272034,0.04151221364736557,0.8051614761352539,-0.7582132816314697
4.263086795806885,0.05214083194732666,-0.1682422161102295,0.04731011390686035,-0.6498740991497812,-1.3376203177043808,1.969365496916996,-0.7746140360832214,0.6050861477851868,-0.183967724442482,0.04433680325746536,0.6936516165733337,-0.793569028377533
4.2865519523620605,0.07690906524658203,-0.18647128343582153,0.05804389715194702,-0.6344903828591689,-1.3277177007832826,1.9638481694454513,-0.7816973328590393,0.5927671790122986,-0.19384700059890747,-0.14748361706733704,0.6613585948944092,-0.8255265951156616
4.306273937225342,0.04745972156524658,-0.24384623765945435,0.09549570083618164,-0.6185382440657348,-1.3213467316930512,1.9513657834978473,-0.7895099520683289,0.5798448324203491,-0.2011321783065796,-0.47027483582496643,0.7135077714920044,-0.9614080786705017
4.3263938426971436,0.0922747254371643,-0.24882405996322632,0.13715334236621857,-0.6026744613631215,-1.31853759888229,1.9306039557557781,-0.7977496385574341,0.5668478012084961,-0.20561940968036652,-0.7127019762992859,0.734744668006897,-1.0070472955703735
4.346076965332031,0.16771864891052246,-0.17490887641906738,0.08128613233566284,-0.585968430655157,-1.316538493646989,1.9092011728408298,-0.8063905835151672,0.5530065298080444,-0.20956666767597198,-0.4786108136177063,0.6419593095779419,-1.0563623905181885
4.36653995513916,0.14429861307144165,-0.049337923526763916,-0.057039737701416016,-0.5647905579439779,-1.3112207770024134,1.90014906901544,-0.8164025545120239,0.5352389216423035,-0.21680966019630432,0.3429926037788391,0.39319634437561035,-1.1195614337921143
4.385955810546875,0.07618075609207153,0.0009342432022094727,-0.00799328088760376,-0.5399709018018621,-1.3020199807162418,1.9026764821155335,-0.8269284963607788,0.5141110420227051,-0.22777017951011658,0.4356016516685486,0.4539836049079895,-1.3215358257293701
4.4061598777771,-0.07263267040252686,-0.1465945541858673,0.06857651472091675,-0.5103854388369272,-1.2907391087919198,1.902345746781325,-0.8385612368583679,0.4885135889053345,-0.24118386209011078,0.25728923082351685,0.6746320724487305,-1.462989330291748
4.4252166748046875,-0.013427555561065674,-0.14932501316070557,0.03721296787261963,-0.48301302164737736,-1.281812111709306,1.8956831229551667,-0.8488771915435791,0.46444961428642273,-0.2523770332336426,-0.02808995358645916,0.457581102848053,-1.3518638610839844
4.445897817611694,0.06887400150299072,-0.04113781452178955,-0.0810597836971283,-0.4575565638852879,-1.2806861533142104,1.8865215501539245,-0.8596454858779907,0.44175735116004944,-0.25663235783576965,0.03571638837456703,0.08709056675434113,-1.3257277011871338
4.4647438526153564,0.07442402839660645,-0.004374295473098755,-0.09162580966949463,-0.4320932430821114,-1.282612121144135,1.8809710986681714,-0.8706430196762085,0.4187725782394409,-0.2580902576446533,0.17753992974758148,0.014674684032797813,-1.2630672454833984
4.485547780990601,0.060848236083984375,-0.08891350030899048,-0.06477999687194824,-0.40815027611730287,-1.283297319582172,1.8771337193963202,-0.8801842331886292,0.39691221714019775,-0.260262668132782,0.15359528362751007,0.06790018081665039,-1.1231895685195923
4.505683898925781,0.12751621007919312,-0.10180917382240295,-0.08410319685935974,-0.38749596398819813,-1.2825592362043103,1.8732762821707636,-0.8876633048057556,0.37787121534347534,-0.2631867527961731,0.11140067875385284,0.1302744299173355,-0.9679370522499084
4.525831699371338,0.1644497513771057,-0.04385140538215637,-0.13818198442459106,-0.3686096097774506,-1.281552112767965,1.871042723259573,-0.8940793871879578,0.36031877994537354,-0.2660689949989319,0.25314638018608093,0.06165817007422447,-0.922378420829773
4.545623779296875,0.14550882577896118,-0.05196911096572876,-0.11587119102478027,-0.34978397499729025,-1.2791709165889593,1.871976245394293,-0.899781346321106,0.34269487857818604,-0.27009978890419006,0.353395938873291,0.15174846351146698,-0.8484476804733276
4.564438819885254,0.11537742614746094,-0.09198272228240967,-0.09472119808197021,-0.33157624558656,-1.2746276678863444,1.8747813713493262,-0.9043636918067932,0.32553380727767944,-0.2759604752063751,0.4267714023590088,0.21841804683208466,-0.85053551197052
4.585420846939087,0.1622689962387085,-0.0831809937953949,-0.084526926279068,-0.3119879605982699,-1.2683087175986258,1.8781565980391317,-0.9085155725479126,0.30695122480392456,-0.28351500630378723,0.4417628049850464,0.3001798391342163,-0.9095107316970825
4.60526180267334,0.1957111954689026,-0.0624256432056427,-0.08576643466949463,-0.29116208769236823,-1.262044879895141,1.881489414128076,-0.9126150012016296,0.2870655953884125,-0.2910798192024231,0.5175840258598328,0.20309971272945404,-1.0078221559524536
4.625328779220581,0.16774886846542358,-0.04285717010498047,-0.0969243049621582,-0.2683249928518726,-1.2582023229427397,1.8848116857340795,-0.9174895286560059,0.26511675119400024,-0.2965235114097595,0.43277686834335327,0.1199740320444107,-1.0573376417160034
4.645350933074951,0.18639075756072998,-0.06032700836658478,-0.04507407546043396,-0.2460763229149276,-1.2553903423396542,1.8852325431258041,-0.9220322370529175,0.24360036849975586,-0.3008578419685364,0.288542240858078,0.13991348445415497,-1.017914891242981
4.665020942687988,0.17787766456604004,-0.07913576066493988,-0.06800118088722229,-0.2256065167401625,-1.2529815379643316,1.88486409243736,-0.9258482456207275,0.22369754314422607,-0.30457255244255066,0.3670654296875,0.11679732799530029,-0.9735515713691711
4.6848838329315186,0.07693654298782349,-0.01013396680355072,-0.09440281987190247,-0.20394290455927708,-1.2512556364145444,1.886022138121698,-0.9297045469284058,0.2025320827960968,-0.3076203763484955,0.4127401113510132,0.020869817584753036,-1.0797381401062012
4.705019950866699,-0.013199269771575928,0.012283265590667725,-0.04797455668449402,-0.18023456608305416,-1.2504297459199245,1.886731852628781,-0.9337459206581116,0.17926034331321716,-0.3098134398460388,0.35440343618392944,0.06521855294704437,-1.104448676109314
4.725014686584473,0.007939398288726807,-0.042109414935112,0.03134909272193909,-0.1581858227138355,-1.2480531887389876,1.8856198912131454,-0.9365283250808716,0.15752694010734558,-0.31320932507514954,0.2876160144805908,0.19501738250255585,-1.0300376415252686
4.74504280090332,0.03046363592147827,-0.06681138277053833,0.01408231258392334,-0.13821976398578706,-1.2443776248612455,1.8853668840888307,-0.9381632804870605,0.1377800703048706,-0.3175947964191437,0.3273269236087799,0.10964718461036682,-0.9174985885620117
4.764894962310791,-0.07785207033157349,-0.00027211010456085205,-0.07638287544250488,-0.11704003919950529,-1.2442377234501065,1.8880397018926598,-0.9406721591949463,0.11677300930023193,-0.31859081983566284,0.5239304304122925,-0.10343286395072937,-1.0147433280944824
4.784657001495361,-0.17500293254852295,0.03658121079206467,0.0168229341506958,-0.09290115841198714,-1.2462083980053487,1.8890536525438122,-0.9436953067779541,0.09276758134365082,-0.31754305958747864,0.3659347593784332,-0.03856785222887993,-1.2082691192626953
4.80462384223938,-0.18542945384979248,-0.0875285267829895,0.05615514516830444,-0.07057358086438671,-1.2461345240474047,1.8863920908579404,-0.9453995227813721,0.07051501423120499,-0.3181942403316498,0.06873687356710434,-0.020815221592783928,-0.9721574187278748
4.82488489151001,-0.3025977611541748,0.004019595682621002,0.0005187094211578369,-0.05328715081875255,-1.248577056238527,1.8804820522558492,-0.947188675403595,0.05326193571090698,-0.3162229359149933,-0.033483121544122696,-0.14801880717277527,-0.8329517245292664
4.844481945037842,-0.31286895275115967,0.0878271609544754,0.06480026245117188,-0.040922685239560476,-1.2507871708448206,1.8739742943613513,-0.9484378695487976,0.04091126471757889,-0.3143119215965271,-0.20774082839488983,0.02718266472220421,-0.5424304604530334
4.865164756774902,-0.2637881636619568,0.03522586449980736,0.11705344915390015,-0.035918368986776535,-1.2485907319938112,1.8656759985741043,-0.9479276537895203,0.03591064736247063,-0.31645524501800537,-0.3678952753543854,0.21543841063976288,-0.22080180048942566
4.8844428062438965,-0.20107340812683105,0.02293761819601059,0.13154757022857666,-0.036702012449933874,-1.242088652522396,1.858745922288123,-0.945823073387146,0.03669377416372299,-0.3226028084754944,-0.2858012616634369,0.3619048297405243,0.07282395660877228
4.904447793960571,-0.17954635620117188,0.05397670716047287,0.11560928821563721,-0.039951801752940684,-1.2357390852974723,1.8584118426247174,-0.9436379671096802,0.039941173046827316,-0.32856085896492004,0.13326385617256165,0.26268643140792847,0.22425353527069092
4.924787998199463,-0.28012460470199585,0.027329199016094208,0.1730107069015503,-0.042400953169892494,-1.2303806767906411,1.8638071495462483,-0.9417688250541687,0.042388249188661575,-0.33357885479927063,0.2520679235458374,0.27375754714012146,0.18095047771930695
4.944366931915283,-0.31248927116394043,-0.10588255524635315,0.23397117853164673,-0.0458400472409063,-1.2246314294173841,1.8696712799060522,-0.9396928548812866,0.045823995023965836,-0.33893632888793945,0.15997445583343506,0.27319517731666565,0.34572091698646545
4.966460704803467,-0.3170258402824402,-0.17202454805374146,0.28459644317626953,-0.052816955479071864,-1.218819408881364,1.8731749170387164,-0.9373840689659119,0.05279240384697914,-0.3442734479904175,-0.043886106461286545,0.2998916804790497,0.40492942929267883
4.981029987335205,-0.2717605233192444,-0.1823735386133194,0.2662624716758728,-0.06018699645278493,-1.213279058104662,1.8753410776113248,-0.9350724816322327,0.060150664299726486,-0.34931597113609314,0.0014116785023361444,0.19132082164287567,0.3602605164051056
5.004834890365601,-0.18017011880874634,-0.17728689312934875,0.17559963464736938,-0.06557855305614864,-1.211938671572379,1.879027847004657,-0.9342861771583557,0.06553155928850174,-0.3504500389099121,0.17483924329280853,-0.06560461968183517,0.2701587975025177
5.024639844894409,-0.16788291931152344,-0.20007851719856262,0.14304113388061523,-0.06820392375786653,-1.2138608052329214,1.8847425275982437,-0.9347935914993286,0.06815105676651001,-0.34859219193458557,0.2479478269815445,-0.13322573900222778,0.19313476979732513
5.044166803359985,-0.24452656507492065,-0.17614704370498657,0.14759954810142517,-0.06937593321933502,-1.2157931833077629,1.8898874708498197,-0.9353898167610168,0.06932029873132706,-0.3467571437358856,0.2056141197681427,-0.10888444632291794,0.07598737627267838
5.064002990722656,-0.27634257078170776,-0.16187158226966858,0.1654863953590393,-0.06953566911229934,-1.2173182746584248,1.8954415099846502,-0.9359073042869568,0.06947964429855347,-0.34532642364501953,0.2541409134864807,-0.0758386179804802,0.1620413064956665
5.084283828735352,-0.28837257623672485,-0.1532941609621048,0.1846407651901245,-0.07115514789719006,-1.218673187298477,1.9025485870104701,-0.9362673759460449,0.07109511643648148,-0.34401872754096985,0.346469521522522,-0.09646115452051163,0.2395499050617218
5.102747917175293,-0.39615845680236816,-0.18114960193634033,0.18077236413955688,-0.07275433722690691,-1.2199267007558325,1.9102544241077055,-0.9365900158882141,0.07269017398357391,-0.3428053557872772,0.3177748918533325,-0.11243479698896408,0.1979440450668335
5.123963832855225,-0.4199534058570862,-0.23392657935619354,0.22322985529899597,-0.07593375505969378,-1.2191311331717565,1.9181734895935134,-0.9360952377319336,0.07586080580949783,-0.3434689939022064,0.37382930517196655,0.2049397975206375,0.35759350657463074
5.143509864807129,-0.47778451442718506,-0.22394123673439026,0.17627912759780884,-0.08286176588396879,-1.2107278153401384,1.9295801447174294,-0.932661771774292,0.08276697248220444,-0.3511295020580292,0.397567480802536,0.582585871219635,0.668491542339325
5.163510799407959,-0.49833619594573975,-0.14017730951309204,0.11012694239616394,-0.09661113369237727,-1.1964523988572366,1.9465420872051211,-0.9264074563980103,0.09646091610193253,-0.3639568090438843,0.5604348182678223,0.7633179426193237,1.107386827468872
5.183720827102661,-0.46586984395980835,-0.039710648357868195,0.04843023419380188,-0.11574409399991963,-1.1819487212117759,1.9638647476439044,-0.9191552400588989,0.11548583209514618,-0.3765856623649597,0.37035301327705383,0.363318532705307,1.2885463237762451
5.2037529945373535,-0.4815039038658142,0.03602519631385803,-0.060400307178497314,-0.13776533676457678,-1.1815516687573266,1.9788768366781113,-0.9164301753044128,0.13732996582984924,-0.3758941888809204,0.13745912909507751,-0.5468570590019226,1.4059957265853882
5.2238078117370605,-0.5010491013526917,0.01954948902130127,-0.028517931699752808,-0.16738837829911948,-1.194523655910842,1.9893150524221908,-0.9170418977737427,0.1666077971458435,-0.3623206615447998,-0.26443132758140564,-0.7007717490196228,1.7446115016937256
5.242481708526611,-0.7441391348838806,0.018281906843185425,0.027966082096099854,-0.20286379777178257,-1.1998950942113324,1.9980685786226264,-0.9128891229629517,0.20147521793842316,-0.3550229072570801,-0.14028918743133545,-0.029102711006999016,1.8885639905929565
5.260132789611816,-0.6821544766426086,0.12264852225780487,-0.09532013535499573,-0.23767619124830708,-1.1970806108662413,2.011924164434666,-0.9048054218292236,0.2354447841644287,-0.3548140525817871,0.03546898066997528,-0.06497593224048615,1.843419075012207
5.283715724945068,-0.5594499707221985,0.08639061450958252,-0.0035192370414733887,-0.2747496475670174,-1.196722436146104,2.021854699153617,-0.8959334492683411,0.27130597829818726,-0.35170525312423706,-0.6069796681404114,-0.13361109793186188,1.9348528385162354
5.299886703491211,-0.587805986404419,-0.06419917941093445,0.0786285400390625,-0.3166089388369302,-1.2032222542249487,2.014784294254239,-0.8868187069892883,0.3113458454608917,-0.34149160981178284,-1.490548849105835,-0.30573412775993347,1.7372618913650513
5.323539733886719,-0.5411905646324158,0.06989923119544983,0.07463932037353516,-0.35984420252513527,-1.2162505769647818,1.9963615421346392,-0.8777395486831665,0.35212841629981995,-0.3249291181564331,-1.583016037940979,-0.34058940410614014,1.6637609004974365
5.342245817184448,-0.5377058982849121,0.18171963095664978,0.047586411237716675,-0.39799471513174933,-1.2289447413299683,1.9810913225642368,-0.8684983253479004,0.3875705599784851,-0.3090304136276245,-0.8847677707672119,-0.4422394335269928,1.464417576789856
5.362200736999512,-0.42345350980758667,0.30688804388046265,-0.015191376209259033,-0.42920687473698493,-1.2381315937415276,1.981320115714146,-0.8594444990158081,0.41614973545074463,-0.2969423532485962,-0.29925811290740967,-0.5034984350204468,1.4610213041305542
5.383045673370361,-0.40034782886505127,0.2364753782749176,-0.008759140968322754,-0.45657620300605795,-1.2476208205452357,1.985009906193646,-0.851101815700531,0.44087761640548706,-0.28504878282546997,-0.3495918810367584,-0.5692625641822815,1.340898871421814
5.402172803878784,-0.3215402364730835,0.18549540638923645,-0.010143101215362549,-0.48455069530655415,-1.2601197662622707,1.982925797830491,-0.842522382736206,0.4658108353614807,-0.2705117464065552,-0.7076411843299866,-0.6146348118782043,1.202852725982666
5.423045873641968,-0.25678175687789917,0.16408616304397583,-0.01691177487373352,-0.5109665229243623,-1.2766838303589547,1.9727835815011858,-0.8348166942596436,0.48902055621147156,-0.25286349654197693,-0.9151727557182312,-0.5210543274879456,1.088752031326294
5.442899703979492,-0.21251428127288818,0.14599913358688354,-0.03414261341094971,-0.5349975769027926,-1.2936767737352397,1.9605105296336396,-0.8274485468864441,0.5098389387130737,-0.23535802960395813,-0.7279537916183472,-0.5910304188728333,0.8938574194908142
5.463239669799805,-0.15456032752990723,0.18482732772827148,-0.040347740054130554,-0.5541456830446928,-1.3076192228405878,1.9527707441607505,-0.821071445941925,0.5262170433998108,-0.2212183028459549,-0.34343820810317993,-0.42353275418281555,0.8167150616645813
5.482823848724365,-0.07040363550186157,0.16723620891571045,-0.12970367074012756,-0.5697043221822183,-1.3160304094423636,1.9543926477213154,-0.8148807287216187,0.5393831133842468,-0.21221515536308289,-0.11297234147787094,-0.5055235624313354,0.7059686779975891
5.502610683441162,-0.001937568187713623,0.09281688928604126,-0.03628954291343689,-0.5835039106333346,-1.3289091588756308,1.9501044127372404,-0.8102419376373291,0.5509514808654785,-0.19990111887454987,-0.6234481930732727,-0.4934510290622711,0.61700838804245
5.5226826667785645,0.026332616806030273,0.015475690364837646,0.021099433302879333,-0.59856574649054,-1.3474767930773042,1.933395981404743,-0.8056296706199646,0.5634581446647644,-0.18296457827091217,-0.9288678765296936,-0.5104814767837524,0.4999353587627411
5.54261589050293,0.13632798194885254,0.19034850597381592,-0.089652419090271,-0.6108544874032121,-1.3679237321044952,1.9167652861146052,-0.8023589253425598,0.5735676288604736,-0.16504716873168945,-0.6003429293632507,-0.5815688371658325,0.4705900251865387
5.562546730041504,0.22645318508148193,0.17109674215316772,-0.11585086584091187,-0.6224448392027997,-1.3827890801036535,1.9098029926020323,-0.7981390357017517,0.5830232501029968,-0.15184926986694336,-0.28412699699401855,-0.49364739656448364,0.5248153209686279
5.582190990447998,0.31782716512680054,0.09970641136169434,-0.0929921418428421,-0.6325793232005542,-1.396043265626478,1.9045414796872424,-0.7942219972610474,0.5912269353866577,-0.14022304117679596,-0.33326151967048645,-0.5153979659080505,0.4531134068965912
5.601364850997925,0.3857874274253845,0.07528078556060791,-0.0930115133523941,-0.6432114058915327,-1.4118255792420449,1.895227824649928,-0.7900844812393188,0.5997682213783264,-0.12666916847229004,-0.5539595484733582,-0.5064446330070496,0.49108821153640747
5.622361660003662,0.4174220561981201,0.12447363138198853,-0.11682569235563278,-0.6550315281077087,-1.4297979036195656,1.882482852589542,-0.7851588726043701,0.6091842651367188,-0.11144568026065826,-0.5330619812011719,-0.4763994514942169,0.5393527150154114
5.64157772064209,0.45272165536880493,0.1320222020149231,-0.18548744916915894,-0.6677799433928298,-1.4450660810944327,1.8737768197891054,-0.7790003418922424,0.6192443370819092,-0.09846328943967819,-0.31035512685775757,-0.5636624097824097,0.5841159224510193
5.659907817840576,0.5458287596702576,0.012309491634368896,-0.15601545572280884,-0.6808974183927696,-1.4594086493921914,1.8683527803423874,-0.7721930742263794,0.6294905543327332,-0.08637029677629471,-0.276257187128067,-0.5323588848114014,0.6660941243171692
5.679886817932129,0.6396633386611938,-0.13013607263565063,-0.13802361488342285,-0.6964770816110271,-1.4724046923726373,1.865103622860754,-0.7633969187736511,0.6415191888809204,-0.07535519450902939,-0.1790544092655182,-0.6249850392341614,0.8605491518974304
5.699899673461914,0.6643061637878418,-0.15138763189315796,-0.1355333924293518,-0.7142889874401608,-1.486609961447193,1.8644505201410055,-0.7528834939002991,0.6550803780555725,-0.06353268772363663,-0.009037740528583527,-0.741335928440094,0.9246756434440613
5.721912860870361,0.6467205882072449,-0.17765939235687256,-0.10240483283996582,-0.732729168828324,-1.4955597999794128,1.8740978181819392,-0.7412487864494324,0.6689008474349976,-0.055874451994895935,0.6313601732254028,-0.7637213468551636,1.019542932510376
5.7411158084869385,0.6530623435974121,-0.1911805272102356,-0.05783480033278465,-0.7525959647671737,-1.4935235751493239,1.8993590236461817,-0.7277389168739319,0.6835358738899231,-0.056346580386161804,0.968981146812439,-0.7205623984336853,1.1029108762741089
5.7633957862854,0.6577235460281372,-0.3349496126174927,-0.03166513890028,-0.7735416119064397,-1.4882751961843625,1.9279047845267943,-0.7130061984062195,0.69867342710495,-0.05897199735045433,0.9032271504402161,-0.7956801056861877,1.1181490421295166
5.783293724060059,0.7156153321266174,-0.3922618627548218,0.01001673936843872,-0.7942052992104882,-1.4861457195525178,1.9534671314778087,-0.6983424425125122,0.7133068442344666,-0.059256717562675476,0.7620970606803894,-0.7623472213745117,1.0956182479858398
5.8008809089660645,0.7238680720329285,-0.4540365934371948,-0.008077498525381088,-0.8126340940898911,-1.4815418384505832,1.981043762344852,-0.684851348400116,0.7261008620262146,-0.06128888949751854,1.0619683265686035,-0.8017230033874512,0.879478394985199
5.823408842086792,0.7337903380393982,-0.43024420738220215,0.07374495267868042,-0.8263314531413293,-1.4691720992198767,2.0186016453781077,-0.6740827560424805,0.7354506254196167,-0.06873993575572968,1.339774489402771,-0.6104817390441895,0.7323542237281799
5.842259883880615,0.688836395740509,-0.5433750748634338,0.15161043405532837,-0.8324807141411248,-1.4471052904574435,2.0608452466985407,-0.6679013967514038,0.7396032810211182,-0.08303732424974442,1.422304391860962,-0.3731556236743927,0.21200715005397797
5.861962795257568,0.7997980117797852,-0.468597948551178,0.15708665549755096,-0.8310400954851973,-1.421599920735986,2.1072424335150157,-0.6666194200515747,0.7386329174041748,-0.1002018079161644,1.718968152999878,-0.5869590640068054,0.04737786948680878
5.881591796875,0.6665527820587158,-0.30508244037628174,0.1013340950012207,-0.8228788755205683,-1.3943906558524257,2.16522106245341,-0.6695588231086731,0.7331068515777588,-0.11935462057590485,2.325230360031128,-0.933249831199646,-0.1946428269147873
5.900633811950684,0.5497636795043945,-0.22135090827941895,0.2493220567703247,-0.8073607211672613,-1.3644998961732517,2.2326057090678475,-0.6767473220825195,0.7224648594856262,-0.14162538945674896,2.3287675380706787,-0.8810286521911621,-0.4009501039981842
5.921513795852661,0.6039066314697266,-0.44291019439697266,0.383609414100647,-0.7906474234440208,-1.3501632373142136,2.2783890175304866,-0.6863345503807068,0.7108088135719299,-0.153934046626091,0.9593380689620972,-1.0610517263412476,-0.5242547988891602
5.941364765167236,0.5675654411315918,-0.48309099674224854,0.2840977609157562,-0.7780857666696126,-1.37881159146104,2.2746644391574184,-0.6991724371910095,0.701917290687561,-0.13590428233146667,-0.5787928104400635,-1.5427680015563965,-0.8847910165786743
5.961314678192139,0.2858239412307739,0.07826966047286987,-0.0008172988891601562,-0.759965697350015,-1.402941947746677,2.2846922969621195,-0.7146722674369812,0.6888965964317322,-0.12110035121440887,2.098609685897827,-1.589624047279358,-0.5855186581611633
5.981470823287964,-0.19565248489379883,0.7117049098014832,-0.03401850163936615,-0.7336249918505793,-1.3850523954746257,2.3644101390377887,-0.7299761772155762,0.6695665121078491,-0.13716977834701538,3.584367513656616,-1.9446289539337158,-1.0717717409133911
6.000257968902588,-0.4901012182235718,0.054720520973205566,0.311251699924469,-0.6952492167551221,-1.3708123369689065,2.4508249493679,-0.7525898814201355,0.6405768394470215,-0.15254497528076172,3.5790789127349854,-2.4409847259521484,-1.4630317687988281
6.021612882614136,-0.31685781478881836,-0.14271515607833862,0.3773019313812256,-0.6487831407005498,-1.3758686525370847,2.532399559858356,-0.7817292213439941,0.6042172312736511,-0.1543404459953308,3.648420572280884,-3.219548463821411,-1.8923542499542236
6.041031837463379,-0.37477439641952515,-0.198322594165802,0.3544139266014099,-0.5929336705518435,-1.3959606674805665,2.61963618659004,-0.8166624307632446,0.5587963461875916,-0.14425455033779144,4.600281238555908,-3.953904151916504,-2.2179837226867676
6.061047792434692,-0.5650234818458557,-0.05137920379638672,0.11051858961582184,-0.5295854545827497,-1.4177571854728197,2.7369647302901474,-0.8529300093650818,0.5051756501197815,-0.13156037032604218,6.188830375671387,-4.035802841186523,-2.366828441619873
6.081036806106567,-1.1967403888702393,0.044607073068618774,-0.0660509467124939,-0.4832622735436773,-1.3983576503211532,2.8582578077661966,-0.8723514676094055,0.464670330286026,-0.15193606913089752,4.263698101043701,0.4576047956943512,-0.4848737120628357
6.100854873657227,-1.8082917928695679,0.2026796042919159,-1.300146460533142,-0.44153227505990755,-1.4067803195352742,2.940750794444719,-0.8919645547866821,0.4273252785205841,-0.14762258529663086,3.8591582775115967,-3.4524288177490234,-2.3091819286346436
6.120795726776123,0.13898372650146484,0.22590124607086182,0.4784207344055176,-0.406460179986744,-1.4341547706255546,2.995628397626446,-0.9099646210670471,0.39536038041114807,-0.12511864304542542,2.5336995124816895,-1.7164636850357056,-0.7980674505233765
6.140749931335449,-1.0575006008148193,-0.15556636452674866,0.2591174244880676,-0.385453728809172,-1.4469857076691992,3.0322835059516406,-0.9195349216461182,0.37597960233688354,-0.11443350464105606,0.6822143793106079,-1.1869492530822754,-1.1634948253631592
6.160678863525391,-0.2951928973197937,0.0501214861869812,0.30323201417922974,-0.3590642795886868,-1.4567945981349302,3.0517325502379027,-0.9301490187644958,0.3513983488082886,-0.10650036484003067,1.3893215656280518,-0.5972757935523987,-0.7510704398155212
6.180592775344849,-0.17887061834335327,-0.09050843119621277,0.3597909212112427,-0.3457379109161359,-1.4566255834096182,3.0781486626635783,-0.934700608253479,0.33889102935791016,-0.10718157142400742,1.08099365234375,-0.29380539059638977,-0.453186571598053
6.200690746307373,-0.1866368055343628,-0.33706459403038025,0.17830729484558105,-0.3432787358728938,-1.4539488058009045,3.0973693111593037,-0.9352352023124695,0.33657634258270264,-0.10977999120950699,0.8473786115646362,-0.2391524463891983,0.48523080348968506
6.220970869064331,-0.21462267637252808,-0.2269992232322693,0.0946044921875,-0.3549502460299013,-1.4523928213097366,3.1163793189635145,-0.9310988783836365,0.34754371643066406,-0.11076346784830093,0.789358913898468,-0.17801184952259064,0.8646793365478516
6.240457773208618,-0.3075648546218872,-0.32509562373161316,0.23816680908203125,-0.37461354384374645,-1.4476889206212646,3.134102252495573,-0.9236058592796326,0.36591291427612305,-0.11428062617778778,0.5393284559249878,-0.042132582515478134,1.2712969779968262
6.26113486289978,-0.27871280908584595,-0.4096468389034271,0.17039942741394043,-0.40145331770685316,-1.4454584389623206,-3.1412111859424985,-0.9132733941078186,0.3907565176486969,-0.11507096141576767,-0.1496400237083435,0.014529097825288773,1.4329802989959717
6.280119895935059,-0.3446009159088135,-0.21864959597587585,0.1362060308456421,-0.4307786922141613,-1.4438128654830498,3.1405761968254975,-0.9013250470161438,0.41757848858833313,-0.11507254838943481,-0.2890819013118744,0.18188808858394623,1.441478967666626
6.3002519607543945,-0.31599944829940796,-0.03134995698928833,0.11890560388565063,-0.45811020181970147,-1.43897941805687,3.13895625227345,-0.8891092538833618,0.4422539472579956,-0.11788319796323776,-0.20993322134017944,0.3811488151550293,1.2486480474472046
6.320314884185791,-0.26051443815231323,0.07880979776382446,0.09666157513856888,-0.48227146782049357,-1.4304003509462688,3.1374464280797865,-0.877226710319519,0.4637927711009979,-0.12397472560405731,-0.2904043197631836,0.5222287178039551,1.1314327716827393
6.340138912200928,-0.207081139087677,0.14020854234695435,0.03325606882572174,-0.50270856678062,-1.4199414450938543,3.135151875045577,-0.8663288950920105,0.48180076479911804,-0.13169042766094208,-0.18708021938800812,0.6527403593063354,0.8938350081443787
6.360077857971191,-0.08030414581298828,0.13137027621269226,-0.015339776873588562,-0.5199118110800429,-1.406159430684364,3.135447448877712,-0.8561277389526367,0.4968036115169525,-0.14223767817020416,-0.04030511528253555,0.721132755279541,0.7878099083900452
6.379994869232178,0.02983027696609497,0.08502399921417236,-0.07050806283950806,-0.5346972308494431,-1.3894453806050333,3.1383939733024278,-0.846312940120697,0.5095805525779724,-0.15518464148044586,-0.06191548332571983,0.757700502872467,0.733307421207428
6.400027751922607,0.13877415657043457,0.07125389575958252,-0.09813767671585083,-0.5482018276085252,-1.374710274347805,3.1383548567859165,-0.8371079564094543,0.5211533904075623,-0.16628184914588928,-0.2163693755865097,0.7746253609657288,0.6028465032577515
6.419932842254639,0.19343805313110352,0.06768584251403809,-0.10921400785446167,-0.5615374266074842,-1.3614629201957638,3.1333576943860235,-0.8279595971107483,0.5324881672859192,-0.17589643597602844,-0.44709622859954834,0.803686797618866,0.6340970993041992
6.439932823181152,0.182933509349823,0.07318466901779175,-0.18355976045131683,-0.5759278583878109,-1.352242750583629,3.1237074551718953,-0.818736732006073,0.5446131825447083,-0.1818423718214035,-0.6729009747505188,0.6343859434127808,0.5865146517753601
6.459906816482544,0.1877036690711975,0.05620294809341431,-0.25956809520721436,-0.5887519650097727,-1.348370430894808,3.1117058556371133,-0.8111472129821777,0.5553235411643982,-0.18345555663108826,-0.501386821269989,0.4417095482349396,0.45554032921791077
6.480045795440674,0.27414315938949585,0.04926645755767822,-0.22802172601222992,-0.6006632128713361,-1.3442553371482917,3.1055624147133067,-0.8038824796676636,0.5651897192001343,-0.1852930337190628,-0.3956545293331146,0.34077635407447815,0.5976046323776245
6.499947786331177,0.22258108854293823,0.005779683589935303,-0.14417047798633575,-0.614060190778463,-1.342936715015208,3.0960474541457215,-0.7961897253990173,0.5761906504631042,-0.18462584912776947,-0.6336531043052673,0.34602758288383484,0.5210899710655212
6.519932746887207,0.1723651885986328,0.07686972618103027,-0.11445599794387817,-0.6270964354853429,-1.342770504666181,3.084121673270229,-0.7887745499610901,0.5867961049079895,-0.18304452300071716,-0.5328729748725891,0.3612115979194641,0.5202907919883728
6.539910793304443,0.16155409812927246,0.1726137399673462,-0.12635284662246704,-0.6378860431062796,-1.3378380199560929,3.0810895464009707,-0.7816560864448547,0.5954985022544861,-0.1854604333639145,0.03244127333164215,0.31552550196647644,0.480746328830719
6.559935808181763,0.19458842277526855,0.1152641773223877,-0.0938057154417038,-0.6454757010567913,-1.3294321539007428,3.0858027777332007,-0.7756584286689758,0.6015784740447998,-0.19093844294548035,0.09392474591732025,0.21792171895503998,0.34113261103630066
6.579511880874634,0.2600286602973938,-0.040502309799194336,-0.07320564985275269,-0.6519539867838866,-1.3262212134720859,3.087885219584761,-0.7712439298629761,0.6067407727241516,-0.19248032569885254,-0.1813471019268036,-0.006128154695034027,0.36280879378318787
6.599913835525513,0.2523900866508484,-0.0674237608909607,-0.058639928698539734,-0.6631030312047709,-1.338322132152541,3.0731028779062233,-0.7668858766555786,0.6155652403831482,-0.1815638542175293,-1.1475712060928345,-0.296542227268219,0.438259482383728
6.619966983795166,0.18747711181640625,0.007945716381072998,-0.0760609358549118,-0.6772888553469011,-1.3630560474628297,3.0443074133325982,-0.7625198364257812,0.6266825795173645,-0.16072484850883484,-1.1852645874023438,-0.3642479479312897,0.42138367891311646
6.6399359703063965,0.12927109003067017,0.3709741234779358,-0.1152523010969162,-0.6864980444800184,-1.3816292841212905,3.024852652836873,-0.7596727013587952,0.6338323950767517,-0.14544406533241272,-0.5009961724281311,-0.3168030083179474,0.11231884360313416
6.660614967346191,0.10857677459716797,0.5306786298751831,-0.08563892543315887,-0.6882275118618266,-1.3874339139021736,3.024407545092185,-0.7594252228736877,0.6351691484451294,-0.14083193242549896,0.44151777029037476,-0.13541743159294128,0.22621533274650574
6.680760860443115,0.10060781240463257,0.26053667068481445,-0.01940847933292389,-0.6951624785583553,-1.373951142137088,3.0425497529538763,-0.7531195878982544,0.6405102014541626,-0.15019288659095764,0.7163174748420715,0.27260059118270874,0.5884925127029419
6.6999428272247314,0.05424392223358154,0.07222884893417358,-0.10935191810131073,-0.701316672484405,-1.3504902592465362,3.0677739105148043,-0.7455281615257263,0.6452241539955139,-0.1669541746377945,1.1064460277557373,0.4509578347206116,0.44065648317337036
6.719932794570923,0.1226157546043396,-0.05602031946182251,-0.19020789861679077,-0.7020747023751062,-1.323988532616016,3.0972130153201927,-0.7403678894042969,0.6458030939102173,-0.18653149902820587,0.9069930911064148,0.20208203792572021,0.13566112518310547
6.739933967590332,0.17703986167907715,-0.35769540071487427,-0.15393009781837463,-0.7029860170315454,-1.3123190525481612,3.1123513938510152,-0.7375715970993042,0.6464986205101013,-0.1950078308582306,0.15376652777194977,0.08219167590141296,0.2886544466018677
6.759936809539795,0.05000746250152588,-0.37494319677352905,-0.09950828552246094,-0.7071003189820307,-1.3113586341567898,3.109949821799893,-0.7348067164421082,0.6496320366859436,-0.1950320452451706,-0.3110678791999817,0.1575728952884674,-0.021067054942250252
6.779973983764648,-0.007390797138214111,-0.2743667960166931,-0.0828198492527008,-0.7054882576913418,-1.3118334524207376,3.1023133432650116,-0.7359107136726379,0.6484056115150452,-0.19495108723640442,-0.1579301655292511,0.31402838230133057,-0.23770025372505188
6.800229787826538,0.006063878536224365,-0.28955626487731934,-0.019242048263549805,-0.7007167336504099,-1.3051602094092556,3.0993138252871373,-0.7375702857971191,0.6447657346725464,-0.20066753029823303,0.04458439350128174,0.5386326313018799,-0.28264424204826355
6.8199896812438965,0.003206312656402588,-0.311288058757782,0.008560478687286377,-0.6952638278787563,-1.2920849653110105,3.1001243557637164,-0.7382527589797974,0.6405880451202393,-0.2112581580877304,0.12951253354549408,0.6805721521377563,-0.2263650894165039
6.8399858474731445,0.05633050203323364,-0.26278501749038696,0.010007888078689575,-0.690985289734223,-1.2765503065341326,3.1020914619623077,-0.7374981641769409,0.6372967958450317,-0.22349350154399872,0.12848716974258423,0.7507233023643494,-0.163381427526474
6.859924793243408,0.08911365270614624,-0.2410314679145813,0.009004294872283936,-0.6869795326428468,-1.2620449918095449,3.1025836807002225,-0.736605167388916,0.6342047452926636,-0.23494115471839905,0.005851181223988533,0.6344080567359924,-0.22424347698688507
6.880162715911865,0.14975851774215698,-0.2906036376953125,0.011377602815628052,-0.6831914353979505,-1.2514576431027664,3.100224296042678,-0.7363521456718445,0.6312713623046875,-0.24347898364067078,-0.04420904070138931,0.6268115639686584,-0.13029836118221283
6.8999199867248535,0.16632074117660522,-0.2897527813911438,0.004552751779556274,-0.6835896792535313,-1.2388506915951787,3.0979401623501457,-0.7329863905906677,0.6315801739692688,-0.2526605725288391,-0.10384219884872437,0.7977349162101746,0.06708478182554245
6.919936656951904,0.1154969334602356,-0.16362500190734863,-0.04202830791473389,-0.6848517307029662,-1.2218939138774787,3.097881346648258,-0.7278474569320679,0.6325581669807434,-0.26478010416030884,0.11324329674243927,0.8915541172027588,0.017089083790779114
6.939974784851074,0.11788719892501831,-0.010466694831848145,-0.1398482322692871,-0.682521647052774,-1.199299003701544,3.1067309439979836,-0.7230508327484131,0.6307517886161804,-0.2816910147666931,0.6138692498207092,0.7917830348014832,0.026786094531416893
6.959985733032227,0.1411498785018921,0.007698118686676025,-0.14397850632667542,-0.6790372073731076,-1.172234923807351,3.1267965430562796,-0.7171844244003296,0.628044068813324,-0.3020052909851074,0.8261454105377197,0.6560859084129333,0.23711785674095154
6.979938983917236,0.1004478931427002,-0.02074509859085083,-0.08536604046821594,-0.6778232912214075,-1.1497909926183318,-3.139632655617361,-0.7109216451644897,0.6270989775657654,-0.31833571195602417,0.37880128622055054,0.5419027209281921,0.1628294438123703
7.002299785614014,0.07460969686508179,-0.06392097473144531,-0.05002552270889282,-0.680521138375237,-1.1376590509010462,-3.1359460766259613,-0.7054691314697266,0.6291981339454651,-0.3262256383895874,-0.23057854175567627,0.44738873839378357,0.16947385668754578
7.019866943359375,0.09558260440826416,-0.050383567810058594,-0.033703356981277466,-0.6864210871442988,-1.1351327021415283,3.138699007661311,-0.7012649774551392,0.6337729096412659,-0.32643452286720276,-0.538390040397644,0.33168289065361023,0.09887761622667313
7.04001784324646,0.13949579000473022,-0.00410914421081543,-0.047565996646881104,-0.6919047752269608,-1.1375370558201088,3.128058988145305,-0.698883056640625,0.6380050778388977,-0.3232835531234741,-0.3778281509876251,0.09111228585243225,0.06788168847560883
7.059895992279053,0.1893155574798584,0.010778367519378662,-0.03149062395095825,-0.6952053265630818,-1.1409808720285253,3.123270464713922,-0.6980741620063782,0.6405431032180786,-0.31999558210372925,-0.11483842134475708,-0.09981469810009003,0.07060392200946808
7.079897880554199,0.21770644187927246,-0.03154432773590088,0.025339961051940918,-0.6972469698889141,-1.1434055103038512,3.123322799161009,-0.6976564526557922,0.6421096324920654,-0.31775936484336853,0.024766042828559875,-0.1360604166984558,0.13047271966934204
7.09995174407959,0.2247248888015747,0.00039446353912353516,0.04254049062728882,-0.7000140217709138,-1.1439403971624602,3.1267341586659456,-0.696206271648407,0.6442283987998962,-0.31664931774139404,0.08571629226207733,-0.13951842486858368,0.2254067212343216
7.119875907897949,0.2102445363998413,0.05916237831115723,0.03735283017158508,-0.7033821428346291,-1.144555420798104,3.131309174407306,-0.6944211721420288,0.6468008160591125,-0.3153221309185028,0.09844077378511429,-0.2423354536294937,0.2122262567281723
7.13987398147583,0.17759686708450317,0.0846400260925293,0.028454184532165527,-0.7057313209999526,-1.147678727716252,3.1370244687501296,-0.694015383720398,0.648590624332428,-0.31252700090408325,0.21390414237976074,-0.4312937259674072,0.19281905889511108
7.159884929656982,0.19082647562026978,0.08445215225219727,0.03658682107925415,-0.7071818683738182,-1.1521139782620948,-3.1376870317425567,-0.694534420967102,0.64969402551651,-0.30906298756599426,0.33263933658599854,-0.554357647895813,0.2043672353029251
7.179883003234863,0.16059750318527222,0.16823065280914307,-0.029125958681106567,-0.707472744320903,-1.1598473778573262,-3.1288069282966315,-0.6967303156852722,0.6499150991439819,-0.30360713601112366,0.31714558601379395,-0.811761200428009,0.05975635349750519
7.19988489151001,0.08777511119842529,0.2557586431503296,-0.012899190187454224,-0.7049410351433164,-1.1710653471806107,-3.120083985692868,-0.7016056776046753,0.6479889154434204,-0.2964116632938385,0.34846752882003784,-0.8361865282058716,-0.0028220410458743572
7.219900846481323,0.025001883506774902,0.2223435640335083,0.0315571129322052,-0.7012983105734206,-1.1754969105376458,-3.107718152705215,-0.7050861120223999,0.6452101469039917,-0.2942065894603729,0.7729744911193848,-0.4368188977241516,0.028935711830854416
7.239916801452637,-0.01260840892791748,0.3101232647895813,-0.024282515048980713,-0.6911810752168301,-1.1632177884078152,-3.0783584426639994,-0.7073776125907898,0.6374476552009583,-0.305414080619812,1.7636792659759521,-0.3112782835960388,-0.0934104472398758
7.259926795959473,0.040439486503601074,0.35030901432037354,0.008395373821258545,-0.6703351779524923,-1.1416565990128358,-3.0319252387554307,-0.7125586867332458,0.6212486624717712,-0.3260527551174164,2.329721450805664,-0.41567039489746094,-0.39902493357658386
7.279886722564697,0.18289142847061157,0.18335765600204468,0.08761870861053467,-0.640031903898559,-1.1229026413555843,-2.984965472160855,-0.7229610681533813,0.5972210168838501,-0.3473537862300873,2.201397180557251,-0.5822115540504456,-0.737502932548523
7.299901962280273,0.298467218875885,0.027309179306030273,0.12408143281936646,-0.6062969390486475,-1.1164473498692988,-2.9489340044602756,-0.7383934259414673,0.5698283314704895,-0.3606536388397217,1.9945077896118164,-0.939475417137146,-0.9651807546615601
7.31996488571167,0.4586549401283264,0.03486227989196777,0.1884428858757019,-0.5677170062237105,-1.1187133487444132,-2.915878403002986,-0.7584291696548462,0.537708580493927,-0.36831343173980713,2.285738229751587,-1.152611255645752,-1.3674054145812988
7.339942932128906,0.375996470451355,0.1736791729927063,0.1960861086845398,-0.5187560941435334,-1.11682894022581,-2.8722383719728493,-0.7804765105247498,0.495800256729126,-0.380839467048645,3.2458856105804443,-0.9216903448104858,-1.3476675748825073
7.359933853149414,0.3229219317436218,0.05268457531929016,0.2858881950378418,-0.4650756929256525,-1.109241330073993,-2.821598509909044,-0.8002628087997437,0.4484904706478119,-0.3980402946472168,2.8919146060943604,-0.7462031841278076,-1.5186994075775146
7.379932880401611,0.31483298540115356,-0.1556403934955597,0.3203558325767517,-0.4148265244952386,-1.1098123206417367,-2.7859936416657063,-0.8196548223495483,0.4030311703681946,-0.40710198879241943,2.250814199447632,-0.810271680355072,-1.517310619354248
7.3999738693237305,0.2744383215904236,-0.09818622469902039,0.30854761600494385,-0.3662042669941921,-1.1165231439564165,-2.7584319346077155,-0.8389983177185059,0.35807397961616516,-0.40971335768699646,2.403766393661499,-0.9576523900032043,-1.7509992122650146
7.419933795928955,0.11414474248886108,0.06388282775878906,0.26147186756134033,-0.31287024133694447,-1.12642109149258,-2.729680449471806,-0.8590484261512756,0.3077908158302307,-0.40902432799339294,2.2285408973693848,-1.0098060369491577,-1.930473804473877
7.439934730529785,0.05913752317428589,-0.08194282650947571,0.26842597126960754,-0.26235612684715615,-1.1425448945669325,-2.7098619405969377,-0.8785650134086609,0.2593567669391632,-0.4010705351829529,1.6721529960632324,-1.1199095249176025,-1.806768774986267
7.459936857223511,-0.05422252416610718,0.03440810739994049,0.28006699681282043,-0.21604801158433953,-1.1576853771376487,-2.695437559717869,-0.8945842981338501,0.2143711894750595,-0.39212745428085327,1.5263745784759521,-0.6743179559707642,-1.8324121236801147
7.479933738708496,-0.25515323877334595,0.18439185619354248,0.2091708779335022,-0.16634987666394227,-1.1631137172236372,-2.6796365301136884,-0.905369222164154,0.16558372974395752,-0.39100977778434753,2.098870038986206,-0.14449463784694672,-2.0714874267578125
7.499950885772705,-0.25176674127578735,0.13940022885799408,0.24066343903541565,-0.11978186786970478,-1.1538138374110498,-2.6550156494409394,-0.9077638983726501,0.11949563771486282,-0.40210139751434326,1.810093641281128,0.7606295943260193,-1.490628957748413
7.519938945770264,-0.33933281898498535,0.006478846073150635,0.21303275227546692,-0.08180816996422428,-1.1258612908411083,-2.6334075437773254,-0.8996198177337646,0.08171694725751877,-0.42895981669425964,1.5849248170852661,1.665407657623291,-0.8677844405174255
7.539935827255249,-0.26477688550949097,0.06682998687028885,0.06729081273078918,-0.05627710688764494,-1.0915419330646803,-2.61856241838676,-0.8859342336654663,0.05624740570783615,-0.4603877067565918,0.8630730509757996,1.533373475074768,-0.6803088188171387
7.559937953948975,0.007714688777923584,0.25428494811058044,-0.2492014467716217,-0.037258095296732935,-1.0832729149113514,-2.6076645396917906,-0.8828825950622559,0.037249475717544556,-0.4681141972541809,0.7617591023445129,-0.9623803496360779,-1.063938856124878
7.57993483543396,0.4374837875366211,0.27046892046928406,0.07854437828063965,-0.015481413895325537,-1.1124241159481238,-2.603102966719885,-0.8966665863990784,0.015480795875191689,-0.44243595004081726,0.19984468817710876,-1.1168205738067627,-0.4010631740093231
7.599934816360474,-0.18455862998962402,-0.06492790579795837,0.2940398156642914,-0.0029161819955362237,-1.1265599369307326,-2.589958744097452,-0.9029353260993958,0.0029161779675632715,-0.4297667145729065,1.6189980506896973,-0.5227553248405457,-0.30059918761253357
7.619940757751465,-0.19797968864440918,0.3931286633014679,0.08718961477279663,0.020571518372417674,-1.136816841835104,-2.5697341409329164,-0.9071077704429626,-0.020570067688822746,-0.42039579153060913,0.9133796691894531,-0.4650444984436035,-0.724346935749054
7.639959812164307,-0.15632158517837524,-0.173021137714386,0.22115015983581543,0.035467140373927106,-1.1467609568150527,-2.565328694055815,-0.910862922668457,-0.03545970469713211,-0.41118305921554565,0.278887003660202,-0.5982299447059631,-0.5556864738464355
7.65993595123291,-0.32580792903900146,0.12841902673244476,0.11019930243492126,0.0504986017069302,-1.1614116803068928,-2.56233530518896,-0.9161964654922485,-0.05047714337706566,-0.3975374698638916,0.6291199326515198,-0.751257061958313,-0.6486766338348389
7.679933786392212,-0.3948657512664795,0.005406387150287628,0.18817979097366333,0.06523659510187843,-1.1713787831847782,-2.5543394694285557,-0.919327974319458,-0.06519033014774323,-0.38805460929870605,0.6152805089950562,-0.30657586455345154,-0.41047030687332153
7.699934959411621,-0.3477993607521057,-0.0827794224023819,0.1686706244945526,0.07359804305236523,-1.1766668453453397,-2.554446654896681,-0.9208316206932068,-0.0735316202044487,-0.3829650282859802,-0.3894043564796448,-0.23028527200222015,-0.30369776487350464
7.719933986663818,-0.24712735414505005,-0.21794936060905457,0.18284347653388977,0.07326913518482447,-1.1819267711145418,-2.5653040684365322,-0.9228556156158447,-0.07320359349250793,-0.37812539935112,-0.4813208281993866,-0.33825743198394775,-0.0826558768749237
7.739951848983765,-0.2547518014907837,-0.17733125388622284,0.16829469799995422,0.07417106143655208,-1.1892710388009216,-2.5679257832259093,-0.9255461096763611,-0.07410307228565216,-0.37131282687187195,0.26472893357276917,-0.3547305166721344,-0.06560733169317245
7.7599358558654785,-0.25303173065185547,-0.24381202459335327,0.18060147762298584,0.07807513810438213,-1.1959775826881793,-2.5594854769932653,-0.9277392625808716,-0.07799584418535233,-0.36498862504959106,0.532964825630188,-0.2538154423236847,0.019605081528425217
7.779933929443359,-0.23084253072738647,-0.28448644280433655,0.12328726053237915,0.07918271448069544,-1.201302354478781,-2.551022627593469,-0.9295884966850281,-0.07909999787807465,-0.36001208424568176,0.23152224719524384,-0.21240603923797607,0.1479366570711136
7.799975872039795,-0.26226770877838135,-0.26677268743515015,0.15542727708816528,0.07656381988625013,-1.2037709128273408,-2.5490955123301617,-0.9306644797325134,-0.07648903876543045,-0.3577893376350403,-0.040287647396326065,-0.09414634108543396,0.13621456921100616
7.819934844970703,-0.19410765171051025,-0.28905728459358215,0.16262784600257874,0.0755776345158014,-1.2074712608003488,-2.548782355469067,-0.9320520758628845,-0.07550570368766785,-0.3543696999549866,0.19041991233825684,-0.3404217064380646,-0.027172625064849854
7.8399338722229,-0.15067964792251587,-0.2915494441986084,0.07105344533920288,0.07887840311144309,-1.2151155234163462,-2.5443746877297713,-0.9344949722290039,-0.0787966325879097,-0.3471459150314331,0.2700883746147156,-0.3523770868778229,-0.17010657489299774
7.859933853149414,-0.1934126615524292,-0.22199615836143494,0.0017322897911071777,0.08384240566117826,-1.2220950539819693,-2.5397924759725927,-0.9365160465240479,-0.08374421298503876,-0.3404773473739624,0.3119383156299591,-0.3258374333381653,-0.055406488478183746
7.879932880401611,-0.1286625862121582,-0.07806150615215302,-0.03886735439300537,0.08488219803671464,-1.2288291644716696,-2.5341095361429673,-0.9387050271034241,-0.08478030562400818,-0.33413368463516235,0.24317283928394318,-0.2141193449497223,0.09677153825759888
7.899933815002441,-0.25748950242996216,0.03644783794879913,-0.08685430884361267,0.08400144051594172,-1.2332224833508603,-2.5263143412543023,-0.9402341246604919,-0.08390268683433533,-0.33003106713294983,0.36002349853515625,-0.13225466012954712,0.1887645572423935
7.920012950897217,-0.29129737615585327,0.018657036125659943,0.012910157442092896,0.08019011405425529,-1.2346598848635424,-2.5189187931634947,-0.9410024881362915,-0.08010420203208923,-0.3287822902202606,0.1970803141593933,0.037172626703977585,0.3701922595500946
7.93996787071228,-0.3588314652442932,-0.053997576236724854,0.09354603290557861,0.07204130258247278,-1.2328903882491646,-2.515395274598347,-0.9410037994384766,-0.07197900116443634,-0.33065229654312134,-0.08199255913496017,0.12870058417320251,0.573597252368927
7.959935665130615,-0.43786633014678955,-0.14527800679206848,0.09664443135261536,0.05717626178239951,-1.2284934529280833,-2.516745214669019,-0.9404450058937073,-0.05714511498808861,-0.33510878682136536,-0.5218700766563416,0.2893375754356384,0.7386854887008667
7.9799418449401855,-0.4644303321838379,-0.1490907371044159,0.05685335397720337,0.03414345060119238,-1.2195626923150804,-2.524635750459847,-0.9384018182754517,-0.0341368168592453,-0.3438558876514435,-0.9888581037521362,0.5464954376220703,1.1840269565582275
7.999966859817505,-0.47900843620300293,-0.1216023862361908,0.08791404962539673,-0.00041706931706570475,-1.205069234257297,-2.535713254601374,-0.9338639378547668,0.000417069299146533,-0.35762837529182434,-1.1630680561065674,0.8838292956352234,1.70942223072052
8.019935846328735,-0.5499822497367859,-0.06250440329313278,0.1115497350692749,-0.0434751243369928,-1.1845413721729006,-2.540307034547798,-0.9254511594772339,0.043461430817842484,-0.37636598944664,-0.786204993724823,1.1704294681549072,2.110434055328369
8.03994369506836,-0.6203573942184448,-0.06641501933336258,0.0965014100074768,-0.08900869609948944,-1.159635723976768,-2.532515301459902,-0.91302889585495,0.08889121562242508,-0.3980913460254669,-0.3515688478946686,1.2757658958435059,2.342503786087036
8.059939861297607,-0.649959146976471,-0.17905327677726746,0.18224379420280457,-0.1352914219706949,-1.1305540106481673,-2.5181325011680897,-0.8963818550109863,0.13487908244132996,-0.4222644865512848,-0.3021000325679779,1.457413911819458,2.466810464859009
8.07993483543396,-0.6654781103134155,-0.21778354048728943,0.20857557654380798,-0.18274243743117344,-1.0995070437972871,-2.503149497555581,-0.8761479258537292,0.18172702193260193,-0.4464752674102783,-0.5040175914764404,1.4412853717803955,2.427720069885254
8.09998083114624,-0.6438159942626953,-0.2247823029756546,0.20934325456619263,-0.22969596619685353,-1.070115892966658,-2.4912557100471604,-0.854215681552887,0.2276814877986908,-0.4674151539802551,-0.6544701457023621,1.220455527305603,2.2771382331848145
8.119946002960205,-0.5313003659248352,-0.19693151116371155,0.18290793895721436,-0.27585633592921266,-1.046172989768548,-2.4834300462025065,-0.8327896595001221,0.27237099409103394,-0.48194965720176697,-0.908598005771637,1.004603624343872,2.163715362548828
8.139934778213501,-0.5228161811828613,-0.13343587517738342,0.09220784902572632,-0.3209553409314702,-1.024708436236065,-2.477218307185212,-0.8109241724014282,0.3154732584953308,-0.49282732605934143,-0.8873851299285889,1.0427123308181763,1.9846223592758179
8.15993595123291,-0.5280677676200867,-0.04163050651550293,0.014311790466308594,-0.3614947341991848,-1.0032108158063866,-2.470587843484679,-0.7887048125267029,0.35367274284362793,-0.5028524398803711,-0.7971806526184082,0.8193181753158569,1.8138556480407715
8.179934978485107,-0.39335721731185913,-0.07960233092308044,0.02447378635406494,-0.4020037530186454,-0.987287333274723,-2.468561635912977,-0.7680045366287231,0.39126312732696533,-0.5070329308509827,-1.2525050640106201,0.7073050737380981,1.6827975511550903
8.199949741363525,-0.33970576524734497,-0.0905131995677948,0.03612327575683594,-0.4439924797421692,-0.9771136482385446,-2.4750426713920533,-0.7485206723213196,0.4295482635498047,-0.5051784515380859,-1.5488094091415405,0.5472924113273621,1.4899249076843262
8.219942808151245,-0.23097306489944458,-0.03281751275062561,-0.04061770439147949,-0.48305716105881297,-0.973783988641226,-2.484199363261872,-0.7323907017707825,0.464488685131073,-0.4978496730327606,-1.4378633499145508,0.3391447365283966,1.3337180614471436
8.239982843399048,-0.21805799007415771,-0.03955203294754028,-0.01014658808708191,-0.5184278796537671,-0.9719022003452247,-2.4940134166030745,-0.7174278497695923,0.49551519751548767,-0.4896549582481384,-1.2166345119476318,0.30750027298927307,1.1239590644836426
