timestamp,acceleration_x,acceleration_y,acceleration_z,attitude_pitch,attitude_roll,attitude_yaw,gravity_x,gravity_y,gravity_z,rotation_x,rotation_y,rotation_z
0.0,-0.017971903085708618,-0.018963515758514404,0.16727620363235474,-0.6095225578946586,-0.4291996336358401,-1.0122138244710897,-0.3412047028541565,0.5724760890007019,-0.7455537915229797,0.408732146024704,0.2304518073797226,0.7137102484703064
0.020908832550048828,-0.07065483927726746,0.015816330909729004,0.19284790754318237,-0.6051496052301161,-0.4119701830713312,-0.9931921809956049,-0.3293084502220154,0.5688851475715637,-0.7536084055900574,0.6069048643112183,0.4034213721752167,0.5679888129234314
0.039938926696777344,-0.03362065553665161,-0.019193291664123535,0.2736039161682129,-0.5978281679953292,-0.39265687722463777,-0.975389021939152,-0.3162786066532135,0.5628486275672913,-0.7636552453041077,0.5973096489906311,0.479232519865036,0.48899707198143005
0.0596928596496582,0.042274534702301025,-0.08580142259597778,0.3351590037345886,-0.591017734072752,-0.3756354542840326,-0.9603616076092031,-0.30463412404060364,0.557206392288208,-0.7724758982658386,0.4831233620643616,0.3486925959587097,0.41317588090896606
0.08070087432861328,0.09374448657035828,-0.09459149837493896,0.3512445092201233,-0.5849853860570144,-0.36336247749819794,-0.9471683893363516,-0.2963201105594635,0.5521872043609619,-0.7792840600013733,0.5099119544029236,0.1301584094762802,0.40014421939849854
0.10080194473266602,0.10122305154800415,-0.04824775457382202,0.33341866731643677,-0.5769323316885715,-0.3557028040699504,-0.9344124803690693,-0.29188159108161926,0.5454553961753845,-0.7856739163398743,0.6118761301040649,-0.04368165507912636,0.3012501299381256
0.1208639144897461,0.07976657152175903,-0.027477383613586426,0.3215674161911011,-0.566296682243351,-0.35195394162134513,-0.923795015758347,-0.29091766476631165,0.5365105271339417,-0.7921637296676636,0.6998916268348694,-0.16208766400814056,0.19073444604873657
0.1407160758972168,0.07388675212860107,-0.026976704597473145,0.30649077892303467,-0.5552188349783967,-0.351562924040897,-0.9146388956528163,-0.2926367223262787,0.5271292924880981,-0.7978085279464722,0.570837140083313,-0.27273303270339966,0.15316829085350037
0.1617588996887207,0.060306817293167114,0.012071549892425537,0.2744811773300171,-0.5466750974503322,-0.35424853371875875,-0.9081703612474713,-0.2963297367095947,0.5198497772216797,-0.8012146353721619,0.4272820055484772,-0.32910406589508057,0.07446198165416718
0.18094587326049805,0.02337929606437683,0.06374967098236084,0.215539813041687,-0.5406171178502174,-0.3587052850863626,-0.9045298880617766,-0.30099767446517944,0.5146651864051819,-0.802820086479187,0.23643729090690613,-0.2880730926990509,-0.01010849792510271
0.1997828483581543,-0.005109846591949463,0.09227997064590454,0.1836453080177307,-0.5372433765476837,-0.3636054825985442,-0.9047447301564695,-0.30554381012916565,0.5117696523666382,-0.8029537796974182,0.07830103486776352,-0.21312269568443298,-0.11413431912660599
0.22070693969726562,0.02383357286453247,0.09658896923065186,0.16432732343673706,-0.5359757513909567,-0.36977907474981647,-0.907560383615198,-0.3107292652130127,0.5106801986694336,-0.8016564249992371,-0.023488838225603104,-0.28566277027130127,-0.14800478518009186
0.2407989501953125,0.05218210816383362,0.1288246512413025,0.0976334810256958,-0.5352022512775864,-0.379089935280943,-0.9113492008554923,-0.3183259069919586,0.5100150108337402,-0.7990953326225281,-0.016171788796782494,-0.4792079031467438,-0.18713787198066711
0.26072096824645996,0.0010378658771514893,0.18150627613067627,0.059307098388671875,-0.53354366795265,-0.3919180049520123,-0.9163220559661118,-0.3288729190826416,0.508587658405304,-0.7957267761230469,0.009036734700202942,-0.5098375678062439,-0.28742191195487976
0.28072309494018555,-0.07216909527778625,0.19124317169189453,0.006417632102966309,-0.530796936315124,-0.40480700970768985,-0.923483741638997,-0.33965033292770386,0.5062207579612732,-0.7927030324935913,-0.022196844220161438,-0.41361069679260254,-0.37831684947013855
0.3007688522338867,-0.07701036334037781,0.16066265106201172,-0.008157432079315186,-0.5296671492978551,-0.4165705478167702,-0.9327518931357852,-0.3491828143596649,0.505246102809906,-0.7891753315925598,-0.24272876977920532,-0.31393665075302124,-0.3819419741630554
0.32074689865112305,-0.03241610527038574,0.11948490142822266,-0.0004156827926635742,-0.5334485567786217,-0.4296377243079309,-0.9440164048255086,-0.3586665987968445,0.5085057616233826,-0.7828027606010437,-0.4642871618270874,-0.4607873857021332,-0.3448619842529297
0.3408219814300537,-0.031294941902160645,0.14573150873184204,-0.08014523983001709,-0.539642841795646,-0.4463501132985654,-0.9556066564130099,-0.37033161520957947,0.5138296484947205,-0.7738434672355652,-0.5188361406326294,-0.5896441340446472,-0.31743907928466797
0.36072587966918945,-0.13426366448402405,0.16471177339553833,-0.15005028247833252,-0.5469890244827034,-0.4642187419466642,-0.9687289008597613,-0.38239890336990356,0.5201179385185242,-0.7637070417404175,-0.662423312664032,-0.5130185484886169,-0.37919339537620544
0.38080501556396484,-0.1939069628715515,0.11523580551147461,-0.18141251802444458,-0.5585613717954994,-0.48207828164560534,-0.9855788668776402,-0.3931596279144287,0.5299667716026306,-0.7513725161552429,-1.0424082279205322,-0.39631080627441406,-0.3310576379299164
0.4007129669189453,-0.13203248381614685,0.09260529279708862,-0.12364935874938965,-0.577916713640198,-0.49827689388590896,-1.0031098691182803,-0.40030086040496826,0.5462801456451416,-0.7357562184333801,-1.4496678113937378,-0.2885705828666687,-0.08211664110422134
0.4207267761230469,-0.09896257519721985,0.19974607229232788,-0.024782299995422363,-0.6034804525471557,-0.5151952433620409,-1.0259715548885924,-0.40567606687545776,0.5675116181373596,-0.7164897322654724,-1.4950518608093262,-0.10650508850812912,-0.29622846841812134
0.4407210350036621,-0.11759048700332642,0.015912532806396484,-0.12781810760498047,-0.6253616524756449,-0.5282313706748544,-1.0450508868141288,-0.4086240828037262,0.5853905081748962,-0.7002459168434143,-1.2542734146118164,-0.15855631232261658,0.06627942621707916
0.460723876953125,-0.10414165258407593,-0.029458224773406982,-0.14348483085632324,-0.6461735046999638,-0.5415506669770823,-1.0585125507261364,-0.4115443229675293,0.6021357774734497,-0.6841518878936768,-1.0295164585113525,-0.3580728769302368,-0.03338911011815071
0.4802839756011963,-0.13424158096313477,-0.003417372703552246,-0.14384281635284424,-0.6591838675638861,-0.5572880541015297,-1.0724150824951546,-0.41808077692985535,0.6124719381332397,-0.6708849668502808,-0.684427797794342,-0.33573827147483826,-0.19877780973911285
0.5013828277587891,-0.1214030385017395,-0.07323366403579712,-0.050655484199523926,-0.666588143091276,-0.5699504951430551,-1.084959998437228,-0.4240833818912506,0.6183080673217773,-0.6617010831832886,-0.5485531091690063,-0.16040676832199097,-0.23578380048274994
0.5208559036254883,-0.02801525592803955,-0.19744229316711426,0.04957151412963867,-0.6750059195051538,-0.5807198371015346,-1.0990859929996804,-0.4283140301704407,0.6249019503593445,-0.6527209877967834,-0.7948583960533142,-0.05290844291448593,-0.22732503712177277
0.5408420562744141,0.07389146089553833,-0.2884729504585266,0.11146771907806396,-0.688621079635074,-0.5927291391104008,-1.1166916003253917,-0.43132853507995605,0.6354730725288391,-0.6404137015342712,-1.0793598890304565,-0.05891422554850578,-0.1475876122713089
0.5618138313293457,0.1298966407775879,-0.32669931650161743,0.11090290546417236,-0.706323447200726,-0.6062024449635878,-1.1352512845745488,-0.4334396719932556,0.6490412354469299,-0.6252003908157349,-1.1547378301620483,-0.09732979536056519,-0.037308696657419205
0.6950869560241699,0.12744519114494324,-0.29862987995147705,0.09759914875030518,-0.7235689974508371,-0.6199309218635701,-1.1530741439709251,-0.43541330099105835,0.6620636582374573,-0.6099893450737,-1.0063942670822144,-0.09348241239786148,-0.10811880975961685
0.7668449878692627,0.12088993191719055,-0.2549986243247986,0.0719757080078125,-0.7352260391612838,-0.6337802757945394,-1.170981584616934,-0.43921875953674316,0.6707548499107361,-0.5976410508155823,-0.7037469744682312,-0.11320187151432037,-0.27892690896987915
0.7835140228271484,0.16061633825302124,-0.19504249095916748,0.0035874247550964355,-0.7377328842499453,-0.6589102138344377,-1.1930083517342458,-0.45306622982025146,0.6726120114326477,-0.5850846171379089,0.10427287220954895,-0.40252912044525146,-0.2970483899116516
0.80364990234375,0.04505696892738342,-0.13408523797988892,-0.01091998815536499,-0.7244326616061422,-0.6849298583838883,-1.2079683780628423,-0.47375261783599854,0.6627106666564941,-0.5799766778945923,-0.3008255660533905,-0.19250193238258362,-0.24466226994991302
0.8238110542297363,0.21492820978164673,-0.14867573976516724,-0.0815814733505249,-0.7401338491160245,-0.72158642820852,-1.2433980002459588,-0.48775532841682434,0.674386739730835,-0.5543438792228699,-0.4362388551235199,-0.28660809993743896,-0.051824431866407394
0.8406639099121094,0.40980762243270874,-0.013386130332946777,-0.13259077072143555,-0.7450147471313688,-0.7668382251932877,-1.2600570497989705,-0.5100425481796265,0.6779826283454895,-0.5293355584144592,0.29907339811325073,-0.8958073258399963,-0.09805693477392197
0.8607177734375,0.4286891222000122,0.08068197965621948,-0.1713365912437439,-0.7382304227916461,-0.7824264643347969,-1.2530740699614054,-0.5214625000953674,0.6729800701141357,-0.5245710015296936,0.5040381550788879,-1.122662901878357,-0.035982292145490646
0.8807289600372314,0.36003535985946655,0.17059177160263062,-0.1477239727973938,-0.7304941002523258,-0.7981243347999325,-1.2435760323172647,-0.5333446264266968,0.6672377586364746,-0.5199396014213562,0.5003832578659058,-1.0246427059173584,-0.002847562078386545
0.9006800651550293,0.32260459661483765,0.1869213581085205,-0.03801119327545166,-0.7259112074234741,-0.8112724321211163,-1.235884594864472,-0.5423464179039001,0.6638172268867493,-0.5149827003479004,0.21197617053985596,-0.8590824007987976,0.06459180265665054
0.9206790924072266,0.33829039335250854,0.16817927360534668,-0.009296715259552002,-0.726018834189245,-0.8272726951277309,-1.230837745575792,-0.550463855266571,0.663897693157196,-0.5061910152435303,0.11789914965629578,-1.1395941972732544,0.24738709628582
0.9406800270080566,0.2540947198867798,0.2869921922683716,-0.15574955940246582,-0.7273557106902099,-0.845317061151186,-1.2176187787056119,-0.558843195438385,0.6648968458175659,-0.49558717012405396,0.6679449081420898,-1.472166657447815,0.5213219523429871
0.9605498313903809,0.02355283498764038,0.36388587951660156,-0.13904786109924316,-0.722477605089157,-0.8511492887616905,-1.1851369552883269,-0.5641564726829529,0.6612453460693359,-0.4944513142108917,1.3882575035095215,-1.1934049129486084,0.6587041616439819
0.9807469844818115,-0.055069923400878906,0.19713932275772095,0.14557409286499023,-0.7120681666979453,-0.8441479131195309,-1.1455184375798722,-0.5657948851585388,0.6534007787704468,-0.5029349327087402,1.4408577680587769,-0.7015037536621094,0.5623557567596436
1.00077486038208,0.04267841577529907,-0.08427494764328003,0.3550209403038025,-0.7057114008440285,-0.8321984794424652,-1.1119213765172749,-0.5628047585487366,0.648575484752655,-0.5124459266662598,0.8310397863388062,-0.3818758726119995,0.6659926176071167
1.0207219123840332,0.08182817697525024,-0.12217605113983154,0.3046569228172302,-0.7064108685098839,-0.8266946636835414,-1.0894165828682987,-0.5596418380737305,0.6491076946258545,-0.5152282118797302,0.5119509100914001,-0.5893511772155762,0.47724980115890503
1.0405631065368652,0.040322065353393555,0.1816622018814087,0.10392862558364868,-0.7001024706876381,-0.8296201852478793,-1.069669286707008,-0.5641562938690186,0.6442960500717163,-0.5163432359695435,1.1630873680114746,-0.9595784544944763,0.09119638800621033
1.0602688789367676,0.008982539176940918,0.4891504645347595,0.1059490442276001,-0.6784596137311405,-0.8299021769194314,-1.0404644196367447,-0.5744580030441284,0.627594530582428,-0.5254742503166199,1.8977766036987305,-0.8510217070579529,-0.14272798597812653
1.080747127532959,0.05236256122589111,0.29131627082824707,0.3192107677459717,-0.6503986925055758,-0.8239356535339581,-1.0081516219329094,-0.5840092301368713,0.6055037379264832,-0.5406463742256165,1.7137161493301392,-0.5796554088592529,-0.18705113232135773
1.0997118949890137,0.13178926706314087,0.05900835990905762,0.4339892268180847,-0.6285587212339027,-0.8205405766315265,-0.9850701094589834,-0.5917044281959534,0.5879795551300049,-0.5515124797821045,1.159002661705017,-0.4765992760658264,-0.13860218226909637
1.1206040382385254,0.15997803211212158,-0.004318833351135254,0.43321317434310913,-0.6132166739885786,-0.8213481600337171,-0.9702075014364692,-0.5986834168434143,0.575501024723053,-0.5571145415306091,0.8150957226753235,-0.5020537972450256,-0.20313411951065063
1.1407828330993652,0.12927943468093872,0.0049141645431518555,0.3614732027053833,-0.5986423304273006,-0.8280671238889998,-0.9619018827119356,-0.6085273623466492,0.5635214447975159,-0.5586930513381958,0.7086322903633118,-0.6732295155525208,-0.41233083605766296
1.1606769561767578,0.10246390104293823,0.07873666286468506,0.2502133250236511,-0.579336445643041,-0.8404693647836549,-0.9558276503750015,-0.6233989596366882,0.5474687814712524,-0.5582578182220459,1.0175498723983765,-0.8593584299087524,-0.6471611261367798
1.1807279586791992,0.17648619413375854,0.17531335353851318,0.29521065950393677,-0.5538496262408921,-0.8526886412988179,-0.9452225364977749,-0.6404753923416138,0.5259652733802795,-0.5595996379852295,1.3271318674087524,-0.9520719647407532,-0.6637696027755737
1.2008271217346191,0.23223960399627686,0.09496593475341797,0.3841208815574646,-0.5261433386036636,-0.8664171781707497,-0.9333546199778816,-0.6589516401290894,0.502202033996582,-0.5599784255027771,1.1914253234863281,-1.025779128074646,-0.8058181405067444
1.2206909656524658,0.19283074140548706,-0.06836745142936707,0.40771347284317017,-0.5005720238015562,-0.8844208612667666,-0.9291292681228336,-0.6786400675773621,0.4799274504184723,-0.5559831857681274,0.6674870252609253,-0.9681372046470642,-0.8874790668487549
1.240675926208496,0.1354009509086609,-0.041994065046310425,0.37060487270355225,-0.4829088009847933,-0.9078806069892646,-0.9377293898736365,-0.6980687975883484,0.46435731649398804,-0.5450433492660522,-0.15846113860607147,-1.0376322269439697,-1.0262929201126099
1.2606821060180664,0.04137235879898071,0.054327547550201416,0.2858852744102478,-0.4688062772575648,-0.9409379639752516,-0.9602951883461519,-0.7209224104881287,0.4518216848373413,-0.5254787802696228,-0.5488923192024231,-1.1967136859893799,-1.3062986135482788
1.2807350158691406,-0.06760132312774658,0.1095903217792511,0.25766050815582275,-0.4529843575723942,-0.9775514805020125,-0.9905986312735778,-0.7455089688301086,0.4376508593559265,-0.50267094373703,-0.6396815180778503,-1.1157821416854858,-1.5725393295288086
1.3007140159606934,-0.1728229522705078,0.10935273766517639,0.1337694227695465,-0.429755079745621,-1.0107089639805573,-1.0181498700646487,-0.7701701521873474,0.41664817929267883,-0.4829515516757965,-0.21279370784759521,-1.0351910591125488,-1.6891156435012817
1.320755958557129,-0.20035326480865479,0.19585669040679932,0.18072494864463806,-0.40330585985022954,-1.0385167108053328,-1.040243956396231,-0.7925208210945129,0.3924611210823059,-0.46678152680397034,-0.1956283450126648,-0.828275203704834,-1.6215367317199707
1.3407199382781982,-0.22478246688842773,0.12944385409355164,0.19954660534858704,-0.3796405084984203,-1.0591148025491615,-1.0613359054844473,-0.80983966588974,0.3705866038799286,-0.45478036999702454,-0.3429702818393707,-0.41791507601737976,-1.3633097410202026
1.3607630729675293,-0.13742411136627197,0.12975499033927917,0.11263227462768555,-0.3614633476933692,-1.073115293545542,-1.080624326393884,-0.8219111561775208,0.35364338755607605,-0.4465404152870178,-0.23278692364692688,-0.3199942708015442,-1.158437967300415
1.380713939666748,-0.0128059983253479,0.20131224393844604,-0.010941743850708008,-0.3403947669448697,-1.084211798631753,-1.0913085320483433,-0.8332175612449646,0.33385923504829407,-0.44077953696250916,0.36225128173828125,-0.4529210031032562,-1.1601320505142212
1.4007139205932617,0.08943015336990356,0.16622447967529297,-0.011812925338745117,-0.31532384546731757,-1.0939284246724956,-1.091417863981346,-0.8446334004402161,0.31012436747550964,-0.43636828660964966,0.7408720254898071,-0.46246957778930664,-1.1024671792984009
1.420839786529541,0.11441165208816528,0.03201305866241455,0.04689788818359375,-0.288835010158715,-1.1006781485582102,-1.0890173816017834,-0.8545849919319153,0.28483569622039795,-0.4342270791530609,0.6169231534004211,-0.3338305652141571,-1.16115140914917
1.4407119750976562,0.12157100439071655,-0.026385188102722168,0.031216084957122803,-0.2628296961022026,-1.1085317567821178,-1.0886036104178805,-0.8643077611923218,0.2598141133785248,-0.4306606948375702,0.6202182769775391,-0.522574245929718,-1.129372477531433
1.4607148170471191,-0.004227101802825928,0.01757456362247467,-0.05768844485282898,-0.23581020195363844,-1.121243753329936,-1.084706173209446,-0.8757166266441345,0.23363083600997925,-0.4225361943244934,0.9351391792297363,-0.7581436038017273,-1.1787834167480469
1.4807147979736328,-0.21363753080368042,0.12420067191123962,-0.026121050119400024,-0.2034947912585162,-1.1332790924320943,-1.0767162183216892,-0.8871161937713623,0.202093243598938,-0.414949506521225,1.1431310176849365,-0.5721080303192139,-1.4514288902282715
1.5006051063537598,-0.30519115924835205,0.08892954885959625,0.1451786756515503,-0.166183027930904,-1.1377513245553146,-1.066270721001589,-0.8951871991157532,0.16541917622089386,-0.4138554632663727,1.2932778596878052,-0.022595012560486794,-1.3458737134933472
1.5207138061523438,-0.40183067321777344,-0.024280548095703125,0.18216562271118164,-0.13570435659787491,-1.1317718358349271,-1.0551636662444552,-0.8968449234962463,0.13528822362422943,-0.4211488366127014,0.968022346496582,0.4948352575302124,-1.1196187734603882
1.5407137870788574,-0.5948730707168579,-0.06837593764066696,0.2334868609905243,-0.1082601047232435,-1.116551351663501,-1.0518019956089164,-0.8933318257331848,0.10804875940084457,-0.4362151622772217,0.49296700954437256,0.8951742053031921,-1.0834705829620361
1.5607140064239502,-0.5550867915153503,-0.09535146504640579,0.3855609893798828,-0.09545054909398706,-1.0959785525987775,-1.0536943787663637,-0.8853276968002319,0.0953056737780571,-0.4550953805446625,-0.09639841318130493,1.1726791858673096,-0.25390395522117615
1.5807838439941406,-0.5632925033569336,-0.21139389276504517,0.37579137086868286,-0.10101564320002175,-1.0748741958165018,-1.057207623549108,-0.8750466704368591,0.10084393620491028,-0.473417192697525,-0.41739988327026367,0.8921011090278625,0.484100878238678
1.6007161140441895,-0.691126823425293,-0.2391776740550995,0.3255605399608612,-0.11310639815504864,-1.0650463687436469,-1.0608285944067883,-0.869221568107605,0.1128653883934021,-0.4813680648803711,-0.43199267983436584,0.1326655000448227,0.40090030431747437
1.6207990646362305,-0.6564550995826721,-0.35009151697158813,0.4039863348007202,-0.12730581309012093,-1.0666321819862299,-1.0631263844932668,-0.8684930205345154,0.12696222960948944,-0.4791664779186249,-0.4791938066482544,-0.1909855306148529,0.8057529330253601
1.6407170295715332,-0.6883994340896606,-0.5857611894607544,0.47653019428253174,-0.14934982552691028,-1.0677164212623316,-1.0613154418155029,-0.8663490414619446,0.1487952321767807,-0.4767591059207916,-0.4161248803138733,0.1926032304763794,1.1569494009017944
1.6607160568237305,-0.84330815076828,-0.5136815309524536,0.39013880491256714,-0.1741366925427714,-1.0595211614359605,-1.0551206953236014,-0.8589317798614502,0.1732579469680786,-0.4818899631500244,-0.19262243807315826,0.4083152711391449,1.3644953966140747
1.6807150840759277,-0.7564285397529602,-0.3226138949394226,0.19660934805870056,-0.20524696102136464,-1.050797384389145,-1.0423873251816451,-0.8496047258377075,0.2038089483976364,-0.48645004630088806,-0.3442544937133789,0.24473336338996887,1.9958397150039673
1.7007098197937012,-0.8531641960144043,-0.19266070425510406,0.1538034975528717,-0.2502258993963084,-1.0437355325285833,-1.029419665090148,-0.8373721837997437,0.24762283265590668,-0.4873301386833191,-0.8229580521583557,0.25895819067955017,2.513061046600342
1.7208070755004883,-1.0640957355499268,-0.13938644528388977,0.10665875673294067,-0.3061170553143959,-1.0356031078760708,-1.018739135555975,-0.8201816082000732,0.30135849118232727,-0.48629751801490784,-0.9856529831886292,0.18666481971740723,2.7754905223846436
1.740722894668579,-1.0984262228012085,-0.06924900412559509,0.042487919330596924,-0.3633877674714678,-1.0282746791436015,-1.00434735943913,-0.800484299659729,0.3554427921772003,-0.4825819730758667,-0.7982510328292847,0.1204974353313446,2.812844753265381
1.7607378959655762,-1.028461217880249,-0.06303450465202332,0.028598755598068237,-0.41752872218202586,-1.0208722588733157,-0.9879012178442618,-0.7793236374855042,0.40550270676612854,-0.4777259826660156,-0.7601204514503479,0.018244296312332153,2.6140666007995605
1.7807130813598633,-0.9015885591506958,-0.09798124432563782,-0.0042459964752197266,-0.46823698322743584,-1.0172440886857463,-0.9757798537539669,-0.7591017484664917,0.45131373405456543,-0.46912747621536255,-0.9654116630554199,-0.1765468567609787,2.2750508785247803
1.8007287979125977,-0.7688291072845459,-0.06964465975761414,-0.07092314958572388,-0.5160253869794537,-1.0202289248251386,-0.9708322625461847,-0.7412569522857666,0.49342697858810425,-0.4550473690032959,-1.2298983335494995,-0.3647063672542572,2.0277998447418213
1.8207159042358398,-0.6531564593315125,-0.04213690757751465,-0.06743073463439941,-0.5632209258897931,-1.0299989170001131,-0.9751960970010746,-0.7248799800872803,0.5339123606681824,-0.4353006184101105,-1.5209922790527344,-0.35586288571357727,1.8454281091690063
1.8407578468322754,-0.6003401279449463,0.03328275680541992,-0.08337873220443726,-0.6091129410638374,-1.0426193515779176,-0.9858174805043333,-0.7083908915519714,0.5721401572227478,-0.41332536935806274,-1.5559626817703247,-0.3465482294559479,1.6417796611785889
1.8607139587402344,-0.5203734040260315,0.13485389947891235,-0.13337665796279907,-0.6493812946128453,-1.057526893051989,-0.9982884226558002,-0.6938294172286987,0.6046937704086304,-0.3910831809043884,-1.3066154718399048,-0.42047616839408875,1.3766919374465942
1.8807148933410645,-0.40028250217437744,0.17599815130233765,-0.15576082468032837,-0.6817910315488223,-1.0702714337448131,-1.004981545995428,-0.6811994314193726,0.6301846504211426,-0.3726053237915039,-0.7519674897193909,-0.4120190143585205,1.2219898700714111
1.9007158279418945,-0.3100689649581909,0.15403223037719727,-0.10960161685943604,-0.7071416590561622,-1.0798936291641037,-1.0069794959694167,-0.6704455614089966,0.6496634483337402,-0.35838547348976135,-0.7073001861572266,-0.42406192421913147,0.956483006477356
1.9207139015197754,-0.2107519507408142,0.04799807071685791,-0.04554304480552673,-0.7322634687604083,-1.0958395452016993,-1.0190630642644602,-0.661348819732666,0.6685546040534973,-0.34007710218429565,-1.3354008197784424,-0.383907675743103,0.8205716013908386
1.9407598972320557,-0.15474224090576172,0.03822290897369385,-0.007960319519042969,-0.7603340714441983,-1.1227651791823217,-1.0489167526180718,-0.6530885696411133,0.6891635656356812,-0.3138933777809143,-1.7714424133300781,-0.2827221155166626,0.6739230155944824
1.9607489109039307,-0.05343008041381836,0.08753705024719238,-0.025729209184646606,-0.7835056631654167,-1.1539766106139808,-1.0854694254097594,-0.6477875113487244,0.7057673335075378,-0.2868165969848633,-1.513869285583496,-0.2968192994594574,0.4011882543563843
1.9807147979736328,0.11187225580215454,0.12229645252227783,-0.036697983741760254,-0.8007564733876968,-1.1810728771298666,-1.1148379238092496,-0.643961489200592,0.7178829312324524,-0.2644953727722168,-1.1305232048034668,-0.3339327573776245,0.43637824058532715
2.000743865966797,0.20488470792770386,0.1464136242866516,-0.020418643951416016,-0.8170135567664775,-1.205304187236421,-1.1382673036450806,-0.6391955614089966,0.7291051745414734,-0.24461130797863007,-1.0748480558395386,-0.3297257423400879,0.4787885844707489
2.020805835723877,0.21369534730911255,0.08860737085342407,-0.029396474361419678,-0.8327842491357672,-1.2352491389081495,-1.169084212714586,-0.6352956891059875,0.7398075461387634,-0.22154967486858368,-1.402576208114624,-0.38025256991386414,0.2578244209289551
2.0407228469848633,0.30920201539993286,-0.08700776100158691,-0.026499241590499878,-0.8466361899169789,-1.2757482971802436,-1.213842574755982,-0.6338785886764526,0.7490561008453369,-0.1926475465297699,-1.8906112909317017,-0.35251468420028687,0.16033345460891724
2.0607190132141113,0.42336034774780273,-0.14916133880615234,-0.004617094993591309,-0.8610171068414755,-1.324361900713055,-1.2710870663940086,-0.631978452205658,0.7585057616233826,-0.15897248685359955,-2.10278582572937,-0.20532213151454926,0.15723182260990143
2.080519914627075,0.45780467987060547,-0.1441960334777832,-0.038632333278656006,-0.8718707157822934,-1.3754598606508281,-1.3338745808113843,-0.631159782409668,0.7655338644981384,-0.12488090991973877,-2.014223098754883,-0.09038959443569183,0.03325734660029411
2.1007080078125,0.4940880537033081,-0.17181384563446045,-0.13133078813552856,-0.8772468787795819,-1.415112167736729,-1.384349088213063,-0.6315392255783081,0.7689818143844604,-0.0991227850317955,-1.262823224067688,0.014289502054452896,-0.07609681785106659
2.120716094970703,0.5645574927330017,-0.10915172100067139,-0.2151150107383728,-0.8799334908183962,-1.4365267613201098,-1.4150483255904758,-0.6314672827720642,0.7706965208053589,-0.08530005812644958,-0.9422292709350586,0.1553986817598343,0.007398258429020643
2.140768051147461,0.6427254676818848,-0.28509098291397095,-0.20004528760910034,-0.8824840706592648,-1.4644764967229567,-1.453435657097836,-0.631647527217865,0.7723192572593689,-0.06741084903478622,-1.5259857177734375,0.04802260920405388,0.023875826969742775
2.160727024078369,0.7188006043434143,-0.33462631702423096,-0.22278887033462524,-0.887141996384934,-1.506242640324622,-1.5100162205110976,-0.6303149461746216,0.7752696871757507,-0.04074576869606972,-1.9886749982833862,0.08051441609859467,0.06548085808753967
2.180716037750244,0.7824743390083313,-0.2822040319442749,-0.33678126335144043,-0.8891363973089071,-1.5525426593817282,-1.568345671958411,-0.6299780607223511,0.7765278816223145,-0.011500687338411808,-1.6143639087677002,-0.08843359351158142,0.010147914290428162
2.2008090019226074,0.857794463634491,-0.28863316774368286,-0.3724343776702881,-0.8894108203418343,-1.5842382856277188,-1.608153092781134,-0.6298128366470337,0.7767007946968079,0.008466428145766258,-0.8473290205001831,0.07274935394525528,0.0051567768678069115
2.220719814300537,0.919215977191925,-0.35853880643844604,-0.48932945728302,-0.8929879205153736,-1.5893314185771472,-1.6221191205200025,-0.6269795298576355,0.7789489030838013,0.011622454971075058,-0.04150617495179176,0.4270823299884796,0.3904450237751007
2.2407360076904297,0.9922194480895996,-0.2959325313568115,-0.6713869571685791,-0.9053229895898788,-1.5774692233168506,-1.619600267148641,-0.6174177527427673,0.7866246104240417,0.004120025783777237,0.1333903968334198,0.521131157875061,0.800395131111145
2.260715961456299,0.9597065448760986,-0.18610858917236328,-0.6954495906829834,-0.9232374179600182,-1.5648768915894464,-1.61837825774692,-0.6032307147979736,0.7975587248802185,-0.0035708267241716385,-0.012840960174798965,0.6749103665351868,0.9599148631095886
2.2807369232177734,0.9094946384429932,-0.13416582345962524,-0.6698285341262817,-0.9401178315038003,-1.5486674831993898,-1.6156787168544422,-0.5895482301712036,0.8076276183128357,-0.013048150576651096,0.2780103087425232,0.701796293258667,0.6823671460151672
2.300774097442627,0.9724116325378418,-0.1114206314086914,-0.6155117750167847,-0.9513935312298215,-1.514208924408351,-1.589993379924848,-0.5796198844909668,0.8142253160476685,-0.032834239304065704,1.201932668685913,0.732790470123291,0.6065830588340759
2.320812940597534,0.9745413661003113,-0.22616130113601685,-0.49753129482269287,-0.9589144183289424,-1.447684122342137,-1.5280050928030064,-0.5700613856315613,0.8185684680938721,-0.0705382451415062,2.255028247833252,0.8778398633003235,0.4286702871322632
2.3407750129699707,0.8929199576377869,-0.3518599271774292,-0.27990204095840454,-0.9593072334119814,-1.363693080589667,-1.450582643049723,-0.5618194341659546,0.8187940716743469,-0.11804722994565964,1.7752537727355957,1.1502429246902466,0.29660704731941223
2.360743999481201,0.8395437002182007,-0.46389877796173096,-0.07190738618373871,-0.9555584257892482,-1.3199338665799913,-1.4209455255407826,-0.5590870380401611,0.8166361451148987,-0.14327210187911987,-0.04877576604485512,0.7272316217422485,-0.2726707458496094
2.380713939666748,0.7589677572250366,-0.3907662630081177,-0.09652064740657806,-0.9439464278896125,-1.3251047757921912,-1.433643948846066,-0.5689805746078491,0.8098793625831604,-0.1426761895418167,0.1031060591340065,-0.2499442845582962,-1.0553967952728271
2.4007158279418945,0.5627477765083313,0.11412429809570312,-0.1463557332754135,-0.9143337404856587,-1.3166704139098169,-1.4095022149177783,-0.5907170176506042,0.7921561598777771,-0.15343372523784637,2.0348708629608154,-0.5346531271934509,-1.3192486763000488
2.4207568168640137,0.1276158094406128,-0.008787989616394043,0.12970124185085297,-0.8742672047090215,-1.27485455156952,-1.351648653050529,-0.6136693358421326,0.7670735716819763,-0.18710486590862274,2.240734100341797,-0.04974150285124779,-1.8264062404632568
2.4407739639282227,-0.31171590089797974,-0.4321292042732239,0.19487473368644714,-0.8141502931087469,-1.2620597227456163,-1.3233971705831105,-0.6540279984474182,0.7271425724029541,-0.20859244465827942,1.256502389907837,-0.877810537815094,-3.343539237976074
2.4607319831848145,-0.7325685024261475,-0.28227919340133667,0.0702715665102005,-0.7343181895492229,-1.292836978788549,-1.328154169479179,-0.7137967348098755,0.6700811982154846,-0.20367921888828278,0.883760392665863,-1.8560817241668701,-4.3583502769470215
2.4807138442993164,-1.3656315803527832,-0.010810434818267822,0.15121985971927643,-0.6403171166102579,-1.3369195985574491,-1.3380822440996891,-0.7800745964050293,0.597449779510498,-0.1858421266078949,0.6809094548225403,-1.7167948484420776,-4.79229736328125
2.5008559226989746,-1.995551347732544,0.04128682613372803,0.14956367015838623,-0.5498459743979962,-1.377951312055823,-1.3517727640903092,-0.8368002772331238,0.5225558876991272,-0.16340340673923492,0.09229226410388947,-1.6758875846862793,-4.286319732666016
2.5207247734069824,-2.015237331390381,0.3819204568862915,0.002350449562072754,-0.4730676853896286,-1.4130764512262395,-1.367608248237414,-0.8791259527206421,0.455619215965271,-0.13981691002845764,0.01907460018992424,-0.9859474897384644,-3.310380220413208
2.540695905685425,-1.2755918502807617,0.5696755051612854,-0.14826901257038116,-0.42670726041747836,-1.4262928947870686,-1.3732037084517976,-0.9008456468582153,0.413875550031662,-0.1310890018939972,0.15288981795310974,-0.047353532165288925,-1.3459950685501099
2.5607728958129883,-0.5958800315856934,0.5750807523727417,-0.0338120311498642,-0.418488383575883,-1.4159866561268533,-1.3721343473228473,-0.9027770757675171,0.406379759311676,-0.14088591933250427,0.0708509311079979,0.9325897693634033,0.5702839493751526
2.580367088317871,-0.2904275059700012,0.2846390902996063,0.12499746680259705,-0.44411094478096,-1.3931810138691427,-1.3654450955644457,-0.888786792755127,0.4296552538871765,-0.15954339504241943,0.08695762604475021,1.1062569618225098,1.908879041671753
2.6007161140441895,-0.4291754961013794,-0.08271297812461853,0.2618459463119507,-0.48459026966198426,-1.364045893076031,-1.3544971599922209,-0.8660209774971008,0.46584585309028625,-0.18164581060409546,0.13201358914375305,1.2899389266967773,2.095970630645752
2.620858907699585,-0.5192396640777588,-0.30408936738967896,0.28432267904281616,-0.5221158124195957,-1.3313793356741475,-1.341697095658387,-0.8420426249504089,0.4987151622772217,-0.20554165542125702,0.1224251314997673,1.3021953105926514,1.7959738969802856
2.640758991241455,-0.4486531615257263,-0.39172112941741943,0.1458195000886917,-0.5522388222890258,-1.3010128149429798,-1.3287003062946685,-0.8205575346946716,0.5245945453643799,-0.2269047349691391,0.17478153109550476,1.0923736095428467,1.4291218519210815
2.6607799530029297,-0.3166115880012512,-0.3620349168777466,0.12426735460758209,-0.5763926725927452,-1.2732745852405594,-1.3180006214075266,-0.8015981912612915,0.5450029969215393,-0.24578838050365448,0.001540495315566659,1.116274118423462,1.1715186834335327
2.680823802947998,-0.1995171308517456,-0.3871251940727234,0.11934491991996765,-0.597270481047967,-1.2501735690701214,-1.3140224531938987,-0.7847357392311096,0.5623875856399536,-0.2605955898761749,-0.33250004053115845,0.9755954742431641,0.9388330578804016
2.7008910179138184,-0.15177011489868164,-0.3798617124557495,0.1110706627368927,-0.6183678205347183,-1.2328855819936728,-1.3169584185054606,-0.7687467932701111,0.5797060132026672,-0.2701283395290375,-0.5884253978729248,0.9364031553268433,1.0624920129776
2.720841884613037,-0.19231539964675903,-0.28612184524536133,0.0917963981628418,-0.6447735310179906,-1.2195883526207036,-1.3254884953072679,-0.7504488229751587,0.6010174751281738,-0.2749629616737366,-0.9240204691886902,0.9663982391357422,1.1442104578018188
2.7408969402313232,-0.2722306251525879,-0.20483696460723877,0.029191166162490845,-0.6720116739015699,-1.209313790890619,-1.3395064000821004,-0.7319959998130798,0.622561514377594,-0.27676504850387573,-0.970043420791626,0.8462978601455688,1.0184820890426636
2.76082181930542,-0.30014532804489136,-0.15208035707473755,0.01992654800415039,-0.6971363841194655,-1.1982462483295828,-1.3480328677003968,-0.7140910625457764,0.64202481508255,-0.27906665205955505,-0.614801287651062,0.8283457159996033,1.155759334564209
2.789236068725586,-0.31832295656204224,-0.20493406057357788,0.04452010989189148,-0.7445432923887599,-1.168820914331531,-1.3552016521679604,-0.6767789125442505,0.6776360273361206,-0.28771474957466125,-0.5093219876289368,0.9178952574729919,0.9181210398674011
2.8092808723449707,-0.2405737042427063,-0.18259882926940918,0.03136944770812988,-0.7645916393081499,-1.152676173877053,-1.3582586776275112,-0.6594964265823364,0.6922423839569092,-0.29302725195884705,-0.5444366335868835,0.8898711204528809,0.8130449056625366
2.820755958557129,-0.2405737042427063,-0.18259882926940918,0.03136944770812988,-0.7645916393081499,-1.152676173877053,-1.3582586776275112,-0.6594964265823364,0.6922423839569092,-0.29302725195884705,-0.5444366335868835,0.8898711204528809,0.8130449056625366
2.8407249450683594,-0.18226462602615356,-0.19683372974395752,0.006506234407424927,-0.7826556911286681,-1.1421619410549717,-1.3670389353324444,-0.6448990106582642,0.705164909362793,-0.2946989834308624,-0.8168020248413086,0.7684150338172913,0.5790141820907593
2.8694069385528564,-0.09654384851455688,-0.16012418270111084,-0.005481123924255371,-0.818603664672629,-1.1373388958494095,-1.4097757423346824,-0.6200546026229858,0.7301924824714661,-0.2869689166545868,-1.3059710264205933,1.0003712177276611,0.3974909782409668
2.8879919052124023,-0.0716601014137268,-0.13419872522354126,-0.021794766187667847,-0.8359379025935938,-1.1372115472835354,-1.4394911772574608,-0.6084393262863159,0.7419256567955017,-0.28168731927871704,-1.3062572479248047,1.1877548694610596,0.36652401089668274
2.907855987548828,-0.006095230579376221,-0.0751640796661377,-0.018330127000808716,-0.8514123241325494,-1.1364620816204285,-1.4703319962192822,-0.5977407693862915,0.7522117495536804,-0.27727842330932617,-1.1420893669128418,1.2127175331115723,0.17012262344360352
2.9269769191741943,0.08326661586761475,-0.07851845026016235,-0.021007537841796875,-0.8624548005927494,-1.1326656607738204,-1.4976541105299934,-0.58912593126297,0.7594418525695801,-0.2760048508644104,-0.9597793221473694,1.2331053018569946,0.09645004570484161
2.947864055633545,0.16635513305664062,-0.07147598266601562,-0.020393729209899902,-0.8709040816271062,-1.1274723559569821,-1.5221525088550336,-0.5818672180175781,0.7649115920066833,-0.27629825472831726,-0.819577157497406,1.1529350280761719,-0.019046280533075333
2.968878984451294,0.2079196572303772,-0.06245988607406616,-0.03451085090637207,-0.8766354707963236,-1.12156660342503,-1.5436568797822954,-0.5762668251991272,0.7685908079147339,-0.2778213620185852,-0.7179968357086182,1.075727939605713,-0.04257189482450485
2.9888148307800293,0.22772949934005737,-0.030189096927642822,-0.04024168848991394,-0.8814698989564642,-1.11771746858679,-1.5651880100117244,-0.5718455910682678,0.7716745734214783,-0.27840763330459595,-0.6992178559303284,1.032305359840393,-0.10488533973693848
3.008683919906616,0.2452397346496582,-0.06080657243728638,-0.022471249103546143,-0.8859336235986486,-1.1113059602228195,-1.5858979818413808,-0.5669559836387634,0.7745059132575989,-0.280537873506546,-0.7271392345428467,1.1852161884307861,-0.06442233175039291
3.028388023376465,0.28843873739242554,-0.0700918436050415,-0.033938586711883545,-0.890639443083058,-1.1062753109575958,-1.609265127049167,-0.5622729063034058,0.777474045753479,-0.2817505896091461,-0.7506448030471802,1.1423053741455078,-0.2041701078414917
3.0497570037841797,0.3372642397880554,-0.06614184379577637,-0.052420854568481445,-0.8925372298005748,-1.1019701343746375,-1.6324198127586602,-0.5597373843193054,0.7786661982536316,-0.28350144624710083,-0.7162290215492249,1.0231181383132935,-0.231631338596344
3.070266008377075,0.34916138648986816,0.0061154961585998535,-0.10521498322486877,-0.8940108348504049,-1.1014215065685016,-1.654313465683079,-0.5585576891899109,0.7795899510383606,-0.2832890748977661,-0.5361429452896118,0.8080658316612244,-0.2554490268230438
3.0899648666381836,0.28991395235061646,0.06674659252166748,-0.15888050198554993,-0.8935842101021974,-1.0991506978813368,-1.672581921392561,-0.5582091212272644,0.7793226838111877,-0.28470778465270996,-0.49789106845855713,0.9059605598449707,-0.2934742271900177
3.107297897338867,0.2900487780570984,0.060787856578826904,-0.12018164992332458,-0.8926477753905553,-1.0947925840001225,-1.6936985388061105,-0.5576117038726807,0.7787355780601501,-0.2874722182750702,-0.7352036237716675,1.1484190225601196,-0.3553817868232727
3.1282079219818115,0.3786885142326355,-0.007226169109344482,-0.08714550733566284,-0.8950681099658007,-1.0963917402992753,-1.7254555812344716,-0.5563923120498657,0.780251681804657,-0.28571829199790955,-1.2040433883666992,1.1149839162826538,-0.2861035466194153
3.148265838623047,0.4205322861671448,0.015714704990386963,-0.1281927525997162,-0.9027298095962369,-1.10866305068986,-1.7673439992221014,-0.5544891953468323,0.7850208878517151,-0.27619579434394836,-1.3933806419372559,0.9802019000053406,-0.1762620508670807
3.168144941329956,0.39893192052841187,0.08517539501190186,-0.16926127672195435,-0.913014870056675,-1.1226844792786173,-1.8094978965348456,-0.5510009527206421,0.7913504838943481,-0.26488184928894043,-1.3999361991882324,0.9340830445289612,-0.0653386190533638
3.1871118545532227,0.37961113452911377,0.11360591650009155,-0.16033360362052917,-0.9229821526046343,-1.1356090867804565,-1.8493543199792897,-0.5471982955932617,0.7974047064781189,-0.2544003427028656,-1.2282058000564575,0.9262022972106934,-0.051926013082265854
3.207995891571045,0.3975600600242615,0.06913363933563232,-0.11944441497325897,-0.9319497799033702,-1.1483292603875033,-1.8866241812602722,-0.5438459515571594,0.8027840852737427,-0.24447773396968842,-1.1901400089263916,0.7601771950721741,-0.09481505304574966
3.2278928756713867,0.3917866349220276,0.04999154806137085,-0.10978679358959198,-0.9384912216443878,-1.1674581408051876,-1.9246222270398492,-0.543580949306488,0.8066673278808594,-0.2319643199443817,-1.1304272413253784,0.35318517684936523,-0.18274997174739838
3.2479190826416016,0.31443119049072266,0.15573930740356445,-0.1871858686208725,-0.9434058563424403,-1.1922069802027568,-1.9579794895096372,-0.5454643964767456,0.8095621466636658,-0.2169737070798874,-0.8356637358665466,-0.11695506423711777,-0.11266184598207474
3.2670488357543945,0.1391645073890686,0.3622376322746277,-0.26497310400009155,-0.9453821117145567,-1.206586556156387,-1.9717442148787478,-0.547031819820404,0.810720682144165,-0.20853768289089203,0.05782558023929596,-0.121687151491642,0.04255973547697067
3.287552833557129,0.03497970104217529,0.4235613942146301,-0.18522444367408752,-0.9456713912180248,-1.1948713117656653,-1.9571696297636734,-0.5443333387374878,0.8108900189399719,-0.21484582126140594,0.6586108803749084,0.09288781881332397,0.24933186173439026
3.3068180084228516,0.026792824268341064,0.2669299244880676,-0.03940814733505249,-0.9450976844847587,-1.1693057943592318,-1.93002924667137,-0.5390913486480713,0.8105541467666626,-0.2288719266653061,0.7304314374923706,0.2335629165172577,0.2916407585144043
3.327505111694336,0.008941709995269775,0.10003972053527832,0.02692796289920807,-0.9452882605694198,-1.144073328101012,-1.9055828431267494,-0.5330047607421875,0.8106657266616821,-0.24233630299568176,0.5110507607460022,0.2717364728450775,0.2832700312137604
3.3474578857421875,-0.018838047981262207,0.011054456233978271,0.06634730100631714,-0.9467163571830257,-1.1273777736633817,-1.8921156370888903,-0.5278385281562805,0.8115010857582092,-0.2507040500640869,0.1384316384792328,0.2918429970741272,0.16231119632720947
3.366487979888916,-0.03397524356842041,-0.024829864501953125,0.10177186131477356,-0.9493771951544674,-1.1192563741331005,-1.8899147344506397,-0.5238401889801025,0.8130530714988708,-0.25403931736946106,-0.12726235389709473,0.3349262773990631,0.1640222817659378
3.386417865753174,-0.03582042455673218,-0.00706404447555542,0.12056306004524231,-0.9542876058820556,-1.1131799675455505,-1.8916125429289234,-0.5186992287635803,0.815902054309845,-0.2554508149623871,-0.13398364186286926,0.4072704315185547,0.21998119354248047
3.4063968658447266,-0.0120125412940979,-0.011329114437103271,0.12751060724258423,-0.9584035634147385,-1.1005442254184143,-1.8874353288495216,-0.5124319791793823,0.8182749152183533,-0.2604605257511139,0.16346797347068787,0.49417710304260254,0.2579329311847687
3.426453113555908,0.05044955015182495,-0.0827835202217102,0.1255936324596405,-0.9599137685366573,-1.079026065931086,-1.8733165681543469,-0.5056191086769104,0.8191421031951904,-0.2708420753479004,0.44995880126953125,0.47215932607650757,0.22326301038265228
3.447598934173584,0.11545193195343018,-0.17843091487884521,0.13528099656105042,-0.9579836315789527,-1.055156516565863,-1.8549703260036474,-0.5003852844238281,0.8180334568023682,-0.2836116850376129,0.5296066999435425,0.40070751309394836,0.129410982131958
3.466310977935791,0.16715654730796814,-0.23937833309173584,0.12436959147453308,-0.955606666954353,-1.0352235066634239,-1.8384670265829284,-0.4963037967681885,0.8166639804840088,-0.29452037811279297,0.40749621391296387,0.2215540111064911,0.1316518485546112
3.486175060272217,0.17528873682022095,-0.22458642721176147,0.1033845841884613,-0.9532471026591525,-1.0206559979161913,-1.8247564078681275,-0.49360233545303345,0.8152999877929688,-0.30272549390792847,0.4078333079814911,0.14493416249752045,0.0762961283326149
3.5051960945129395,0.1758362352848053,-0.192621111869812,0.10178017616271973,-0.9494130582459119,-1.0067010939322025,-1.8113138167978142,-0.4919677972793579,0.8130739331245422,-0.3112528622150421,0.47471433877944946,0.16072696447372437,-0.00035896460758522153
3.5271599292755127,0.1927681267261505,-0.20334243774414062,0.08936154842376709,-0.942906549721668,-0.9923054753011756,-1.797546353060258,-0.49185559153556824,0.8092689514160156,-0.32118842005729675,0.5462118983268738,0.14746229350566864,-0.0972578153014183
3.5469250679016113,0.2102305293083191,-0.2129824161529541,0.0762883722782135,-0.9349693667280351,-0.979183507252455,-1.7841915505175376,-0.49291476607322693,0.8045808672904968,-0.3311865031719208,0.5155327320098877,0.10478673130273819,-0.13265860080718994
3.565912961959839,0.18303290009498596,-0.18798238039016724,0.08215153217315674,-0.9268073979930669,-0.9693852876687031,-1.7750183509269635,-0.4950445890426636,0.7997072339057922,-0.339704692363739,0.4106055498123169,0.14294496178627014,-0.23577895760536194
3.5867857933044434,0.13976627588272095,-0.14125758409500122,0.06539496779441833,-0.9185632671162766,-0.9628111057864814,-1.771024728482217,-0.49819517135620117,0.7947304248809814,-0.3467060327529907,0.27367961406707764,0.1887386292219162,-0.2981169819831848
3.606773853302002,0.10454916954040527,-0.07701480388641357,0.052249252796173096,-0.9108786791840012,-0.9585737339617348,-1.7704799795206747,-0.5017048716545105,0.7900426983833313,-0.352313369512558,0.1637474000453949,0.2109963446855545,-0.3336845338344574
3.6266849040985107,0.04361647367477417,-0.008700788021087646,0.06724211573600769,-0.9028552875368003,-0.9576228610779512,-1.7757040292849986,-0.5065376162528992,0.7850986123085022,-0.35642674565315247,0.03838763013482094,0.3036037087440491,-0.5123035907745361
3.6468939781188965,0.006162464618682861,0.005915403366088867,0.08052286505699158,-0.893380475260862,-0.9597084405088198,-1.7877359502380614,-0.5133492946624756,0.7791950106620789,-0.3596213757991791,-0.09127279371023178,0.41179993748664856,-0.6863377094268799
3.6657369136810303,0.006916642189025879,0.022336244583129883,0.06597375869750977,-0.8826632680715906,-0.9638719386959272,-1.803893164982559,-0.5216718912124634,0.7724330425262451,-0.36222320795059204,-0.1387883871793747,0.4297392666339874,-0.771966278553009
3.6865830421447754,-0.03153795003890991,0.06940048933029175,0.05881422758102417,-0.8704901792254673,-0.9695078325591716,-1.8233478552808526,-0.5314197540283203,0.7646449208259583,-0.36456990242004395,-0.1801808625459671,0.5219421982765198,-0.9632868766784668
3.7064638137817383,-0.06552523374557495,0.03235125541687012,0.04968392848968506,-0.8555179470598201,-0.9772776889094725,-1.8482899505374255,-0.5436666011810303,0.7549107074737549,-0.3667921721935272,-0.3593757152557373,0.5919530987739563,-1.1899491548538208
3.7264881134033203,-0.011733949184417725,-0.011306405067443848,0.058296769857406616,-0.8396352852630438,-0.9900403520558367,-1.8811597886686025,-0.5582579970359802,0.7443996071815491,-0.3663564920425415,-0.551106333732605,0.5688010454177856,-1.330445408821106
3.7465500831604004,0.05681812763214111,-0.05239081382751465,0.020964741706848145,-0.8225332863079629,-1.007586422927761,-1.9185251991276429,-0.5752812027931213,0.7328717708587646,-0.36324989795684814,-0.6009541749954224,0.4396717846393585,-1.4998929500579834
3.7664260864257812,0.07837039232254028,-0.08629602193832397,-0.018618255853652954,-0.8009606908663313,-1.027369206857419,-1.956398258570427,-0.5957500338554382,0.7180250883102417,-0.35989129543304443,-0.4846666753292084,0.345156729221344,-1.7265703678131104
3.7860817909240723,0.046173691749572754,-0.057367146015167236,-0.009960174560546875,-0.775363630420172,-1.0498491416852036,-1.997297857228368,-0.6194311380386353,0.6999757885932922,-0.355442076921463,-0.7900631427764893,0.3057347536087036,-1.9473110437393188
3.806385040283203,-0.03210538625717163,0.006580352783203125,0.0012299716472625732,-0.7512493219877941,-1.0810457432204317,-2.0511570431136685,-0.6449270844459534,0.6825523376464844,-0.34378987550735474,-1.4949902296066284,0.30355292558670044,-2.0137336254119873
3.8263111114501953,-0.045605599880218506,0.017146170139312744,-0.08060106635093689,-0.7341921407061932,-1.1221941449676816,-2.1197046986885426,-0.668917715549469,0.6699876189231873,-0.3219716548919678,-2.207475423812866,0.17504261434078217,-1.7788256406784058
3.8463709354400635,0.023982524871826172,0.04514956474304199,-0.14004194736480713,-0.7242222501682448,-1.1706490117328343,-2.1951672134454676,-0.6898455023765564,0.662553071975708,-0.29178181290626526,-2.4179270267486572,0.03252141550183296,-1.4452617168426514
3.8649508953094482,0.017691731452941895,0.07655841112136841,-0.15100055932998657,-0.7165191473180069,-1.215128314373123,-2.2642588298811375,-0.7069006562232971,0.6567637324333191,-0.2625889480113983,-2.0241198539733887,0.10087206214666367,-1.232454776763916
3.885776996612549,-0.016958653926849365,0.07305550575256348,-0.17549967765808105,-0.7044930212091146,-1.2446775065658369,-2.3138475931163103,-0.7217803001403809,0.6476476192474365,-0.24410180747509003,-1.0747036933898926,0.16797076165676117,-1.175418496131897
3.905841827392578,0.021882712841033936,0.09365415573120117,-0.19193604588508606,-0.6859742577798641,-1.2556947000656629,-2.3358381975432834,-0.7357041239738464,0.6334272027015686,-0.2398114800453186,-0.03273707628250122,0.12721134722232819,-1.094765543937683
3.9258129596710205,0.06261473894119263,0.07029247283935547,-0.14864479005336761,-0.6647812768933703,-1.255123041750653,-2.3377585046202074,-0.7481615543365479,0.6168869733810425,-0.24434535205364227,0.45447227358818054,0.033354539424180984,-0.9512761235237122
3.9457929134368896,0.0779009461402893,0.001434624195098877,-0.12641316652297974,-0.6456463737016747,-1.255027607181106,-2.3357671711342394,-0.759221076965332,0.6017148494720459,-0.24803751707077026,0.26121705770492554,-0.08431456983089447,-0.8431136608123779
3.9655890464782715,0.13225287199020386,-0.05844634771347046,-0.10951662063598633,-0.6316278279200895,-1.257805662489147,-2.338984094371167,-0.7678576707839966,0.5904592871665955,-0.24850040674209595,-0.07276924699544907,-0.021312613040208817,-0.5426833033561707
3.985487937927246,0.21526730060577393,-0.07817375659942627,-0.12448953092098236,-0.6241960526051435,-1.2610723018335614,-2.3436890289059686,-0.7728233337402344,0.5844451189041138,-0.24732141196727753,0.021988432854413986,-0.02625597082078457,-0.2962088882923126
4.004683017730713,0.2679537534713745,-0.05409574508666992,-0.12278836965560913,-0.619728181465411,-1.2591333220489296,-2.339833052377548,-0.7748201489448547,0.5808138847351074,-0.24961771070957184,0.4257756769657135,0.013480078428983688,-0.047281697392463684
4.025628089904785,0.28122150897979736,-0.10518264770507812,-0.048850297927856445,-0.6162839871876022,-1.2492259633236382,-2.3250481146380118,-0.7742024064064026,0.5780067443847656,-0.25791245698928833,0.7909486889839172,0.11470035463571548,0.07001879811286926
4.045693874359131,0.26085084676742554,-0.2012186050415039,0.016109436750411987,-0.6118183868843913,-1.2336656747056705,-2.303967012113771,-0.7725237011909485,0.5743569731712341,-0.270778626203537,0.9793868660926819,0.2142523229122162,0.06210533529520035
4.065303802490234,0.25475525856018066,-0.2663397789001465,0.03556787967681885,-0.6058620191553112,-1.2166708712325316,-2.2806696787543332,-0.7710058093070984,0.5694708824157715,-0.28504911065101624,0.9751655459403992,0.12714380025863647,0.012292047031223774
4.084846019744873,0.2631504535675049,-0.26343077421188354,0.09875321388244629,-0.5993122303251988,-1.2047137372354082,-2.261743565169503,-0.7710086703300476,0.564074695110321,-0.29557639360427856,0.6875717043876648,-0.000998018542304635,-0.06354282051324844
4.105298042297363,0.25251662731170654,-0.2826848030090332,0.15338954329490662,-0.5943466616910326,-1.1998733454467185,-2.251298275751203,-0.7721700072288513,0.559967577457428,-0.3003165125846863,0.3012051284313202,-0.09250778704881668,-0.08274788409471512
4.124295949935913,0.24238264560699463,-0.27564090490341187,0.1848568320274353,-0.5910971970439468,-1.2008370082058601,-2.2487591476483755,-0.7741513848304749,0.5572723746299744,-0.3002285659313202,0.12772342562675476,-0.15461891889572144,-0.1638844758272171
4.1452507972717285,0.2052488923072815,-0.19941991567611694,0.09506714344024658,-0.5840896732510455,-1.2020042614679451,-2.2438491882827036,-0.7781248092651367,0.5514401793479919,-0.30072513222694397,0.5130409598350525,-0.20728737115859985,-0.34498775005340576
4.165154933929443,0.25278574228286743,-0.1208500862121582,0.15437573194503784,-0.5727701281199763,-1.1991480811235475,-2.2332963051001706,-0.7830285429954529,0.5419621467590332,-0.3051936626434326,0.6321719884872437,-0.07643134891986847,-0.35831546783447266
4.185708999633789,0.3068392872810364,-0.17907768487930298,0.19869446754455566,-0.5629061208548072,-1.1945310176095456,-2.223200174298466,-0.7865450382232666,0.5336461663246155,-0.31075504422187805,0.5789458751678467,-0.06347035616636276,-0.23436309397220612
4.205041885375977,0.30064910650253296,-0.1589706540107727,0.1727173924446106,-0.5553150812897258,-1.1902486431678698,-2.2092652189699216,-0.7889454960823059,0.52721107006073,-0.31561601161956787,0.8293681144714355,-0.2326624095439911,-0.0565943643450737
4.224999904632568,0.17067170143127441,-0.050878822803497314,0.19227147102355957,-0.5458629340148163,-1.1843746547703253,-2.186940307544187,-0.7916585803031921,0.5191558003425598,-0.32210853695869446,1.275963306427002,-0.3382456600666046,-0.15103432536125183
4.244895935058594,-0.03420048952102661,-0.06298542022705078,0.24940067529678345,-0.5305515176919935,-1.1765664995862777,-2.160983768832068,-0.7963658571243286,0.5060091018676758,-0.33129462599754333,1.301447868347168,-0.1793406754732132,-0.3934330642223358
4.264671802520752,-0.10178762674331665,-0.14278647303581238,0.29609090089797974,-0.5147701512051298,-1.1692340357466886,-2.1406320062581745,-0.8011664152145386,0.4923348128795624,-0.3402040898799896,0.9139106869697571,-0.17143908143043518,-0.3324107825756073
4.284847974777222,-0.12936651706695557,-0.12008345127105713,0.31966546177864075,-0.5028738528576201,-1.1677666339410737,-2.127380112013151,-0.8059971332550049,0.48194560408592224,-0.34365224838256836,0.7090638875961304,-0.3150326609611511,-0.35898953676223755
4.305308818817139,-0.327486515045166,-0.021245181560516357,0.2944238483905792,-0.4870862934460188,-1.1697928851946564,-2.1149026490191702,-0.8135961890220642,0.46805304288864136,-0.3449456989765167,0.9472909569740295,-0.4640257656574249,-0.7117820382118225
4.32365083694458,-0.4993695616722107,0.0010108649730682373,0.30606335401535034,-0.46388924724599906,-1.1739558218135204,-2.1045278899569655,-0.8248186707496643,0.44742971658706665,-0.3456599712371826,0.6523381471633911,-0.4623841941356659,-0.9999323487281799
4.344707012176514,-0.43022358417510986,-0.08878284692764282,0.2924771010875702,-0.44501657453092586,-1.1868298881923138,-2.1109466053960158,-0.8368813395500183,0.43047285079956055,-0.3381161689758301,-0.5966337323188782,-0.5221871137619019,-0.9381181597709656
4.36445689201355,-0.3351614475250244,-0.16676947474479675,0.2515428364276886,-0.43917446791333486,-1.212159126225623,-2.1467455579681918,-0.8475168347358704,0.4251924157142639,-0.31768980622291565,-2.190199136734009,-0.5098059773445129,-0.780542254447937
4.384552001953125,-0.32329320907592773,-0.15167614817619324,0.2683184742927551,-0.44328925912288414,-1.2464396015414514,-2.2093643234137414,-0.8562417030334473,0.4289131164550781,-0.2878955006599426,-3.1440236568450928,-0.16881826519966125,-0.7261545658111572
4.404498100280762,-0.3437633514404297,-0.10024493932723999,0.34275156259536743,-0.4468124081544044,-1.2753862645846386,-2.2831131741801407,-0.862764298915863,0.43209308385849,-0.2625514268875122,-3.0053551197052,0.4975563883781433,-1.0548838376998901
4.424312114715576,-0.34778958559036255,0.07137405872344971,0.22585061192512512,-0.43696742916317144,-1.2880992283008057,-2.3413300997177684,-0.8700752854347229,0.4231937825679779,-0.2527365982532501,-1.7598248720169067,0.5242182612419128,-1.4118425846099854
4.44457483291626,-0.2913249731063843,0.31225910782814026,0.11950021982192993,-0.413772015939237,-1.2934705750528963,-2.3680210278463094,-0.8806262612342834,0.40206587314605713,-0.2506801187992096,0.010065687820315361,0.05699160322546959,-1.2992124557495117
4.4648637771606445,-0.3370789885520935,0.2883741557598114,0.23050621151924133,-0.3912885249557885,-1.291206965918009,-2.36251551681884,-0.8885220885276794,0.3813798725605011,-0.25510337948799133,1.0453306436538696,0.11368497461080551,-0.7754828929901123
4.483418941497803,-0.572395384311676,0.13689789175987244,0.2276245653629303,-0.3759877326202367,-1.27713879455739,-2.3354886120536267,-0.8903272747993469,0.3671914339065552,-0.2692353129386902,1.730892539024353,0.13025951385498047,-0.0873379111289978
4.5031890869140625,-0.5268100500106812,0.13639667630195618,0.16827556490898132,-0.36840117093174884,-1.263025049750262,-2.2949539255206997,-0.8890681266784668,0.3601243495941162,-0.2826097309589386,2.077822208404541,-0.1807197630405426,0.49783089756965637
4.523315906524658,-0.5341063141822815,0.07521703839302063,0.22222423553466797,-0.36767294517380195,-1.2524313186195717,-2.245810856565654,-0.8862733244895935,0.35944488644599915,-0.29209426045417786,2.294806480407715,-0.44057077169418335,0.8814299702644348
4.544168949127197,-0.7111336588859558,-0.16570749878883362,0.20228680968284607,-0.37411086044025493,-1.2417413993790656,-2.1939309044358137,-0.8808920383453369,0.3654450476169586,-0.30079755187034607,2.004014253616333,-0.32716795802116394,1.2479344606399536
4.563990116119385,-0.7640513181686401,-0.2760230302810669,0.2283530831336975,-0.39079888309382765,-1.2312911342307853,-2.1519260302114103,-0.8718281984329224,0.380927175283432,-0.3079124987125397,1.0832704305648804,-0.2577749490737915,1.5498876571655273
4.583830833435059,-0.847173810005188,-0.20334139466285706,0.19715356826782227,-0.41698049633657197,-1.2282122643408255,-2.127844607280185,-0.8611848950386047,0.40500152111053467,-0.30713897943496704,0.13572798669338226,-0.4140164852142334,1.7402498722076416
4.603979110717773,-0.8720223903656006,-0.11614248156547546,0.16726118326187134,-0.45521932950789323,-1.2358038741472601,-2.120404106368845,-0.8482381701469421,0.43965932726860046,-0.29528242349624634,-0.6665344834327698,-0.6000763177871704,2.0609898567199707
4.622893810272217,-0.9530697464942932,0.02832546830177307,0.15802890062332153,-0.49991358524420476,-1.24872613404032,-2.1207810893385037,-0.8324983716011047,0.47934970259666443,-0.2777951657772064,-0.6710883378982544,-0.696916401386261,2.1784188747406006
4.644110918045044,-0.9615254998207092,0.13659512996673584,0.1056642234325409,-0.5466075930210281,-1.261630534515944,-2.115405451272609,-0.8137887120246887,0.5197921395301819,-0.2599305808544159,-0.3980982005596161,-0.8558616638183594,2.3941714763641357
4.663847923278809,-0.9470184445381165,0.16444289684295654,0.12778645753860474,-0.5936108778067944,-1.2731727162869042,-2.1039087411938566,-0.7924834489822388,0.5593578219413757,-0.2430819272994995,-0.10186456143856049,-0.8925358057022095,2.4242801666259766
4.683725833892822,-0.9981335997581482,0.2323545217514038,0.07876868546009064,-0.6385855843160498,-1.2805391241467756,-2.0847056781915745,-0.7693528532981873,0.5960603356361389,-0.2298002541065216,0.2563490867614746,-0.9362525939941406,2.3515024185180664
4.703493118286133,-0.9331001043319702,0.2699824571609497,0.07184454798698425,-0.6815483962065064,-1.2863723823886055,-2.0632906823344626,-0.7453972101211548,0.6299962401390076,-0.21791702508926392,0.18157672882080078,-0.9220380783081055,2.230936288833618
4.723537921905518,-0.8771103620529175,0.2250482439994812,0.05305519700050354,-0.7228003313381375,-1.2915078580523693,-2.0441971704562194,-0.7208967208862305,0.6614874005317688,-0.20674173533916473,0.013837788254022598,-0.8673318028450012,2.1015267372131348
4.743517875671387,-0.7864019870758057,0.26761865615844727,0.04060262441635132,-0.7592884436236595,-1.2980915978234187,-2.029952828135683,-0.6985222697257996,0.6884055137634277,-0.1953572779893875,0.04738778620958328,-0.7175558805465698,1.761612057685852
4.763628005981445,-0.6648476719856262,0.29686564207077026,-0.02951037883758545,-0.790279705003244,-1.303002737330479,-2.0164590883717186,-0.6785666346549988,0.7105501294136047,-0.18618793785572052,0.08093613386154175,-0.7333785891532898,1.4514528512954712
4.78325891494751,-0.5262025594711304,0.29214346408843994,-0.07953107357025146,-0.8151525957323517,-1.3085117103046668,-2.0033737377412875,-0.6623045206069946,0.7278302311897278,-0.17780844867229462,0.1628013700246811,-0.7602555751800537,1.2148157358169556
4.803457975387573,-0.36038511991500854,0.25870436429977417,-0.03920350968837738,-0.8369331215176269,-1.314969175306394,-1.9931687183311093,-0.6479461193084717,0.7425925731658936,-0.1694757044315338,-0.1404251903295517,-0.6119271516799927,1.0603402853012085
4.823186874389648,-0.2769278287887573,0.21969842910766602,-0.019663706421852112,-0.8569388725720529,-1.3251900655649052,-1.993783660779198,-0.6351052522659302,0.7558417916297913,-0.15919987857341766,-0.3766234517097473,-0.41071125864982605,0.8501551151275635
4.844772815704346,-0.13626480102539062,0.2527986168861389,-0.06684714555740356,-0.8708174655769956,-1.335872999146122,-1.997505748316951,-0.6265068054199219,0.7648558020591736,-0.1499497890472412,-0.1281607449054718,-0.3712775409221649,0.5165377855300903
4.862478971481323,0.051812827587127686,0.2824819087982178,-0.08755004405975342,-0.8813211472305319,-1.3417314479954474,-1.995476055737714,-0.6195160746574402,0.7715799808502197,-0.14444462954998016,-0.12628021836280823,-0.39551326632499695,0.5401203632354736
4.883744955062866,0.18203091621398926,0.17312347888946533,-0.07673375308513641,-0.8945462209080529,-1.3569124975809121,-2.0045039366734794,-0.6116114854812622,0.7799251675605774,-0.13284574449062347,-0.8338316679000854,-0.4460356533527374,0.6318725347518921
4.901740074157715,0.22019636631011963,0.16383594274520874,-0.0655779093503952,-0.9081605086829334,-1.382615513179677,-2.0285189601600315,-0.6043362617492676,0.7883734107017517,-0.11508619040250778,-0.7313331961631775,-0.23284590244293213,0.39036354422569275
4.923566818237305,0.34261077642440796,0.18518126010894775,-0.1305064558982849,-0.9158156496108659,-1.3928298150513285,-2.0369101517054036,-0.5995229482650757,0.7930597066879272,-0.10783588141202927,0.19477252662181854,-0.15128383040428162,0.3037276268005371
4.942843914031982,0.5312914252281189,0.1569083333015442,-0.18422074615955353,-0.9231881033286805,-1.384939595839155,-2.0241174601162752,-0.5928912162780762,0.7975289821624756,-0.11147938668727875,0.13932986557483673,-0.13200743496418,0.5410533547401428
4.96286678314209,0.6287818551063538,-0.07521462440490723,-0.10644806921482086,-0.9368026061652179,-1.3958563358029386,-2.0343095457750393,-0.5833259224891663,0.8056681752204895,-0.10310095548629761,-1.0252878665924072,-0.13592787086963654,0.6664290428161621
4.981781005859375,0.6696716547012329,-0.16644799709320068,-0.1182054802775383,-0.9537435337292156,-1.4289685746653995,-2.072515211778576,-0.5728240013122559,0.8155873417854309,-0.08179149031639099,-1.2586532831192017,-0.06438799947500229,0.6674121618270874
5.002679824829102,0.7636388540267944,-0.07527750730514526,-0.21777838468551636,-0.9695598168214598,-1.4499324195048182,-2.0974482478301946,-0.5615361928939819,0.8246368169784546,-0.06820188462734222,-0.22035889327526093,0.045268990099430084,0.7542932033538818
5.022861957550049,0.8600012063980103,-0.1615857481956482,-0.247187077999115,-0.987277137868326,-1.4398878688897232,-2.0873816736619015,-0.5462499856948853,0.8345288634300232,-0.07192004472017288,0.35828739404678345,0.10855448246002197,1.063994288444519
5.042654037475586,0.8532660007476807,-0.4321855902671814,-0.17230451107025146,-1.0086456086028828,-1.4246224766819406,-2.0734359763063837,-0.5273228883743286,0.8461107015609741,-0.0776345431804657,-0.028685837984085083,0.21603061258792877,1.106207251548767
5.0618391036987305,0.8796252012252808,-0.5807081460952759,-0.1334085464477539,-1.0304551120982512,-1.4254491664529698,-2.0769324523565036,-0.509004533290863,0.8575332164764404,-0.07450778037309647,-0.35003581643104553,-0.03340167552232742,1.105782151222229
5.080679893493652,0.9485994577407837,-0.488547682762146,-0.14454203844070435,-1.0561668223811473,-1.4313295237706913,-2.0798337814856773,-0.4874330163002014,0.870475172996521,-0.06842494755983353,-0.09012822061777115,-0.332245796918869,1.408247470855713
5.103959083557129,0.8994858264923096,-0.4279941916465759,-0.10767572373151779,-1.0851410235105385,-1.4249658342766018,-2.063171533443433,-0.4618331789970398,0.8843692541122437,-0.0678308829665184,0.49725341796875,-0.445179283618927,1.5786924362182617
5.12078595161438,0.7968177795410156,-0.4961758852005005,-0.08056604862213135,-1.1142345036212349,-1.3922590629153253,-2.0167731767838486,-0.43385693430900574,0.8975735902786255,-0.07829327881336212,1.063007116317749,-0.45121100544929504,1.5840873718261719
5.142729997634888,0.761249840259552,-0.5530855059623718,-0.039748430252075195,-1.1392262121599144,-1.3459117613846816,-1.9535597656523374,-0.4077647030353546,0.9083101153373718,-0.09327775985002518,0.9904398322105408,-0.6584182977676392,1.4205533266067505
5.162252902984619,0.7402456998825073,-0.6217875480651855,-0.033007726073265076,-1.1595361014011034,-1.314129935122595,-1.9000688410264144,-0.3866689205169678,0.916617751121521,-0.10148326307535172,0.7109967470169067,-1.0949267148971558,1.0382710695266724
5.182518005371094,0.7283612489700317,-0.6004433035850525,0.057734206318855286,-1.1763972053560434,-1.29429158964532,-1.8518842093753165,-0.36965763568878174,0.9232276082038879,-0.10489916056394577,0.6801177263259888,-1.192954421043396,1.1483515501022339
5.202070951461792,0.6203575134277344,-0.4498431086540222,0.10651946067810059,-1.190835423723404,-1.2579858900852325,-1.7890127922883774,-0.3528861701488495,0.9286791086196899,-0.11413366347551346,1.3226715326309204,-0.9683180451393127,0.9079595804214478
5.222259044647217,0.4728406071662903,-0.10041576623916626,-0.001525580883026123,-1.1917799976904953,-1.173610576672425,-1.6797089426370098,-0.3412030041217804,0.9290290474891663,-0.14312778413295746,2.50858211517334,-0.8664830327033997,0.5526838302612305
5.242228031158447,0.3905051052570343,-0.017475605010986328,-0.014646679162979126,-1.1735335695290592,-1.0645391796381531,-1.5417720142286921,-0.3383658230304718,0.9221234917640686,-0.18760862946510315,2.6682662963867188,-1.035605788230896,0.05472476780414581
5.262052059173584,0.3963579833507538,-0.35330337285995483,0.21851497888565063,-1.1454727937344154,-1.0009142237241087,-1.4452773485389998,-0.3474077582359314,0.9109053015708923,-0.2226196676492691,2.048588991165161,-1.3936487436294556,-0.4102220833301544
5.281049966812134,0.29280173778533936,-0.4796762466430664,0.22317154705524445,-1.1161652405629674,-0.988997993113427,-1.396751079280532,-0.3668830692768097,0.8984230756759644,-0.24131432175636292,1.2762254476547241,-1.7800110578536987,-0.9142435193061829
5.301846981048584,0.06472182273864746,-0.4425498843193054,0.285281777381897,-1.0912541245515086,-1.0220768790450434,-1.3987727371607317,-0.3936402499675751,0.8872062563896179,-0.24064986407756805,0.1253749132156372,-1.3768752813339233,-1.3751704692840576
5.323345899581909,-0.2194000780582428,-0.4182518720626831,0.12241597473621368,-1.0543126288511624,-1.0600665603850463,-1.4126969794180715,-0.43080735206604004,0.8695610165596008,-0.24138876795768738,1.6002345085144043,-1.2744615077972412,-2.0512635707855225
5.343268871307373,-0.3082287609577179,0.13936734199523926,-0.15425914525985718,-0.9896281279410558,-1.0596115046124233,-1.37374224070592,-0.4788195788860321,0.8358218669891357,-0.2685772180557251,2.9997599124908447,-2.130289316177368,-2.714755058288574
5.362016916275024,-0.38543009757995605,-0.1832031011581421,0.0863470733165741,-0.9170298566882429,-1.0830762419792812,-1.3439579239811474,-0.5372688174247742,0.7937987446784973,-0.28500130772590637,1.3690893650054932,-2.465471029281616,-2.6571969985961914
5.3818418979644775,-0.8030588626861572,-0.4675086736679077,0.23361384868621826,-0.8672969037037044,-1.160841579010101,-1.383490204664312,-0.5932881236076355,0.7625831365585327,-0.25782960653305054,-0.8385152816772461,-2.1907780170440674,-3.0048813819885254
5.402756929397583,-1.2690913677215576,-0.00511324405670166,0.00915759801864624,-0.8134412709127751,-1.227933678819108,-1.4238706904323708,-0.6470158100128174,0.7266556024551392,-0.23095941543579102,0.7818166017532349,-1.5711363554000854,-2.937164783477783
5.421713829040527,-1.1355857849121094,0.6246863007545471,-0.3003411889076233,-0.7417871664184592,-1.241059145050628,-1.394850469692542,-0.6975440382957458,0.6756066083908081,-0.2387213557958603,3.3548898696899414,-1.8190637826919556,-3.312988042831421
5.4414238929748535,-0.9952079057693481,0.37661778926849365,-0.2731904983520508,-0.657448108187996,-1.2331376123969147,-1.3320476828208445,-0.7468574643135071,0.6110988855361938,-0.2622252404689789,3.4180426597595215,-1.2820628881454468,-2.8257029056549072
5.461625099182129,-0.7368889451026917,-0.11854517459869385,0.09358707070350647,-0.6012682378170874,-1.2286768709674696,-1.2986907473810323,-0.7768287658691406,0.5656887292861938,-0.27664685249328613,0.7452812194824219,-0.30597415566444397,-1.6229045391082764
5.481288909912109,-0.48582756519317627,-0.20966285467147827,0.2276029884815216,-0.5833266524047455,-1.2425257526886875,-1.3215438558047599,-0.7900665402412415,0.550803542137146,-0.2690916657447815,-1.556005835533142,0.1273946762084961,-0.7058515548706055
5.501320838928223,-0.276761531829834,0.11310815811157227,0.11211767792701721,-0.5879201555172907,-1.2565723132340938,-1.3581271517695797,-0.7913535833358765,0.5546315908432007,-0.2571830153465271,-1.0822010040283203,0.46082741022109985,0.03617711737751961
5.520891904830933,-0.2536149024963379,0.44134700298309326,-0.06521791219711304,-0.588296951888549,-1.246345360133872,-1.3561501678956727,-0.7884840965270996,0.5549451112747192,-0.26519596576690674,1.1786004304885864,0.39512118697166443,0.07115741819143295
5.54084587097168,-0.12050175666809082,0.28549277782440186,-0.02885076403617859,-0.581270923440853,-1.2206254498337603,-1.3184923814543685,-0.7850462198257446,0.5490865707397461,-0.2867162823677063,1.7006529569625854,0.1471071094274521,0.2810872197151184
5.561031818389893,-0.08911699056625366,-0.14281970262527466,0.15274646878242493,-0.5786238841303912,-1.1985794049788054,-1.2864612424978819,-0.7798862457275391,0.5468723773956299,-0.3044798970222473,0.7556278705596924,0.3750761151313782,0.4409772753715515
5.581370830535889,-0.10032099485397339,-0.26256895065307617,0.20420047640800476,-0.5879454040144343,-1.1848117657072266,-1.2784263123469881,-0.7708641886711121,0.5546526312828064,-0.31325510144233704,-0.4278649091720581,0.4872838854789734,0.622137725353241
5.602934837341309,-0.09133321046829224,-0.10469400882720947,0.13397541642189026,-0.6043847749306464,-1.1796930120237488,-1.2856491144975497,-0.7607174515724182,0.5682559609413147,-0.31367823481559753,-0.5508012771606445,0.4335615336894989,0.7102071642875671
5.620699882507324,-0.06450551748275757,0.02800607681274414,0.029972583055496216,-0.619491430678976,-1.1736875963639866,-1.2843532387486103,-0.7508172988891602,0.5806211829185486,-0.3148847222328186,0.16008475422859192,0.07946602255105972,0.7102245688438416
5.6406779289245605,-0.11073696613311768,0.05918377637863159,-0.021889567375183105,-0.6283040933361728,-1.1655406498275422,-1.2667025425603877,-0.743495762348175,0.5877735614776611,-0.31896135210990906,0.6765679717063904,-0.22586485743522644,0.6625545024871826
5.660690784454346,-0.22058558464050293,-0.010605037212371826,0.06352847814559937,-0.6350858477676733,-1.1583016854847001,-1.247972588081796,-0.7374984622001648,0.5932466387748718,-0.32272955775260925,0.3547731637954712,-0.09814845025539398,0.585017740726471
5.680750846862793,-0.3019547462463379,-0.11769223213195801,0.10090243816375732,-0.6465846034709314,-1.1538951417018004,-1.2413698113884375,-0.7297834753990173,0.602463960647583,-0.3231925666332245,-0.26214107871055603,0.14693818986415863,0.6589838266372681
5.700708866119385,-0.2887382507324219,-0.0897018313407898,0.038656771183013916,-0.6610525643265519,-1.1483663035072227,-1.2418315822620383,-0.7199592590332031,0.6139480471611023,-0.3236147463321686,-0.3695415258407593,0.3861974775791168,0.6516568660736084
5.7207419872283936,-0.20850270986557007,0.029810726642608643,0.012955695390701294,-0.6755091645915834,-1.14144551636499,-1.244418383553799,-0.7095574736595154,0.6252947449684143,-0.3248606324195862,-0.3905470073223114,0.4748949408531189,0.56520676612854
5.7419939041137695,-0.13828247785568237,0.02415311336517334,-0.026802927255630493,-0.6873911847001083,-1.1337766345821672,-1.2465552433578517,-0.7002641558647156,0.6345229744911194,-0.3271247446537018,-0.41575804352760315,0.4224202632904053,0.4936847388744354
5.7608559131622314,-0.054916560649871826,-0.057871103286743164,0.021272242069244385,-0.7007820558855906,-1.1318974922246805,-1.254486159141819,-0.6918943524360657,0.6448156237602234,-0.3248001039028168,-0.5710886716842651,0.4314638376235962,0.48400628566741943
5.7807230949401855,-0.02616959810256958,-0.14941567182540894,-0.013370394706726074,-0.7150921992970273,-1.1280135585138353,-1.2648546162672838,-0.6822196245193481,0.6556870341300964,-0.3234979808330536,-0.7831463813781738,0.5888354182243347,0.42914268374443054
5.80073881149292,0.024641692638397217,-0.12767475843429565,-0.07371833920478821,-0.7274702934957622,-1.1268702319614745,-1.2816900676064562,-0.6744676828384399,0.6649824380874634,-0.3207671642303467,-0.8684046268463135,0.631967306137085,0.15571855008602142
5.82082200050354,0.12170958518981934,-0.12629395723342896,-0.11253541707992554,-0.7377637836378864,-1.126576643797942,-1.3013069291966444,-0.6681573390960693,0.6726348400115967,-0.31800663471221924,-0.8859284520149231,0.7188676595687866,0.20947200059890747
5.840795040130615,0.190618097782135,-0.12438690662384033,-0.11364340782165527,-0.7504159214399204,-1.1261436871760129,-1.3207252023582212,-0.6602835655212402,0.6819429993629456,-0.3146098554134369,-0.917473316192627,0.6647024154663086,0.2773762047290802
5.860801935195923,0.20647752285003662,-0.14407747983932495,-0.0721026360988617,-0.7619196523632398,-1.1242524413700463,-1.339830662016711,-0.6525682806968689,0.6903116106987,-0.3124494254589081,-0.8606961369514465,0.8533593416213989,0.16493920981884003
5.880850791931152,0.2541710138320923,-0.13871103525161743,-0.07483017444610596,-0.7718006566748887,-1.1204177232304153,-1.3594307344394612,-0.6451927423477173,0.6974267959594727,-0.3119649589061737,-0.8252429962158203,0.8363478779792786,0.11999082565307617
5.900723934173584,0.3024291396141052,-0.137121319770813,-0.12908893823623657,-0.7793833189697281,-1.1168275756712807,-1.3751997083029526,-0.6392974257469177,0.7028408646583557,-0.3119511306285858,-0.498090922832489,0.652262806892395,0.09543509036302567
5.920722007751465,0.3223955035209656,-0.08188861608505249,-0.18776091933250427,-0.7854133322272059,-1.111585176362455,-1.3837027687681103,-0.6338427066802979,0.70711749792099,-0.3134140968322754,-0.33217865228652954,0.4747599959373474,0.14535021781921387
5.940727949142456,0.2790690064430237,-0.05802452564239502,-0.2285928726196289,-0.7886780934993372,-1.1066469636550829,-1.3896222531088456,-0.6302194595336914,0.70942223072052,-0.31550511717796326,-0.2124815285205841,0.4947991967201233,-0.008980761282145977
5.960756778717041,0.28302139043807983,-0.07084518671035767,-0.2316485345363617,-0.7915013426474178,-1.1020870432572492,-1.3975149059051841,-0.6269850134849548,0.7114092111587524,-0.31746959686279297,-0.4325898289680481,0.5052995681762695,0.029606042429804802
5.981435775756836,0.29560840129852295,-0.05587112903594971,-0.2339528203010559,-0.7974828024317023,-1.100756100515619,-1.4096981482995963,-0.6227567791938782,0.7156000733375549,-0.31637072563171387,-0.5866783857345581,0.5155041217803955,0.13534221053123474
6.001177787780762,0.22320055961608887,0.041386544704437256,-0.27677181363105774,-0.8057121356343693,-1.1001305571720879,-1.4237587702929793,-0.6172893047332764,0.7213240265846252,-0.3140791058540344,-0.6101595163345337,0.5771586894989014,0.10796117782592773
6.020713806152344,0.13602060079574585,0.11449277400970459,-0.3237726092338562,-0.8111673565891535,-1.096771285291461,-1.4364871800063614,-0.6127203702926636,0.7250915765762329,-0.3143500089645386,-0.42701828479766846,0.6800010800361633,0.0024168845266103745
6.040771007537842,0.14361035823822021,0.159371018409729,-0.325480192899704,-0.8149385478966299,-1.089807048901538,-1.4460315536638748,-0.6080878973007202,0.727683424949646,-0.3173421621322632,-0.3676953911781311,0.6930993795394897,0.04420747607946396
6.060697078704834,0.20711594820022583,0.13426440954208374,-0.28134188055992126,-0.8205475610085634,-1.0839229704394937,-1.4558660458554993,-0.6025932431221008,0.7315192818641663,-0.3190000057220459,-0.5187398195266724,0.598581075668335,0.15452909469604492
6.080656051635742,0.21323084831237793,0.11754876375198364,-0.25244399905204773,-0.8306164385847434,-1.0832637008371784,-1.468767222955759,-0.5958449840545654,0.7383472323417664,-0.31593069434165955,-0.7012932300567627,0.44783705472946167,0.31480956077575684
6.100631952285767,0.1500224471092224,0.1472204327583313,-0.24990347027778625,-0.8431336035162168,-1.0842801590108306,-1.4819653177183667,-0.5879496932029724,0.7467310428619385,-0.3109791874885559,-0.6486229300498962,0.4489588439464569,0.35894250869750977
6.120726108551025,0.1183704137802124,0.1528344750404358,-0.2054019272327423,-0.8552391822712817,-1.08304511306318,-1.4932097162960802,-0.5795367956161499,0.754727840423584,-0.30744603276252747,-0.5947042107582092,0.5000901222229004,0.35944104194641113
6.1407470703125,0.14833223819732666,0.11332809925079346,-0.16751593351364136,-0.8673978474822872,-1.0819708322311596,-1.5041915686391174,-0.5710616707801819,0.7626484036445618,-0.30373653769493103,-0.608792245388031,0.40005236864089966,0.3596377968788147
6.160671949386597,0.18072044849395752,0.0852738618850708,-0.1434185802936554,-0.8789311962361371,-1.083859225252963,-1.5142853920903603,-0.5638228058815002,0.7700574398040771,-0.2985217571258545,-0.5005571246147156,0.15799278020858765,0.35106542706489563
6.180675029754639,0.16998016834259033,0.13273143768310547,-0.15019658207893372,-0.8886467465212665,-1.087658131261145,-1.5201438756869907,-0.5583009719848633,0.7762193083763123,-0.2928881347179413,-0.26391178369522095,-0.07678163796663284,0.3051195740699768
6.200839996337891,0.12929201126098633,0.1768152117729187,-0.16468545794487,-0.8950841739539738,-1.089668563371021,-1.5182288278047673,-0.5544475317001343,0.780261754989624,-0.289446622133255,0.04985439404845238,-0.2381354719400406,0.3334580957889557
6.22074294090271,0.08532655239105225,0.18100601434707642,-0.16651180386543274,-0.9004047467891649,-1.0858280240667533,-1.506527437224388,-0.5496515035629272,0.7835784554481506,-0.2896345555782318,0.35414621233940125,-0.2516934275627136,0.500029444694519
6.240691900253296,0.02711421251296997,0.13309645652770996,-0.13032767176628113,-0.906365706971477,-1.0715530393674373,-1.484342502130051,-0.5413507223129272,0.7872679829597473,-0.2952095568180084,0.5537927746772766,-0.05186856538057327,0.6415669918060303
6.260725021362305,0.0025426149368286133,0.04101318120956421,-0.04544779658317566,-0.9114740845352107,-1.0493972139132393,-1.4571975161301305,-0.5311832427978516,0.7904075980186462,-0.30512288212776184,0.608050525188446,0.1021362692117691,0.603924572467804
6.2807297706604,0.0007985830307006836,-0.011157631874084473,0.023529052734375,-0.9142457422488242,-1.0269641402773322,-1.4319910707745314,-0.5223286747932434,0.7921023964881897,-0.3158264756202698,0.6192623972892761,0.1259811520576477,0.3984198272228241
6.300724029541016,-0.03950387239456177,-0.0340920090675354,0.012083262205123901,-0.9127229832846158,-1.0064852180770465,-1.4085371527589754,-0.5167704820632935,0.7911720275878906,-0.3271009922027588,0.6491320729255676,0.07161812484264374,0.23029111325740814
6.320723056793213,-0.08151787519454956,-0.020703613758087158,0.042880356311798096,-0.9087557631347122,-0.9899924730443482,-1.3901253846190644,-0.5139257907867432,0.7887395024299622,-0.33729875087738037,0.4975079596042633,0.1324411779642105,0.05089408531785011
6.340763092041016,-0.07489275932312012,-0.0034545063972473145,0.08821669220924377,-0.9051539623509256,-0.9773151117153593,-1.3790941111701034,-0.5119601488113403,0.78652024269104,-0.34537309408187866,0.2801090478897095,0.2573685646057129,0.06410693377256393
6.360752105712891,-0.008456110954284668,0.0016458630561828613,0.10831460356712341,-0.9049004560215741,-0.9654137721562013,-1.3713475239664294,-0.5079775452613831,0.7863636612892151,-0.3515549600124359,0.16292603313922882,0.31256547570228577,0.17198148369789124
6.380728006362915,0.05184251070022583,-0.03143876791000366,0.10140004754066467,-0.9060185241562757,-0.9517321544137547,-1.3612727500907769,-0.5024039149284363,0.7870538830757141,-0.35796135663986206,0.3024521768093109,0.2551717162132263,0.28367337584495544
6.400723934173584,0.08692517876625061,-0.0757092833518982,0.09232872724533081,-0.9063480490364836,-0.9351235737435685,-1.3450386902534246,-0.4961811304092407,0.7872571349143982,-0.3661019504070282,0.5112065076828003,0.11548572033643723,0.2987772524356842
6.420762062072754,0.10061472654342651,-0.13197433948516846,0.10011574625968933,-0.9031471142236509,-0.9172591068199942,-1.3238507952456302,-0.49156010150909424,0.7852793335914612,-0.37643715739250183,0.6766567230224609,0.027328338474035263,0.23699647188186646
6.440722942352295,0.1150439977645874,-0.17164289951324463,0.13435697555541992,-0.8983979868597347,-0.9001222848345897,-1.302187484285901,-0.4879535436630249,0.7823300957679749,-0.3871188461780548,0.7040256261825562,-0.03271910548210144,0.21658723056316376
6.460754871368408,0.11296159029006958,-0.16963040828704834,0.13753154873847961,-0.8927616603926519,-0.883874602248683,-1.2801378903202487,-0.4850013256072998,0.7788069844245911,-0.3977855145931244,0.680902898311615,-0.054905638098716736,0.18162204325199127
6.480724811553955,0.09729155898094177,-0.1331995129585266,0.13979113101959229,-0.8864969476557985,-0.8710121367928966,-1.2615263812159552,-0.4835678040981293,0.7748621106147766,-0.40712517499923706,0.642917811870575,-0.07840732485055923,0.09685175120830536
6.500731945037842,0.09957155585289001,-0.11676681041717529,0.1502162218093872,-0.8810134214550023,-0.8610883704258969,-1.247143430404465,-0.4827197790145874,0.7713841795921326,-0.41466641426086426,0.39402490854263306,-0.04320548474788666,0.06794381141662598
6.520724773406982,0.11349999904632568,-0.08762091398239136,0.13212555646896362,-0.8776845239512163,-0.8559483473442443,-1.2392993729152504,-0.4825185239315033,0.7692614793777466,-0.4188230037689209,0.24059055745601654,-0.07896330207586288,-0.0022155940532684326
6.540729999542236,0.13535478711128235,-0.025473058223724365,0.06525242328643799,-0.8734227068052896,-0.854474592762261,-1.2338196528280434,-0.48436909914016724,0.7665315270423889,-0.42168256640434265,0.3394492268562317,-0.20309093594551086,-0.09231968969106674
6.560725927352905,0.1484132707118988,0.033324599266052246,0.03652063012123108,-0.8659861192375133,-0.8533965176824131,-1.2262878959533539,-0.4881959557533264,0.7617345452308655,-0.42594021558761597,0.5122572779655457,-0.24094828963279724,-0.14224542677402496
6.580724000930786,0.1393192708492279,0.04322934150695801,0.05213484168052673,-0.857150162206503,-0.8503486220910841,-1.2170633192245994,-0.49193453788757324,0.7559801340103149,-0.43184980750083923,0.46478214859962463,-0.15509463846683502,-0.14017578959465027
6.60008692741394,0.12380373477935791,0.051864683628082275,0.047210752964019775,-0.8490313580682234,-0.8478300863007118,-1.2110591142412999,-0.495431512594223,0.7506407499313354,-0.43713390827178955,0.3692329227924347,-0.03877673298120499,-0.20363393425941467
6.620731830596924,0.10690423846244812,0.05427783727645874,0.04162144660949707,-0.8419433410660702,-0.8463710110253986,-1.2093905412562744,-0.4987652003765106,0.7459388375282288,-0.44137126207351685,0.18695330619812012,0.043835852295160294,-0.268258661031723
6.640763998031616,0.05714446306228638,0.0663987398147583,0.023084402084350586,-0.8360892805965621,-0.8491639102878591,-1.214582997796791,-0.5032656192779541,0.7420271635055542,-0.442853718996048,-0.0623396597802639,0.05837547034025192,-0.427971750497818
6.660725116729736,-0.024174988269805908,0.09558528661727905,-0.006706178188323975,-0.8300148652931101,-0.8568468889012718,-1.2279227952795848,-0.5100504755973816,0.7379413843154907,-0.4419175684452057,-0.22430568933486938,0.17946407198905945,-0.6011663675308228
6.6807239055633545,-0.026894867420196533,0.11107832193374634,0.004427909851074219,-0.8251809317583142,-0.8659785996551457,-1.2467610112628869,-0.5167757272720337,0.7346705198287964,-0.4395475685596466,-0.43409815430641174,0.27641546726226807,-0.5784415602684021
6.7007529735565186,-0.029897212982177734,0.13187724351882935,-0.0349653959274292,-0.8230674307487503,-0.877865846535362,-1.2695224111601724,-0.52315753698349,0.7332350611686707,-0.4343644976615906,-0.5987300276756287,0.18281878530979156,-0.6247112154960632
6.720726013183594,-0.14625060558319092,0.23069995641708374,-0.10214996337890625,-0.8195633220908719,-0.894528768216735,-1.2967119083753265,-0.5323229432106018,0.7308478355407715,-0.427192747592926,-0.6073426008224487,0.16340886056423187,-0.8301173448562622
6.740728855133057,-0.2731481194496155,0.319854736328125,-0.11010086536407471,-0.8123512205180918,-0.910429961568275,-1.326425105267043,-0.5431970357894897,0.7259063124656677,-0.42189687490463257,-0.5409234166145325,0.4580601155757904,-0.9547497034072876
6.760749816894531,-0.19269418716430664,0.22634512186050415,-0.10698997974395752,-0.8056361196635207,-0.9193933551591089,-1.3547256148736349,-0.5508208274841309,0.7212713956832886,-0.41995710134506226,-0.5884760618209839,0.6536836624145508,-0.7313877940177917
6.780725955963135,-0.02033787965774536,0.08717894554138184,-0.1457500457763672,-0.803422396486866,-0.9220593521399655,-1.3768512240055502,-0.5532094240188599,0.7197362780570984,-0.4194507598876953,-0.4783083498477936,0.6519861221313477,-0.40323230624198914
6.800724029541016,0.043068647384643555,-0.006656229496002197,-0.13253998756408691,-0.8029956891067562,-0.919532048776889,-1.391300043026389,-0.552391767501831,0.7194399833679199,-0.42103368043899536,-0.2786150872707367,0.6436493396759033,-0.2832363247871399
6.820724010467529,-0.0004572272300720215,-0.1269398331642151,-0.0903005301952362,-0.8006676762178724,-0.9126318097777769,-1.4003658981027711,-0.5507969260215759,0.7178211212158203,-0.4258585572242737,-0.09085740894079208,0.6895886063575745,-0.2982744574546814
6.840724945068359,-0.051958322525024414,-0.18659448623657227,-0.06787967681884766,-0.7961094256114772,-0.9036806132637405,-1.4065049755006631,-0.5495277643203735,0.7146400809288025,-0.43279170989990234,0.0035095701459795237,0.6330165863037109,-0.3526213467121124
6.86074686050415,-0.10481506586074829,-0.1334812045097351,-0.030390560626983643,-0.7892439773683098,-0.8956416929724872,-1.4134397354671167,-0.5498480200767517,0.7098209261894226,-0.44025155901908875,0.04248097538948059,0.6988078355789185,-0.4761694669723511
6.880729913711548,-0.10759305953979492,-0.10133826732635498,0.017088592052459717,-0.7823246890984166,-0.8867604278899073,-1.4219033549855176,-0.5497097969055176,0.7049301862716675,-0.4482104778289795,-0.10419268161058426,0.7659328579902649,-0.4504562020301819
6.900727987289429,-0.048746466636657715,-0.13632947206497192,0.03805318474769592,-0.7782921487053892,-0.879955517609001,-1.4336651379474115,-0.5488333702087402,0.7020642757415771,-0.4537483751773834,-0.2909812927246094,0.7461744546890259,-0.38289666175842285
6.920723915100098,0.02789914608001709,-0.1769695281982422,0.04479837417602539,-0.7778934621048699,-0.8744578287235537,-1.4464510615136945,-0.5465452671051025,0.7017803192138672,-0.45693835616111755,-0.35030847787857056,0.6831526756286621,-0.24144867062568665
6.940724849700928,0.07724779844284058,-0.20089542865753174,0.040916115045547485,-0.778493474288655,-0.8689059721285135,-1.4562042613203363,-0.5436782836914062,0.702207624912262,-0.4596936106681824,-0.19202284514904022,0.5580278635025024,-0.17363901436328888
6.960731029510498,0.08909034729003906,-0.1987990140914917,0.03322485089302063,-0.7770929812682281,-0.8616425193386978,-1.4602525507528,-0.5410708785057068,0.7012097835540771,-0.4642704129219055,0.05747266858816147,0.4480800926685333,-0.133512943983078
6.980726003646851,0.08521705865859985,-0.23321449756622314,0.04013484716415405,-0.7730230354379488,-0.8526385684473539,-1.4591070231211876,-0.5390133857727051,0.6983023285865784,-0.47099730372428894,0.23652610182762146,0.36495938897132874,-0.11111941188573837
7.000755786895752,0.1054350733757019,-0.24935400485992432,0.06532618403434753,-0.7689959930452294,-0.8452002540304359,-1.4567159237064429,-0.5375944375991821,0.695414125919342,-0.4768557548522949,0.1580590456724167,0.21029531955718994,-0.0789746642112732
7.020724773406982,0.08618897199630737,-0.23433059453964233,0.019309043884277344,-0.7664177755279749,-0.8412478662173934,-1.454369306602142,-0.5370403528213501,0.6935590505599976,-0.4801703095436096,0.1582401841878891,0.02717076800763607,-0.011332868598401546
7.040791034698486,0.022566556930541992,-0.1510392427444458,0.028829634189605713,-0.763317686720001,-0.8371562510448206,-1.4500546539482029,-0.5366656184196472,0.6913224458694458,-0.483801007270813,0.28522077202796936,0.13771246373653412,-0.01990700326859951
7.060743808746338,-0.021287500858306885,-0.12486565113067627,0.039612919092178345,-0.758759468635993,-0.8288089970421967,-1.4448199413087413,-0.5349258184432983,0.688021719455719,-0.49038806557655334,0.2651103734970093,0.3171502351760864,-0.06404682993888855
7.080741882324219,0.03187328577041626,-0.17192351818084717,0.02474159002304077,-0.7552535180461707,-0.8211693157324199,-1.4422285971303415,-0.5329260230064392,0.6854732632637024,-0.49610087275505066,0.12017685174942017,0.21494360268115997,-0.06196408346295357
7.099887847900391,0.08771407604217529,-0.13688898086547852,-0.03991979360580444,-0.7525948180183761,-0.8188796840742463,-1.4414054936668828,-0.5331180691719055,0.6835350394248962,-0.49856290221214294,0.1234421655535698,-0.008723936975002289,-0.10010164976119995
7.120745897293091,0.10126549005508423,-0.07657063007354736,-0.04347175359725952,-0.7491921984915231,-0.8187570566620994,-1.4403370896294707,-0.5347523093223572,0.6810474991798401,-0.500214159488678,0.16455116868019104,-0.04329301044344902,-0.07551805675029755
7.140734910964966,0.1265650987625122,-0.08564656972885132,-0.013423025608062744,-0.7477096196334494,-0.8179273126412848,-1.4387382813280842,-0.5350733399391174,0.6799611449241638,-0.501347541809082,-0.04156046360731125,0.019681692123413086,0.04325447231531143
7.160772800445557,0.1890188455581665,-0.10522359609603882,-0.005735814571380615,-0.7511278448273842,-0.8203525947164135,-1.4415765522428066,-0.5345845818519592,0.6824635863304138,-0.4984603822231293,-0.30519038438796997,-0.12196101993322372,0.056626636534929276
7.18072509765625,0.27516305446624756,-0.08406507968902588,-0.05985462665557861,-0.7563251719986553,-0.8289450255644522,-1.4462404903136816,-0.5362256765365601,0.6862531304359436,-0.49144548177719116,-0.23082174360752106,-0.4326072037220001,0.11752311885356903
7.200725078582764,0.32517343759536743,-0.00886225700378418,-0.1284988522529602,-0.7597398091014933,-0.8392796641681756,-1.4442644373182154,-0.5395288467407227,0.6887328028678894,-0.48430943489074707,0.11852920800447464,-0.7109778523445129,0.21597014367580414
7.220725059509277,0.3048849105834961,0.017117083072662354,-0.1209496557712555,-0.7593066674331228,-0.8478498605520123,-1.4345770507987339,-0.5438832640647888,0.6884187459945679,-0.4798651933670044,0.3884408175945282,-0.8031079769134521,0.22391261160373688
7.240752935409546,0.258780300617218,-0.008863091468811035,-0.05804172158241272,-0.7575963097151286,-0.8558123469760053,-1.4216295441643343,-0.5485751628875732,0.6871771812438965,-0.4762905538082123,0.40934306383132935,-0.8796652555465698,0.25687193870544434
7.260725021362305,0.1934729814529419,0.03774815797805786,-0.04193747043609619,-0.7568466228354411,-0.8671728008647609,-1.4104143438477172,-0.5543432831764221,0.6866323351860046,-0.4703611731529236,0.24935486912727356,-1.095723032951355,0.18893057107925415
7.280747890472412,0.0886998176574707,0.2447725534439087,-0.11068868637084961,-0.7549687317379129,-0.8866400996716258,-1.4027605733376487,-0.5643925666809082,0.6852658987045288,-0.46029525995254517,0.3594436049461365,-1.2905234098434448,0.05472146347165108
7.3007729053497314,-0.054580092430114746,0.3602350354194641,-0.0371243953704834,-0.7501201319079256,-0.901013145959895,-1.39074863819215,-0.5735479593276978,0.6817266345024109,-0.4541933834552765,0.6056209802627563,-0.9578578472137451,0.13624100387096405
7.320724964141846,-0.04581230878829956,0.306368887424469,0.07158419489860535,-0.7459395483856792,-0.9079207463512209,-1.3757177360931647,-0.5789129137992859,0.6786621809005737,-0.45197057723999023,0.4845315217971802,-0.7822297811508179,0.20399336516857147
7.340724945068359,0.058529019355773926,0.2288377285003662,0.13447150588035583,-0.7439071052365585,-0.915061615608582,-1.3633503465151051,-0.5832176208496094,0.6771680116653442,-0.44866523146629333,0.39150720834732056,-0.7965242266654968,0.18520911037921906
7.360723972320557,0.1327883005142212,0.160289466381073,0.1690378189086914,-0.7406849299224805,-0.9230896034637668,-1.3507764856502882,-0.5885378122329712,0.674793541431427,-0.44528308510780334,0.6085315942764282,-0.88266921043396,0.12038183957338333
7.380724906921387,0.15901654958724976,0.20820313692092896,0.07485219836235046,-0.7326492649106647,-0.9304308679237494,-1.3311184587977787,-0.5961197018623352,0.6688414812088013,-0.44417598843574524,1.0733299255371094,-1.1982229948043823,0.10917484760284424
7.400769948959351,0.11166435480117798,0.37963610887527466,0.028727680444717407,-0.7188585447651904,-0.933618423243571,-1.3005945050347574,-0.6048893332481384,0.6585260629653931,-0.4477188289165497,1.5098364353179932,-1.0673922300338745,0.15163980424404144
7.420726776123047,0.07914066314697266,0.33406931161880493,0.12467700242996216,-0.7032959955232173,-0.9294771989775086,-1.2667169252138821,-0.6111688017845154,0.6467350721359253,-0.45629629492759705,1.43724524974823,-0.7391900420188904,0.1321212202310562
7.44072699546814,0.14159506559371948,0.151983380317688,0.18680766224861145,-0.6907621845025721,-0.9227070140797925,-1.236966462460349,-0.6144800782203674,0.6371248364448547,-0.46528056263923645,1.1211472749710083,-0.5108160972595215,0.2656119763851166
7.460769891738892,0.19828587770462036,0.0803225040435791,0.20643997192382812,-0.6838405528811611,-0.9158523666659678,-1.2115545575449502,-0.6147592663764954,0.6317746639251709,-0.4721566438674927,0.921493411064148,-0.43398237228393555,0.3203895390033722
7.480823993682861,0.2097342610359192,0.061940014362335205,0.17357459664344788,-0.6754774563252229,-0.9094933351473715,-1.1878392024319608,-0.6158926486968994,0.6252700090408325,-0.47928446531295776,1.11129629611969,-0.4198826253414154,0.1617666631937027
7.500747919082642,0.23938226699829102,0.0245208740234375,0.17096367478370667,-0.6626057183159867,-0.9021254683726935,-1.1627173190576965,-0.618608832359314,0.6151732802391052,-0.48875853419303894,1.225586175918579,-0.4233011305332184,-0.03420048952102661
7.520730018615723,0.25944197177886963,-0.04549282789230347,0.224653422832489,-0.6432687236159234,-0.8969300720775861,-1.1407087346656486,-0.6252408623695374,0.5998140573501587,-0.4992963969707489,1.3314167261123657,-0.3942730724811554,-0.35402315855026245
7.54075288772583,0.30364131927490234,-0.0520782470703125,0.265602171421051,-0.6201926709430536,-0.8927878676705514,-1.1202528188824978,-0.6337803602218628,0.5811919569969177,-0.5104294419288635,1.3806877136230469,-0.38993680477142334,-0.38584479689598083
7.560728073120117,0.3124510645866394,-0.05128788948059082,0.28020524978637695,-0.5977054302427209,-0.8899336495059583,-1.1012000893353937,-0.6423155665397644,0.5627471804618835,-0.520332932472229,1.2617305517196655,-0.43854519724845886,-0.3985806703567505
7.58073091506958,0.24286168813705444,-0.012989461421966553,0.2480452060699463,-0.5753004116982156,-0.8904522875872308,-1.0867403437205243,-0.6522244215011597,0.5440868735313416,-0.5277999043464661,1.0878770351409912,-0.3750942051410675,-0.616487443447113
7.59991192817688,0.17849814891815186,0.007161557674407959,0.27500754594802856,-0.5515010581943202,-0.8929153939935526,-1.0793866687753166,-0.6634224057197571,0.5239663124084473,-0.5341628789901733,0.8762699961662292,-0.29216673970222473,-0.8394674062728882
7.6207499504089355,0.1522112488746643,-0.02934575080871582,0.2643989324569702,-0.5270415045056275,-0.899391525444909,-1.0790822505353386,-0.676701545715332,0.502978503704071,-0.5376686453819275,0.6929004788398743,-0.394632488489151,-1.05520761013031
7.640737056732178,0.11488580703735352,-0.022413581609725952,0.25546038150787354,-0.5014134744925501,-0.9110876212846141,-1.0848187028090848,-0.6929039359092712,0.48066550493240356,-0.5374428033828735,0.4945916533470154,-0.4777285158634186,-1.2862118482589722
7.6607279777526855,0.06061422824859619,-0.015132308006286621,0.2404642105102539,-0.47319195095010513,-0.9266265501437311,-1.0963752552252946,-0.7117372155189514,0.45572981238365173,-0.5345469117164612,0.41626089811325073,-0.5457537174224854,-1.5656553506851196
7.680726051330566,0.035220444202423096,-0.013911604881286621,0.24696236848831177,-0.44294233818209766,-0.9450153715991108,-1.1107973635594948,-0.7322877049446106,0.4285997152328491,-0.529204249382019,0.3355528712272644,-0.6482720375061035,-1.6263353824615479
7.700730800628662,-0.0214654803276062,-0.0006774961948394775,0.21951305866241455,-0.4131822916027079,-0.9655866922415858,-1.1268720133114558,-0.7531774044036865,0.4015258550643921,-0.5210573077201843,0.18444977700710297,-0.7386719584465027,-1.683278203010559
7.720726013183594,-0.11247235536575317,-0.0038699209690093994,0.2031998634338379,-0.3832714639072763,-0.985113133139528,-1.1455718686476941,-0.772873044013977,0.373956561088562,-0.5126633644104004,0.05570768564939499,-0.4115237593650818,-1.72834050655365
7.74076509475708,-0.00501936674118042,0.005423188209533691,0.25620514154434204,-0.35685419937304386,-0.9967418578830903,-1.1655981264038813,-0.7868049740791321,0.34932833909988403,-0.5088297128677368,-0.07583630830049515,-0.15440115332603455,-1.4831472635269165
7.760756969451904,0.1780109405517578,0.022532552480697632,0.1294061541557312,-0.3331278474990865,-1.008550631105031,-1.178162827631993,-0.7995472550392151,0.32700052857398987,-0.5037806034088135,0.3971417248249054,-0.6442059278488159,-1.1744354963302612
7.780728816986084,0.13497281074523926,0.05232420563697815,0.1356678605079651,-0.30874339884337837,-1.0262541249107562,-1.1815886846645192,-0.814919650554657,0.30386167764663696,-0.49353229999542236,0.5490556955337524,-0.9445220232009888,-1.1632916927337646
7.800788879394531,-0.1621573567390442,-0.05512732267379761,0.22397470474243164,-0.28218503719699833,-1.0453178994188497,-1.1872203294190957,-0.8308693766593933,0.2784549295902252,-0.48178723454475403,0.22689464688301086,-0.7361705303192139,-1.3739622831344604
7.820734977722168,-0.3179357051849365,-0.12076184153556824,0.31729501485824585,-0.26096668966026865,-1.059994049214266,-1.2035717300142867,-0.842815637588501,0.25801461935043335,-0.472324401140213,-0.5436767339706421,-0.3361993730068207,-1.1889452934265137
7.840727806091309,-0.2191525101661682,-0.12892867624759674,0.30784738063812256,-0.2525773492237651,-1.0709336106063179,-1.2293442421085539,-0.8498020172119141,0.24990035593509674,-0.4640974998474121,-1.0793614387512207,-0.1954386830329895,-0.7543305158615112
7.860727787017822,-0.08370119333267212,-0.10757441818714142,0.20296728610992432,-0.2503170295599398,-1.0831156931037964,-1.2535496657692453,-0.8558892011642456,0.24771112203598022,-0.4539743959903717,-0.7905504703521729,-0.3958977460861206,-0.6543238162994385
7.880807876586914,-0.057404935359954834,-0.15133307874202728,0.23248928785324097,-0.24112624537382996,-1.0951885420483858,-1.2664553930324602,-0.8632951378822327,0.2387964427471161,-0.44463229179382324,0.1162671446800232,-0.5386233925819397,-0.691877007484436
7.900728940963745,-0.261948823928833,-0.14836189150810242,0.12111556529998779,-0.22112820520716286,-1.1096740364311224,-1.262422709551832,-0.8737475872039795,0.21933048963546753,-0.4341191351413727,1.2346760034561157,-0.961578905582428,-1.0242847204208374
7.9207258224487305,-0.6075683236122131,-0.0345345139503479,0.2587018311023712,-0.18462948203327972,-1.1221773522544782,-1.2417587539716843,-0.8857330083847046,0.18358232080936432,-0.4263501763343811,1.9241336584091187,-0.5257819890975952,-1.2945595979690552
7.940736770629883,-0.7056918144226074,-0.1184641569852829,0.5764087438583374,-0.14890578616657651,-1.120658011981697,-1.2252132176256265,-0.8904232382774353,0.1483561098575592,-0.4302753806114197,0.9438932538032532,0.265945702791214,-1.199434518814087
7.960820913314819,-0.5352029204368591,-0.352752149105072,0.5776887536048889,-0.12995782864998057,-1.116178786858853,-1.2284577066502986,-0.8908529877662659,0.12959232926368713,-0.4354158341884613,-0.35459038615226746,0.10135329514741898,-0.6229268908500671
7.980752944946289,-0.48582136631011963,-0.29694992303848267,0.42123833298683167,-0.12920299101800803,-1.116828436112512,-1.2430310441213843,-0.8912231922149658,0.12884381413459778,-0.43487972021102905,-0.8066934943199158,0.0308231171220541,-0.20788928866386414
8.000731945037842,-0.5577508211135864,-0.007665514945983887,0.26583409309387207,-0.12673312234953807,-1.1197297124719099,-1.2571949895946206,-0.8927649259567261,0.1263941526412964,-0.43242964148521423,-0.17142264544963837,-0.08712402731180191,-0.5818135142326355
8.020726919174194,-0.5039279460906982,0.12289465218782425,0.15728530287742615,-0.1161203811450879,-1.1210535222007256,-1.255749801469553,-0.8944941759109497,0.11585959792137146,-0.4318062365055084,0.7399938702583313,0.004956365562975407,-0.2426864206790924
8.040735006332397,-0.5591883659362793,0.016291700303554535,0.12302795052528381,-0.10574667474417998,-1.113060627373188,-1.235029317302017,-0.8920444846153259,0.10554970055818558,-0.4394494891166687,1.440077543258667,0.6965221762657166,0.21424736082553864
8.06073808670044,-0.7222723364830017,-0.1658317893743515,0.18515950441360474,-0.1020899479907556,-1.0846123367380918,-1.2074690657488727,-0.879518985748291,0.10191270709037781,-0.4648226201534271,1.0197808742523193,1.959455966949463,0.7400995492935181
8.080816984176636,-0.7632358074188232,-0.23786966502666473,0.1220138669013977,-0.11553741473106065,-1.0348295624961577,-1.184951319190823,-0.854043185710907,0.11528053879737854,-0.5072678327560425,0.22891604900360107,2.4978902339935303,1.378281831741333
8.100794792175293,-0.6191968321800232,-0.2024007886648178,-0.1887074112892151,-0.14267311224418439,-0.9924265406101959,-1.1715598303314478,-0.8288469314575195,0.14218957722187042,-0.5411052107810974,-0.5537770986557007,1.4769752025604248,1.6187059879302979
8.120739936828613,-0.5283258557319641,-0.057077035307884216,-0.2645508646965027,-0.1833311398903083,-0.9707377950731717,-1.1642202345789827,-0.8114720582962036,0.18230590224266052,-0.5552276372909546,-1.1014703512191772,0.6785179972648621,2.1792805194854736
8.140727996826172,-0.7904133200645447,-0.0706821084022522,-0.15583932399749756,-0.2368773180380062,-0.9577892558718882,-1.1579264684737993,-0.7950816750526428,0.2346682995557785,-0.5592638254165649,-1.3509591817855835,0.5471237897872925,2.5534119606018066
8.160767078399658,-0.9278164505958557,-0.07249796390533447,-0.1516086459159851,-0.2954831891036429,-0.9430390659164606,-1.146651035987469,-0.7742708921432495,0.2912021279335022,-0.5618770122528076,-1.128303050994873,0.6544122099876404,2.8599116802215576
8.180728912353516,-0.9652073979377747,-0.0577753484249115,-0.22681891918182373,-0.35419755217850113,-0.926776918358675,-1.128930371326331,-0.7500483393669128,0.3468378484249115,-0.5631439089775085,-1.05750572681427,0.3456777334213257,2.76804518699646
8.20074987411499,-0.9158109426498413,-0.11071836948394775,-0.2397017478942871,-0.40938078465353034,-0.9174335823720512,-1.1130794481708413,-0.7284303307533264,0.39804136753082275,-0.5576310157775879,-1.194198727607727,0.002401950303465128,2.57710337638855
8.220757961273193,-0.8350412845611572,-0.1332729160785675,-0.2048073410987854,-0.4653642203774887,-0.9162860198302872,-1.1046821828057474,-0.7089802026748657,0.44874832034111023,-0.5440329909324646,-1.6189085245132446,-0.15920168161392212,2.3318424224853516
8.240728855133057,-0.7998509407043457,-0.14144983887672424,-0.12777936458587646,-0.523335437713124,-0.9185202130994594,-1.10629762817055,-0.6883386969566345,0.49977192282676697,-0.5257545709609985,-1.9264568090438843,-0.026365071535110474,2.178441047668457
8.260744094848633,-0.7138279676437378,-0.05989789962768555,-0.2595275640487671,-0.5768505030678343,-0.9224429250571867,-1.1094220578461516,-0.6680995225906372,0.545386791229248,-0.5061584711074829,-1.4296507835388184,-0.24386686086654663,1.9611519575119019
8.28074312210083,-0.5823377370834351,0.07106101512908936,-0.3250981569290161,-0.6201729351550509,-0.9268423706968496,-1.1037186894467639,-0.6508012413978577,0.5811759233474731,-0.48856157064437866,-0.8686143755912781,-0.4836221933364868,1.7768218517303467
8.30075979232788,-0.5429883599281311,0.011054158210754395,-0.25207769870758057,-0.6568809920041703,-0.9318147787798646,-1.0953876493335255,-0.6356615424156189,0.6106498837471008,-0.4722723662853241,-0.8943480253219604,-0.4560099244117737,1.6187151670455933
8.320766925811768,-0.4697970151901245,-0.027519524097442627,-0.18509259819984436,-0.694825437849755,-0.938784883577954,-1.0936863393933187,-0.6197872161865234,0.6402513384819031,-0.4538081884384155,-1.2531569004058838,-0.4121567904949188,1.4748778343200684
