timestamp,acceleration_x,acceleration_y,acceleration_z,attitude_pitch,attitude_roll,attitude_yaw,gravity_x,gravity_y,gravity_z,rotation_x,rotation_y,rotation_z
0.0,0.04668080806732178,0.03351634740829468,0.08919310569763184,-0.6766077170882875,-0.7424719952961751,-2.171973130174451,-0.5271649360656738,0.6261516809463501,-0.5744835734367371,-0.01691044308245182,-0.1092553362250328,0.36470553278923035
0.01999807357788086,0.03537565469741821,0.07837438583374023,0.07749617099761963,-0.6830469702195607,-0.743579888034998,-2.1667590267518997,-0.5250608325004578,0.6311593651771545,-0.5709195733070374,-0.11825791746377945,-0.3184809982776642,0.3329393267631531
0.03942394256591797,-0.01750725507736206,0.11204874515533447,0.08422583341598511,-0.6875822754513786,-0.7467393928613927,-2.161493625975655,-0.5249121785163879,0.6346706748008728,-0.5671510696411133,0.0744081512093544,-0.30792829394340515,0.2973679006099701
0.06000185012817383,0.022928595542907715,0.09554100036621094,0.13361066579818726,-0.6892588218553943,-0.7464274816421309,-2.1523779394841482,-0.52401202917099,0.6359653472900391,-0.5665327906608582,0.2722257375717163,-0.23361776769161224,0.3583829998970032
0.07997989654541016,0.09300678968429565,0.050286948680877686,0.16453111171722412,-0.6905006301522615,-0.7414461038605422,-2.138125813233759,-0.5206496715545654,0.6369231939315796,-0.5685532689094543,0.35692617297172546,-0.21744093298912048,0.535298764705658
0.10001802444458008,0.11812925338745117,0.032359540462493896,0.1349230408668518,-0.6929751080256228,-0.736945055524508,-2.121112640628909,-0.5170246362686157,0.6388288736343384,-0.5697221159934998,0.3382810056209564,-0.4289810359477997,0.5514688491821289
0.12013912200927734,0.08453702926635742,0.05100470781326294,0.11563915014266968,-0.6943457126280487,-0.7360363023217985,-2.1046271843596833,-0.5159183144569397,0.6398828029632568,-0.5695422291755676,0.41523900628089905,-0.5152729153633118,0.4795977771282196
0.14002299308776855,0.09061837196350098,0.05839669704437256,0.13702648878097534,-0.6934834571603593,-0.7355085354689775,-2.087836288121151,-0.5159876942634583,0.6392199397087097,-0.570223331451416,0.4965832233428955,-0.5101150870323181,0.4247685372829437
0.16004395484924316,0.13770711421966553,0.07207876443862915,0.1267513632774353,-0.6912500175266592,-0.7359710894457967,-2.0713440346890812,-0.517208456993103,0.6375007629394531,-0.5710413455963135,0.5328851938247681,-0.6086778044700623,0.3672023415565491
0.1800379753112793,0.16555064916610718,0.12222927808761597,0.09130537509918213,-0.687539017146005,-0.7386625130022075,-2.054796782699056,-0.5203328132629395,0.6346372365951538,-0.5713924765586853,0.5790936946868896,-0.7249940633773804,0.32706940174102783
0.20012283325195312,0.1481439471244812,0.1903069019317627,0.07428300380706787,-0.6829759883515271,-0.7444727260440571,-2.0395742103298695,-0.5256006717681885,0.6311042904853821,-0.5704834461212158,0.5504682064056396,-0.8064430952072144,0.23171795904636383
0.22007083892822266,0.15154212713241577,0.13407456874847412,0.089713454246521,-0.6772892573455078,-0.7502092092404379,-2.024213371239702,-0.5313028693199158,0.6266829371452332,-0.5700752139091492,0.7434055209159851,-0.723534345626831,0.3216017782688141
0.24004888534545898,0.217900812625885,0.08035516738891602,0.14536821842193604,-0.6725705554053132,-0.7491202776313783,-2.001499053687983,-0.5326896905899048,0.6229987740516663,-0.572812557220459,0.6898569464683533,-0.5926108360290527,0.6346719264984131
0.26009702682495117,0.23433715105056763,0.1448095440864563,0.16898632049560547,-0.6728615645779583,-0.7475563625183723,-1.980311144427413,-0.5316699743270874,0.6232264041900635,-0.5735120177268982,0.49296659231185913,-0.5909023284912109,0.5253923535346985
0.28006601333618164,0.224598228931427,0.19614577293395996,0.13212358951568604,-0.6708268139621404,-0.7463437291081306,-1.9615587831408439,-0.5318340063095093,0.6216338276863098,-0.5750861763954163,0.6802446246147156,-0.45921048521995544,0.43026426434516907
0.29920482635498047,0.2611100673675537,0.2208821177482605,0.10809338092803955,-0.6632693843635217,-0.7417062398532837,-1.940571120364826,-0.5323199033737183,0.615696370601654,-0.58099365234375,0.9893358945846558,-0.4147661626338959,0.2608608901500702
0.3200798034667969,0.32900094985961914,0.22337013483047485,0.10529440641403198,-0.6497072611866004,-0.7379656808207037,-1.918471365022901,-0.5357118248939514,0.6049533486366272,-0.5891047120094299,1.2170907258987427,-0.5601256489753723,0.17198717594146729
0.34014177322387695,0.38750922679901123,0.17479437589645386,0.13274383544921875,-0.6335830635054874,-0.7336210036902306,-1.8913064621467808,-0.539608895778656,0.5920361876487732,-0.5985945463180542,1.35950767993927,-0.6245341300964355,0.36594459414482117
0.36008501052856445,0.382207989692688,0.13214492797851562,0.22641271352767944,-0.6210885112774079,-0.731469692830023,-1.8646797699040016,-0.5432188510894775,0.5819207429885864,-0.6052120923995972,1.0444691181182861,-0.7424992918968201,0.3890460431575775
0.38016605377197266,0.3128625750541687,0.16223293542861938,0.21938490867614746,-0.6134008735330484,-0.7352774324468773,-1.8433728046826539,-0.5485040545463562,0.5756516456604004,-0.6064391732215881,0.7113909721374512,-0.8478906154632568,0.3562047481536865
0.40013885498046875,0.19435960054397583,0.23424261808395386,0.18014848232269287,-0.6073261806659133,-0.7420561977123263,-1.8269497913530155,-0.5549553632736206,0.5706738233566284,-0.6052734851837158,0.6689547300338745,-0.7615245580673218,0.2330685555934906
0.4208950996398926,0.14770537614822388,0.23948293924331665,0.2053086757659912,-0.6004593507821859,-0.7486945949940275,-1.8141123475746819,-0.5616154074668884,0.5650215148925781,-0.6044327616691589,0.5327094793319702,-0.6475617289543152,0.07405900955200195
0.4400599002838135,0.18085157871246338,0.1869710087776184,0.21967792510986328,-0.5942478932447002,-0.7568304499171236,-1.8049316742361516,-0.5689131617546082,0.5598857402801514,-0.602383553981781,0.4567244052886963,-0.697213351726532,0.09596570581197739
0.45916295051574707,0.20588284730911255,0.13722342252731323,0.24292129278182983,-0.5900413336978086,-0.7655251278748425,-1.7952826167970373,-0.5757558941841125,0.5563953518867493,-0.5991070866584778,0.35414963960647583,-0.7169806361198425,0.16885358095169067
0.4826829433441162,0.1959705352783203,0.09106063842773438,0.22844773530960083,-0.5872952213091656,-0.7770585439076391,-1.788743907157583,-0.5836964249610901,0.5541114807128906,-0.593514084815979,0.2921927273273468,-0.7892287969589233,-0.0216474961489439
0.49931907653808594,0.21490997076034546,0.021089375019073486,0.18226993083953857,-0.579281344731249,-0.7900926495992686,-1.7843339293975669,-0.5945181846618652,0.5474226474761963,-0.5889623165130615,0.5338168144226074,-0.7662428617477417,-0.25758159160614014
0.5192959308624268,0.2776123285293579,-0.04159063100814819,0.21631622314453125,-0.5662593538128957,-0.804604101612481,-1.7796583016920313,-0.6080872416496277,0.5364790558815002,-0.5851668119430542,0.6412265300750732,-0.9620813131332397,-0.3877640664577484
0.5394089221954346,0.28397583961486816,-0.13579410314559937,0.24041694402694702,-0.5521416503740725,-0.8240936639520107,-1.7760580924180083,-0.6248725056648254,0.5245118141174316,-0.578292191028595,0.5262833833694458,-1.1820694208145142,-0.4462289810180664
0.5602169036865234,0.25221073627471924,-0.1821262240409851,0.28185439109802246,-0.539438229342557,-0.8495043452794174,-1.7778456147487065,-0.6443158984184265,0.5136540532112122,-0.5665832757949829,0.2242221236228943,-1.25566565990448,-0.6139660477638245
0.5797109603881836,0.29005271196365356,-0.17869460582733154,0.30852460861206055,-0.5268956455719909,-0.8774678283995778,-1.7854283031900533,-0.6648086309432983,0.5028524398803711,-0.552420973777771,0.16200153529644012,-1.2044917345046997,-0.7627312541007996
0.6001238822937012,0.3639969229698181,-0.1451273262500763,0.2624783515930176,-0.5109773548014124,-0.9060485183389841,-1.790653673917365,-0.6865372657775879,0.48903000354766846,-0.5380672216415405,0.5266662836074829,-1.3924453258514404,-0.7404950857162476
0.6202099323272705,0.35208266973495483,-0.09728530049324036,0.25517088174819946,-0.4924011335875475,-0.9330261119570518,-1.7861154747988048,-0.7079786658287048,0.47274312376976013,-0.5246714353561401,0.9387677907943726,-1.4534071683883667,-0.5790765285491943
0.6401839256286621,0.2843400835990906,-0.15139886736869812,0.2971034646034241,-0.46895154955223345,-0.9569593674888456,-1.7763594258282387,-0.7291948199272156,0.451951265335083,-0.5138238668441772,1.0936388969421387,-1.3977365493774414,-0.7910231947898865
0.6601448059082031,0.2389770746231079,-0.1858770251274109,0.25120532512664795,-0.44376892251795536,-0.9793929463864033,-1.7650026284645544,-0.7497498393058777,0.42934638261795044,-0.5035245418548584,1.1743783950805664,-1.3809477090835571,-0.7052018046379089
0.6801900863647461,0.1242334246635437,-0.1258956789970398,0.12662214040756226,-0.419276821090518,-1.002438666881157,-1.751215175074948,-0.769787073135376,0.40710002183914185,-0.4916275143623352,1.2317967414855957,-1.5105267763137817,-0.6525987982749939
0.7001481056213379,-0.01624882221221924,-0.07848033308982849,0.10685884952545166,-0.39578545047090646,-1.0271008184015051,-1.7357399766535662,-0.789644181728363,0.38553303480148315,-0.4773116111755371,1.1523419618606567,-1.518890380859375,-0.6140365600585938
0.7201581001281738,-0.18065595626831055,-0.11632844805717468,0.2307521104812622,-0.3746502215608227,-1.0486265595841868,-1.7260135743444243,-0.806618332862854,0.36594703793525696,-0.46416568756103516,0.6272792816162109,-0.9591934084892273,-0.830226719379425
0.7401628494262695,-0.22751784324645996,-0.14559334516525269,0.2085290253162384,-0.35220122452436137,-1.0635724849615371,-1.727563840828449,-0.8204405307769775,0.34496474266052246,-0.45593488216400146,0.44347214698791504,-0.49418288469314575,-1.1097004413604736
0.7603158950805664,-0.015455186367034912,-0.06356656551361084,0.19874471426010132,-0.3299423065493414,-1.0716408852474275,-1.7300112930731197,-0.8306294679641724,0.3239884376525879,-0.45286449790000916,0.45139819383621216,-0.3641570508480072,-0.9207307696342468
0.780174970626831,-0.041976094245910645,-0.05341386795043945,0.1412612795829773,-0.3109328710181073,-1.0816913884243844,-1.7273294389187055,-0.8404244780540466,0.3059469163417816,-0.44730669260025024,0.6882041096687317,-0.6917773485183716,-0.6667110919952393
0.8001728057861328,-0.38635993003845215,-0.09621503949165344,0.1696799397468567,-0.2908502664245349,-1.0951904945360031,-1.72345094225562,-0.8516772389411926,0.2867668867111206,-0.43864649534225464,0.44271036982536316,-0.7564138174057007,-1.0721783638000488
0.8201780319213867,-0.49684202671051025,-0.08632767200469971,0.26885002851486206,-0.26688335661801466,-1.1120531991166267,-1.7330126567308102,-0.864867627620697,0.2637264132499695,-0.4271445870399475,-0.2042609453201294,-0.6194490790367126,-1.3306834697723389
0.8402128219604492,-0.2691847085952759,-0.07671554386615753,0.2371489405632019,-0.24939799884945482,-1.1283401011305758,-1.7513724806769793,-0.8757433295249939,0.2468206286430359,-0.41491371393203735,-0.5272672176361084,-0.573405385017395,-1.0609917640686035
0.860252857208252,-0.2789301872253418,-0.017384707927703857,0.058962464332580566,-0.23330160933197575,-1.1433958119329903,-1.7653592089193224,-0.8853917717933655,0.23119093477725983,-0.4032769203186035,0.0898786187171936,-0.5818464756011963,-1.0368027687072754
0.8801970481872559,-0.3364732265472412,-0.05068160593509674,0.05179870128631592,-0.20938918189177638,-1.1530100151652867,-1.7683002780570931,-0.8940261602401733,0.2078624665737152,-0.39687609672546387,0.4110270142555237,-0.28457239270210266,-1.2640514373779297
0.9001970291137695,-0.32600468397140503,-0.1871148645877838,0.16646158695220947,-0.18528943189735173,-1.1578980658009892,-1.7747043460208443,-0.9002832770347595,0.1842310130596161,-0.3943972587585449,-0.031953681260347366,-0.1424013078212738,-1.1050392389297485
0.9201998710632324,-0.4934324026107788,-0.18078261613845825,0.2188490927219391,-0.17073140623649152,-1.1617241126628386,-1.7863029750209276,-0.9041506052017212,0.16990317404270172,-0.39197516441345215,-0.41720226407051086,-0.09922347217798233,-0.5975143909454346
0.940216064453125,-0.5088239908218384,-0.014138728380203247,0.26972725987434387,-0.16497150985172224,-1.1611968983795493,-1.7964605997102365,-0.9048265814781189,0.16422422230243683,-0.39283502101898193,-0.08865725249052048,0.33215925097465515,-0.49174919724464417
0.9602549076080322,-0.3297545313835144,0.0668957382440567,0.08851486444473267,-0.15398805424829357,-1.1575150189630226,-1.79035509472449,-0.9049714803695679,0.15338020026683807,-0.3968643248081207,1.174044132232666,-0.09317286312580109,-0.15876278281211853
0.9802160263061523,-0.3481559157371521,-0.03008599579334259,0.12686938047409058,-0.13660489340054996,-1.1546479921801727,-1.758647366194517,-0.9061319828033447,0.13618043065071106,-0.4004746973514557,2.196199893951416,-0.07425448298454285,-0.2582525908946991
1.000319004058838,-0.4386938214302063,-0.2345714271068573,0.29720211029052734,-0.11512043134110625,-1.1495793991407988,-1.723969048038896,-0.9065515995025635,0.11486632376909256,-0.4061650037765503,1.7381922006607056,0.11221420019865036,-0.3070451617240906
1.0202269554138184,-0.4062511920928955,-0.3268624246120453,0.2857341468334198,-0.1000088689439171,-1.1449203204150868,-1.7001450231634399,-0.9061267375946045,0.09984224289655685,-0.41105446219444275,1.0664182901382446,0.05962396040558815,-0.0631878450512886
1.0393309593200684,-0.4452284574508667,-0.21598610281944275,0.2826579213142395,-0.09679830663384703,-1.140406533215265,-1.686921338472308,-0.9045488238334656,0.09664721041917801,-0.41527193784713745,0.22603769600391388,0.2622344195842743,0.19075417518615723
1.0602829456329346,-0.45911741256713867,-0.18306678533554077,0.2782629132270813,-0.09961335494553065,-1.1335193035110918,-1.6877963442293649,-0.9014173150062561,0.09944869577884674,-0.42137500643730164,-0.2601728141307831,0.4219299852848053,0.1819981187582016
1.08021879196167,-0.3337429165840149,-0.13529694080352783,0.21275919675827026,-0.10831755607830315,-1.1253333925415279,-1.6890947596305699,-0.8971226811408997,0.10810586810112,-0.4283505082130432,-0.13161955773830414,0.5330245494842529,0.5908540487289429
1.1002459526062012,-0.4085984230041504,-0.09388932585716248,0.2599300742149353,-0.1258990105721156,-1.1058043751736961,-1.681238513439167,-0.8867507576942444,0.12556667625904083,-0.44486650824546814,0.11789195239543915,1.4860618114471436,1.25758957862854
1.120253086090088,-0.6093097925186157,-0.10612308979034424,0.22712266445159912,-0.14994306459937354,-1.0589299411104964,-1.663069948908522,-0.8620496392250061,0.1493818312883377,-0.48430949449539185,0.25703874230384827,2.6133673191070557,1.2786797285079956
1.1406021118164062,-0.45959943532943726,-0.08381269872188568,-0.2279362678527832,-0.16882690578026,-1.0221004433234684,-1.646812154992378,-0.84107506275177,0.16802604496479034,-0.5141595602035522,0.07789202034473419,0.43632766604423523,1.4120075702667236
1.1602349281311035,-0.1228712797164917,-0.40636512637138367,0.0403749942779541,-0.21090376564016577,-1.0229330024112482,-1.627261577466719,-0.8347246050834656,0.20934373140335083,-0.509323239326477,-1.0699918270111084,-0.2535814344882965,2.946221351623535
1.1802668571472168,-1.0461781024932861,-0.2896168529987335,0.5005754828453064,-0.2755904066024106,-1.0032071787430852,-1.6291420162318584,-0.8113811612129211,0.2721151113510132,-0.5173142552375793,-1.990875244140625,2.024834632873535,2.329907178878784
1.2003169059753418,-0.9118292927742004,-0.08479824662208557,0.10874384641647339,-0.33028808900699025,-0.9660913843791131,-1.6374418706677203,-0.7782036662101746,0.32431554794311523,-0.5377902984619141,-1.6211884021759033,1.6343059539794922,2.0465259552001953
1.220271110534668,-0.5766645073890686,-0.04110807180404663,0.11722415685653687,-0.38086141688915587,-0.9401080899804835,-1.6302430512261905,-0.7497515082359314,0.3717202842235565,-0.5474455952644348,-0.9088307619094849,0.8405138850212097,2.3100006580352783
1.2397618293762207,-0.6984627842903137,-0.1609971523284912,0.2697114944458008,-0.42199164126976363,-0.9216866572621458,-1.6163482157180973,-0.726738691329956,0.4095781743526459,-0.5514496564865112,-0.5124813318252563,0.5907271504402161,1.8620471954345703
1.260307788848877,-0.5994288921356201,-0.1540146768093109,0.1622571349143982,-0.45493054558152773,-0.9032869135400377,-1.5979836879377065,-0.7054875493049622,0.43939992785453796,-0.5560711026191711,-0.24213139712810516,0.4120032489299774,1.7567877769470215
1.2803449630737305,-0.6374377012252808,-0.16776889562606812,0.05021488666534424,-0.48504271710374003,-0.8906522231027292,-1.5816880354876854,-0.6878034472465515,0.4662461578845978,-0.5563640594482422,-0.534548282623291,0.17171978950500488,1.5032929182052612
1.3002901077270508,-0.689705491065979,-0.2154771387577057,0.018458962440490723,-0.515434085104375,-0.8847142107090296,-1.5759673111847257,-0.6732096672058105,0.4929125905036926,-0.551204264163971,-1.053464412689209,0.1500789374113083,1.1595209836959839
1.320295810699463,-0.6098060011863708,-0.20526981353759766,-0.006904780864715576,-0.5484030704080115,-0.8870929978925652,-1.585922434079627,-0.6615563035011292,0.5213251709938049,-0.5390393137931824,-1.5977814197540283,0.04083029925823212,0.8189008831977844
1.3403048515319824,-0.5036453008651733,-0.1153382658958435,-0.007941484451293945,-0.5835159280770116,-0.8991928295213815,-1.6095652534140041,-0.6532914042472839,0.5509614944458008,-0.5192800760269165,-2.1099648475646973,0.013869965448975563,0.6738929152488708
1.3603639602661133,-0.5263946056365967,-0.016264915466308594,-0.13967609405517578,-0.6180183099530978,-0.9159678958960157,-1.6403312935113616,-0.6464417576789856,0.5794211626052856,-0.49637117981910706,-1.975205898284912,0.124347023665905,0.5455292463302612
1.3803069591522217,-0.5694883465766907,0.1719692349433899,-0.2579595446586609,-0.6474405374130909,-0.9289618984777582,-1.6688689101592344,-0.6389009952545166,0.6031468510627747,-0.47751399874687195,-1.7639573812484741,0.23986457288265228,0.4218423068523407
1.4003138542175293,-0.5496360659599304,0.16066670417785645,-0.3008265793323517,-0.6793912631541168,-0.9448194846013342,-1.7042106915498285,-0.6304481625556946,0.6283195614814758,-0.45579561591148376,-2.420273542404175,0.367935448884964,0.4918883442878723
1.420435905456543,-0.5962161421775818,0.22425240278244019,-0.3133701682090759,-0.7196542922251947,-0.9668722736324081,-1.7536011634810214,-0.6190090775489807,0.6591247320175171,-0.427062451839447,-2.780378818511963,0.6067573428153992,0.652677059173584
1.4403228759765625,-0.567523717880249,0.43227052688598633,-0.40261977910995483,-0.7594647353711211,-0.9829795122026964,-1.7974064785562804,-0.6034815907478333,0.688533365726471,-0.4021591246128082,-1.9616990089416504,0.722427487373352,0.7841517925262451
1.460326910018921,-0.5158101320266724,0.4325351119041443,-0.3713414669036865,-0.7887146918394319,-0.9870600663095238,-1.8234211131975595,-0.5880564451217651,0.7094480395317078,-0.38842400908470154,-1.4513583183288574,0.6879115700721741,0.6342218518257141
1.4803879261016846,-0.36464089155197144,0.13108289241790771,-0.13110023736953735,-0.8153811961207371,-0.9936406204052383,-1.8535384380629216,-0.5745376348495483,0.7279869914054871,-0.3740876615047455,-1.719025731086731,0.8189689517021179,0.43067699670791626
1.500342845916748,-0.17632877826690674,0.11716008186340332,-0.029150813817977905,-0.8388776341139713,-1.0064007809949982,-1.8913362618111116,-0.5646533370018005,0.7438935041427612,-0.35747626423835754,-1.6661006212234497,0.6560235023498535,0.16443336009979248
1.5202679634094238,0.04395407438278198,0.14358019828796387,0.07479119300842285,-0.8553900951420963,-1.0249677435961344,-1.9300065599254326,-0.5606167316436768,0.7548268437385559,-0.3405075967311859,-1.37611722946167,0.45528244972229004,-0.040559642016887665
1.5398499965667725,0.1775166392326355,0.14501094818115234,0.17822781205177307,-0.8665404760385463,-1.0450428880184361,-1.967476331369484,-0.5600239634513855,0.7620936036109924,-0.32494089007377625,-1.2812976837158203,0.3782055974006653,-0.2724913954734802
1.5604028701782227,0.2680402994155884,0.14894002676010132,0.13627123832702637,-0.8712079800670998,-1.0651582006060842,-2.0022734757633702,-0.5633284449577332,0.7651073336601257,-0.3118845224380493,-0.973638653755188,0.2545766830444336,-0.383353590965271
1.5798897743225098,0.37660694122314453,0.14254707098007202,0.13885125517845154,-0.8732001172077947,-1.0857718345277871,-2.0324637431907497,-0.5682878494262695,0.7663885354995728,-0.2994956374168396,-0.7904905676841736,-0.0010060080094262958,-0.3503161072731018
1.6004619598388672,0.42337965965270996,0.057505249977111816,0.16260018944740295,-0.8746097821693526,-1.1059069511146136,-2.0579544464445134,-0.5732362270355225,0.7672933340072632,-0.28750845789909363,-0.7585616111755371,-0.0827542245388031,-0.287906289100647
1.62037992477417,0.45934146642684937,0.02353888750076294,0.17394092679023743,-0.876635213972003,-1.1263781679561684,-2.083207298964585,-0.5775970816612244,0.7685906291007996,-0.2750454843044281,-0.8352857828140259,-0.012917617335915565,-0.3669530749320984
1.6403779983520508,0.4401259422302246,0.028063178062438965,0.15335461497306824,-0.8763847366717108,-1.1500571732570704,-2.1138542376076286,-0.5841231346130371,0.7684303522109985,-0.261371374130249,-0.9349363446235657,0.037603702396154404,-0.3631977140903473
1.6603717803955078,0.5072019696235657,-0.09515637159347534,0.15291818976402283,-0.8799287057281697,-1.1739777302349375,-2.1472388108657046,-0.5876920819282532,0.7706934809684753,-0.2462712824344635,-1.2182409763336182,0.1302184909582138,-0.17670029401779175
1.6804449558258057,0.5355756878852844,-0.03862333297729492,0.13051146268844604,-0.890292197216368,-1.2051564219111477,-2.190082903445501,-0.5875929594039917,0.777255654335022,-0.2249632477760315,-1.6708097457885742,-0.001920093665830791,0.15255269408226013
1.700380802154541,0.5006935000419617,-0.06859362125396729,0.06071692705154419,-0.9091908298978666,-1.2443181950354696,-2.23938605056382,-0.5819313526153564,0.7890068292617798,-0.19703876972198486,-1.88883638381958,-0.020934708416461945,0.6211923360824585
1.7204129695892334,0.523549497127533,-0.16783857345581055,0.06926394999027252,-0.9374004216816383,-1.2871061732591143,-2.292893058338624,-0.5682271718978882,0.8060221672058105,-0.16566884517669678,-1.9976847171783447,0.036243803799152374,1.05226469039917
1.7403898239135742,0.48848915100097656,-0.11507517099380493,0.08161719143390656,-0.9653690146893152,-1.3352611296006713,-2.3533094286303116,-0.5533999800682068,0.8222590088844299,-0.13281027972698212,-1.9075461626052856,0.08177213370800018,0.7895669937133789
1.7604598999023438,0.4595611095428467,-0.2732289433479309,-0.04340158402919769,-0.990793881359117,-1.3688831630971303,-2.3992912887142426,-0.5368925929069519,0.8364613056182861,-0.10990330576896667,-1.2509267330169678,0.3029474914073944,1.0470306873321533
1.780409812927246,0.443451464176178,-0.32160115242004395,-0.010547935962677002,-1.0140434025438985,-1.3895433650762246,-2.4305153753320208,-0.519775927066803,0.848975419998169,-0.09525636583566666,-0.9014074802398682,0.3058547079563141,0.9599900841712952
1.8004860877990723,0.4437476396560669,-0.42068296670913696,-0.016243338584899902,-1.0369142539935843,-1.401914279729181,-2.453835518478266,-0.5016395449638367,0.8608380556106567,-0.08553262054920197,-0.7428291440010071,0.4197358191013336,1.0591782331466675
1.8204069137573242,0.464158296585083,-0.5201939344406128,-0.02279752492904663,-1.060023264869738,-1.4169653672609541,-2.479857264928036,-0.4830792248249054,0.8723668456077576,-0.07490432262420654,-0.9233694672584534,0.3061394691467285,1.0109237432479858
1.8404369354248047,0.4882983863353729,-0.45287615060806274,-0.07909411191940308,-1.0825868168704165,-1.4413341726408668,-2.5128625044191812,-0.4651203155517578,0.8831741213798523,-0.06055416166782379,-0.9187525510787964,0.10973338037729263,1.0041868686676025
1.8604178428649902,0.48800480365753174,-0.22246605157852173,-0.16958755254745483,-1.1031507027370089,-1.4625755046936224,-2.5336906765563265,-0.44814884662628174,0.8926320672035217,-0.04868926480412483,-0.19701790809631348,-0.3146519064903259,1.0066871643066406
1.8804221153259277,0.4679950177669525,0.02151501178741455,-0.12350988388061523,-1.1251764275479619,-1.454856308035464,-2.5190407386677083,-0.4281238317489624,0.9023436307907104,-0.04986029490828514,0.5272824764251709,-0.16665126383304596,1.2580920457839966
1.8998079299926758,0.45335298776626587,-0.11014115810394287,-0.06355732679367065,-1.1470702671584114,-1.4296868660389348,-2.4882828762282587,-0.40707308053970337,0.9115632772445679,-0.05782618373632431,0.3899756968021393,-0.15196889638900757,1.0716584920883179
1.9204299449920654,0.5591031908988953,-0.22840023040771484,-0.03003644198179245,-1.1674701686535847,-1.4186435428059614,-2.471763770549621,-0.3879453241825104,0.9197606444358826,-0.05948672071099281,0.0028562573716044426,-0.3146601617336273,1.020058035850525
1.940490961074829,0.5779404640197754,-0.13208997249603271,-0.06600183248519897,-1.1838503513101333,-1.4102873280344863,-2.4521828959005507,-0.37251144647598267,0.9260658621788025,-0.06031025946140289,0.7269430160522461,-0.5784932971000671,0.7162005305290222
1.960442066192627,0.4886029064655304,0.10668528079986572,-0.18393462896347046,-1.1876538319199992,-1.3463157836876103,-2.368028309589389,-0.3644573986530304,0.9274944067001343,-0.0832161083817482,2.3728554248809814,-0.9262906312942505,0.22418415546417236
1.980443000793457,0.4543806314468384,0.11059874296188354,-0.040508732199668884,-1.1771187030129615,-1.240789414656321,-2.230995127344626,-0.3628889322280884,0.9235045909881592,-0.12430128455162048,2.256513833999634,-1.009930968284607,0.4102582335472107
2.000454902648926,0.3450579047203064,-0.09909671545028687,0.14410400390625,-1.1769043999294189,-1.2023428431051295,-2.168690509914339,-0.3580279052257538,0.9234223961830139,-0.13822922110557556,0.06714975833892822,-0.8769360184669495,0.2506617605686188
2.0204720497131348,0.3269737660884857,0.02080392837524414,0.055815935134887695,-1.1840908337571512,-1.2441804025071332,-2.197120370069887,-0.3572014570236206,0.9261565804481506,-0.12100132554769516,-0.9205125570297241,-0.8361710906028748,-0.007658754009753466
2.0404720306396484,0.40227848291397095,0.31275826692581177,-0.05416686832904816,-1.1782854132438585,-1.2710904210650296,-2.2057718627542933,-0.36545905470848083,0.9239515066146851,-0.1129319816827774,1.2220524549484253,-1.0052399635314941,-0.5861946940422058
2.0604629516601562,0.34159085154533386,0.4001086950302124,-0.15053802728652954,-1.1455612152030592,-1.1855668828719899,-2.0873404408130836,-0.38230133056640625,0.9109417796134949,-0.15501904487609863,3.8597536087036133,-1.185940146446228,-0.8278796672821045
2.0805249214172363,0.3929474353790283,-0.23848378658294678,0.34384238719940186,-1.1039550301557137,-1.0826158120236953,-1.9531651411718534,-0.3974945843219757,0.8929943442344666,-0.2110907882452011,2.8479316234588623,-0.7416539192199707,-0.6487720012664795
2.100425958633423,0.25267431139945984,-0.5985713601112366,0.3053514361381531,-1.066192077816166,-1.0425465995398597,-1.8923168559079115,-0.4175608158111572,0.8753658533096313,-0.24367524683475494,1.6466569900512695,-0.6107820868492126,-1.3011757135391235
2.1205639839172363,0.18015268445014954,-0.2498508095741272,0.0951060950756073,-1.0223507059743364,-1.0355023029926962,-1.8697170953515052,-0.44843271374702454,0.8533359169960022,-0.265943318605423,1.7759971618652344,-0.7554492950439453,-1.8787544965744019
2.1405200958251953,0.28845369815826416,-0.19244492053985596,-0.00483974814414978,-0.9658384804036407,-1.0346432703866792,-1.843067855350148,-0.4889236390590668,0.8225260972976685,-0.2905244827270508,2.1257219314575195,-1.4391294717788696,-2.206805467605591
2.1605777740478516,0.29997992515563965,-0.27986663579940796,0.19153985381126404,-0.9165522318812633,-1.0738503378228152,-1.8465758838823378,-0.5349500775337219,0.7935081720352173,-0.290126770734787,-0.30183249711990356,-2.069967269897461,-2.0265965461730957
2.1802589893341064,0.031309545040130615,-0.4810839891433716,0.4086461663246155,-0.9014547157522885,-1.1707144190492946,-1.9284886183654464,-0.5714706778526306,0.7842303514480591,-0.24166910350322723,-3.1080942153930664,-1.001369833946228,-1.686386227607727
2.200634002685547,-0.40761232376098633,0.050209641456604004,0.06317341327667236,-0.879816098322857,-1.2471858563312603,-2.018882678917566,-0.6042132377624512,0.7706217169761658,-0.20265384018421173,-0.655135989189148,0.32867273688316345,-2.4216456413269043
2.220561981201172,-0.23785555362701416,1.103102445602417,-0.3810420036315918,-0.8164662665787338,-1.2276648061681878,-1.994569198221433,-0.6448807120323181,0.7287304997444153,-0.23039276897907257,3.978137493133545,-0.37609875202178955,-2.896728754043579
2.2396798133850098,0.02213597297668457,0.20885491371154785,-0.05391046404838562,-0.7341547168211897,-1.1775870881950254,-1.904926723454937,-0.6857407093048096,0.6699598431587219,-0.28445303440093994,4.390600204467773,-0.794008195400238,-2.4627459049224854
2.2694549560546875,-0.5328488349914551,-0.412254273891449,0.1354309320449829,-0.6098149613465399,-1.1738517070611636,-1.8460437618254688,-0.7560153603553772,0.5727157592773438,-0.31691884994506836,0.3870449364185333,-0.8324284553527832,-2.22025990486145
2.2804999351501465,-0.5328488349914551,-0.412254273891449,0.1354309320449829,-0.6098149613465399,-1.1738517070611636,-1.8460437618254688,-0.7560153603553772,0.5727157592773438,-0.31691884994506836,0.3870449364185333,-0.8324284553527832,-2.22025990486145
2.3089118003845215,-0.7676810026168823,0.2543147802352905,-0.08195960521697998,-0.5154290516663252,-1.2091013071203351,-1.8811720490891097,-0.81378573179245,0.49290820956230164,-0.30788707733154297,0.40813544392585754,0.06319943070411682,-2.5330915451049805
2.3306949138641357,-0.4271177053451538,-0.03995668888092041,0.05435970425605774,-0.4797669641239524,-1.21290378423282,-1.9011214866645167,-0.830893337726593,0.46157246828079224,-0.3107530474662781,-1.050071120262146,0.4118484854698181,-1.4868522882461548
2.3520498275756836,-0.2638683319091797,-0.11629873514175415,0.08441334962844849,-0.47014384333216724,-1.2273822653964648,-1.9470171540837709,-0.8394489288330078,0.4530145227909088,-0.30017250776290894,-2.250791549682617,0.13441883027553558,-0.7894013524055481
2.3676888942718506,-0.040627360343933105,-0.02678757905960083,-0.009501665830612183,-0.47832174160947577,-1.2506414337426819,-1.9962219822697573,-0.8426583409309387,0.46028992533683777,-0.27939289808273315,-1.8642034530639648,-0.16466915607452393,0.15693393349647522
2.386029005050659,-0.057550787925720215,0.11478465795516968,-0.13642951846122742,-0.49144524802375483,-1.2666122478675612,-2.019705758287908,-0.8411766290664673,0.4719005823135376,-0.26406776905059814,-0.3441278338432312,-0.2760649025440216,0.2912476062774658
2.4053399562835693,-0.1578667163848877,0.06653815507888794,-0.2189384400844574,-0.4951505917341515,-1.2645006585653973,-2.0057947819021185,-0.8389441967010498,0.47516417503356934,-0.26531434059143066,1.1722363233566284,-0.10478620231151581,0.5537671446800232
2.424069881439209,-0.15307217836380005,-0.22015419602394104,-0.06721702218055725,-0.5015898546796778,-1.2484332490091663,-1.9747735446304724,-0.8316537737846375,0.4808201491832733,-0.2777840495109558,1.0029332637786865,0.2204461246728897,0.8556703329086304
2.4433460235595703,-0.2303835153579712,-0.3710474967956543,0.06556189060211182,-0.5171966215315312,-1.2341322631701956,-1.9598934518733575,-0.8204130530357361,0.4944453537464142,-0.28713464736938477,-0.3742477595806122,0.4655778408050537,1.0185219049453735
2.462554931640625,-0.2789676785469055,-0.39349156618118286,0.0627870261669159,-0.543320305202593,-1.2303872320558826,-1.972641061887791,-0.8068782687187195,0.5169810056686401,-0.28579404950141907,-1.4274871349334717,0.5265360474586487,1.0960546731948853
2.4824280738830566,-0.279540479183197,-0.2838802933692932,0.05100435018539429,-0.5753387267869153,-1.2347146234771995,-2.000481257262771,-0.7920690774917603,0.5441190004348755,-0.27669695019721985,-1.7620726823806763,0.5568761229515076,1.1422816514968872
2.5043540000915527,-0.2988350987434387,-0.22377413511276245,0.035249948501586914,-0.6077273804231753,-1.2406767810004862,-2.03101003498832,-0.7766196727752686,0.571003258228302,-0.2661152780056,-1.698661208152771,0.5394065976142883,1.0761343240737915
2.5254950523376465,-0.286357581615448,-0.21469712257385254,0.020012378692626953,-0.6381102873207811,-1.2495606836914936,-2.0622174528067343,-0.7621349096298218,0.5956786274909973,-0.2536090016365051,-1.6761009693145752,0.4036053717136383,1.00303316116333
2.545557975769043,-0.2737288475036621,-0.18323785066604614,-0.011485636234283447,-0.6673502420049654,-1.2606941634153033,-2.0944333895955114,-0.7479997277259827,0.6189068555831909,-0.23968914151191711,-1.6433802843093872,0.5513896346092224,0.9753150343894958
2.565614938735962,-0.24690335988998413,-0.19702619314193726,-0.0455925315618515,-0.6947022714756619,-1.2669210256757033,-2.1238208478401814,-0.7330465316772461,0.6401567459106445,-0.22987422347068787,-1.3782466650009155,0.6147819757461548,0.9616825580596924
2.5861058235168457,-0.21673333644866943,-0.13149398565292358,-0.02131783962249756,-0.7201250476822348,-1.2699438239342002,-2.1487710055441296,-0.7179591059684753,0.6594786643981934,-0.2227615863084793,-1.1820578575134277,0.758334219455719,0.9140335917472839
2.6054279804229736,-0.2706907391548157,-0.15089714527130127,0.012466922402381897,-0.742525074807886,-1.2675219270794558,-2.170660397512142,-0.7031404376029968,0.6761504411697388,-0.22003206610679626,-1.0825068950653076,0.933283805847168,0.7537157535552979
2.628322124481201,-0.21628767251968384,-0.19169723987579346,0.013133466243743896,-0.7615994511783618,-1.264035876737559,-2.1933371741128136,-0.6899470686912537,0.690079927444458,-0.21854712069034576,-1.073706030845642,0.9471402764320374,0.61834317445755
2.6488089561462402,-0.12935179471969604,-0.20037835836410522,0.034112170338630676,-0.7789676916306336,-1.2629740528274316,-2.218426881799031,-0.6781890988349915,0.702545166015625,-0.21561530232429504,-1.1933338642120361,0.9581876397132874,0.5561482310295105
2.6669740676879883,-0.11960244178771973,-0.1898658275604248,0.028736308217048645,-0.7970784122741508,-1.2647690734331212,-2.248821435588111,-0.6663320064544678,0.7153175473213196,-0.2105293571949005,-1.3804785013198853,1.0445497035980225,0.5251986384391785
2.6879239082336426,-0.10882836580276489,-0.14567410945892334,0.0098542720079422,-0.8140365790856074,-1.2659802295247318,-2.2820388308684953,-0.6549198031425476,0.7270644903182983,-0.20605158805847168,-1.3264961242675781,1.2161165475845337,0.41276660561561584
2.7079038619995117,-0.05886197090148926,-0.09664046764373779,-0.014543861150741577,-0.8273441830562748,-1.2662983869953757,-2.315647690835539,-0.6456974744796753,0.7361364364624023,-0.20292431116104126,-1.2120997905731201,1.2130624055862427,0.16146308183670044
2.727052927017212,-0.002513885498046875,-0.11141091585159302,-0.012428641319274902,-0.8353824952536829,-1.2646454155969782,-2.3468146985935774,-0.6396980881690979,0.7415531873703003,-0.20220132172107697,-1.0805732011795044,1.255606770515442,0.020865987986326218
2.7469029426574707,0.01855224370956421,-0.11228036880493164,0.009237885475158691,-0.8412691963472538,-1.2628347698146252,-2.378910118695618,-0.635159969329834,0.7454896569252014,-0.20203255116939545,-1.17890202999115,1.3263088464736938,-0.11159621924161911
2.7677369117736816,0.022723615169525146,-0.0885801911354065,0.0024569034576416016,-0.8452335399489107,-1.2632350219133444,-2.4158979352672656,-0.6324191093444824,0.7481260895729065,-0.20088203251361847,-1.2714812755584717,1.432125210762024,-0.22707030177116394
2.787734031677246,0.06356978416442871,-0.04351532459259033,-0.009838521480560303,-0.8490044029947617,-1.2654084804875754,-2.457168175915426,-0.6301591992378235,0.7506229281425476,-0.19865742325782776,-1.462325096130371,1.4298850297927856,-0.25568723678588867
2.8067479133605957,0.08961224555969238,-0.025581002235412598,-0.02421802282333374,-0.8524672382643477,-1.2700258721376292,-2.5021711423862047,-0.6285832524299622,0.7529064416885376,-0.19497434794902802,-1.4805560111999512,1.5055007934570312,-0.26202067732810974
2.827660083770752,0.11174702644348145,-0.007689774036407471,-0.013971075415611267,-0.8563822124105935,-1.2744152959809865,-2.548871181736927,-0.6266091465950012,0.755477249622345,-0.1913510113954544,-1.5471175909042358,1.5859206914901733,-0.2756219208240509
2.8475019931793213,0.11959034204483032,0.021180927753448486,-0.02072170376777649,-0.8596942397641273,-1.2772361573522697,-2.5962701999168405,-0.6247479319572449,0.7576430439949036,-0.18885762989521027,-1.542605996131897,1.7115141153335571,-0.30648964643478394
2.86757493019104,0.10340625047683716,0.07490378618240356,-0.04648411273956299,-0.8617356556040292,-1.2781665526175632,-2.6433864562693743,-0.6234411001205444,0.7589738368988037,-0.18782971799373627,-1.4252097606658936,1.7914003133773804,-0.3782655894756317
2.8852999210357666,0.1292644739151001,0.07459264993667603,-0.05092233419418335,-0.8622604789810113,-1.2741804580607434,-2.6868619865864556,-0.6223065257072449,0.7593154311180115,-0.19019688665866852,-1.3337390422821045,1.9041945934295654,-0.3870410919189453
2.9063920974731445,0.18093770742416382,0.04220998287200928,-0.04708990454673767,-0.8628525278978493,-1.2678739117176583,-2.729002265006748,-0.6206656098365784,0.75970059633255,-0.19398358464241028,-1.3412553071975708,1.9417718648910522,-0.33983486890792847
2.926470994949341,0.17866718769073486,0.0606989860534668,-0.0627092719078064,-0.8649740290566009,-1.2632641168649579,-2.772516638102534,-0.6182271838188171,0.761078417301178,-0.19635429978370667,-1.3995780944824219,1.825336217880249,-0.3502875566482544
2.9471540451049805,0.14773273468017578,0.09046852588653564,-0.07560363411903381,-0.8662224160760973,-1.2621809450117414,-2.8176438772323413,-0.6171085238456726,0.7618876099586487,-0.19673511385917664,-1.4436781406402588,1.7641520500183105,-0.3831392824649811
2.9666690826416016,0.14740872383117676,0.1123705506324768,-0.06067375838756561,-0.8685960476028702,-1.2627887544069938,-2.8644002446017103,-0.6155025959014893,0.7634229063987732,-0.19581109285354614,-1.5389426946640015,1.7254592180252075,-0.32661595940589905
2.984391927719116,0.14826732873916626,0.15426409244537354,-0.06296545267105103,-0.8721582380339312,-1.2682631225345324,-2.9152768346394278,-0.613965630531311,0.7657188177108765,-0.19162729382514954,-1.7017689943313599,1.624079704284668,-0.3252396881580353
3.004974842071533,0.15541958808898926,0.1957547664642334,-0.05520576238632202,-0.8761502265232258,-1.2787013393139486,-2.970112318146078,-0.6130002737045288,0.7682802677154541,-0.18432657420635223,-1.7277588844299316,1.5482516288757324,-0.32726219296455383
3.0274229049682617,0.17862403392791748,0.21714890003204346,-0.07377259433269501,-0.8795399577301117,-1.2878510645301948,-3.020779520179536,-0.6121567487716675,0.770445704460144,-0.17798203229904175,-1.4728662967681885,1.4419772624969482,-0.24976974725723267
3.0459370613098145,0.19047045707702637,0.22095000743865967,-0.07910013198852539,-0.8821024044876455,-1.2931224482262083,-3.061411487661928,-0.6111859083175659,0.7720767259597778,-0.17421092092990875,-1.085597038269043,1.1718955039978027,-0.2387862503528595
3.0662031173706055,0.13634133338928223,0.19317620992660522,-0.0758441686630249,-0.8822749768910869,-1.296647302215087,-3.0931056148241947,-0.6116679906845093,0.7721863985061646,-0.17201945185661316,-0.9070982933044434,0.9253994226455688,-0.31074538826942444
3.0872998237609863,0.07110083103179932,0.1880202293395996,-0.06661258637905121,-0.8803295778901132,-1.3017114373297363,-3.12209464809022,-0.6139780879020691,0.7709488272666931,-0.16931869089603424,-0.8293723464012146,0.8257492780685425,-0.3443743884563446
3.1069560050964355,0.08624440431594849,0.18050432205200195,-0.004943355917930603,-0.8791699594803162,-1.304242287250715,3.136301336281058,-0.6152666211128235,0.7702097296714783,-0.16799964010715485,-0.6708751916885376,0.862666130065918,-0.15507088601589203
3.1269898414611816,0.14013522863388062,0.10165256261825562,0.05732542276382446,-0.8818450742291637,-1.3012689792702845,3.1169133795172446,-0.6127763390541077,0.7719131708145142,-0.1692790538072586,-0.5934069156646729,0.8765636086463928,0.05622529238462448
3.1468379497528076,0.17927682399749756,0.015140712261199951,0.07847648859024048,-0.8862888059297476,-1.2973329932053066,3.100635547436097,-0.6087965965270996,0.7747305035591125,-0.17076155543327332,-0.5329306125640869,0.7816035747528076,0.07941210269927979
3.165708065032959,0.20176595449447632,-0.02993035316467285,0.0803418755531311,-0.8900567637587381,-1.293528793493053,3.088151619361434,-0.6053304672241211,0.7771074771881104,-0.17227599024772644,-0.3105345666408539,0.5627585649490356,0.07144135981798172
3.1864328384399414,0.18113493919372559,-0.024024784564971924,0.06046932935714722,-0.8927760860239563,-1.28791998043858,3.084044674985159,-0.6023233532905579,0.7788160443305969,-0.17507800459861755,0.006853807717561722,0.32181936502456665,0.11975977569818497
3.20646595954895,0.07586348056793213,0.04208618402481079,0.04232138395309448,-0.8939531669509715,-1.2791195604193435,3.0897045241391976,-0.5998809337615967,0.7795538306236267,-0.18010812997817993,0.24479340016841888,0.1530611366033554,0.07280077040195465
3.2264318466186523,-0.04622626304626465,0.0975763201713562,0.09440064430236816,-0.8933053303575706,-1.2701978366463118,3.0962477414302,-0.5987323522567749,0.7791479229927063,-0.1856023222208023,0.1383782923221588,0.2726493179798126,-0.0016090275021269917
3.2462158203125,-0.07608497142791748,0.05772966146469116,0.15033288300037384,-0.893387830144011,-1.2612180160120565,3.0968416149922984,-0.5969802737236023,0.7791996002197266,-0.1909516602754593,-0.13480669260025024,0.586548388004303,0.03853350505232811
3.265298843383789,0.009603738784790039,0.00454556941986084,0.15444955229759216,-0.8959843331029117,-1.2530728158475102,3.09008924347212,-0.5934814214706421,0.7808244228363037,-0.1951751708984375,-0.30850639939308167,0.7084892392158508,0.07030315697193146
3.286357879638672,0.11355417966842651,-0.025562703609466553,0.11299985647201538,-0.898924701433427,-1.2459778578876557,3.082387039646753,-0.5899031758308411,0.782658040523529,-0.19864730536937714,-0.1840413212776184,0.5881174206733704,0.04691649600863457
3.305989980697632,0.1825786828994751,-0.05730092525482178,0.08672970533370972,-0.8996358762888456,-1.2359153390240403,3.0829224819658396,-0.5873486995697021,0.7831004858016968,-0.20439010858535767,0.1762544810771942,0.36978039145469666,0.04156108200550079
3.326456069946289,0.19757521152496338,-0.04869812726974487,0.0819549709558487,-0.8981700278659372,-1.2237437405917202,3.0921198267237737,-0.5858961939811707,0.7821880578994751,-0.21191392838954926,0.3878973722457886,0.13238373398780823,-0.005506236106157303
3.3453187942504883,0.16610825061798096,-0.022235631942749023,0.08268025517463684,-0.8946698088068645,-1.2123996024838646,3.1049806536073383,-0.5860150456428528,0.7800024747848511,-0.21950571238994598,0.4682999849319458,0.02089192159473896,-0.032236434519290924
3.365900993347168,0.13254505395889282,0.01820242404937744,0.0858163833618164,-0.8902161041188422,-1.2014021209136792,3.1183650182936793,-0.5867992639541626,0.7772077322006226,-0.22718897461891174,0.46402719616889954,0.031044336035847664,-0.10407906770706177
3.3849611282348633,0.16029232740402222,0.019253790378570557,0.07651561498641968,-0.8845155835493709,-1.19245527501548,3.129799870284212,-0.5888507962226868,0.7736081480979919,-0.23406252264976501,0.4194789230823517,-0.023896055296063423,-0.14299535751342773
3.4058449268341064,0.1888914704322815,0.027351319789886475,0.059958651661872864,-0.8785728762173228,-1.1862241602939119,3.139554185760902,-0.5916320085525513,0.7698287963867188,-0.239447683095932,0.41246864199638367,-0.1068151667714119,-0.1977224349975586
3.4260268211364746,0.19750791788101196,0.05295461416244507,0.026019632816314697,-0.8710064828975128,-1.180825301338654,-3.132637259475869,-0.5957013964653015,0.7649775743484497,-0.24484580755233765,0.5352127552032471,-0.19182699918746948,-0.23282352089881897
3.444678783416748,0.21442043781280518,0.04853731393814087,0.019090592861175537,-0.862156374897417,-1.174432477593675,-3.118630784085814,-0.6003458499908447,0.7592477202415466,-0.2512529492378235,0.6302255988121033,-0.24117591977119446,-0.24812515079975128
3.465703010559082,0.22074413299560547,0.035372138023376465,0.025521844625473022,-0.8521049866453797,-1.1680619308111135,-3.103413827364513,-0.6057234406471252,0.752668023109436,-0.2580503821372986,0.6721654534339905,-0.28346359729766846,-0.2957790195941925
3.4837589263916016,0.22148531675338745,0.02417677640914917,0.03244873881340027,-0.8404714363341635,-1.1626306686682935,-3.0879222523651997,-0.6123087406158447,0.744957685470581,-0.2647942006587982,0.7241930365562439,-0.33320650458335876,-0.37252238392829895
3.5047810077667236,0.2125219702720642,0.03185534477233887,0.04453754425048828,-0.8266882035729941,-1.158999963339426,-3.0733895148051347,-0.6206946969032288,0.7356922626495361,-0.2710999548435211,0.723994791507721,-0.38525089621543884,-0.5146914720535278
3.5262861251831055,0.19040441513061523,0.03618556261062622,0.029249191284179688,-0.810258113829915,-1.1585070379852813,-3.0609499622483343,-0.6315513849258423,0.7244651317596436,-0.27621257305145264,0.7205971479415894,-0.4737170934677124,-0.6442769765853882
3.547447919845581,0.16414207220077515,0.05823230743408203,0.00323331356048584,-0.7928870093094202,-1.1610380571862065,-3.050497078852878,-0.6436953544616699,0.7123823165893555,-0.2795851230621338,0.6134517788887024,-0.5676827430725098,-0.6639794707298279
3.5629091262817383,0.082111656665802,0.11521917581558228,-0.012275844812393188,-0.7749871797234242,-1.16813812997799,-3.04404850606416,-0.6572917699813843,0.6997069120407104,-0.27996036410331726,0.5204970836639404,-0.5446634292602539,-0.8048068881034851
3.581815004348755,0.056893110275268555,0.10163146257400513,0.04711553454399109,-0.7563082184927201,-1.174926818991634,-3.0415085533377755,-0.6711204648017883,0.6862407922744751,-0.28048327565193176,0.36356592178344727,-0.31446078419685364,-0.8425063490867615
3.6053528785705566,0.09726524353027344,0.06432747840881348,0.055540114641189575,-0.7383502920511172,-1.1808972546308296,-3.043253745386009,-0.6840725541114807,0.6730687618255615,-0.2811106741428375,0.23512528836727142,-0.20129676163196564,-0.8635761141777039
3.6244168281555176,0.13950419425964355,0.059548795223236084,0.0003598034381866455,-0.7202836216395018,-1.1875426349347373,-3.046045858983276,-0.6970909237861633,0.6595978736877441,-0.2810603678226471,0.2880105972290039,-0.3001714050769806,-0.908923864364624
3.644601821899414,0.141484797000885,0.03154706954956055,-0.0004999637603759766,-0.7000814212560976,-1.1957494899827061,-3.0477330899098045,-0.7116295695304871,0.644279956817627,-0.2801547944545746,0.3067711293697357,-0.3870556950569153,-1.0219148397445679
3.664383888244629,0.11943787336349487,-0.025541722774505615,0.05761212110519409,-0.6789862732088867,-1.2068671195129084,-3.0529237102877103,-0.7272413372993469,0.6280044317245483,-0.27700287103652954,0.019949357956647873,-0.3919028341770172,-1.0968188047409058
3.6852169036865234,0.08541691303253174,-0.0549616813659668,0.10408124327659607,-0.659261207728989,-1.2237321281861564,-3.068528141446407,-0.7433149218559265,0.6125330328941345,-0.26886075735092163,-0.4848936200141907,-0.31244218349456787,-1.1663974523544312
3.705070972442627,0.08047479391098022,-0.04132497310638428,0.09135627746582031,-0.641893685768476,-1.2430614520857175,-3.092723137399634,-0.758331298828125,0.5987132787704468,-0.25782957673072815,-0.6634707450866699,-0.1408933401107788,-1.0898230075836182
3.7253470420837402,0.14909034967422485,0.0328211784362793,0.03711313009262085,-0.6263760429150022,-1.2566341449970295,-3.1124951240944583,-0.7705046534538269,0.5862126350402832,-0.2503546178340912,-0.2919413447380066,-0.07946566492319107,-0.877953290939331
3.7451558113098145,0.2200208306312561,0.07221609354019165,-0.002408429980278015,-0.6122879094207638,-1.261545521329203,-3.1167287304127163,-0.7795149087905884,0.5747412443161011,-0.24905627965927124,0.3713951110839844,-0.18569080531597137,-0.5678204298019409
3.7647929191589355,0.21106880903244019,0.017098665237426758,0.013950765132904053,-0.5992609185583024,-1.260591594852038,-3.1058931968365537,-0.7863405346870422,0.5640323162078857,-0.2520640194416046,0.8224795460700989,-0.3193499743938446,-0.4662665128707886
3.784857988357544,0.16163736581802368,-0.07842451333999634,0.06339335441589355,-0.5845734175769512,-1.2574324779415311,-3.089267881108234,-0.793336033821106,0.5518437027931213,-0.2570730447769165,0.8992083668708801,-0.2894883155822754,-0.5053629279136658
3.803719997406006,0.16579419374465942,-0.15027505159378052,0.059978485107421875,-0.5696212865029817,-1.2551383315511497,-3.074214643213451,-0.800498902797699,0.5393131971359253,-0.2614248991012573,0.7336025238037109,-0.3245629370212555,-0.5439183115959167
3.823841094970703,0.18803203105926514,-0.15195882320404053,0.06720846891403198,-0.5551798286841277,-1.2573822578426168,-3.0655910452162987,-0.8084087371826172,0.527096152305603,-0.26200205087661743,0.3823579251766205,-0.3537081182003021,-0.5952633619308472
3.8446578979492188,0.20438188314437866,-0.13790810108184814,0.08698791265487671,-0.5421812353974724,-1.264559321519844,-3.0654534010876584,-0.8167324066162109,0.5160056352615356,-0.25823721289634705,0.08557451516389847,-0.3688124418258667,-0.6312667727470398
3.864865779876709,0.1672688126564026,-0.09661424160003662,0.055083125829696655,-0.5303373499854036,-1.2736454551225016,-3.0668138498953708,-0.8248310685157776,0.5058243870735168,-0.2525774836540222,0.2632008492946625,-0.5019271373748779,-0.5534132122993469
3.8847079277038574,0.09750932455062866,-0.05067947506904602,0.048016905784606934,-0.516220117316505,-1.2803812028299615,-3.060761347610695,-0.8332729339599609,0.4935963451862335,-0.2490360587835312,0.6460443735122681,-0.4754992127418518,-0.6574485301971436
3.904695987701416,0.17028039693832397,-0.07488825917243958,0.1047012209892273,-0.49972607275125847,-1.28333192911788,-3.047979254444184,-0.8416977524757385,0.4791851341724396,-0.24885086715221405,0.8468348383903503,-0.4289417266845703,-0.5861541032791138
3.923576831817627,0.22682756185531616,-0.12331798672676086,0.10214759409427643,-0.48517826467890546,-1.2853845907328518,-3.0337051254598086,-0.8488063812255859,0.4663660526275635,-0.24905908107757568,0.741104245185852,-0.47482621669769287,-0.4659983515739441
3.944525957107544,0.23590630292892456,-0.13545292615890503,0.08040846884250641,-0.4734547969798321,-1.289678298894297,-3.022300782476163,-0.8550622463226318,0.45596376061439514,-0.24691221117973328,0.5482169389724731,-0.44813859462738037,-0.3651445209980011
3.9646430015563965,0.2588427662849426,-0.10302785038948059,0.10313422977924347,-0.46455947357595934,-1.2947686055822052,-3.0158615370942217,-0.8601764440536499,0.4480290114879608,-0.24365226924419403,0.3322545886039734,-0.3583472669124603,-0.35728734731674194
3.9843177795410156,0.26812058687210083,-0.10808780789375305,0.08170968294143677,-0.4565130739230972,-1.2974346705329571,-3.0088787801405865,-0.8642663359642029,0.44082093238830566,-0.24232356250286102,0.5585124492645264,-0.2526884078979492,-0.23657037317752838
4.004242897033691,0.2129412293434143,-0.04295739531517029,0.04326450824737549,-0.447008744996666,-1.2951836758459263,-2.9925166755280066,-0.8677112460136414,0.4322701394557953,-0.24539755284786224,1.0988355875015259,-0.20935317873954773,-0.3163652718067169
4.024301052093506,0.15552669763565063,-0.018879592418670654,0.0797983705997467,-0.4325237302091507,-1.2886750820875,-2.9698869662342644,-0.872018575668335,0.41916346549987793,-0.25275665521621704,1.2256481647491455,-0.11223533004522324,-0.5227282643318176
4.041243076324463,0.1576487421989441,-0.09716296195983887,0.07941430807113647,-0.4159542278861484,-1.2826711044333932,-2.9504986906944737,-0.8770244717597961,0.40406298637390137,-0.2599256634712219,0.9117071628570557,-0.11667392402887344,-0.5175895690917969
4.063352108001709,0.11047154664993286,-0.095456063747406,0.025945216417312622,-0.4020367684054972,-1.2810662308333176,-2.937646761618944,-0.8819103240966797,0.3912935256958008,-0.26291412115097046,0.6242249608039856,-0.22835713624954224,-0.5340185761451721
4.084106922149658,0.019137799739837646,-0.013173460960388184,0.02243003249168396,-0.3868230644596323,-1.2822322327351332,-2.9294414237819715,-0.8878206610679626,0.3772481381893158,-0.2635492980480194,0.6108152866363525,-0.23181001842021942,-0.6833179593086243
4.10421895980835,-0.026361823081970215,0.008449554443359375,0.019596606492996216,-0.3689105314999873,-1.2833232271821804,-2.9204184305818677,-0.8944450616836548,0.36059948801994324,-0.2644542455673218,0.748339056968689,-0.21656900644302368,-0.7977326512336731
4.124298095703125,-0.1308307647705078,0.02467036247253418,-0.04588514566421509,-0.34738684843892714,-1.283401181744015,-2.905899796729009,-0.9017010927200317,0.34044191241264343,-0.266523152589798,1.1491285562515259,-0.26377514004707336,-0.8962656855583191
4.14386510848999,-0.2762886881828308,0.11624479293823242,-0.0065531134605407715,-0.32170999190231525,-1.2810513928738692,-2.885589026923739,-0.9091514348983765,0.3161892890930176,-0.2710498869419098,1.4163693189620972,-0.153786763548851,-1.0159180164337158
4.164053916931152,-0.4493827819824219,0.10781991481781006,0.057177841663360596,-0.2929113238163625,-1.2767318575354722,-2.864747728768193,-0.9163094758987427,0.28874075412750244,-0.27749937772750854,1.2761059999465942,-0.030533719807863235,-1.173487663269043
4.183711051940918,-0.5829761028289795,0.005681335926055908,0.17620638012886047,-0.2646708007019641,-1.269157067290785,-2.8494069216673843,-0.9216015338897705,0.2615915536880493,-0.28674089908599854,0.8862863183021545,0.3743527829647064,-1.0584865808486938
4.202569961547852,-0.8092058897018433,0.012922167778015137,0.14644327759742737,-0.24070781744712497,-1.2600313228696391,-2.84104300706024,-0.9246504902839661,0.23839010298252106,-0.2969711124897003,0.7116160988807678,0.32989147305488586,-0.9974868893623352
4.22376012802124,-0.7885403037071228,0.08841143548488617,0.25734034180641174,-0.2182955291974885,-1.2493328424791141,-2.8326704894990717,-0.9262576699256897,0.21656592190265656,-0.3084571361541748,0.7836259007453918,0.636502742767334,-0.806997537612915
4.243754863739014,-0.5936427712440491,0.06182388961315155,0.36659154295921326,-0.2040701149433445,-1.2287787033084727,-2.8203361855859312,-0.9225316047668457,0.20265665650367737,-0.3284291625022888,0.8533416986465454,1.1670821905136108,-0.1129348948597908
4.263711929321289,-0.6513842940330505,0.06701312959194183,0.34447479248046875,-0.2002683090508703,-1.196645938689873,-2.8015799966805024,-0.912214457988739,0.19893229007720947,-0.3581770360469818,1.1120121479034424,1.6436015367507935,0.2608402669429779
4.283651828765869,-0.694260835647583,0.014481872320175171,0.2871757745742798,-0.19903363157597279,-1.1574535789109501,-2.772886801579699,-0.8977040648460388,0.19772213697433472,-0.3937430679798126,1.4162452220916748,1.6549922227859497,0.7319309115409851
4.304166793823242,-0.6944087147712708,-0.20374122262001038,0.37897181510925293,-0.2063936704133051,-1.1163005689377936,-2.7397614630284353,-0.8794134855270386,0.20493145287036896,-0.42969197034835815,1.0022273063659668,1.8011986017227173,1.4613142013549805
4.325776100158691,-0.666850209236145,-0.39982128143310547,0.34460413455963135,-0.22846373795156544,-1.0808058118645927,-2.7149669054906664,-0.859410285949707,0.22648145258426666,-0.4583887755870819,0.2071298360824585,1.2605259418487549,1.7048183679580688
4.344180107116699,-0.566580593585968,-0.33961373567581177,0.32821184396743774,-0.2631891738524939,-1.0609560465370822,-2.700758759808391,-0.8427670001983643,0.26016122102737427,-0.4712323844432831,-0.6791843771934509,0.34988677501678467,1.8979960680007935
4.36260986328125,-0.5673749446868896,-0.22918429970741272,0.2786850929260254,-0.30630902090306183,-1.0609815436031698,-2.6982264874674415,-0.832207202911377,0.3015415370464325,-0.4652999937534332,-1.0260818004608154,-0.2720361053943634,2.074307680130005
4.383155822753906,-0.7787171006202698,-0.13578513264656067,0.2323693335056305,-0.3557345232758409,-1.0617579794932397,-2.692077768990332,-0.81854248046875,0.3482789993286133,-0.45682597160339355,-0.9224298596382141,0.0895165279507637,2.463662624359131
4.403318881988525,-0.9374918937683105,-0.09769260883331299,0.11407184600830078,-0.4078567869916452,-1.0543294600014261,-2.6826909308339584,-0.7982411980628967,0.3966428339481354,-0.45330512523651123,-0.8536739349365234,0.1212591901421547,2.4975075721740723
4.421678066253662,-0.8598202466964722,-0.102688729763031,0.11106938123703003,-0.4589994099092375,-1.049463203711994,-2.671686221365395,-0.7774021625518799,0.4430513083934784,-0.44648799300193787,-0.9299482703208923,0.004438647069036961,2.4046807289123535
4.443005084991455,-0.8510102033615112,-0.20060035586357117,0.14320969581604004,-0.506512977654901,-1.046518728012867,-2.664886640893544,-0.7569916248321533,0.48513099551200867,-0.4377347528934479,-0.8500477075576782,-0.09998753666877747,2.0625088214874268
4.462973117828369,-0.6337854862213135,-0.13953810930252075,0.022307395935058594,-0.5494799212253337,-1.0460918485152024,-2.6558402182730867,-0.7380712628364563,0.5222437977790833,-0.42721444368362427,-0.6588951945304871,-0.25812700390815735,2.0845768451690674
4.482867002487183,-0.7019565105438232,-0.10122501850128174,0.02874600887298584,-0.5902241999395412,-1.0468642953481255,-2.6477830662551645,-0.7193692922592163,0.5565472841262817,-0.4156477749347687,-0.848802387714386,-0.2432565540075302,1.7701514959335327
4.502831935882568,-0.6341502070426941,-0.15261948108673096,0.024727553129196167,-0.6294123886281237,-1.0541637577408396,-2.650816095247839,-0.7028707265853882,0.5886698365211487,-0.3993001878261566,-1.3325880765914917,-0.3618929088115692,1.500968098640442
4.523366928100586,-0.5363137125968933,-0.1140589714050293,0.06182771921157837,-0.6674724675033954,-1.0727809786338882,-2.6688298811400486,-0.6899895071983337,0.6190028786659241,-0.3751668334007263,-1.7129079103469849,-0.37041565775871277,1.1640617847442627
4.542970895767212,-0.5039445161819458,-0.023952841758728027,-0.02041637897491455,-0.7022230245737479,-1.0958635727616475,-2.694481206715487,-0.6789169311523438,0.6459163427352905,-0.3490903079509735,-1.6033470630645752,-0.3593635559082031,0.9603255391120911
4.562840938568115,-0.43801385164260864,0.11912202835083008,-0.10945111513137817,-0.7299847004764627,-1.118388044767299,-2.7163055077239298,-0.6702167987823486,0.6668582558631897,-0.3257446587085724,-1.1196768283843994,-0.4880564510822296,0.7677918076515198
4.582502841949463,-0.358376681804657,0.13410943746566772,-0.07324236631393433,-0.7506076059889136,-1.1395673445757102,-2.7320348749962053,-0.6643284559249878,0.6820831894874573,-0.30566373467445374,-0.8995216488838196,-0.5505440831184387,0.6263704895973206
4.602418899536133,-0.309522807598114,0.06712299585342407,-0.03145080804824829,-0.7689189395767304,-1.1641273195982118,-2.7503758134731484,-0.6600512266159058,0.6953587532043457,-0.28426867723464966,-1.1088250875473022,-0.6443390250205994,0.495277464389801
4.622638940811157,-0.2522425651550293,0.006024301052093506,0.015440791845321655,-0.7865910853211937,-1.1982155545955946,-2.780225063579986,-0.6578069925308228,0.7079498171806335,-0.2570941150188446,-1.4873251914978027,-0.6710096001625061,0.2947394549846649
4.64170503616333,-0.22113054990768433,0.009530782699584961,0.07914108037948608,-0.799687836865459,-1.2388696756175865,-2.8206884817730713,-0.658889651298523,0.7171385884284973,-0.22710540890693665,-1.5961906909942627,-0.4875524938106537,-0.06686387211084366
4.661479949951172,-0.153608500957489,-0.012867510318756104,0.0776519924402237,-0.804382174211254,-1.2782784102427764,-2.864185513087518,-0.6640948057174683,0.7204023003578186,-0.19999678432941437,-1.444684386253357,-0.33631786704063416,-0.35099950432777405
4.682300090789795,-0.021034538745880127,-0.002310037612915039,0.05982120335102081,-0.8033948854091241,-1.3150378109756886,-2.907069775453319,-0.6716839671134949,0.7197172045707703,-0.17563527822494507,-1.4760315418243408,-0.2289973646402359,-0.5086317658424377
4.702218055725098,0.018657922744750977,0.054507315158843994,-0.02543264627456665,-0.7995874652972761,-1.3521022045644635,-2.9534068998176504,-0.6804012060165405,0.717068612575531,-0.1512182354927063,-1.5196300745010376,-0.1324291080236435,-0.650557816028595
4.7215118408203125,0.07288902997970581,0.1201256513595581,-0.1278126835823059,-0.7907532920673143,-1.3881979297414748,-3.0006981371966126,-0.6916177868843079,0.7108832597732544,-0.12771084904670715,-1.5254243612289429,-0.12675434350967407,-0.8613322377204895
4.742382049560547,0.17044180631637573,0.07858705520629883,-0.14332769811153412,-0.7799699136542146,-1.4217237526261126,-3.047819060072788,-0.7030498385429382,0.7032580375671387,-0.10558876395225525,-1.6418145895004272,0.0994391068816185,-0.7596802711486816
4.761919021606445,0.19053155183792114,0.11783981323242188,-0.19027382135391235,-0.7688387397781492,-1.4548470748678428,-3.09844809975298,-0.7138928771018982,0.6953011155128479,-0.0831483006477356,-1.7422075271606445,0.19618792831897736,-0.8000345826148987
4.782031059265137,0.2274608016014099,0.14364445209503174,-0.23232996463775635,-0.7570351589522063,-1.4834409805740456,3.136788167991636,-0.7241039276123047,0.686769425868988,-0.06341574341058731,-1.5344094038009644,0.2737133502960205,-0.7169544696807861
4.801137924194336,0.27714914083480835,0.17666268348693848,-0.23190313577651978,-0.7460939687928254,-1.5047761091014693,3.0962226623301095,-0.7327461838722229,0.6787755489349365,-0.04844646900892258,-1.362036943435669,0.31059589982032776,-0.6266950964927673
4.821784019470215,0.34884196519851685,0.17190057039260864,-0.2092875838279724,-0.7383315521348808,-1.5226216682965037,3.0601931984918247,-0.7387346029281616,0.6730548739433289,-0.03561584651470184,-1.265052080154419,0.28750577569007874,-0.2842205762863159
4.841609954833984,0.35770583152770996,0.23202913999557495,-0.2047710418701172,-0.7356818521077507,-1.5406781958389162,3.0275896355375247,-0.7410372495651245,0.6710928082466125,-0.022325407713651657,-1.088576078414917,0.12402389943599701,-0.06999749690294266
4.861723899841309,0.41056394577026367,0.16747277975082397,-0.1851605772972107,-0.7374691881536216,-1.5560908079603357,3.002435479195738,-0.740092933177948,0.6724168062210083,-0.010884234681725502,-0.7553942799568176,0.03972660005092621,0.20650769770145416
4.882620811462402,0.36520177125930786,0.17643088102340698,-0.1766519546508789,-0.7430892048917557,-1.565513853409644,2.987085366353277,-0.7363718748092651,0.676565945148468,-0.0038899010978639126,-0.349863737821579,0.021999619901180267,0.3197956383228302
4.901015996932983,0.3731565475463867,0.14218491315841675,-0.19346994161605835,-0.7513749260695745,-1.567231014410845,2.9839948891149897,-0.730746328830719,0.6826441287994385,-0.00260534998960793,0.04065856337547302,0.05355647951364517,0.5328429341316223
4.921983957290649,0.398267924785614,0.11109340190887451,-0.14869964122772217,-0.7637586557656743,-1.5645255863630319,2.9858091979664514,-0.7222273349761963,0.6916409730911255,-0.00452895974740386,0.09858209639787674,0.11318793892860413,0.6994946599006653
4.941772937774658,0.4477047324180603,0.08413887023925781,-0.11905646324157715,-0.7783861464267091,-1.5595133673090549,2.98860820369702,-0.7120022177696228,0.7021312117576599,-0.008033833466470242,0.1214439645409584,0.20649418234825134,0.7842754125595093
4.961057901382446,0.5593467950820923,0.006243526935577393,-0.09380960464477539,-0.7953717473242073,-1.551981976553919,2.993386150261369,-0.6998955607414246,0.7141239047050476,-0.013169635087251663,0.22660434246063232,0.2098863422870636,0.9398062229156494
4.98114800453186,0.6080848574638367,-0.02174931764602661,-0.05589240789413452,-0.8166508634621841,-1.5418192641169144,3.0006538781999708,-0.6843789219856262,0.7288568615913391,-0.019836843013763428,0.23195645213127136,0.24106787145137787,1.1217812299728394
5.001065969467163,0.6105223298072815,-0.04432392120361328,-0.002807978540658951,-0.8397002211944546,-1.53063311599326,3.0082752270178537,-0.6671478152275085,0.7444429993629456,-0.026809215545654297,0.1692986637353897,0.3289090692996979,1.2169713973999023
5.0214409828186035,0.6429451107978821,-0.06997495889663696,0.01232403889298439,-0.864641016460162,-1.5176132749861362,3.0162255059262324,-0.6479957699775696,0.7608623504638672,-0.03449492156505585,0.21139870584011078,0.3371986746788025,1.3084800243377686
5.041115999221802,0.6941730976104736,-0.02289724349975586,-0.007803440093994141,-0.8906164450228226,-1.502384480878687,3.03015882580385,-0.6274617314338684,0.7774596214294434,-0.042992908507585526,0.5459860563278198,0.10788079351186752,1.3626596927642822
5.061768054962158,0.7364104390144348,-0.05815303325653076,-0.01912093162536621,-0.9161453295439108,-1.4836797388772056,3.05582165533519,-0.6065735220909119,0.7932604551315308,-0.05297670140862465,0.8376575708389282,-0.2957138121128082,1.2765820026397705
5.082086086273193,0.7721152305603027,-0.15642547607421875,0.07214105874300003,-0.9397767482399162,-1.4624266454262065,3.0927039687845763,-0.5865073800086975,0.807426393032074,-0.0638096034526825,1.1123350858688354,-0.29972293972969055,1.4500138759613037
5.1010661125183105,0.7459387183189392,-0.3380129933357239,0.13787180185317993,-0.9662396035958958,-1.430375904723013,3.1344813530436118,-0.562802791595459,0.8227541446685791,-0.079552561044693,0.9064509868621826,-0.033866219222545624,1.238983392715454
5.121140956878662,0.7550691962242126,-0.394953191280365,0.09851568937301636,-0.984347188032849,-1.4034144523265222,-3.1141426609554546,-0.5456729531288147,0.8329110145568848,-0.09219840168952942,0.8075149059295654,-0.14818774163722992,0.9448621273040771
5.141117095947266,0.7733973860740662,-0.33497822284698486,0.04232972860336304,-0.9946982316047863,-1.3789809904740769,-3.076765215227771,-0.5347653031349182,0.8385946154594421,-0.1038530096411705,1.1383236646652222,-0.6145873665809631,0.4396573603153229
5.161129951477051,0.7478252649307251,-0.2469446063041687,-0.05078577995300293,-0.99373617631985,-1.3543167968652523,-3.023059110318769,-0.5328290462493896,0.8380701541900635,-0.11718285083770752,1.741281509399414,-1.5316771268844604,-0.005111227743327618
5.181188106536865,0.6580068469047546,-0.07633066177368164,0.2707113027572632,-0.9880177078827933,-1.324169064460457,-2.9460769498791444,-0.5336935520172119,0.8349366784095764,-0.13435861468315125,2.402143716812134,-1.1748085021972656,0.7898435592651367
5.2011189460754395,0.22495073080062866,-0.141845703125,0.33354634046554565,-0.9897552248461782,-1.2678638616860882,-2.868771411191165,-0.5239009857177734,0.8358916640281677,-0.1637464165687561,1.668529987335205,-0.14448444545269012,-0.07423090189695358
5.221095085144043,0.21061331033706665,-0.17407476902008057,0.06028783321380615,-0.9674527025195163,-1.2296186319924807,-2.81932144265111,-0.5346948504447937,0.8234430551528931,-0.1898500770330429,1.6530321836471558,-0.14028337597846985,-0.7695725560188293
5.241098880767822,0.5877568125724792,-0.24454855918884277,-0.02249494194984436,-0.938930131073507,-1.2012117870618073,-2.7704165139849866,-0.5507696270942688,0.8069266676902771,-0.21336005628108978,2.121716022491455,-1.2570019960403442,-1.0411704778671265
5.262639045715332,0.4590880274772644,-0.22716164588928223,0.15959924459457397,-0.899782957708478,-1.1901129472750354,-2.7122635247067213,-0.5772674083709717,0.783191978931427,-0.23102550208568573,2.6549956798553467,-1.7796564102172852,-1.0808485746383667
5.281177043914795,-0.0013607144355773926,-0.3703996539115906,0.5478565692901611,-0.863504661962457,-1.1550790507047461,-2.6452948909781355,-0.5944340229034424,0.7601245045661926,-0.2624102532863617,2.6933250427246094,0.3324393332004547,-0.8570515513420105
5.301109790802002,-0.5625625252723694,-0.2915193438529968,0.3383304178714752,-0.8195446946832429,-1.087224873817104,-2.588819239995518,-0.6042923927307129,0.7308351397514343,-0.3173494338989258,2.5513572692871094,1.7354735136032104,-1.7564175128936768
5.321104049682617,-0.5437695384025574,0.04265636205673218,-0.15423452854156494,-0.7566858095692149,-1.036942085986942,-2.5547401434211587,-0.6259388327598572,0.6865154504776001,-0.3699962794780731,2.85831880569458,0.4135599434375763,-2.367976188659668
5.341118812561035,-0.27403736114501953,-0.0270269513130188,-0.565276026725769,-0.6860523181322934,-1.01562305405578,-2.5089209448401797,-0.6575422883033752,0.6334875822067261,-0.4078378677368164,3.5329720973968506,-1.1898339986801147,-1.9693381786346436
5.361106872558594,-0.9288986325263977,0.08342868089675903,-0.24102872610092163,-0.6106699960103219,-1.02199343212554,-2.468319670947579,-0.6989548802375793,0.5734164714813232,-0.4273824989795685,3.0954997539520264,-1.7769792079925537,-2.7521514892578125
5.381124973297119,-1.0441007614135742,0.12451350688934326,-0.3500407040119171,-0.5317384201849978,-1.04435174714095,-2.442720534298305,-0.7452211976051331,0.5070325136184692,-0.43308597803115845,2.9022579193115234,-1.7811293601989746,-2.770136833190918
5.400954961776733,-1.0223124027252197,0.2008109986782074,-0.47869449853897095,-0.4595073777556286,-1.0636089825828001,-2.4147148098515627,-0.7834432125091553,0.4435066282749176,-0.4353373050689697,2.728144407272339,-1.4207028150558472,-2.3096981048583984
5.4211320877075195,-0.8622469305992126,0.2277846336364746,-0.3030387759208679,-0.40477580871457547,-1.0787538810452144,-2.398921994341189,-0.8101469874382019,0.3938126862049103,-0.4342505633831024,0.8075355291366577,-0.7365361452102661,-1.832746148109436
5.441167831420898,-0.6620603799819946,0.0167543888092041,0.15753120183944702,-0.3850714906758164,-1.1011279090971955,-2.435981613562102,-0.8264193534851074,0.3756254017353058,-0.4194481670856476,-3.0252861976623535,-0.14170771837234497,-1.4999746084213257
5.461306095123291,-0.37935805320739746,-0.2004784345626831,0.3270082473754883,-0.40282855436451964,-1.1403844782728303,-2.533710263032449,-0.8360503911972046,0.392022043466568,-0.38384711742401123,-5.356549263000488,-0.12694086134433746,-0.7542314529418945
5.48122501373291,-0.2238343358039856,-0.22760802507400513,0.11110329627990723,-0.4354201306114121,-1.1855939110710492,-2.6327495941182946,-0.840252697467804,0.4217913746833801,-0.3406869173049927,-3.692411422729492,-0.3921988904476166,0.09088108688592911
5.501309871673584,-0.17001092433929443,-0.05514523386955261,-0.07721832394599915,-0.4555334024839497,-1.2109780875610963,-2.6689300195668277,-0.8405176401138306,0.4399413764476776,-0.31619885563850403,-0.11962127685546875,-0.5024886727333069,0.546186089515686
5.521637916564941,-0.1963270902633667,-0.13532599806785583,0.086812824010849,-0.45938943879959787,-1.2075519441421898,-2.643742235702636,-0.8378373980522156,0.44340091943740845,-0.3184715807437897,1.7086946964263916,-0.17967703938484192,0.51218181848526
5.5412068367004395,-0.2983240485191345,-0.45151442289352417,0.23700106143951416,-0.4552352352268661,-1.1887996858454053,-2.6059782319501203,-0.83342045545578,0.43967360258102417,-0.3348097801208496,1.2953996658325195,0.36560875177383423,0.43275463581085205
5.56354284286499,-0.2489931583404541,-0.5345583558082581,0.2587251365184784,-0.4618609623622058,-1.1743497204033662,-2.5937213437297757,-0.8257902264595032,0.44561484456062317,-0.34568479657173157,-0.6219298839569092,0.4892154633998871,0.5736774206161499
5.582993984222412,-0.23573434352874756,-0.4539063274860382,0.1972997784614563,-0.4848926236634741,-1.1768885955843702,-2.6193409873327416,-0.816969633102417,0.4661133587360382,-0.33955731987953186,-2.1450114250183105,0.4840341806411743,0.7261079549789429
5.601251125335693,-0.2722746729850769,-0.29295679926872253,0.12950420379638672,-0.5186410710883198,-1.1874402095156678,-2.666124742772409,-0.8054537177085876,0.4957003891468048,-0.32484710216522217,-2.77160906791687,0.7186134457588196,0.7825039625167847
5.621180057525635,-0.26596635580062866,-0.2099924087524414,0.04185432195663452,-0.5517412443372468,-1.198879181715157,-2.718158248193037,-0.7933904528617859,0.5241708755493164,-0.30947810411453247,-2.5620367527008057,0.8109871745109558,0.7193212509155273
5.641179084777832,-0.22010201215744019,-0.20468652248382568,0.07867875695228577,-0.5827943905638352,-1.2022373212187278,-2.7612647662092176,-0.7788605690002441,0.5503591895103455,-0.3008008897304535,-1.9794236421585083,1.1483652591705322,0.825971782207489
5.661183834075928,-0.26187312602996826,-0.2134363055229187,0.12503856420516968,-0.6109370815792744,-1.19610557844004,-2.796700220535171,-0.762281596660614,0.5736352801322937,-0.29978206753730774,-1.855402946472168,1.4188369512557983,0.7516545057296753
5.68032693862915,-0.26252317428588867,-0.22211110591888428,0.10961398482322693,-0.6370064981811991,-1.1888247231126343,-2.8337567237562538,-0.7459455132484436,0.5947917103767395,-0.29964679479599,-1.878393292427063,1.515391230583191,0.6052703261375427
5.701181888580322,-0.18622028827667236,-0.2145627737045288,0.1263115406036377,-0.6629075235822346,-1.1812991673830582,-2.872646375071596,-0.7291697859764099,0.6154111623764038,-0.29930031299591064,-1.9829676151275635,1.5766363143920898,0.6137106418609619
5.721193790435791,-0.17462271451950073,-0.21331411600112915,0.09374284744262695,-0.6871278095722971,-1.1753984828638488,-2.9126854959677813,-0.7134236693382263,0.6343193650245667,-0.2977679967880249,-1.804017186164856,1.522958755493164,0.4709872007369995
5.741195917129517,-0.15951257944107056,-0.22970980405807495,0.10008585453033447,-0.7092293309841532,-1.1708551136088376,-2.950626809258583,-0.698977530002594,0.6512491106987,-0.2954745292663574,-1.7917048931121826,1.3940918445587158,0.4359898865222931
5.761215925216675,-0.22217494249343872,-0.2626965045928955,0.1343095302581787,-0.7294495458405993,-1.1692582703070995,-2.9922839944418063,-0.686241865158081,0.666459321975708,-0.29138338565826416,-1.8728888034820557,1.5390076637268066,0.2147861123085022
5.781193971633911,-0.18153834342956543,-0.24876034259796143,0.14070558547973633,-0.7466867674263848,-1.1689817288635944,-3.0396883967328727,-0.6754869222640991,0.6792107820510864,-0.2870372533798218,-2.015831470489502,1.693562388420105,0.03792649134993553
5.801213979721069,-0.14335811138153076,-0.20592111349105835,0.11598518490791321,-0.7615396605951814,-1.1694957436065632,-3.0918014432729293,-0.6662732362747192,0.6900366544723511,-0.28271782398223877,-2.09700083732605,1.836704969406128,-0.12374474853277206
5.821210861206055,-0.1275147795677185,-0.15841716527938843,0.08365535736083984,-0.7744113924297985,-1.1715090976699467,3.134626736914966,-0.6586028933525085,0.6992954611778259,-0.2778996527194977,-2.206157922744751,1.9391623735427856,-0.22776316106319427
5.841216087341309,-0.0837475061416626,-0.11001241207122803,0.08401358127593994,-0.7864739297446747,-1.175404909476782,3.073408318642311,-0.6518482565879822,0.7078670263290405,-0.2720628082752228,-2.2388134002685547,2.017873525619507,-0.30425724387168884
5.861203908920288,-0.04755526781082153,-0.07476109266281128,0.08343389630317688,-0.7981814494309216,-1.179513183387798,3.010053415273796,-0.6452548503875732,0.7160879373550415,-0.26620355248451233,-2.3466668128967285,2.094778537750244,-0.333063542842865
5.88129186630249,-0.05529302358627319,-0.03927159309387207,0.08481937646865845,-0.8082714068168491,-1.1840428008824178,2.94356783926656,-0.6397296786308289,0.7230942249298096,-0.2605394721031189,-2.344618558883667,2.259436845779419,-0.4596790671348572
5.901219844818115,-0.03438925743103027,0.005130946636199951,0.09289422631263733,-0.8163471210058786,-1.1877662949501273,2.873893275878416,-0.6352580189704895,0.7286489009857178,-0.2559647560119629,-2.387362003326416,2.4356398582458496,-0.5725980401039124
5.921219825744629,0.006933987140655518,0.014980673789978027,0.08132955431938171,-0.8225498710842364,-1.1911221786213597,2.8032633034961147,-0.6319035291671753,0.7328830361366272,-0.25215157866477966,-2.3201522827148438,2.4565417766571045,-0.6367102265357971
5.941251993179321,0.051811039447784424,0.030659735202789307,0.08631223440170288,-0.8280488896976592,-1.1928297421766645,2.7338794744212693,-0.6285781264305115,0.7366132140159607,-0.2495812326669693,-2.280541181564331,2.477228879928589,-0.6005668044090271
5.961281776428223,0.09306889772415161,0.03668546676635742,0.07418903708457947,-0.8331190031124025,-1.1935613202935178,2.666476035505941,-0.6252803802490234,0.7400327324867249,-0.2477424442768097,-2.160738706588745,2.4380619525909424,-0.5823357105255127
5.981228828430176,0.1142231822013855,0.08641672134399414,0.06412029266357422,-0.8377547094049668,-1.195225590259575,2.601474140949677,-0.62249356508255,0.7431426048278809,-0.24544043838977814,-2.0350444316864014,2.267359733581543,-0.6299564242362976
6.001278877258301,0.1099015474319458,0.09894317388534546,0.06070311367511749,-0.8399479956223388,-1.1961770386280213,2.5402954542765364,-0.6212083697319031,0.7446084022521973,-0.24425101280212402,-1.914122223854065,2.1743292808532715,-0.6613048911094666
6.021238803863525,0.10427188873291016,0.15782922506332397,0.082604318857193,-0.8391904867341985,-1.1980956231580568,2.480353658626687,-0.622201144695282,0.7441025376319885,-0.2432641088962555,-1.765367031097412,2.1313323974609375,-0.8775151968002319
6.041248798370361,0.14128857851028442,0.16145920753479004,0.07188519835472107,-0.8345226532949145,-1.1972464877794704,2.42514968307039,-0.6252211332321167,0.7409760355949402,-0.2450571060180664,-1.549584984779358,2.061737060546875,-0.8838744759559631
6.0612499713897705,0.17336249351501465,0.17994320392608643,0.07356816530227661,-0.8291225203861886,-1.1943132710151352,2.3758299867129593,-0.6282118558883667,0.7373389005661011,-0.24835754930973053,-1.3359131813049316,1.9203262329101562,-0.8231140375137329
6.081208944320679,0.15975648164749146,0.23271328210830688,0.06379163265228271,-0.82413641007491,-1.1887771812876124,2.333007041844068,-0.6302308440208435,0.7339615225791931,-0.25319892168045044,-1.203445553779602,1.7858232259750366,-0.7370654940605164
6.101289987564087,0.13331836462020874,0.25767672061920166,0.0531691312789917,-0.8192739268808796,-1.1835246588371204,2.293376916885699,-0.6321892738342285,0.7306503057479858,-0.2578504979610443,-1.1464669704437256,1.6527196168899536,-0.7049172520637512
6.121254920959473,0.14955288171768188,0.23340946435928345,0.07055705785751343,-0.8164037920957542,-1.179992087708151,2.2543659833169913,-0.6332108378410339,0.7286877036094666,-0.2608799338340759,-1.2303013801574707,1.5623244047164917,-0.5714720487594604
6.141302108764648,0.18468207120895386,0.1826704740524292,0.08469751477241516,-0.8161415262977743,-1.1768839415114756,2.2169829141602073,-0.6325733661651611,0.7285080552101135,-0.2629201114177704,-1.1004900932312012,1.485174536705017,-0.4119304120540619
6.161306858062744,0.2466346025466919,0.13395929336547852,0.11241567134857178,-0.8180666159254383,-1.169794965647218,2.187055125127791,-0.6294013857841492,0.729825496673584,-0.2668498754501343,-0.8659676909446716,1.3781806230545044,-0.21004782617092133
6.181268930435181,0.27824437618255615,0.07820844650268555,0.12446233630180359,-0.8206298639992192,-1.1594060241258335,2.166263512251092,-0.6248783469200134,0.7315753698348999,-0.2726251184940338,-0.5330042839050293,1.1843477487564087,-0.12048264592885971
6.2012670040130615,0.2521638870239258,0.05467939376831055,0.12721574306488037,-0.8220635329525322,-1.1473426255463017,2.1541196453887133,-0.6205874681472778,0.7325520515441895,-0.27971208095550537,-0.3297274708747864,0.9052227735519409,-0.09711477160453796
6.2212769985198975,0.1645209789276123,0.0723223090171814,0.13633102178573608,-0.8219907306420926,-1.1373642085462716,2.145535860724489,-0.6178139448165894,0.7325025200843811,-0.2859129309654236,-0.2122960388660431,0.7784448266029358,-0.15501689910888672
6.241273880004883,0.09651225805282593,0.07773751020431519,0.1813751757144928,-0.8210299992150735,-1.127976789496755,2.13652615345701,-0.6157385110855103,0.7318481206893921,-0.2920013964176178,-0.32550811767578125,0.8308755159378052,-0.1926148533821106
6.261303901672363,0.07647383213043213,0.06249576807022095,0.19382625818252563,-0.8209600665206827,-1.1202919642097136,2.1237722746626337,-0.6135222911834717,0.7318004965782166,-0.29674679040908813,-0.4504818916320801,0.8705072999000549,-0.18047910928726196
6.2812819480896,0.08671581745147705,0.07059144973754883,0.1821618378162384,-0.8221350109191214,-1.1143039471615936,2.108896253081184,-0.6109621524810791,0.7326006889343262,-0.3000360131263733,-0.47672802209854126,0.8008164167404175,-0.163172647356987
6.30128812789917,0.08880233764648438,0.09026765823364258,0.14406684041023254,-0.8233125133754097,-1.1089618992319865,2.0962322169795584,-0.6085777878761292,0.7334016561508179,-0.30291080474853516,-0.3311120271682739,0.6705789566040039,-0.1153164729475975
6.321356773376465,0.08119446039199829,0.11042070388793945,0.13275626301765442,-0.8240591695217216,-1.101980209128325,2.0885218429789876,-0.6059594750404358,0.7339090704917908,-0.3069048225879669,-0.16464954614639282,0.6133508086204529,-0.056497711688280106
6.341375827789307,0.06782692670822144,0.10992676019668579,0.12378320097923279,-0.8240900106972727,-1.090878451254132,2.086666617727389,-0.6024949550628662,0.7339299917221069,-0.3136025071144104,0.03553454577922821,0.6368927955627441,-0.0017871854361146688
6.361298084259033,0.06650173664093018,0.08494758605957031,0.1364043653011322,-0.8233272354136087,-1.0761901724407568,2.0889953503147134,-0.5983163714408875,0.7334116697311401,-0.3226836025714874,0.12141761928796768,0.6710107326507568,-0.0008511953637935221
6.381298065185547,0.06147521734237671,0.033278703689575195,0.14203688502311707,-0.8219406914518352,-1.0609624368662913,2.0913384766586955,-0.594220757484436,0.7324684262275696,-0.33225297927856445,0.05323018878698349,0.6753799915313721,-0.0647277981042862
6.401330947875977,0.061963021755218506,0.022602498531341553,0.12704986333847046,-0.8196946938521879,-1.048410648573639,2.0902646254884285,-0.5914278030395508,0.7309374809265137,-0.34050506353378296,-0.008911959826946259,0.6503002047538757,-0.1528833955526352
6.4213080406188965,0.08927983045578003,0.04747211933135986,0.1047658622264862,-0.8174870827814295,-1.0388636617342795,2.0866047240472083,-0.5895393490791321,0.7294291853904724,-0.346953421831131,-0.10599169135093689,0.5738546252250671,-0.16249938309192657
6.441343784332275,0.09566020965576172,0.08697521686553955,0.08216285705566406,-0.816397448265974,-1.0333666769603445,2.080102262143446,-0.5883055925369263,0.728683352470398,-0.3505954444408417,-0.20075422525405884,0.46939194202423096,-0.15383484959602356
6.4613118171691895,0.11097729206085205,0.0936133861541748,0.0670255720615387,-0.8165523978443918,-1.0299453545585957,2.0723090305923386,-0.5870057940483093,0.7287894487380981,-0.3525480031967163,-0.2824992835521698,0.42853638529777527,-0.11324802786111832
6.481316089630127,0.13629883527755737,0.10038721561431885,0.05345240235328674,-0.8172227466558484,-1.0283850043782108,2.0636096885562627,-0.5860364437103271,0.7292482852935791,-0.35321125388145447,-0.22488969564437866,0.37285760045051575,-0.13620752096176147
6.50131893157959,0.17772817611694336,0.08884221315383911,0.03504374623298645,-0.8158993934589485,-1.0257582805326666,2.058065407442422,-0.5859313011169434,0.7283421754837036,-0.35524940490722656,-0.039323050528764725,0.2836180031299591,-0.1588759869337082
6.521353006362915,0.22011798620224,0.06710469722747803,0.029588758945465088,-0.8127557157252183,-1.022723418287212,2.0563472450393445,-0.586802065372467,0.7261844873428345,-0.35821732878685,0.09352031350135803,0.1435691863298416,-0.1817222237586975
6.5413289070129395,0.22526103258132935,0.08190310001373291,0.024677246809005737,-0.8078228819686671,-1.021375416159147,2.0563888942877555,-0.5893662571907043,0.7227843403816223,-0.36087411642074585,0.20186825096607208,0.022367136552929878,-0.24929532408714294
6.5613250732421875,0.21635812520980835,0.08267951011657715,0.006580054759979248,-0.8005666388784982,-1.0200099561673732,2.058767250391689,-0.5933266282081604,0.7177507281303406,-0.36441391706466675,0.2918296158313751,-0.07056804746389389,-0.29167088866233826
6.581372976303101,0.20527511835098267,0.0813302993774414,0.01409757137298584,-0.7916104476291804,-1.019190648959162,2.0619990424526544,-0.5984789729118347,0.7114858627319336,-0.36825406551361084,0.36597520112991333,-0.0716627836227417,-0.3454936742782593
6.601373910903931,0.20751458406448364,0.11012494564056396,0.012094378471374512,-0.7816052575271604,-1.0196588267436315,2.064096918030863,-0.6046856641769409,0.704419732093811,-0.3716830015182495,0.2919391691684723,-0.14483889937400818,-0.45687511563301086
6.621340990066528,0.20557308197021484,0.11632812023162842,-0.012580394744873047,-0.7707101211491331,-1.0229015753660406,2.064444197683338,-0.6124029755592346,0.6966448426246643,-0.37369585037231445,0.2713024318218231,-0.2134028673171997,-0.426768034696579
6.641350984573364,0.19965535402297974,0.14699387550354004,-0.03391540050506592,-0.7613366237151635,-1.028129290970346,2.064679150091343,-0.6199130415916443,0.689889669418335,-0.37384524941444397,0.2627060115337372,-0.32672321796417236,-0.382958322763443
6.661348819732666,0.17538195848464966,0.21215307712554932,-0.047874510288238525,-0.7521178574491657,-1.033781271582834,2.0668400348857503,-0.6274541616439819,0.6831868290901184,-0.37357327342033386,0.33828169107437134,-0.37937450408935547,-0.3227384686470032
6.681402921676636,0.13975560665130615,0.24632912874221802,-0.03577315807342529,-0.7430922413796631,-1.0389741209731378,2.0708529326556384,-0.6346744894981384,0.6765682101249695,-0.3734217882156372,0.38807082176208496,-0.4190106987953186,-0.3193221390247345
6.701383113861084,0.08900201320648193,0.24276572465896606,-0.030627697706222534,-0.7332838449335245,-1.0444256185492664,2.075566197769674,-0.6424077749252319,0.6693130731582642,-0.3732724189758301,0.4123598337173462,-0.4562111496925354,-0.37695562839508057
6.721368789672852,0.022598743438720703,0.24064671993255615,-0.04340815544128418,-0.7213513303905655,-1.0515738877620406,2.0796447206920323,-0.651947557926178,0.6604000329971313,-0.3726074993610382,0.4292517304420471,-0.54511559009552,-0.5031746029853821
6.741405010223389,-0.054486870765686035,0.2638699412345886,-0.025270700454711914,-0.7079784341543709,-1.0626288400667396,2.081007742813023,-0.6636834144592285,0.6502993702888489,-0.3696419894695282,0.30219319462776184,-0.6234598159790039,-0.6197640299797058
6.761362075805664,-0.12603753805160522,0.29322701692581177,-0.0017680227756500244,-0.6943796654761748,-1.0773759086834669,2.076994551806327,-0.6767884492874146,0.6399088501930237,-0.3639698922634125,0.07161837816238403,-0.5896690487861633,-0.7008056044578552
6.7813639640808105,-0.040569007396698,0.27139168977737427,0.014916211366653442,-0.6836454829225805,-1.09385017921075,2.0687121920325127,-0.6887555122375488,0.6316234469413757,-0.35590437054634094,-0.1156158521771431,-0.5449531078338623,-0.4874635338783264
6.801366806030273,0.10931664705276489,0.2352607250213623,-0.0005446672439575195,-0.6799876680812668,-1.1093740453083027,2.0622061394893016,-0.6962612867355347,0.6287834644317627,-0.3461960554122925,-0.12414835393428802,-0.6231420040130615,-0.09003522247076035
6.821371078491211,0.18185341358184814,0.14290738105773926,-0.005363553762435913,-0.6817839906968395,-1.1227576879784946,2.0626813463506934,-0.699813187122345,0.630179226398468,-0.3363570272922516,0.09815651178359985,-0.7413139939308167,0.2457266002893448
6.841188907623291,0.16977471113204956,0.013692319393157959,0.02782142162322998,-0.6860999231731336,-1.132205686378614,2.0719276078638718,-0.7004907727241516,0.6335244178771973,-0.328572154045105,0.3972601294517517,-0.7845650911331177,0.40031784772872925
6.861377000808716,0.12128710746765137,-0.08004629611968994,0.0442526638507843,-0.6886318112971217,-1.1358795507998682,2.0902155099888766,-0.7002361416816711,0.6354813575744629,-0.3253195285797119,0.7525282502174377,-0.7424092888832092,0.41374626755714417
6.881421089172363,0.10170942544937134,-0.12469220161437988,0.09051865339279175,-0.6889068936795454,-1.1353800135266736,2.113454876944649,-0.6999150514602661,0.6356937289237976,-0.32559555768966675,0.8241934180259705,-0.6836676001548767,0.3630828261375427
6.901423931121826,0.08187627792358398,-0.1408003568649292,0.10140353441238403,-0.6888014381596862,-1.135390969478862,2.1346999873776857,-0.6999794244766235,0.6356123685836792,-0.32561615109443665,0.6626690626144409,-0.6880579590797424,0.3142937421798706
6.921390056610107,0.058258771896362305,-0.10629534721374512,0.06411948800086975,-0.6892694361045335,-1.138773267561848,2.152112396630751,-0.7008064389228821,0.6359735727310181,-0.32312214374542236,0.5643011927604675,-0.778885543346405,0.3049498200416565
6.941433906555176,0.013295233249664307,-0.013769745826721191,0.02306520938873291,-0.6899072446400359,-1.145264192021618,2.168152932105454,-0.7025195956230164,0.6364656686782837,-0.318399041891098,0.5669420957565308,-0.8787451982498169,0.2644432485103607
6.961395978927612,-0.033156752586364746,0.054984331130981445,0.0002447962760925293,-0.6903055995843815,-1.1514846005595536,2.185667746835418,-0.7042548656463623,0.636772871017456,-0.31391969323158264,0.6634067893028259,-0.8401748538017273,0.3288659155368805
6.981395959854126,-0.011600375175476074,0.04936480522155762,0.015074193477630615,-0.6912614469276832,-1.154862307815937,2.205848601474082,-0.704754114151001,0.6375095844268799,-0.3112930655479431,0.7296018600463867,-0.7829805016517639,0.3850141763687134
7.001399993896484,0.07624530792236328,-0.03454315662384033,0.018516629934310913,-0.6932433504147171,-1.155987577722775,2.2280215325543127,-0.7039461731910706,0.6390352249145508,-0.3099899888038635,0.7431899905204773,-0.7746763229370117,0.4786558449268341
7.021452903747559,0.15724074840545654,-0.094585120677948,-0.0009493827819824219,-0.6958431874056791,-1.1577632674925082,2.250902690567372,-0.7029714584350586,0.6410328149795532,-0.3080716133117676,0.7848769426345825,-0.8827567100524902,0.45642563700675964
7.041405916213989,0.2097111940383911,-0.10866326093673706,-0.02555745840072632,-0.6971088115789598,-1.1604205516947566,2.276060777299246,-0.7030432224273682,0.6420037150382996,-0.3058786690235138,0.9224390983581543,-0.9837064743041992,0.4310252368450165
7.061415910720825,0.22988957166671753,-0.11225903034210205,-0.01323208212852478,-0.6966242655132122,-1.1628571604252531,2.3028336249482466,-0.7040717601776123,0.6416321396827698,-0.30428802967071533,0.9593228697776794,-0.9624650478363037,0.3478768467903137
7.081384897232056,0.25200551748275757,-0.14375931024551392,0.006279647350311279,-0.6953796344693997,-1.164935207516818,2.328058078120239,-0.7054358124732971,0.6406769752502441,-0.3031393587589264,0.8610090613365173,-0.8555223941802979,0.3188890218734741
7.101419925689697,0.29166024923324585,-0.15871071815490723,0.004602342844009399,-0.6945226069364544,-1.1668392284663212,2.3506759276933282,-0.7065163850784302,0.6400187015533447,-0.3020113706588745,0.7965337634086609,-0.77446448802948,0.2845596671104431
7.1214070320129395,0.3030921220779419,-0.11792868375778198,0.008469223976135254,-0.6918903466442962,-1.1665786837641485,2.374426568029171,-0.707984209060669,0.6379939913749695,-0.30285701155662537,1.024731159210205,-0.6864222288131714,0.19635070860385895
7.141429901123047,0.3170487880706787,-0.11503255367279053,-0.0019843876361846924,-0.6853726269808571,-1.1614032595109052,2.4023360965320926,-0.7102068066596985,0.6329615116119385,-0.30816569924354553,1.225612998008728,-0.6003615856170654,0.05250788852572441
7.161427021026611,0.34740203619003296,-0.12950944900512695,-0.028048038482666016,-0.6752591638727591,-1.1546180617172177,2.4332609272990178,-0.7139182686805725,0.6250995993614197,-0.3155493140220642,1.3481577634811401,-0.6816626191139221,-0.008766229264438152
7.181429862976074,0.367878794670105,-0.10292214155197144,-0.01894429326057434,-0.6634208816739695,-1.1507394711008654,2.4625784806707207,-0.7193955779075623,0.6158157587051392,-0.3213113844394684,1.238277554512024,-0.7574700117111206,-0.16640998423099518
7.201430797576904,0.37118691205978394,-0.0954200029373169,0.001093834638595581,-0.6486962057794894,-1.1503795276940572,2.4894124349965177,-0.7274796962738037,0.6041479706764221,-0.3252362012863159,1.3369169235229492,-0.8021869659423828,-0.2820272445678711
7.221437931060791,0.37966907024383545,-0.1197165846824646,0.06068265438079834,-0.6323540427601124,-1.1497580620420613,2.5160750705432697,-0.7361907958984375,0.5910452604293823,-0.32967981696128845,1.233601689338684,-0.7305020093917847,-0.332515150308609
7.241438865661621,0.39866507053375244,-0.17260533571243286,0.1164708137512207,-0.6185784526055084,-1.1506996879103473,2.5373203411014535,-0.7438647747039795,0.5798776149749756,-0.3322758078575134,0.8899798393249512,-0.6243351101875305,-0.19138343632221222
7.261448860168457,0.3680970072746277,-0.06828886270523071,0.06238117814064026,-0.6092730026691878,-1.153166272364982,2.5552418748248242,-0.7495821714401245,0.5722714066505432,-0.33261433243751526,0.9817884564399719,-0.6650872230529785,-0.07126878947019577
7.281448841094971,0.3198542594909668,0.13181394338607788,0.01115688681602478,-0.5979866383968379,-1.1506061756652277,2.5842042491413832,-0.7545772194862366,0.5629796385765076,-0.3371455669403076,1.7176514863967896,-0.6879355907440186,0.021073486655950546
7.301587104797363,0.33345359563827515,0.15792840719223022,0.1267937421798706,-0.5831354437251224,-1.1382930321595472,2.62850555083009,-0.7578769326210022,0.5506439208984375,-0.34987717866897583,2.1739823818206787,-0.5487051010131836,0.12625586986541748
7.32151198387146,0.29966241121292114,0.02525937557220459,0.23147490620613098,-0.5668544262220696,-1.1213682969546472,2.676563896416639,-0.7598217129707336,0.5369811058044434,-0.3664998710155487,2.0788631439208984,-0.3792359530925751,0.08441493660211563
7.34143590927124,0.25239312648773193,0.014233887195587158,0.24415633082389832,-0.5499701230166465,-1.1080035321319606,2.7159563528838944,-0.7628607153892517,0.5226617455482483,-0.38061556220054626,1.6574716567993164,-0.4361483156681061,-0.12257618457078934
7.360980987548828,0.23621326684951782,-0.01776885986328125,0.19831958413124084,-0.5315899184177004,-1.102551969173549,2.7469886330011413,-0.7692180275917053,0.5069044828414917,-0.38903912901878357,1.5697736740112305,-0.6375027298927307,-0.29217445850372314
7.3814167976379395,0.20034688711166382,0.005603194236755371,0.24361014366149902,-0.5111648423134769,-1.1031152461639495,2.7737960188934587,-0.7785177826881409,0.48919352889060974,-0.39319199323654175,1.4068591594696045,-0.7302601933479309,-0.5272319912910461
7.4014809131622314,0.13655567169189453,0.014723658561706543,0.2920791208744049,-0.4878244708853636,-1.1081756347884375,2.79301536544198,-0.7905016541481018,0.4687052369117737,-0.39423662424087524,1.1259899139404297,-0.6849181056022644,-0.7786159515380859
7.4214630126953125,0.12905895709991455,-0.01092490553855896,0.2985377907752991,-0.46449023648663895,-1.1165223277218475,2.8043974793912536,-0.8033754229545593,0.4479671120643616,-0.3923181891441345,0.8669325113296509,-0.7034382820129395,-0.8503845930099487
7.4406208992004395,0.06860411167144775,0.024665385484695435,0.28587931394577026,-0.44201056088689794,-1.1290461031061685,2.8108990494959616,-0.8171241283416748,0.4277576506137848,-0.3864346742630005,0.6584678292274475,-0.880886971950531,-0.9625126123428345
7.461416959762573,-0.05041748285293579,0.11668846011161804,0.23893871903419495,-0.4173063036641506,-1.1472041350878117,2.8155485712991255,-0.8333868384361267,0.4052993953227997,-0.3757641911506653,0.8526835441589355,-1.103915810585022,-1.1092630624771118
7.481487989425659,-0.13815677165985107,0.24168264865875244,0.19510117173194885,-0.38701661367171947,-1.166736011975758,2.825768292747627,-0.8514673113822937,0.3774273693561554,-0.3640768527984619,1.1835511922836304,-1.219091773033142,-1.3235620260238647
7.5015058517456055,-0.11736589670181274,0.25951749086380005,0.2370310127735138,-0.35201665038316754,-1.1847669539445398,2.8395366933489425,-0.869603157043457,0.3447915017604828,-0.35342490673065186,1.3438565731048584,-1.0830702781677246,-1.3726881742477417
7.5214338302612305,-0.1780261993408203,0.2083798348903656,0.26553937792778015,-0.3174159562932804,-1.198324361883899,2.856782274112691,-0.8849010467529297,0.3121126592159271,-0.3457394540309906,1.4643633365631104,-0.819918155670166,-1.2410036325454712
7.541453838348389,-0.39087575674057007,0.2523438036441803,0.19725799560546875,-0.28220999084503473,-1.205373898274539,2.878532174094041,-0.8970271348953247,0.2784788906574249,-0.3432081937789917,1.759027123451233,-0.5385868549346924,-1.3189998865127563
7.561455965042114,-0.42039233446121216,0.31328707933425903,0.16954341530799866,-0.2448779789119919,-1.2068897272998114,2.906540517962204,-0.9066340327262878,0.242437943816185,-0.3453092873096466,2.1014721393585205,-0.2899104058742523,-1.2064030170440674
7.581532001495361,-0.47787708044052124,0.2975922226905823,0.1941562294960022,-0.20607571477344439,-1.198674989596822,2.941867105315749,-0.9118477702140808,0.20462022721767426,-0.3558993339538574,2.591125011444092,0.28339865803718567,-1.228320837020874
7.601526975631714,-0.6308975219726562,0.31937047839164734,0.06491771340370178,-0.1589900785837354,-1.1814535629092227,2.990972858188296,-0.913490355014801,0.1583210974931717,-0.37479308247566223,3.599241256713867,0.5094141960144043,-1.3414087295532227
7.6215410232543945,-0.7046980857849121,0.2705151438713074,0.10711342096328735,-0.103939417919162,-1.1589471707258827,3.0499269592214646,-0.9114366173744202,0.10375236719846725,-0.3981441855430603,3.7683281898498535,1.0266128778457642,-1.5388035774230957
7.641506910324097,-0.6632733345031738,0.03311733156442642,0.19658440351486206,-0.047879300081232604,-1.1264362061663036,3.0998127511444187,-0.9018512964248657,0.0478610098361969,-0.429387629032135,2.9686081409454346,1.9268759489059448,-1.3780885934829712
7.66150689125061,-0.6744778752326965,-0.1192048117518425,0.19820433855056763,-0.007785154462881913,-1.0820495995385029,3.1325626310564565,-0.882895290851593,0.007785075809806585,-0.46950551867485046,1.6669917106628418,2.019928216934204,-0.7773637771606445
7.6815080642700195,-0.4424246549606323,-0.10322418063879013,0.23069214820861816,0.010209885884591732,-1.0551377539430637,-3.135320172270711,-0.8699228763580322,-0.010209708474576473,-0.493082195520401,0.5807030200958252,0.6057232618331909,-0.01486282330006361
7.701512813568115,-0.5082799196243286,-0.08717341721057892,0.5317725539207458,0.005569587474663189,-1.050423440802841,-3.1265115949688367,-0.8676204681396484,-0.0055695585906505585,-0.4971960484981537,0.2118983119726181,-0.007862582802772522,0.7127727270126343
7.7215399742126465,-0.8136314749717712,-0.10755368322134018,0.517483651638031,-0.004022756329974611,-1.0484645181267493,-3.108472634258541,-0.866651177406311,0.004022745415568352,-0.49889835715293884,0.7757015824317932,0.4291057586669922,1.04751455783844
7.741537094116211,-0.8934479355812073,-0.23135751485824585,0.631045937538147,-0.01561408210217694,-1.0327006560120258,-3.0848934979046345,-0.85858154296875,0.01561344787478447,-0.5124392509460449,0.6479923129081726,0.9758098721504211,1.1603821516036987
7.761523008346558,-0.6717140078544617,-0.363558292388916,0.559463381767273,-0.033501640981812256,-1.016252400985769,-3.0609018083887283,-0.8496636748313904,0.03349537402391434,-0.5262601971626282,0.3505241572856903,0.505694568157196,1.599070429801941
7.781601905822754,-0.6358444094657898,-0.236666738986969,0.470885694026947,-0.06312463569388668,-1.0097949773195822,-3.0413543325990995,-0.8450364470481873,0.0630827248096466,-0.5309746861457825,-0.2081495076417923,0.14125162363052368,1.9468287229537964
7.801512002944946,-0.7816352844238281,-0.19513295590877533,0.26380276679992676,-0.10083654066001008,-1.003564869426234,-3.022662419773925,-0.8391075730323792,0.10066574066877365,-0.5345698595046997,-0.13148806989192963,0.4392329156398773,2.221029281616211
7.821491003036499,-0.8212400674819946,-0.005635648965835571,0.041958630084991455,-0.13712266206413412,-0.990637658122096,-2.997615476069291,-0.8285250663757324,0.13669335842132568,-0.5430113673210144,0.2233891785144806,0.48959246277809143,2.2597036361694336
7.841484069824219,-0.6853116154670715,-0.05837796628475189,0.047437310218811035,-0.1747908929902454,-0.9768988797780221,-2.9677174893833795,-0.8161380887031555,0.1739022135734558,-0.5510687828063965,0.07834335416555405,0.4738978445529938,2.4719321727752686
7.861487865447998,-0.7475212216377258,-0.06271126866340637,0.05108833312988281,-0.21570142746758492,-0.9630303405605788,-2.939026479068356,-0.8019021153450012,0.21403264999389648,-0.5578020811080933,0.0023684720508754253,0.28123563528060913,2.477975368499756
7.88158392906189,-0.6875396370887756,0.01977577805519104,0.013462305068969727,-0.25676363621220494,-0.9524453567901501,-2.9115733925116443,-0.7881227135658264,0.2539516091346741,-0.5606881976127625,-0.14693233370780945,0.10324227809906006,2.390406608581543
7.901586055755615,-0.6732373237609863,0.004802018404006958,-0.008309245109558105,-0.2978138539966011,-0.9441335044307554,-2.8879259610634365,-0.7743335962295532,0.29343098402023315,-0.5606298446655273,-0.42115479707717896,0.09812261909246445,2.275531053543091
7.921546936035156,-0.6280100345611572,0.01405063271522522,-0.05083054304122925,-0.3394459915992937,-0.9365100048751314,-2.86978608622365,-0.7595327496528625,0.3329647481441498,-0.5587884783744812,-0.6128766536712646,0.04032234475016594,2.1080398559570312
7.940816879272461,-0.5310963988304138,0.05634230375289917,-0.07435011863708496,-0.3810502723158409,-0.9327877254432126,-2.8575606441820156,-0.7456676363945007,0.37189561128616333,-0.5528775453567505,-0.9913002848625183,-0.04834209755063057,1.928238034248352
7.96155309677124,-0.45875710248947144,0.03415119647979736,-0.015138983726501465,-0.42351004354630467,-0.9330942300288976,-2.855838271762791,-0.7324814200401306,0.41096290946006775,-0.542752742767334,-1.3410495519638062,-0.050683461129665375,1.5956882238388062
7.981583118438721,-0.3019134998321533,0.13682067394256592,-0.10628706216812134,-0.4623980437032166,-0.9361505374887832,-2.857100629747306,-0.7207154035568237,0.44609561562538147,-0.5306299924850464,-1.044802188873291,-0.23683114349842072,1.5289217233657837
8.001556873321533,-0.2339819073677063,0.1940229833126068,-0.14348942041397095,-0.49669722555507595,-0.9401155057724516,-2.851577060479595,-0.7100335955619812,0.4765244722366333,-0.5184367299079895,-0.6728598475456238,-0.3638160824775696,1.4678583145141602
8.021569967269897,-0.26592981815338135,0.10771089792251587,-0.06141495704650879,-0.5264212336881643,-0.9441488629415109,-2.8463533677657082,-0.7003331184387207,0.5024423003196716,-0.5070359110832214,-0.761317253112793,-0.3122774362564087,1.2217150926589966
8.0416100025177,-0.18487244844436646,0.06665438413619995,-0.03295770287513733,-0.5565623155879008,-0.9510095252677392,-2.8493497480884935,-0.6911499500274658,0.5282704830169678,-0.4931957423686981,-1.225874423980713,-0.2570306658744812,1.0370123386383057
8.06157898902893,-0.12585145235061646,0.11031121015548706,-0.022676855325698853,-0.5868075687904742,-0.9636116947221678,-2.863368888897586,-0.6838715076446533,0.5537054538726807,-0.4751104712486267,-1.4173579216003418,-0.2337171882390976,0.7997560501098633
8.081295013427734,-0.008646965026855469,0.19313514232635498,-0.009266853332519531,-0.6140875474608084,-0.9770491333105341,-2.8782146576884955,-0.6774188280105591,0.576213002204895,-0.4572552740573883,-1.0727460384368896,-0.2946733832359314,0.7536545395851135
8.101593017578125,0.03459632396697998,0.2770198583602905,0.04604092240333557,-0.6348245111213373,-0.988547130934739,-2.884821163438381,-0.6725053191184998,0.5930362343788147,-0.442769318819046,-0.45190224051475525,-0.46004489064216614,0.7075636386871338
8.121656894683838,0.05193448066711426,0.3050137758255005,0.05647927522659302,-0.6474554773122081,-0.9945511981774142,-2.87688729354411,-0.668816864490509,0.6031587719917297,-0.4346071779727936,0.30717387795448303,-0.5727707147598267,0.7030327320098877
8.141615867614746,0.09427618980407715,0.30132871866226196,0.05070585012435913,-0.6496862734753419,-0.991812127123482,-2.8522479079864937,-0.666496217250824,0.6049365997314453,-0.43570029735565186,1.1667097806930542,-0.69636070728302,0.5386939644813538
8.161598920822144,0.16046738624572754,0.1664828062057495,0.04036715626716614,-0.6421815063510502,-0.9850255637125871,-2.8173112416160575,-0.6672881245613098,0.5989437699317932,-0.4427107870578766,1.5864739418029785,-0.6709527373313904,0.32205936312675476
8.18158483505249,0.1123037338256836,0.0981597900390625,-0.01534956693649292,-0.625038861315704,-0.9742650649869941,-2.7785102752944373,-0.6708823442459106,0.5851287841796875,-0.45556706190109253,1.8582223653793335,-0.6362283229827881,-0.029044516384601593
8.201596975326538,0.32247477769851685,-0.12417715787887573,0.06908699870109558,-0.6045118351444065,-0.9684755193233684,-2.746193064474334,-0.6779893040657043,0.5683605074882507,-0.46615108847618103,1.3971749544143677,-0.6110315322875977,-0.07098519057035446
8.221642017364502,0.4353334903717041,-0.2170034646987915,0.0956781804561615,-0.593196050555948,-0.9700638367314076,-2.7261112861155303,-0.6839907169342041,0.5590139031410217,-0.46867913007736206,0.6051155924797058,-0.7683578133583069,0.04891609400510788
8.241593837738037,0.3875454068183899,-0.10410046577453613,0.06775343418121338,-0.5921988320867421,-0.9815161696643429,-2.7180341736983697,-0.6897763609886169,0.5581867694854736,-0.46112489700317383,0.13571937382221222,-0.7819395661354065,0.2474023997783661
8.261672019958496,0.33582401275634766,0.06910133361816406,0.029254227876663208,-0.5955136190495116,-0.9933427275595017,-2.7116901053240103,-0.6936273574829102,0.5609340071678162,-0.45192256569862366,0.16627433896064758,-0.7555469274520874,0.3596328794956207
8.281620025634766,0.4395443797111511,0.01453787088394165,0.03746086359024048,-0.6021060879170195,-1.0035454444703522,-2.7021626369276124,-0.6950681209564209,0.5663794279098511,-0.44282567501068115,0.1311628222465515,-0.8410563468933105,0.6356933116912842
8.301625967025757,0.5174671411514282,-0.04670250415802002,0.06426820158958435,-0.6141994842910088,-1.0161328672964833,-2.691534130823212,-0.694713294506073,0.5763044953346252,-0.4304027259349823,-0.01688341051340103,-1.0197255611419678,0.8545411229133606
8.32160496711731,0.5286441445350647,-0.0714077353477478,0.054196685552597046,-0.6303320746690908,-1.0298181946568115,-2.6788776160465777,-0.692477822303772,0.589413046836853,-0.4160129725933075,0.07292305678129196,-1.1139531135559082,1.0252610445022583
8.341609954833984,0.5866058468818665,-0.07871824502944946,0.04205775260925293,-0.646638246524462,-1.0434693790927245,-2.6622162924788566,-0.6896942853927612,0.6025067567825317,-0.4016309976577759,0.2615450322628021,-1.2326791286468506,1.0814727544784546
8.361634969711304,0.6835888624191284,-0.17667460441589355,0.09360164403915405,-0.6637588811016915,-1.0540622727387363,-2.6402820069464275,-0.684840202331543,0.6160820126533508,-0.389149010181427,0.33491578698158264,-1.1204938888549805,1.261539340019226
