timestamp,acceleration_x,acceleration_y,acceleration_z,attitude_pitch,attitude_roll,attitude_yaw,gravity_x,gravity_y,gravity_z,rotation_x,rotation_y,rotation_z
0.0,0.09307122230529785,0.7001847624778748,0.059009090065956116,-0.1709622292862109,-1.4234202555041198,-1.0084325650797439,-0.9747393131256104,0.1701306253671646,-0.14470240473747253,-0.8290383219718933,-0.1599445790052414,-0.6142818927764893
0.019826889038085938,0.08697611093521118,0.5513091087341309,0.061286166310310364,-0.15771780639306665,-1.4324366789438028,-1.0171049859156902,-0.9781504273414612,0.157064750790596,-0.13620682060718536,-0.03470252826809883,-0.5881648659706116,-0.7593926787376404
0.03986787796020508,0.015060067176818848,0.3533976078033447,0.11722910404205322,-0.14386311109211114,-1.4475451534855308,-1.021581729394467,-0.9821621775627136,0.14336737990379333,-0.12166935205459595,-0.3317490518093109,-0.803659975528717,-0.6501643657684326
0.059044837951660156,-0.07129824161529541,0.2655843496322632,0.14439815282821655,-0.13370881841269772,-1.464202543527836,-1.0361552064620683,-0.9854491949081421,0.13331076502799988,-0.10544241964817047,-1.009786605834961,-0.6281208395957947,-0.5062387585639954
0.07984781265258789,-0.03764140605926514,0.28215301036834717,0.14460688829421997,-0.12757060175976476,-1.4783935768543193,-1.0636152969378239,-0.9876425862312317,0.127224862575531,-0.09152151644229889,-1.6112654209136963,-0.4805309474468231,-0.3779689371585846
0.09984683990478516,0.010776698589324951,0.29995134472846985,0.12448520213365555,-0.12378045772534893,-1.4928779557773957,-1.1006491217579226,-0.9893380999565125,0.12346461415290833,-0.07724399864673615,-1.9890905618667603,-0.5185427665710449,-0.3103054165840149
0.1199960708618164,-0.028751015663146973,0.31668737530708313,0.06925338506698608,-0.12093921893845917,-1.5081707690545303,-1.1430781365481255,-0.990749716758728,0.12064462155103683,-0.0621274933218956,-2.1959340572357178,-0.4669317901134491,-0.26843562722206116
0.13990306854248047,-0.056398212909698486,0.34460633993148804,0.05328083038330078,-0.11790096259587382,-1.521163755093985,-1.1890541331835067,-0.991834819316864,0.11762800067663193,-0.04926777631044388,-2.3510563373565674,-0.2748352885246277,-0.2758852243423462
0.1591808795928955,0.016246795654296875,0.32354211807250977,0.05615502595901489,-0.1150352284730597,-1.5307846917575048,-1.2383453247317364,-0.9925957322120667,0.1147816851735115,-0.039736583828926086,-2.5501816272735596,-0.12425512075424194,-0.20353509485721588
0.1798877716064453,0.10932761430740356,0.2741888463497162,0.03636449575424194,-0.11395110439281464,-1.5389194111591717,-1.291113061061094,-0.9930099248886108,0.11370465904474258,-0.03166481852531433,-2.67498779296875,-0.11024884134531021,-0.08848293125629425
0.1998579502105713,0.15084129571914673,0.2552255094051361,-0.006137728691101074,-0.11460820670331968,-1.548265676797149,-1.344071504209731,-0.9931874871253967,0.11435747146606445,-0.022380946204066277,-2.556387424468994,-0.22616079449653625,0.01620165817439556
0.21987581253051758,0.12452548742294312,0.29429852962493896,-0.04409271478652954,-0.11616442417999956,-1.5591461391234749,-1.3915198593973148,-0.9931931495666504,0.115903340280056,-0.011571410112082958,-2.1154673099517822,-0.29883304238319397,0.05034155771136284
0.23983097076416016,0.07331544160842896,0.320975124835968,-0.06413871049880981,-0.11726631998252471,-1.568974002172534,-1.427737636282197,-0.9931305646896362,0.11699774116277695,-0.0018098081927746534,-1.5023142099380493,-0.23685099184513092,0.03563190996646881
0.25937509536743164,0.0733262300491333,0.2960900664329529,-0.04321134090423584,-0.11800180023478356,-1.5755887900483723,-1.4528912781717063,-0.9930345416069031,0.11772813647985458,0.004759117960929871,-1.0366491079330444,-0.147257998585701,0.055337343364953995
0.28003501892089844,0.09140688180923462,0.22597584128379822,-0.025280475616455078,-0.12003038449171555,-1.5804449749731364,-1.4708424100645152,-0.9927587509155273,0.11974237114191055,0.009579077363014221,-0.806566059589386,-0.13823466002941132,0.17800860106945038
0.3002619743347168,0.07342272996902466,0.1876571625471115,-0.016245722770690918,-0.12463101799226323,-1.5853087478985273,-1.4870849955240333,-0.9921392202377319,0.12430862337350845,0.014399353414773941,-0.8231297731399536,-0.14662016928195953,0.29483217000961304
0.3224930763244629,0.03449183702468872,0.17206056416034698,-0.028203248977661133,-0.13080218677395278,-1.5897786669140133,-1.5041632503375255,-0.9912790060043335,0.13042952120304108,0.018819056451320648,-0.8556640148162842,-0.0732601135969162,0.350973904132843
0.3429079055786133,0.033851444721221924,0.15957538783550262,-0.027608631178736687,-0.13774997330094316,-1.5928014664755465,-1.5210678407281653,-0.9902877807617188,0.13731475174427032,0.021794939413666725,-0.7866588234901428,-0.019382761791348457,0.3676014542579651
0.3598208427429199,0.03476804494857788,0.14995039999485016,-0.052732110023498535,-0.14482090205653764,-1.5952529027058988,-1.53470295899683,-0.9892358779907227,0.1443152129650116,0.024198146536946297,-0.5320188999176025,-0.035627689212560654,0.37271252274513245
0.3798050880432129,0.017950594425201416,0.17232777178287506,-0.06822192668914795,-0.15164744225519106,-1.597132895518554,-1.5430504174996142,-0.9881808161735535,0.1510668694972992,0.026031311601400375,-0.29556500911712646,-0.027775714173913002,0.32736480236053467
0.39986705780029297,0.011741220951080322,0.15298199653625488,-0.07011234760284424,-0.15782234961802258,-1.5980531087243846,-1.5474195402926811,-0.9872051477432251,0.15716800093650818,0.026914700865745544,-0.13521480560302734,0.0009403522126376629,0.3168031871318817
0.4198417663574219,0.02299332618713379,0.1345186084508896,-0.06140899285674095,-0.16448550679184135,-1.5983552420905802,-1.5497645900126604,-0.9861282706260681,0.16374480724334717,0.02718350850045681,-0.0893983468413353,-0.0028716963715851307,0.35190051794052124
0.4398460388183594,0.013716518878936768,0.12670202553272247,-0.05102657899260521,-0.1719032389700458,-1.5992510217969123,-1.5514553129767974,-0.9848623275756836,0.17105785012245178,0.028031522408127785,-0.07352528721094131,-0.058322083204984665,0.39494043588638306
0.45984506607055664,-0.035967111587524414,0.14081797003746033,-0.05017506703734398,-0.18006921077322383,-1.6005367134478143,-1.5528639742579498,-0.9833964705467224,0.17909766733646393,0.02925521694123745,-0.014075985178351402,-0.036634720861911774,0.41078540682792664
0.479841947555542,-0.06837236881256104,0.14959919452667236,-0.04749166592955589,-0.18803945249496004,-1.6006142095140234,-1.5512587163913796,-0.9819360375404358,0.1869332641363144,0.02928793430328369,0.19339139759540558,-0.01300458051264286,0.3789660930633545
0.4999361038208008,-0.0575374960899353,0.13966307044029236,-0.036035533994436264,-0.19534764518883269,-1.599399321574267,-1.5455058794286312,-0.9805790781974792,0.19410757720470428,0.02805515006184578,0.40202027559280396,0.02667669579386711,0.32392361760139465
0.5198168754577637,-0.012809336185455322,0.09286928176879883,-0.039336204528808594,-0.20163062402435913,-1.5968541199298862,-1.5354559550147688,-0.9794088006019592,0.20026718080043793,0.02552700974047184,0.5744926333427429,0.015065492130815983,0.28510284423828125
0.5399107933044434,0.03172266483306885,0.07380543649196625,-0.05275130271911621,-0.2073555304001198,-1.5945948037136588,-1.52284946133768,-0.9783018231391907,0.2058728039264679,0.0232864897698164,0.7011405825614929,-0.05592985451221466,0.24444417655467987
0.5599098205566406,0.04309892654418945,0.07541526854038239,-0.06645786762237549,-0.21221511287020906,-1.593343462951702,-1.5063873483988048,-0.9773182272911072,0.21062584221363068,0.022039461880922318,0.915930449962616,-0.1712077111005783,0.20530255138874054
0.5798478126525879,0.026523590087890625,0.07907038927078247,-0.04048264026641846,-0.21656359385118745,-1.5931099626396839,-1.4863384884301185,-0.9763984680175781,0.2148747593164444,0.02179061621427536,1.036622166633606,-0.22990235686302185,0.17986920475959778
0.5998420715332031,-0.013173222541809082,0.07608623802661896,-0.007819414138793945,-0.2203863155611465,-1.592603030814679,-1.4655387480462407,-0.9755811095237732,0.2186066061258316,0.02127758041024208,1.0084060430526733,-0.14484268426895142,0.16618046164512634
0.6198399066925049,-0.03972715139389038,0.07437574863433838,0.010450361296534538,-0.2241892590639118,-1.5897676974392776,-1.445109166476609,-0.9747992753982544,0.2223159819841385,0.01849549636244774,1.0122108459472656,-0.030190758407115936,0.1659829169511795
0.639887809753418,-0.046834707260131836,0.07841558754444122,0.044594764709472656,-0.22840509212397414,-1.5848556891024708,-1.4256530234411726,-0.9739325046539307,0.22642432153224945,0.013693772256374359,0.8449894785881042,0.08723005652427673,0.2422083020210266
0.6599109172821045,-0.06330657005310059,0.0424576997756958,0.08871519565582275,-0.234511847072209,-1.5787183179084852,-1.412289766377517,-0.9725974202156067,0.23236821591854095,0.007705069147050381,0.4686010181903839,0.23310239613056183,0.3430527448654175
0.6798419952392578,-0.07411891222000122,0.02961653470993042,0.11295849084854126,-0.24281226556891625,-1.570751494590995,-1.4066529285070273,-0.9706656336784363,0.24043335020542145,-4.351707684691064e-05,0.08079814165830612,0.4250219464302063,0.4835704267024994
0.6998410224914551,-0.05472457408905029,0.038859814405441284,0.13988155126571655,-0.253204663298909,-1.5614295169093724,-1.4079798831579529,-0.9680721163749695,0.2505077123641968,-0.009068013168871403,-0.18497221171855927,0.5191610455513,0.5393958687782288
0.7192268371582031,-0.03060096502304077,0.025068938732147217,0.15348076820373535,-0.26451915883032334,-1.552132891483707,-1.4133051479252479,-0.9650503396987915,0.26144519448280334,-0.01801324635744095,-0.3371250629425049,0.5451492071151733,0.5897383093833923
0.73990797996521,-0.011043071746826172,0.008611440658569336,0.16313719749450684,-0.27676870538787995,-1.543408573953487,-1.4207269121456267,-0.9615826606750488,0.2732487618923187,-0.026342174038290977,-0.38823384046554565,0.5176679491996765,0.5991820693016052
0.7598447799682617,-0.0031783580780029297,0.0077679455280303955,0.15231138467788696,-0.28862679102285077,-1.5353591060176068,-1.4269861314879588,-0.9580338597297668,0.28463608026504517,-0.03396427631378174,-0.22634679079055786,0.45748889446258545,0.566889762878418
0.7798480987548828,0.00963294506072998,0.019258707761764526,0.1477600336074829,-0.29908391295649633,-1.5276286779388355,-1.4283212876543747,-0.9547165632247925,0.29464492201805115,-0.041238490492105484,0.08480965346097946,0.3551364243030548,0.4626569151878357
0.7998969554901123,0.03006666898727417,0.001094222068786621,0.14674830436706543,-0.3071325397605637,-1.5199445956585989,-1.4224255668117454,-0.9519721865653992,0.30232661962509155,-0.04845120385289192,0.4216500520706177,0.23455338180065155,0.36915284395217896
0.8198480606079102,0.04211682081222534,-0.026630878448486328,0.16062605381011963,-0.3129968062477193,-1.5130950076947656,-1.4107614588109427,-0.9498316645622253,0.307911217212677,-0.054867446422576904,0.6390067934989929,0.10202258080244064,0.26930803060531616
0.8399500846862793,0.0303267240524292,-0.05275040864944458,0.1635165810585022,-0.3165717099313886,-1.507197543123743,-1.3955167368503207,-0.9483871459960938,0.31131047010421753,-0.06039772555232048,0.7861415147781372,0.027987593784928322,0.1792842447757721
0.8598449230194092,0.022861838340759277,-0.0692966878414154,0.1768893599510193,-0.318376607402197,-1.501775417145861,-1.378083171786839,-0.947483479976654,0.31302517652511597,-0.06550021469593048,0.8435331583023071,-0.023522645235061646,0.1124856248497963
0.8799219131469727,0.016894042491912842,-0.0984974205493927,0.1961134672164917,-0.3190948059856502,-1.4973950320843468,-1.3610880406073205,-0.9469629526138306,0.3137072026729584,-0.06963340938091278,0.7442122101783752,-0.06371428072452545,0.07478209584951401
0.8998749256134033,-0.011493206024169922,-0.09853699803352356,0.2028595209121704,-0.31894370126444305,-1.4944963468057062,-1.3472424141523396,-0.9468045830726624,0.3135637044906616,-0.07238169014453888,0.5983731150627136,-0.0713304653763771,-0.006882431451231241
0.9198360443115234,-0.03700590133666992,-0.08061152696609497,0.1919761300086975,-0.31706799418500625,-1.4921476640023161,-1.3348880653820427,-0.9472166299819946,0.3117820620536804,-0.07465130090713501,0.602169394493103,-0.08779262751340866,-0.09052383154630661
0.939802885055542,-0.05864739418029785,-0.06715720891952515,0.192821204662323,-0.31354115843251207,-1.4903815494679242,-1.322325341108618,-0.948173463344574,0.308429092168808,-0.07641193270683289,0.608589768409729,-0.11560987681150436,-0.18138094246387482
0.9599800109863281,-0.06766653060913086,-0.05039423704147339,0.19648778438568115,-0.30787462567505935,-1.4889490357141952,-1.3105294384297783,-0.9497895240783691,0.30303388833999634,-0.07791175693273544,0.5664909482002258,-0.10844490677118301,-0.2917052209377289
0.9798340797424316,-0.053609490394592285,-0.042735397815704346,0.18005555868148804,-0.3006946096452175,-1.4885070658952024,-1.2993987818538275,-0.951898992061615,0.2961837351322174,-0.07850834727287292,0.5466062426567078,-0.18154938519001007,-0.3258773684501648
0.9998569488525391,-0.04974818229675293,-0.02388232946395874,0.16247552633285522,-0.2933612453551775,-1.4896535568390854,-1.288748803738825,-0.9541276097297668,0.2891714870929718,-0.07759092003107071,0.5361990332603455,-0.22750747203826904,-0.3206503689289093
1.0198431015014648,-0.03237956762313843,-0.017333805561065674,0.15052080154418945,-0.28640019802033423,-1.491297824911509,-1.2785827428431584,-0.9562374949455261,0.28250089287757874,-0.07618000358343124,0.49147436022758484,-0.22282199561595917,-0.2957810163497925
1.039867877960205,0.005976438522338867,-0.014042079448699951,0.12661075592041016,-0.2802700494786531,-1.493271046256546,-1.2689047422050055,-0.9580944180488586,0.276615172624588,-0.07442570477724075,0.5060628652572632,-0.2417934536933899,-0.25044047832489014
1.0598459243774414,0.04485052824020386,0.005225837230682373,0.10289245843887329,-0.27462602987821527,-1.495691664192606,-1.259002982839825,-0.9598133563995361,0.2711870074272156,-0.07222230732440948,0.49947237968444824,-0.2900694012641907,-0.2604757845401764
1.0798718929290771,0.06252014636993408,-0.031323134899139404,0.08489823341369629,-0.2686113222345709,-1.4994876107271342,-1.2484178479082262,-0.9616901278495789,0.26539281010627747,-0.0686933621764183,0.567033052444458,-0.3513801395893097,-0.26070961356163025
1.099855899810791,0.06204330921173096,-0.07574132084846497,0.07177210599184036,-0.26304451250286476,-1.5031635728037782,-1.2364039943254534,-0.9633952379226685,0.26002153754234314,-0.06525660306215286,0.6385109424591064,-0.3152833878993988,-0.20620377361774445
1.1198887825012207,0.05261307954788208,-0.13270914554595947,0.06726741790771484,-0.259308262518112,-1.5060033704418347,-1.2241771166874544,-0.9645394086837769,0.25641199946403503,-0.06258296221494675,0.501510739326477,-0.3155246675014496,-0.10172466933727264
1.139875888824463,0.02313053607940674,-0.13642528653144836,0.06954056024551392,-0.2574701930138966,-1.5085176023367708,-1.2157261764662972,-0.965162456035614,0.25463494658470154,-0.06018691882491112,0.33309105038642883,-0.16454032063484192,-0.06549976766109467
1.1598429679870605,-0.009621202945709229,-0.14593887329101562,0.04813450574874878,-0.2555532815455827,-1.5094791399463825,-1.2108353115049584,-0.9657054543495178,0.2527807652950287,-0.05928866192698479,0.13766472041606903,-0.06472600996494293,-0.09501625597476959
1.179844856262207,-0.017715275287628174,-0.17106372117996216,0.03145134821534157,-0.25371767931676403,-1.5103351524996396,-1.2101462800599494,-0.9662172198295593,0.25100433826446533,-0.05848991870880127,-0.060597267001867294,-0.04163755476474762,-0.08689381182193756
1.1998679637908936,-0.03695422410964966,-0.19729898869991302,0.029883503913879395,-0.2526357558617716,-1.511500635913572,-1.2133047338218126,-0.9665553569793701,0.2499569207429886,-0.0573798306286335,-0.18477724492549896,-0.03319959715008736,-0.022879434749484062
1.219871997833252,-0.04701089859008789,-0.21313387155532837,-0.004854317754507065,-0.25364056914297245,-1.511604894842485,-1.2172303536586373,-0.9663100838661194,0.25092971324920654,-0.057264167815446854,-0.3362153470516205,0.12730512022972107,0.017335109412670135
1.2398967742919922,-0.08251821994781494,-0.24610969424247742,-0.002929624170064926,-0.2526965503699052,-1.510685685806822,-1.2252800780458575,-0.9664930105209351,0.2500157654285431,-0.058166589587926865,-0.4189879596233368,0.19812345504760742,-0.12137409299612045
1.2598419189453125,-0.10664093494415283,-0.24535275995731354,-0.026434294879436493,-0.2518675853897548,-1.5082581501688015,-1.234514380531863,-0.9665554165840149,0.2492130547761917,-0.06052554026246071,-0.47305724024772644,0.2668101191520691,0.010922768153250217
1.279843807220459,-0.1457909345626831,-0.25945428013801575,-0.052820153534412384,-0.25297320067473894,-1.5056222051199577,-1.2471732703819522,-0.9661172032356262,0.2502836287021637,-0.0630551427602768,-0.8302250504493713,0.3838377594947815,-0.035874344408512115
1.2998878955841064,-0.16626715660095215,-0.24380841851234436,-0.07315485924482346,-0.25266792483232725,-1.5014204763903776,-1.2699960882696955,-0.9659196734428406,0.24998806416988373,-0.06711921840906143,-1.4126654863357544,0.6547123789787292,-0.12302114814519882
1.3198509216308594,-0.15301579236984253,-0.18016138672828674,-0.10419940203428268,-0.25250760474694167,-1.495285624123011,-1.3058975893921454,-0.9655296802520752,0.24983282387256622,-0.0730467140674591,-2.01765513420105,0.8258824348449707,-0.12139291316270828
1.339932918548584,-0.1412453055381775,-0.06408312916755676,-0.1652616262435913,-0.253684868358617,-1.489772317030315,-1.3515606635695399,-0.96481853723526,0.25097259879112244,-0.07834498584270477,-2.373201370239258,0.8815333843231201,-0.11095202714204788
1.359868049621582,-0.13231176137924194,0.07199513912200928,-0.21726655960083008,-0.25447277091471254,-1.4840153680939985,-1.4004022024674427,-0.9641543626785278,0.2517351806163788,-0.08388090878725052,-2.2953741550445557,0.9216781854629517,-0.21292203664779663
1.3798439502716064,-0.057830810546875,0.1601574420928955,-0.25246864557266235,-0.25286799533496584,-1.4773421263350854,-1.444529836903383,-0.9639740586280823,0.25018176436424255,-0.09035061299800873,-1.9194035530090332,0.8448588252067566,-0.31292036175727844
1.399946928024292,0.06473010778427124,0.17027202248573303,-0.2538072466850281,-0.2489635099663386,-1.4711202163520332,-1.4797877931739183,-0.9643577337265015,0.24639955163002014,-0.09644303470849991,-1.4414806365966797,0.6386975646018982,-0.4066222906112671
1.4198660850524902,0.16544800996780396,0.1843147575855255,-0.19627916812896729,-0.24437984189397635,-1.46780287871403,-1.50359336000643,-0.9651459455490112,0.24195463955402374,-0.09975668787956238,-0.779103696346283,0.2906811833381653,-0.2275702953338623
1.4398689270019531,0.18503165245056152,0.18045270442962646,-0.16693438589572906,-0.24265199372189789,-1.467845041393546,-1.5124105213113046,-0.9655646681785583,0.24027776718139648,-0.0997588187456131,-0.07668445259332657,-0.07709603756666183,-0.09038756787776947
1.4599180221557617,0.1410699486732483,0.1478521078824997,-0.10715954750776291,-0.23912469581004475,-1.4711170412158099,-1.5098428389573397,-0.9667229652404785,0.23685231804847717,-0.09668268263339996,0.3079666495323181,-0.28062841296195984,-0.21842285990715027
1.4798188209533691,0.0942544937133789,0.1203366070985794,-0.05410187691450119,-0.2335569511638014,-1.4759443173499733,-1.5027432278138964,-0.9684762358665466,0.23143935203552246,-0.09213840216398239,0.4100472629070282,-0.3410683870315552,-0.25707343220710754
1.4998998641967773,0.045879364013671875,0.12291772663593292,-0.04109138250350952,-0.22736361616740142,-1.480413434657214,-1.4950624023018613,-0.9702873826026917,0.22540977597236633,-0.08793696016073227,0.3737742006778717,-0.2745169699192047,-0.2939818799495697
1.5198838710784912,0.0245438814163208,0.12987454235553741,-0.03501790016889572,-0.2205259298780859,-1.4829874518481836,-1.4887517083969266,-0.972023069858551,0.21874284744262695,-0.08557229489088058,0.3219367563724518,-0.12003986537456512,-0.3247690200805664
1.5398459434509277,0.03897041082382202,0.11629831790924072,-0.050142884254455566,-0.21381825324863432,-1.4831838767647358,-1.4823799849480068,-0.9734797477722168,0.21219274401664734,-0.0855078399181366,0.3796832263469696,-0.07725449651479721,-0.2693098187446594
1.5598440170288086,0.06704354286193848,0.0824698656797409,-0.07380527257919312,-0.20826257321240355,-1.4833312771085667,-1.473630710840059,-0.9746516346931458,0.20676033198833466,-0.08546600490808487,0.5300751328468323,-0.12451432645320892,-0.22841224074363708
1.5798759460449219,0.058060407638549805,0.05296355485916138,-0.08683597296476364,-0.2031300217106998,-1.4840190717037156,-1.4621389287741084,-0.9757544994354248,0.2017359882593155,-0.08488647639751434,0.6331599950790405,-0.15024010837078094,-0.19505614042282104
1.5998420715332031,0.03707563877105713,0.028261229395866394,-0.09891658276319504,-0.1985346815816846,-1.48472083681788,-1.4486422114271045,-0.9767271876335144,0.19723300635814667,-0.08428052067756653,0.7330719232559204,-0.1792028695344925,-0.1434749960899353
1.6198420524597168,0.027880191802978516,-0.009371563792228699,-0.11150132864713669,-0.19522524251752912,-1.4856482263069035,-1.432904721533405,-0.977449893951416,0.19398750364780426,-0.0834297239780426,0.8059206604957581,-0.23102523386478424,-0.060801468789577484
1.6399009227752686,0.010103762149810791,-0.026936516165733337,-0.09740632772445679,-0.19343895099282968,-1.4879605775698372,-1.4173827156641259,-0.9779840707778931,0.1922348290681839,-0.08119785040616989,0.7119630575180054,-0.2972334623336792,0.021582553163170815
1.6598467826843262,0.00291597843170166,-0.04916241765022278,-0.06368916481733322,-0.1934326295101326,-1.491584763451237,-1.4056432200960673,-0.9782729148864746,0.19222863018512726,-0.07765300571918488,0.38194921612739563,-0.288033664226532,0.036122579127550125
1.6798830032348633,0.004168152809143066,-0.09828133881092072,-0.015501312911510468,-0.1931847796593741,-1.4958140792634818,-1.4013694792828393,-0.9786401391029358,0.19198539853096008,-0.07351846992969513,0.08447784185409546,-0.19639544188976288,0.002561670495197177
1.699842929840088,0.007837891578674316,-0.10649403929710388,-0.01735001802444458,-0.19405910057515705,-1.4984544837985398,-1.4009939553826123,-0.9786631464958191,0.19284337759017944,-0.07092206180095673,-0.03196196258068085,-0.09758852422237396,0.06717107445001602
1.7198419570922852,0.0010970234870910645,-0.07347127795219421,-0.05318354815244675,-0.1946472494068451,-1.500120492272796,-1.4005134248558024,-0.9786666035652161,0.19342045485973358,-0.06928347796201706,0.12415023893117905,-0.09512137621641159,-0.017121436074376106
1.7398688793182373,0.022350311279296875,-0.029451832175254822,-0.08955918252468109,-0.19233263861977323,-1.5018498096629715,-1.3961567902448206,-0.9792288541793823,0.191149041056633,-0.06762160360813141,0.24966439604759216,-0.19029583036899567,-0.20674756169319153
1.7598438262939453,0.03575962781906128,-0.025740444660186768,-0.08961379528045654,-0.1873258978965812,-1.505800958274952,-1.3911471181406734,-0.9804313778877258,0.18623223900794983,-0.06381338089704514,0.2828645706176758,-0.2719285488128662,-0.21122419834136963
1.7798428535461426,0.00940471887588501,-0.0217144638299942,-0.10555953532457352,-0.18383505978502387,-1.5099183215715597,-1.3858509230203573,-0.9813287258148193,0.18280135095119476,-0.05981524661183357,0.24595226347446442,-0.22509439289569855,-0.1426730901002884
1.7999138832092285,-0.014435529708862305,-0.008968755602836609,-0.06599795818328857,-0.18054105618691843,-1.513751075365683,-1.3833853774421228,-0.9821465611457825,0.17956186830997467,-0.05608765035867691,0.13752681016921997,-0.12337858229875565,-0.11246170848608017
1.8198909759521484,0.019723176956176758,-0.014597758650779724,-0.05517178773880005,-0.18016730625911292,-1.514088952999223,-1.3781471576712783,-0.982232391834259,0.17919416725635529,-0.055759601294994354,0.3718132972717285,-0.04784156754612923,0.06265859305858612
1.8399078845977783,0.0476498007774353,-0.0346725732088089,-0.056086599826812744,-0.18059574638863493,-1.514425583154458,-1.368569571603359,-0.9821744561195374,0.17961566150188446,-0.05542462319135666,0.5992302298545837,-0.16583575308322906,0.02205057255923748
1.8598458766937256,0.049441516399383545,-0.026973873376846313,-0.09279358386993408,-0.1788813666110061,-1.516207776125567,-1.3532216908278816,-0.9825775027275085,0.1779288947582245,-0.053690824657678604,0.9043439626693726,-0.28479650616645813,-0.10284379869699478
1.8798108100891113,0.051385700702667236,-0.018750399351119995,-0.10745180398225784,-0.17556507464376434,-1.5188728668125888,-1.3331269980149651,-0.9833011627197266,0.17466455698013306,-0.051102329045534134,1.0521116256713867,-0.3511662185192108,-0.10151461511850357
1.8998119831085205,0.06241840124130249,-0.04291847348213196,-0.07930976152420044,-0.17342499924030788,-1.5258203209705148,-1.3156071057690046,-0.9840035438537598,0.17255698144435883,-0.04428641498088837,0.7254515886306763,-0.5822213292121887,-0.0650077611207962
1.9198439121246338,0.046315014362335205,-0.05138517916202545,-0.06695705652236938,-0.17218389473495155,-1.5340369816156163,-1.3022959088773862,-0.9845474362373352,0.17133435606956482,-0.03620763123035431,0.5327433943748474,-0.4673146605491638,-0.012182863429188728
1.93986177444458,0.06465572118759155,-0.024823755025863647,-0.03358137607574463,-0.17110404813033186,-1.5404534513790775,-1.294125710274754,-0.9849438667297363,0.1702703833580017,-0.029895203188061714,0.33158978819847107,-0.3538253605365753,-0.05604405701160431
1.9598729610443115,0.121975839138031,0.01670648157596588,-0.029544949531555176,-0.17041151205853025,-1.5472484245629088,-1.2865176875207636,-0.9852419495582581,0.1695879101753235,-0.02320466935634613,0.4803364872932434,-0.47212713956832886,0.030410345643758774
1.9799079895019531,0.12372267246246338,0.10933287441730499,-0.02674686908721924,-0.17104072598314618,-1.5556343698878508,-1.2729632881408575,-0.9852949976921082,0.17020797729492188,-0.014940145425498486,0.8826794028282166,-0.5873711109161377,0.020981978625059128
1.9998459815979004,0.10009872913360596,0.18859204649925232,-0.016193926334381104,-0.16999823010629247,-1.564623397703483,-1.2500641490204025,-0.9855663180351257,0.16918060183525085,-0.00608390849083662,1.399011254310608,-0.7159241437911987,-0.10030090063810349
2.019843101501465,0.08035284280776978,0.23235535621643066,-0.006922840606421232,-0.16762889309776277,-1.5742582167469843,-1.2160697019875195,-0.9859774112701416,0.1668449491262436,0.003413358936086297,1.9480606317520142,-0.7903776168823242,-0.09772093594074249
2.0398898124694824,0.07022589445114136,0.275404691696167,0.01348197553306818,-0.166850789962089,-1.582671863234873,-1.173306963097584,-0.9860433340072632,0.16607770323753357,0.01171034388244152,2.230719804763794,-0.7674342393875122,-0.017564501613378525
2.059844970703125,0.14099013805389404,0.2486571967601776,-0.011144638061523438,-0.168149535271495,-1.5890506204187318,-1.1276385523867234,-0.9857320189476013,0.16735826432704926,0.017995839938521385,2.2445926666259766,-0.6803020238876343,0.08421209454536438
2.0798399448394775,0.21258622407913208,0.24254988133907318,-0.02753603458404541,-0.1714509256212129,-1.5963445975382389,-1.0840417422391262,-0.9850167036056519,0.1706121861934662,0.02517095021903515,2.0689845085144043,-0.7851632833480835,0.1365344226360321
2.0998897552490234,0.2376081943511963,0.2475166767835617,-0.06285381317138672,-0.17557931169477214,-1.6057987885655172,-1.043624987712315,-0.9840223789215088,0.17467857897281647,0.03445727750658989,1.9272701740264893,-0.8543306589126587,0.16328805685043335
2.1198439598083496,0.23838835954666138,0.24092774093151093,-0.05694925785064697,-0.17970015718156207,-1.6155878671757753,-1.0052822300991073,-0.9829105138778687,0.17873457074165344,0.04405554383993149,1.9608330726623535,-0.7983615398406982,0.06560061126947403
2.139842987060547,0.22640061378479004,0.2915627956390381,-0.12519526481628418,-0.18259453082382054,-1.6225024736038487,-0.9584208342136373,-0.9820616841316223,0.18158158659934998,0.05082392692565918,2.7201132774353027,-0.7694641351699829,0.032250646501779556
2.1599388122558594,0.23018449544906616,0.3950827717781067,-0.13525903224945068,-0.18656386630806607,-1.627198949545712,-0.8972151069529308,-0.9810848832130432,0.18548348546028137,0.05539451166987419,3.2408454418182373,-0.849471926689148,-0.007890423759818077
2.1798768043518066,0.18690359592437744,0.34232038259506226,-0.09542834758758545,-0.18837840438828793,-1.6332975398637628,-0.8323505241776881,-0.9803912043571472,0.18726623058319092,0.061355553567409515,3.037558078765869,-0.9484593272209167,-0.17584829032421112
2.199845790863037,0.1330660581588745,0.2557408809661865,-0.018229134380817413,-0.18769613068803448,-1.6407247444151636,-0.7777421847576519,-0.980035662651062,0.18659599125385284,0.06864427030086517,2.263354539871216,-0.7760335206985474,-0.2281898856163025
2.219841957092285,0.1280718445777893,0.2310330718755722,-0.014177672564983368,-0.1865508649923014,-1.6459171435667697,-0.7406542094433948,-0.9798786640167236,0.18547071516513824,0.07374805957078934,1.3962417840957642,-0.4551607072353363,-0.1394783854484558
2.239865779876709,0.2006160020828247,0.2934819459915161,-0.07033383846282959,-0.1865562741277948,-1.6488957666845176,-0.71718178688581,-0.9796534776687622,0.18547603487968445,0.07666633278131485,1.0265331268310547,-0.3184439241886139,-0.056851617991924286
2.2598438262939453,0.2672461271286011,0.3944128453731537,-0.12417245656251907,-0.18775816817209617,-1.6511941055944301,-0.6940473237885796,-0.9792516827583313,0.18665693700313568,0.07889972627162933,1.336552619934082,-0.3636174499988556,-0.0054587991908192635
2.279849052429199,0.2609272599220276,0.41769784688949585,-0.12726366519927979,-0.19055458815037635,-1.6524936909490795,-0.6627905826074852,-0.9786244630813599,0.1894034743309021,0.08012939244508743,1.7249815464019775,-0.34083855152130127,0.015743456780910492
2.299853801727295,0.22484833002090454,0.3645939826965332,-0.09425247460603714,-0.193293666857369,-1.6514075715812406,-0.6260710858418324,-0.978190004825592,0.19209225475788116,0.07902435958385468,1.8735917806625366,-0.23175875842571259,-0.02461988665163517
2.3198909759521484,0.24849796295166016,0.3006303906440735,0.014747977256774902,-0.1963096853575013,-1.6470321602652427,-0.5899596932675701,-0.9779444336891174,0.19505123794078827,0.07469917833805084,1.6145573854446411,-0.023463081568479538,0.05557001382112503
2.3401479721069336,0.2710835933685303,0.22077299654483795,0.025231249630451202,-0.2003646627586294,-1.6409895787090005,-0.5607968803506181,-0.9775809645652771,0.19902671873569489,0.06873250752687454,1.3543212413787842,0.004574945662170649,0.1316341757774353
2.3598480224609375,0.24408560991287231,0.24914991855621338,-0.03451097756624222,-0.20547885300684407,-1.6361465703666083,-0.533350600035206,-0.9768736362457275,0.20403596758842468,0.0639299675822258,1.3874189853668213,-0.0632004588842392,0.1808476597070694
2.3798439502716064,0.1878073811531067,0.2879049777984619,-0.013599038124084473,-0.20990989270090654,-1.6307915867410765,-0.5037855808884897,-0.9762901067733765,0.20837177336215973,0.0586431547999382,1.5377506017684937,0.017216084524989128,0.08028252422809601
2.3998517990112305,0.19875246286392212,0.19445419311523438,0.055811166763305664,-0.21353687752745745,-1.6214267485245402,-0.47301781644182184,-0.9760352373123169,0.21191775798797607,0.049459341913461685,1.437453031539917,0.26210299134254456,0.11072927713394165
2.4198999404907227,0.22577732801437378,0.1096646785736084,0.09249377250671387,-0.21653194024512395,-1.609964335554087,-0.44730861831881896,-0.9758993983268738,0.21484383940696716,0.03824359551072121,1.1167398691177368,0.3203801214694977,0.1044970229268074
2.4398770332336426,0.2098081111907959,0.05889981985092163,0.0628969669342041,-0.2202507546403068,-1.5992273006349476,-0.42755413223171596,-0.9754484295845032,0.21847432851791382,0.027740422636270523,0.7906650304794312,0.3428909480571747,0.17503491044044495
2.4598538875579834,0.17392295598983765,0.02401474118232727,0.06425237655639648,-0.22386779556735686,-1.5888435669690761,-0.4162527145574263,-0.9748873114585876,0.2220025509595871,0.017595935612916946,0.32987716794013977,0.46183446049690247,0.16180284321308136
2.4798550605773926,0.21272629499435425,-0.02041223645210266,0.10501205921173096,-0.22661617768233075,-1.5768241164430579,-0.4131512293432026,-0.974414587020874,0.22468151152133942,0.0058736372739076614,-0.025630362331867218,0.6696356534957886,0.11173287034034729
2.499866008758545,0.2810419201850891,-0.07700777053833008,0.09026271104812622,-0.22880971212989681,-1.5637703467002393,-0.41600422458021685,-0.9739130735397339,0.22681841254234314,-0.0068428064696490765,-0.18790698051452637,0.6802002787590027,0.10714533179998398
2.5198960304260254,0.28514671325683594,-0.09917375445365906,-0.014355003833770752,-0.23151582008126279,-1.5529984352378683,-0.41670179498930804,-0.9731655716896057,0.2294531613588333,-0.017322124913334846,0.14193414151668549,0.38350290060043335,0.15417350828647614
2.5398478507995605,0.17721259593963623,-0.04780678451061249,0.055576443672180176,-0.23412864280980347,-1.5456438746067829,-0.41136386799462826,-0.972409188747406,0.23199549317359924,-0.024463634938001633,0.31090453267097473,0.30429527163505554,0.08698543906211853
2.559906005859375,0.03434652090072632,-0.07591088116168976,0.0761229395866394,-0.23331037960048345,-1.5356138673242192,-0.40423079714114785,-0.9723044633865356,0.2311994731426239,-0.034222181886434555,0.4416590631008148,0.5006904602050781,-0.13523028790950775
2.5796959400177,0.0398905873298645,-0.10979700088500977,0.05800306797027588,-0.22979491646410152,-1.5236212207899638,-0.39264666769529544,-0.9726299047470093,0.22777783870697021,-0.04591798782348633,0.6788380146026611,0.3817661702632904,-0.13392356038093567
2.5998408794403076,-0.02457261085510254,-0.11400337517261505,0.05712890625,-0.2261243562161059,-1.5156702286536916,-0.37808027033902425,-0.9730623364448547,0.2242022305727005,-0.05369553342461586,0.7800286412239075,0.09574675559997559,-0.21963292360305786
2.6199018955230713,-0.23142695426940918,-0.13585340976715088,0.05409121513366699,-0.21830205247677445,-1.5084258578044776,-0.3611608950788014,-0.9743684530258179,0.21657228469848633,-0.06085073947906494,0.871965765953064,0.3507075905799866,-0.43331852555274963
2.639842987060547,-0.22681009769439697,-0.1758364886045456,0.06807869672775269,-0.2083618895530002,-1.4952768250702015,-0.34647598177917177,-0.9755825400352478,0.20685750246047974,-0.07381588965654373,0.5720437169075012,0.6075336933135986,-0.4516192674636841
2.6598429679870605,-0.11999130249023438,-0.18827491998672485,0.01474142074584961,-0.1987823932741156,-1.4832216513756733,-0.33901396720386323,-0.9765511155128479,0.1974758505821228,-0.08574044704437256,0.33854180574417114,0.37930259108543396,-0.4118503928184509
2.6798839569091797,-0.19507193565368652,-0.10031421482563019,0.01610618829727173,-0.1910897922196769,-1.4760910290315834,-0.33361873337844883,-0.9773982167243958,0.18992896378040314,-0.09284252673387527,0.26567864418029785,0.33237573504447937,-0.32306551933288574
2.699910879135132,-0.3361751437187195,-0.05943591892719269,0.0935133770108223,-0.18484576036880804,-1.4661888848805198,-0.32975658401700747,-0.977591335773468,0.18379493057727814,-0.10263798385858536,0.1524161696434021,0.6232694983482361,-0.24779334664344788
2.7198147773742676,-0.31015706062316895,-0.13451947271823883,0.12944714725017548,-0.1817525113141566,-1.4504805767253364,-0.3292388250171936,-0.9764184355735779,0.18075349926948547,-0.11804869025945663,-0.07708365470170975,0.8954536318778992,-0.07946141809225082
2.739954948425293,-0.2537522315979004,-0.09530526399612427,0.07057879865169525,-0.18100876536674843,-1.43423011906017,-0.3304095758241147,-0.9745041728019714,0.1800219565629959,-0.1339179128408432,0.03185993432998657,0.7194409966468811,-0.012820547446608543
2.7598769664764404,-0.3020232915878296,-0.046552494168281555,0.048485592007637024,-0.1808681604742264,-1.4206438735813065,-0.3262963187053424,-0.9726196527481079,0.17988364398479462,-0.1471487581729889,0.40992072224617004,0.5989960432052612,0.04165530577301979
2.7798757553100586,-0.35742563009262085,-0.06799587607383728,0.09716063737869263,-0.17955470034015836,-1.4061873905664157,-0.3162765859136093,-0.9706231355667114,0.17859144508838654,-0.1612321436405182,0.5484715104103088,0.6797611713409424,-0.01717517152428627
2.7998719215393066,-0.31342804431915283,-0.1273762434720993,0.10869145393371582,-0.17678802147296943,-1.3907934198755365,-0.30548034185851064,-0.9685086607933044,0.17586857080459595,-0.17624197900295258,0.5051299929618835,0.6499891877174377,-0.06471384316682816
2.8199820518493652,-0.2562853693962097,-0.14682555198669434,0.08075356483459473,-0.17476760113114576,-1.377848983381808,-0.298385815453202,-0.9664930105209351,0.17387928068637848,-0.1888314187526703,0.17870274186134338,0.5171127319335938,-0.013918092474341393
2.8400678634643555,-0.24809956550598145,-0.1135587990283966,0.07133057713508606,-0.17416066306178038,-1.3686668050129873,-0.29919098890292717,-0.9648215174674988,0.17328156530857086,-0.19771897792816162,-0.19620344042778015,0.44963398575782776,-0.05642838776111603
2.8599588871002197,-0.21438825130462646,-0.07524502277374268,0.06007272005081177,-0.17557178823387642,-1.3610924705134344,-0.30505070654342187,-0.9630562663078308,0.17467115819454193,-0.20497003197669983,-0.39179113507270813,0.3795861005783081,0.07817741483449936
2.879901885986328,-0.21035397052764893,-0.0848173201084137,0.094179168343544,-0.1801193660394471,-1.3546313662538019,-0.3119697653730188,-0.9609259963035583,0.17914700508117676,-0.21101553738117218,-0.3248744606971741,0.3902575671672821,0.209394633769989
2.8998379707336426,-0.26115286350250244,-0.05179089307785034,0.10669541358947754,-0.1839451252264341,-1.3475226770152702,-0.31141010531870933,-0.9587264060974121,0.18290956318378448,-0.21768774092197418,0.3295043110847473,0.3664729595184326,0.13175906240940094
2.927273750305176,-0.2782708406448364,-0.12410564720630646,0.09472931921482086,-0.18047301424876624,-1.3314174826517786,-0.2922397757370203,-0.9557074308395386,0.1794949322938919,-0.23324847221374512,0.21381929516792297,0.20168791711330414,0.036765243858098984
2.9482717514038086,-0.36027640104293823,-0.1656079888343811,0.07056933641433716,-0.18158831087275126,-1.3278105266797633,-0.29089194454122486,-0.9546650648117065,0.18059200048446655,-0.23664584755897522,-0.10642500966787338,0.15576250851154327,0.10636481642723083
2.9682469367980957,-0.42267847061157227,-0.12724055349826813,0.12124796211719513,-0.18602013004343984,-1.3235203927250576,-0.294260554509644,-0.9528555870056152,0.18494915962219238,-0.240541011095047,-0.3804299831390381,0.357262521982193,0.2492009550333023
2.9798319339752197,-0.42267847061157227,-0.12724055349826813,0.12124796211719513,-0.18602013004343984,-1.3235203927250576,-0.294260554509644,-0.9528555870056152,0.18494915962219238,-0.240541011095047,-0.3804299831390381,0.357262521982193,0.2492009550333023
3.0070080757141113,-0.49315983057022095,-0.14775912463665009,0.10472705960273743,-0.21216767534435838,-1.2934548116384912,-0.3013933468896139,-0.9402204751968384,0.21057945489883423,-0.2676602900028229,-0.33475184440612793,0.9955235719680786,1.0168263912200928
3.0279829502105713,-0.6140494346618652,-0.16729263961315155,0.0847862958908081,-0.2258169301096091,-1.2761011593642335,-0.2965818531234833,-0.932596743106842,0.223902627825737,-0.28307414054870605,0.2369135469198227,0.4697893261909485,0.5550331473350525
3.047818899154663,-0.4370042085647583,-0.12509629130363464,0.23986509442329407,-0.23672160585943064,-1.2746766971920656,-0.2890043905292661,-0.9298018217086792,0.2345169186592102,-0.28367289900779724,0.22737760841846466,-0.37751898169517517,0.7383636236190796
3.0676350593566895,-0.5525919795036316,-0.0761309266090393,0.193663090467453,-0.25317372249484466,-1.2779311054479339,-0.27617729349492054,-0.9269003868103027,0.25047776103019714,-0.27949368953704834,0.41164353489875793,-0.08930032700300217,1.13227379322052
3.0876340866088867,-0.6903676390647888,0.02183583378791809,0.020132392644882202,-0.2719708204759693,-1.272917302642202,-0.2600912880049373,-0.9208231568336487,0.26863032579421997,-0.2827054560184479,0.49047961831092834,0.0861058458685875,1.17173171043396
3.1076807975769043,-0.572613000869751,-0.0655500590801239,0.12016582489013672,-0.29600413676214093,-1.268386634646638,-0.24988397766251905,-0.9131048917770386,0.29170045256614685,-0.28486907482147217,-0.42640450596809387,0.12952832877635956,1.4357248544692993
3.1276068687438965,-0.5456063151359558,-0.14790138602256775,0.14288270473480225,-0.3314580377621861,-1.270037496155973,-0.25896759648231094,-0.903124213218689,0.3254220485687256,-0.2801201343536377,-1.2185516357421875,-0.12218344211578369,1.6301401853561401
3.1476287841796875,-0.5184155702590942,0.06984701752662659,0.10091525316238403,-0.3692418579778733,-1.2778501403784122,-0.27065941806992466,-0.8928698897361755,0.36090847849845886,-0.2693111300468445,-0.7795248627662659,-0.2258535623550415,1.640991449356079
3.16749906539917,-0.5302061438560486,0.127853661775589,0.05383944511413574,-0.4003488361671764,-1.2820043185104504,-0.26782119668962945,-0.882788360118866,0.38973963260650635,-0.2622743844985962,0.06886820495128632,-0.2962680459022522,1.4326967000961304
3.1877589225769043,-0.48969411849975586,0.039103150367736816,0.11019155383110046,-0.425996304724843,-1.284480562590109,-0.2569239059796884,-0.8735566139221191,0.41322824358940125,-0.25717929005622864,-0.0029996056109666824,-0.39488181471824646,1.3372306823730469
3.206620931625366,-0.4172019958496094,-0.08323004841804504,0.1782260239124298,-0.4534878947843599,-1.2923754662272633,-0.25582509000375286,-0.8643074035644531,0.4381035566329956,-0.24705828726291656,-0.7174849510192871,-0.41794174909591675,1.3421763181686401
3.2273850440979004,-0.3638625144958496,-0.030648916959762573,0.10250677168369293,-0.4833650722871136,-1.3073527168221606,-0.26681682058702694,-0.8548875451087952,0.464761346578598,-0.2305736392736435,-0.9509518146514893,-0.5860261917114258,1.2666863203048706
3.2472147941589355,-0.3299313187599182,0.07885584235191345,0.06895764172077179,-0.5112052252142835,-1.3251422456634883,-0.2792740137998161,-0.8459720611572266,0.489228755235672,-0.21210020780563354,-0.7101637125015259,-0.6465607285499573,1.139312505722046
3.2672510147094727,-0.2756558060646057,0.10324108600616455,0.04641568660736084,-0.5336355244673289,-1.341370329780519,-0.28473353813079827,-0.8384037613868713,0.5086667537689209,-0.1957991123199463,-0.3456704616546631,-0.6730453968048096,0.9654396772384644
3.2863059043884277,-0.1699257493019104,0.04799550771713257,0.015615001320838928,-0.5530944708440448,-1.3567128389448544,-0.28468977346016533,-0.8314781188964844,0.5253228545188904,-0.1807759702205658,-0.14344076812267303,-0.876031219959259,0.9727295637130737
3.306985855102539,-0.13250333070755005,0.0646628737449646,0.043379783630371094,-0.5735731305950955,-1.3762138963811925,-0.2859974486151573,-0.824116051197052,0.5426368117332458,-0.16241347789764404,-0.40640366077423096,-0.9656572937965393,0.9960153102874756
3.3261029720306396,-0.11940020322799683,0.06393659114837646,-0.013333678245544434,-0.5946010123874566,-1.3991036955639518,-0.2909453555221508,-0.8161925673484802,0.560178279876709,-0.14152765274047852,-0.37733790278434753,-1.0248855352401733,1.0131118297576904
3.347202777862549,-0.03861302137374878,0.11329090595245361,-0.026486694812774658,-0.6150711721682648,-1.4205615168844627,-0.29456616656326734,-0.8075327277183533,0.5770166516304016,-0.1222405880689621,-0.1860455721616745,-0.9597604274749756,0.9428489208221436
3.367002010345459,0.05098676681518555,0.08811986446380615,-0.043930649757385254,-0.6327178759741566,-1.438719559461976,-0.2933791054325364,-0.7993999719619751,0.5913386940956116,-0.10620041191577911,-0.03205428272485733,-0.9024827480316162,0.8384068012237549
3.3871068954467773,0.13992774486541748,0.0418626070022583,-0.06851893663406372,-0.6490801106830939,-1.4574009745910186,-0.29378942742694225,-0.7915239334106445,0.6044538617134094,-0.09014182537794113,-0.20872613787651062,-0.9550308585166931,0.7928458452224731
3.4069929122924805,0.20496708154678345,0.025081634521484375,-0.09185516089200974,-0.6653811822424779,-1.4804575275837437,-0.30076744546843126,-0.7834736108779907,0.6173590421676636,-0.07097124308347702,-0.5418426394462585,-0.9054908752441406,0.7756779789924622
3.4267759323120117,0.26508861780166626,0.022925496101379395,-0.15767574310302734,-0.6808828306073695,-1.507569000592905,-0.3153414132815829,-0.7754647731781006,0.6294792294502258,-0.0490960069000721,-0.6634395122528076,-0.8908759951591492,0.6734057664871216
3.4467039108276367,0.36462920904159546,0.06617236137390137,-0.14934992790222168,-0.6935906470951608,-1.534649480255878,-0.33155531948389116,-0.768453061580658,0.6393023729324341,-0.02778925932943821,-0.5760485529899597,-0.8057791590690613,0.5575690269470215
3.4665451049804688,0.463079035282135,0.03342545032501221,-0.16400545835494995,-0.7050175586574124,-1.556816777637259,-0.3416500494859962,-0.7615256905555725,0.6480472087860107,-0.01064648013561964,-0.2585808038711548,-0.7535465955734253,0.6041036248207092
3.486623764038086,0.5167394876480103,0.0056691765785217285,-0.18763041496276855,-0.71679825325076,-1.5748555449868247,-0.3462022070544668,-0.7539069056510925,0.656974196434021,0.0030602894257754087,-0.11054014414548874,-0.760185956954956,0.5720161199569702
3.505650043487549,0.5517536401748657,-0.045407652854919434,-0.21449828147888184,-0.7280535916203376,-1.5920029364392205,-0.34943576295283113,-0.7463033199310303,0.6654179692268372,0.01582893542945385,-0.14822693169116974,-0.7726406455039978,0.5744064450263977
3.5269439220428467,0.5559212565422058,-0.09899628162384033,-0.17697596549987793,-0.7396422318326464,-1.613056730406223,-0.3571126882629397,-0.7380502820014954,0.6740236878395081,0.031208883970975876,-0.38641586899757385,-0.7902782559394836,0.6037278175354004
3.5456719398498535,0.5183063745498657,-0.07744908332824707,-0.1826568841934204,-0.7509559088320508,-1.6349324821629165,-0.36854220219514733,-0.729533851146698,0.6823378801345825,0.04685375466942787,-0.32860419154167175,-0.6134169101715088,0.5617214441299438
3.5666449069976807,0.5515320301055908,-0.0707133412361145,-0.22152221202850342,-0.7620461683757334,-1.6482552929632555,-0.37275461165715923,-0.7212556004524231,0.690403163433075,0.055979713797569275,0.08937842398881912,-0.4764324128627777,0.5269439220428467
3.586392879486084,0.5984241366386414,-0.11923682689666748,-0.23823094367980957,-0.7724978285230204,-1.6530178259296244,-0.36379195763159367,-0.7137501239776611,0.6979262828826904,0.058818209916353226,0.6595680713653564,-0.6504135727882385,0.5026184320449829
3.60628080368042,0.555945098400116,-0.15486621856689453,-0.17252933979034424,-0.783831895076625,-1.65282330738574,-0.3444894156704566,-0.705832302570343,0.705998420715332,0.05802749842405319,0.7120254635810852,-0.6804609298706055,0.47430533170700073
3.626370906829834,0.44314873218536377,-0.2112169861793518,-0.16364026069641113,-0.7937272656842698,-1.654835515963349,-0.32815678906209345,-0.6987183690071106,0.7129717469215393,0.05885835364460945,0.5189046859741211,-0.6424427032470703,0.44192102551460266
3.64597487449646,0.3873012661933899,-0.19176322221755981,-0.18485593795776367,-0.8035049817040564,-1.6583195018409735,-0.3161127475797162,-0.6915311813354492,0.7197936177253723,0.060680024325847626,0.45440831780433655,-0.5876044631004333,0.45065540075302124
3.6687119007110596,0.35280466079711914,-0.12560904026031494,-0.2138230800628662,-0.812038806117989,-1.6596047840012322,-0.3009228824691832,-0.6853090524673462,0.7256914377212524,0.061021748930215836,0.769244909286499,-0.6366044282913208,0.2754504978656769
3.687978982925415,0.27885037660598755,-0.13236409425735474,-0.20088529586791992,-0.8184855964715029,-1.6504030562856227,-0.2716578542313987,-0.6811637282371521,0.730111837387085,0.05434005334973335,1.1897361278533936,-0.5482409000396729,0.16169136762619019
3.705434799194336,0.19386827945709229,-0.22447651624679565,-0.12914037704467773,-0.8208932941127922,-1.6380182327588724,-0.2399049784395106,-0.6800287365913391,0.7317549586296082,0.045781806111335754,0.9515711665153503,-0.5514041185379028,-0.03363262861967087
3.7254369258880615,0.184145987033844,-0.25243234634399414,-0.08297823369503021,-0.8204483316874143,-1.6336966590558664,-0.219454572919937,-0.6805452108383179,0.7314516305923462,0.04286305978894234,0.460064172744751,-0.5480104684829712,-0.15162666141986847
3.745656967163086,0.1937904953956604,-0.16356009244918823,-0.0754479169845581,-0.8169563776395679,-1.6353495560961402,-0.2054817253319712,-0.6830178499221802,0.729066014289856,0.044152356684207916,0.6356150507926941,-0.6300069689750671,-0.23346105217933655
3.7658259868621826,0.09376788139343262,-0.05588817596435547,-0.10587406158447266,-0.8135207938811233,-1.6279042540658717,-0.1742973044167719,-0.6858242750167847,0.7267102599143982,0.039208635687828064,1.43825364112854,-0.9372473955154419,-0.24546802043914795
3.785922050476074,-0.13719022274017334,-0.12440204620361328,0.07992517203092575,-0.8058907801280089,-1.6184555959883553,-0.1332111074541526,-0.6916823983192444,0.721447765827179,0.03299006074666977,1.200347661972046,-1.009424090385437,-0.7183611989021301
3.805731773376465,-0.12279373407363892,-0.21607112884521484,0.2584277391433716,-0.7917514741499014,-1.616934227621582,-0.10893604612636945,-0.7018522620201111,0.7115849256515503,0.03240498527884483,0.012865031138062477,-0.17201003432273865,-0.3586192727088928
3.825610876083374,-0.7066262364387512,-0.3364381194114685,-0.8415508270263672,-0.7874903746585639,-1.6263539945007623,-0.13242400992992057,-0.7045372128486633,0.7085846662521362,0.039182767271995544,-0.09106980264186859,-0.29456302523612976,-0.7888393402099609
3.8455679416656494,-0.269741415977478,0.3124845027923584,-0.24522149562835693,-0.7855937665444138,-1.6156800680094257,-0.11056889142141477,-0.706256628036499,0.7072450518608093,0.03172074258327484,0.27110907435417175,0.0015777354128658772,0.6524690389633179
3.8646860122680664,-0.22476518154144287,0.3090273141860962,0.3511596918106079,-0.7815349078814822,-1.6189108477488985,-0.09700088902729499,-0.7090116739273071,0.7043697834014893,0.03414010629057884,0.7832247018814087,-0.7110391855239868,-0.39018386602401733
3.8856258392333984,-0.300051212310791,-0.06784844398498535,0.1944749355316162,-0.7844180272613617,-1.6039565141816097,-0.07805341739836634,-0.7074103951454163,0.7064133882522583,0.023466462269425392,0.569961667060852,0.5059182643890381,0.22583265602588654
3.9054019451141357,-0.2128041386604309,-0.1110343337059021,-0.20248794555664062,-0.7879431926253959,-1.5842588514335683,-0.06053968505487269,-0.7052409648895264,0.7089040875434875,0.009494896978139877,0.6477591395378113,0.2501378357410431,0.1917254626750946
3.924499034881592,-0.16844159364700317,-0.21343785524368286,-0.11681705713272095,-0.7919128734319237,-1.5692048835961765,-0.044414122557536045,-0.7024843692779541,0.7116983532905579,-0.0011179649736732244,0.4005652964115143,0.15680886805057526,0.1886882781982422
3.945384979248047,-0.10857009887695312,-0.2279946208000183,0.08608442544937134,-0.7958741110033056,-1.5609905361012297,-0.03946684170274545,-0.6996272206306458,0.7144754528999329,-0.00686061754822731,0.016119055449962616,0.2821677625179291,0.20562337338924408
3.965204954147339,-0.0537223219871521,-0.14160418510437012,0.07120949029922485,-0.7995516671007744,-1.5557177119334646,-0.039097220251303876,-0.6969492435455322,0.7170436382293701,-0.010509825311601162,0.04060916602611542,0.20372550189495087,0.1802491694688797
3.9844470024108887,-0.08239179849624634,-0.12646722793579102,0.10415780544281006,-0.8031261741529279,-1.5500295532090986,-0.037388893746954206,-0.6943112015724182,0.7195305824279785,-0.014420676976442337,0.03755776956677437,0.27591776847839355,0.18972349166870117
4.005137920379639,-0.16833800077438354,-0.08743339776992798,0.05049896240234375,-0.8071748723662605,-1.5425387655211031,-0.037275815489320144,-0.6912660002708435,0.7223363518714905,-0.019538693130016327,0.008859237655997276,0.44513431191444397,0.17125645279884338
4.024946928024292,-0.1815360188484192,-0.10775965452194214,-0.04996108636260033,-0.8085680386890138,-1.5325870283261045,-0.03630206658833063,-0.6900308132171631,0.7232990860939026,-0.026378430426120758,0.03476116806268692,0.4787399470806122,0.021203212440013885
4.0450358390808105,-0.11143577098846436,-0.23319095373153687,-0.014102693647146225,-0.8098564076209988,-1.5238310997770967,-0.03619860645976734,-0.6888419389724731,0.7241881489753723,-0.03237542510032654,-0.055767279118299484,0.38613951206207275,0.10587568581104279
4.063817977905273,-0.18002569675445557,-0.20889955759048462,0.052604734897613525,-0.8113853850471328,-1.5190792780612234,-0.04008649639391873,-0.6875739097595215,0.7252417206764221,-0.03559102863073349,-0.22174909710884094,0.38646718859672546,0.044975437223911285
4.084723949432373,-0.31464576721191406,-0.13147330284118652,0.03998100757598877,-0.8120902668771329,-1.5161603232402838,-0.048899187506913834,-0.6869564652442932,0.725726842880249,-0.03756994754076004,-0.3978383541107178,0.5783175230026245,-0.022925881668925285
4.104622840881348,-0.3795830011367798,-0.10749310255050659,-0.0013951025903224945,-0.8117671469823284,-1.51259534186504,-0.06428982682117454,-0.6870521903038025,0.7255045175552368,-0.04003232717514038,-0.6277085542678833,0.8732250928878784,0.009151306003332138
4.124734878540039,-0.2934148907661438,-0.140638530254364,-0.0636676549911499,-0.8144140884519824,-1.5057068310085635,-0.07998792275015713,-0.6848413944244385,0.727323591709137,-0.04463903605937958,-0.4669214189052582,0.9759197235107422,0.20606790482997894
4.143837928771973,-0.2671038508415222,-0.17304188013076782,-0.04706275463104248,-0.8209420329516646,-1.4960218312068905,-0.09326138836082402,-0.6796277761459351,0.731788158416748,-0.05091375112533569,-0.47317615151405334,0.9673485159873962,0.4052506387233734
4.1645660400390625,-0.3417222499847412,-0.14511609077453613,-0.008692383766174316,-0.8279054233794011,-1.4842380688305539,-0.10451858205200723,-0.6738875508308411,0.7365161776542664,-0.05847664922475815,-0.3080414831638336,1.1037768125534058,0.2247370332479477
4.184846878051758,-0.30364716053009033,-0.212751567363739,0.02210921049118042,-0.8310590724862613,-1.4660278316100164,-0.11257942902694634,-0.6703977584838867,0.7386456727981567,-0.07049468159675598,-0.2956891357898712,1.2376720905303955,0.026932287961244583
4.204596996307373,-0.2303072214126587,-0.3123871684074402,0.0003154873847961426,-0.8267619756457776,-1.447227299751302,-0.11704984981241474,-0.6720976829528809,0.7357422709465027,-0.083475761115551,0.008962741121649742,1.0315526723861694,-0.3537985384464264
4.224430084228516,-0.10877341032028198,-0.3725980520248413,0.08844201266765594,-0.8182841202062522,-1.4308711046715286,-0.12441273254450211,-0.6767949461936951,0.7299741506576538,-0.09532361477613449,-0.511884868144989,1.0446140766143799,-0.5683941841125488
4.244556903839111,-0.15744775533676147,-0.4087989926338196,0.0362807959318161,-0.8051914025004818,-1.426161129444553,-0.14578072282948423,-0.6857378482818604,0.7209632992744446,-0.09987927228212357,-0.686062216758728,1.0781410932540894,-0.8482118248939514
4.26436185836792,-0.09653598070144653,-0.31884902715682983,0.04517681151628494,-0.7883617443047712,-1.4200488193192735,-0.16970786995640844,-0.6970126628875732,0.7091992497444153,-0.1058761477470398,-0.6558792591094971,1.2164039611816406,-1.1403013467788696
4.284400939941406,0.007985293865203857,-0.26657354831695557,0.035012491047382355,-0.7636270701481179,-1.4093702320236705,-0.18907120990697251,-0.7129414081573486,0.6915459632873535,-0.11609753966331482,-0.3418390452861786,1.1920443773269653,-1.4821475744247437
4.3043670654296875,0.061619460582733154,-0.23929089307785034,0.02877962589263916,-0.7328744812369276,-1.395248052215544,-0.20178067389968693,-0.7318313717842102,0.6690088510513306,-0.12980791926383972,-0.11094951629638672,1.0879168510437012,-1.7131385803222656
4.3241589069366455,0.0740167498588562,-0.19845932722091675,-0.0035319477319717407,-0.6976438165486331,-1.3830816261713896,-0.2138592889957594,-0.7528957724571228,0.6424137949943542,-0.1430133432149887,-0.16360202431678772,0.9034669399261475,-1.9235718250274658
4.34437894821167,0.10024327039718628,-0.1282619833946228,0.0008476376533508301,-0.659122323818484,-1.375622188360949,-0.22863455703823182,-0.7755210995674133,0.6124232411384583,-0.15331335365772247,-0.25206437706947327,0.799776017665863,-2.0675339698791504
4.364332914352417,0.1554216742515564,-0.08818048238754272,0.04795825481414795,-0.6196301346093809,-1.3715326948784978,-0.24796364413128924,-0.7979846596717834,0.5807340741157532,-0.1611478328704834,-0.5298965573310852,0.7576971650123596,-2.1032888889312744
4.383925914764404,0.18012219667434692,-0.04010021686553955,0.04377187788486481,-0.5808156900392496,-1.3713045171155671,-0.2731519649830433,-0.8194349408149719,0.5487060546875,-0.16567417979240417,-0.6485550999641418,0.6954517960548401,-2.120474100112915
4.403991937637329,0.16061079502105713,0.12986844778060913,-0.06249798834323883,-0.5410948453492128,-1.3691595478239278,-0.2934635208762901,-0.8397796750068665,0.5150747299194336,-0.17166326940059662,-0.18713447451591492,0.5687522292137146,-2.12471342086792
4.4241719245910645,0.14980369806289673,0.2580030858516693,-0.07770417630672455,-0.4991285802786769,-1.363484755342881,-0.3024503441799019,-0.859200119972229,0.47866061329841614,-0.1807185560464859,0.2217392772436142,0.4943912625312805,-2.156139850616455
4.443925857543945,0.192574143409729,0.18819081783294678,0.0251179039478302,-0.4563104984709666,-1.355748391348539,-0.30794234328946557,-0.8770073652267456,0.44063910841941833,-0.19156071543693542,0.11923082917928696,0.5399004220962524,-2.1142654418945312
4.46364688873291,0.23996853828430176,0.10752102732658386,0.0960785448551178,-0.4170357379224277,-1.3489410986193002,-0.3187144051092224,-0.8918850421905518,0.4050520360469818,-0.20118093490600586,-0.21888548135757446,0.5913312435150146,-1.9478768110275269
4.483880043029785,0.24568581581115723,0.13666775822639465,0.06839355826377869,-0.38139197136623915,-1.3434797117050017,-0.33396170796476476,-0.904270589351654,0.37221279740333557,-0.20917102694511414,-0.30504029989242554,0.5270522236824036,-1.8430622816085815
4.503687858581543,0.23562288284301758,0.24176019430160522,0.008274704217910767,-0.34744846460075685,-1.340340664393756,-0.34870549911876825,-0.9153868556022644,0.3404998481273651,-0.21477177739143372,-0.23180483281612396,0.32171759009361267,-1.8054468631744385
4.5236430168151855,0.2551419138908386,0.2889770567417145,-0.030750572681427002,-0.3142371513168392,-1.3390723756709997,-0.3598890717287952,-0.9256131649017334,0.30909106135368347,-0.21841005980968475,-0.05900413915514946,0.1494649350643158,-1.6772772073745728
4.544131755828857,0.2831141948699951,0.2829324007034302,-0.024817347526550293,-0.2826444179943136,-1.3399532491869202,-0.3676630905254745,-0.9348477125167847,0.27889612317085266,-0.21971990168094635,0.050898194313049316,-0.007270528003573418,-1.5674115419387817
4.5636420249938965,0.25887781381607056,0.2514006197452545,-0.035253316164016724,-0.25299865500214996,-1.342875563081633,-0.3745286271013953,-0.9431279301643372,0.2503082752227783,-0.2187596559524536,-0.060681939125061035,-0.09808947145938873,-1.4926252365112305
4.583686828613281,0.23050802946090698,0.210024893283844,-0.004908710718154907,-0.22602229306841173,-1.3470861365729239,-0.38665990425938623,-0.9502803087234497,0.22410276532173157,-0.21620625257492065,-0.5213225483894348,-0.03341415897011757,-1.4096766710281372
4.602542877197266,0.23292970657348633,0.16930454969406128,-0.006733298301696777,-0.20260783121077347,-1.3517321599392116,-0.40555272060283165,-0.9561353325843811,0.20122450590133667,-0.21287110447883606,-0.7401773929595947,-0.01334022730588913,-1.2686991691589355
4.621387004852295,0.23257774114608765,0.24452415108680725,-0.010960102081298828,-0.18229547447444902,-1.3562338008655501,-0.42608547466799374,-0.9608798027038574,0.181287482380867,-0.20939196646213531,-0.7228829860687256,-0.06418848782777786,-1.16658616065979
4.642072916030884,0.19115716218948364,0.25636082887649536,-0.008014857769012451,-0.16321653334208844,-1.3605959986724812,-0.44357950162611665,-0.9649914503097534,0.16249282658100128,-0.2058827430009842,-0.575200080871582,-0.07093774527311325,-1.064644694328308
4.6615400314331055,0.15741169452667236,0.255063533782959,0.0015908032655715942,-0.14514942962907126,-1.3640703456626118,-0.4573986053499438,-0.9684163331985474,0.14464029669761658,-0.20309826731681824,-0.4037621319293976,-0.06163798272609711,-0.9808433651924133
4.7722320556640625,0.1752561330795288,0.2715042233467102,0.03575706481933594,-0.12844571415100314,-1.3672686985654112,-0.46765053167874365,-0.9712919592857361,0.12809281051158905,-0.20046034455299377,-0.20793314278125763,-0.12124335020780563,-0.867217481136322
4.812956809997559,0.16861778497695923,0.23496849834918976,0.07109428942203522,-0.11317319378702059,-1.3713991585136402,-0.4731037786703395,-0.9739156365394592,0.1129317581653595,-0.19681131839752197,-0.043582264333963394,-0.20836368203163147,-0.7627369165420532
4.821211814880371,0.10180288553237915,0.17371027171611786,0.042252153158187866,-0.09803772343265853,-1.3767914082834711,-0.4769992619341327,-0.9765282273292542,0.09788075089454651,-0.19186446070671082,-0.03967827185988426,-0.3159487545490265,-0.8137427568435669
4.846261978149414,-0.09536874294281006,0.17623135447502136,-0.04942260682582855,-0.039935107028215684,-1.3957377501365609,-0.47566480697176083,-0.9839311838150024,0.039924491196870804,-0.1740269511938095,0.5716832876205444,-0.18157939612865448,-1.1145622730255127
4.863049030303955,-0.23760467767715454,0.07063908129930496,0.030303597450256348,0.01555562672747084,-1.4007843414315038,-0.48099606891209323,-0.985463559627533,-0.015554999001324177,-0.1691737025976181,-0.8293194770812988,0.15632036328315735,-0.5801864862442017
4.879812955856323,-0.16554421186447144,0.22605715692043304,0.04954713582992554,0.015608733898131085,-1.38613071880276,-0.5178903192300627,-0.9828780889511108,-0.015608100220561028,-0.18359549343585968,-0.7507587671279907,0.4468119442462921,0.21851524710655212
4.899900913238525,-0.2263559103012085,0.11407386511564255,0.07347860932350159,0.006850545780468775,-1.3761991281943524,-0.5261267840423215,-0.9811027646064758,-0.006850492209196091,-0.19336684048175812,-0.19446510076522827,0.5197427868843079,0.46986061334609985
4.919804096221924,-0.29776763916015625,0.02048332616686821,0.144916370511055,-0.003366017043099151,-1.364014149939313,-0.5232224543854016,-0.9786911010742188,0.0033660107292234898,-0.20531053841114044,0.2300388664007187,0.6743603944778442,0.5688066482543945
4.939874887466431,-0.29525935649871826,-0.06039745360612869,0.1833827644586563,-0.012591851938270582,-1.3504147228251222,-0.5148820206205094,-0.9757367372512817,0.012591519393026829,-0.21858468651771545,0.33323895931243896,0.6479975581169128,0.5053038001060486
4.962281942367554,-0.2779309153556824,-0.10996725410223007,0.1457388550043106,-0.019987343995773472,-1.3395988719483047,-0.5076404845996174,-0.9731982350349426,0.01998601295053959,-0.22909751534461975,0.22360160946846008,0.4024733006954193,0.4235992729663849
4.980315923690796,-0.2635654807090759,-0.11851298809051514,0.14805318415164948,-0.028413531150218267,-1.3330585028363253,-0.504240891936775,-0.9714809060096741,0.02840970829129219,-0.23540961742401123,-0.054937731474637985,0.2384706288576126,0.4202595055103302
5.001125812530518,-0.26753515005111694,-0.13545182347297668,0.14979895949363708,-0.03672030651458279,-1.328820852704872,-0.5032263239778324,-0.9702119827270508,0.036712054163217545,-0.23945946991443634,-0.019262516871094704,0.19823922216892242,0.4541454613208771
5.022040843963623,-0.240278959274292,-0.0838358998298645,0.12303107976913452,-0.04504789999380504,-1.3239552059481245,-0.49938117554971645,-0.9687054753303528,0.04503266513347626,-0.24409419298171997,0.20347023010253906,0.25887468457221985,0.4292854070663452
5.041996002197266,-0.20181548595428467,-0.0361194834113121,0.06604155898094177,-0.05109516778348597,-1.3187081908442437,-0.48997416473494876,-0.9671297669410706,0.05107293650507927,-0.24910110235214233,0.5487343072891235,0.21582522988319397,0.38763293623924255
5.061877965927124,-0.22503793239593506,-0.12753690779209137,0.10812842845916748,-0.05546741568149266,-1.3135441117844986,-0.4758082385701368,-0.9656054377555847,0.05543897673487663,-0.2540328800678253,0.6775261759757996,0.28498777747154236,0.4389796853065491
5.081821918487549,-0.25441354513168335,-0.19060395658016205,0.18705549836158752,-0.062210688787509426,-1.3043294929459825,-0.46237821355772935,-0.9628410935401917,0.062170568853616714,-0.2628152370452881,0.39246276021003723,0.5707507729530334,0.5224040746688843
5.101855754852295,-0.3523128628730774,-0.19928056001663208,0.14508527517318726,-0.07023354540941494,-1.2891612015286698,-0.45288782253382864,-0.9582340717315674,0.07017581909894943,-0.2772415280342102,0.42356687784194946,0.9138389825820923,0.5812942385673523
5.121448993682861,-0.3388713002204895,-0.0969306007027626,-0.013436436653137207,-0.07984916567027227,-1.2747209457566995,-0.4470410986523196,-0.9534413814544678,0.07976434379816055,-0.29083898663520813,-0.07300517708063126,0.3102462589740753,0.498100608587265
5.141945838928223,-0.3009566068649292,-0.08542988449335098,0.054385364055633545,-0.0937457148293128,-1.2755251285022535,-0.4497547146465785,-0.9525224566459656,0.09360846132040024,-0.2897215783596039,-0.5472173690795898,-0.23775973916053772,0.7889108061790466
5.161820888519287,-0.4412510395050049,-0.035354405641555786,0.16661331057548523,-0.11668884998769365,-1.2770996978658267,-0.4526012277009876,-0.9506711363792419,0.11642421782016754,-0.28752389550209045,-0.350904256105423,0.29223379492759705,1.3261135816574097
5.181853771209717,-0.6615610718727112,0.06813418865203857,0.1606968641281128,-0.14580644639363724,-1.262573378673114,-0.4487460140755869,-0.9427633285522461,0.14529035985469818,-0.30014681816101074,-0.04862428084015846,0.9455264210700989,1.5113575458526611
5.201653003692627,-0.5854485630989075,0.06443677842617035,0.14111265540122986,-0.17564636517303375,-1.2433962202504596,-0.43594771794926485,-0.9323126673698425,0.1747445911169052,-0.3166343867778778,0.19768425822257996,0.7489439249038696,1.7835737466812134
5.221437931060791,-0.5147605538368225,-0.03571154177188873,0.2386683225631714,-0.21077631397844135,-1.2281694147658697,-0.4218199084724094,-0.921030580997467,0.2092190980911255,-0.3285272419452667,0.005999668035656214,0.44219568371772766,1.9226605892181396
5.241389751434326,-0.551913857460022,0.007869601249694824,0.2949775457382202,-0.24718807831866108,-1.2170654851125127,-0.4081629968434075,-0.9095730185508728,0.24467848241329193,-0.33587098121643066,-0.052411068230867386,0.4669157862663269,1.9997068643569946
5.260324954986572,-0.5495656132698059,0.013024240732192993,0.20745575428009033,-0.28357724467633477,-1.2057948675194092,-0.3945978569880655,-0.8968150615692139,0.27979180216789246,-0.34269431233406067,0.00767251942306757,0.2749919891357422,1.8511412143707275
5.281401872634888,-0.4951176047325134,0.04874753952026367,0.2114313244819641,-0.31704111031811805,-1.1970449717952505,-0.38212113931507113,-0.8845669031143188,0.3117564916610718,-0.34691402316093445,-0.11720965802669525,0.20072883367538452,1.689936876296997
5.301280975341797,-0.3832579255104065,0.03511345386505127,0.16165661811828613,-0.3491821904269066,-1.19218372180543,-0.37371160271530035,-0.8731050491333008,0.3421294689178467,-0.34732547402381897,-0.3681057393550873,0.016654865816235542,1.606703281402588
5.320573806762695,-0.30821168422698975,0.1169891357421875,0.14746522903442383,-0.3816658201836982,-1.1907653868157955,-0.3705499650118757,-0.8618323802947998,0.37246695160865784,-0.34425774216651917,-0.5145641565322876,0.01767689920961857,1.5030657052993774
5.341300964355469,-0.2224586009979248,0.19683846831321716,0.08614575862884521,-0.41117702348910334,-1.1918160934976847,-0.3696810049712076,-0.8516076803207397,0.3996885120868683,-0.33913636207580566,-0.49841007590293884,-0.17046140134334564,1.3310877084732056
5.361426830291748,-0.1133110523223877,0.19284242391586304,0.07807567715644836,-0.43876089372814164,-1.1974366668811924,-0.36970923503030223,-0.8429117202758789,0.4248180687427521,-0.3301965892314911,-0.5530703067779541,-0.3762577176094055,1.203389286994934
5.380044937133789,-0.023557841777801514,0.18247973918914795,0.0763724148273468,-0.46507106822015687,-1.2085054779483053,-0.37342380116992285,-0.8357714414596558,0.448486328125,-0.31677451729774475,-0.7111147046089172,-0.5389364361763,1.1454631090164185
5.400887966156006,0.050702810287475586,0.20779305696487427,0.04719358682632446,-0.49129971064258693,-1.2232138821506648,-0.3804767193184612,-0.8289927244186401,0.4717722535133362,-0.3003367781639099,-0.7503681182861328,-0.6023556590080261,1.0886114835739136
5.420886039733887,0.09064877033233643,0.2334630787372589,0.04284250736236572,-0.5157539536929976,-1.238465715843714,-0.3888010376901024,-0.8223230838775635,0.49319085478782654,-0.28380918502807617,-0.7703858017921448,-0.5084409713745117,0.9509173035621643
5.4408159255981445,0.16374355554580688,0.15639472007751465,-0.01091030240058899,-0.5381702087241744,-1.2531996784467876,-0.3986199172140141,-0.8157058954238892,0.5125657320022583,-0.26814231276512146,-0.7798017263412476,-0.5303312540054321,0.9426803588867188
5.4607648849487305,0.25688016414642334,0.13052016496658325,-0.04858730733394623,-0.5611242576556191,-1.274390322088285,-0.41194896165448835,-0.8097366690635681,0.5321384072303772,-0.24729576706886292,-0.9252762794494629,-0.8514750003814697,0.9006733298301697
5.479988098144531,0.30874085426330566,0.13063150644302368,-0.01737383008003235,-0.5843775607061822,-1.2993787532820895,-0.42826649197878064,-0.8035223484039307,0.551680326461792,-0.2236081212759018,-0.9944384098052979,-0.8077094554901123,0.9218098521232605
5.501358985900879,0.36919379234313965,0.1496959924697876,-0.058327361941337585,-0.6065800017337922,-1.3241856640799634,-0.44321208772031057,-0.7967451214790344,0.5700609087944031,-0.20056840777397156,-0.819679319858551,-0.8210646510124207,0.9146398901939392
5.5210280418396,0.40966516733169556,0.08653920888900757,-0.07162272930145264,-0.6276862213262177,-1.348239194641571,-0.4571381574480433,-0.7894260287284851,0.5872735977172852,-0.1786518096923828,-0.7873218059539795,-0.7886670231819153,0.8813097476959229
5.53987979888916,0.4264785647392273,0.025474965572357178,-0.15001749992370605,-0.6478352943222354,-1.3733650676404414,-0.47142455993189614,-0.7819016575813293,0.6034616827964783,-0.1564093679189682,-0.7780559062957764,-0.8948591351509094,0.8482635021209717
5.559848785400391,0.4340192675590515,0.01510554552078247,-0.16873101890087128,-0.6672988082156839,-1.4014502714589079,-0.48754311872703154,-0.7742598652839661,0.6188664436340332,-0.13238580524921417,-0.7788025140762329,-0.914959192276001,0.8482155203819275
5.580371856689453,0.4379936456680298,0.0063332319259643555,-0.18634134531021118,-0.6867366586345846,-1.4289659006797826,-0.5035317488179825,-0.7655541300773621,0.6340169310569763,-0.10931283235549927,-0.7271755933761597,-0.8551013469696045,0.8842434883117676
5.600368976593018,0.43197524547576904,0.025304079055786133,-0.2756401300430298,-0.7063254661879507,-1.4538223172754905,-0.5149417732735775,-0.7555532455444336,0.6490427255630493,-0.08878540992736816,-0.404508113861084,-0.9039264917373657,0.9513392448425293
5.61984395980835,0.3724004030227661,0.0012809038162231445,-0.28453755378723145,-0.7253222630601212,-1.4762514944912322,-0.5213617981853429,-0.7449438571929932,0.6633766293525696,-0.07064119726419449,-0.3248445391654968,-0.8746699094772339,0.8907134532928467
5.639927864074707,0.36782294511795044,-0.10349565744400024,-0.2408478856086731,-0.7434054105069909,-1.4976926188565642,-0.5290585784736361,-0.7342018485069275,0.6767987608909607,-0.053768694400787354,-0.3880641758441925,-0.768439769744873,0.8824400901794434
5.659844875335693,0.3703492283821106,-0.1321057677268982,-0.260902464389801,-0.7616120346240752,-1.5181156529413082,-0.5364502961050043,-0.7227205038070679,0.6900889873504639,-0.038108665496110916,-0.23401568830013275,-0.7733888626098633,0.8786907196044922
5.680280923843384,0.32032066583633423,-0.1369490623474121,-0.24566799402236938,-0.7785622562062012,-1.534868867633702,-0.539259501862799,-0.7114646434783936,0.7022565603256226,-0.025572119280695915,-0.03862055763602257,-0.7091434597969055,0.8010993003845215
5.700624942779541,0.24995088577270508,-0.16368108987808228,-0.2410075068473816,-0.7935680767123292,-1.5479200155343498,-0.5385521696312601,-0.7011229991912842,0.712860107421875,-0.01604190655052662,0.011870313435792923,-0.6383439302444458,0.7080641388893127
5.720036029815674,0.20702660083770752,-0.17337918281555176,-0.2171059250831604,-0.8075840221923691,-1.557799965701815,-0.537680641763335,-0.6911882162094116,0.7226192355155945,-0.008983436971902847,0.03950320929288864,-0.4143024682998657,0.6502447724342346
5.740160942077637,0.19602346420288086,-0.13612240552902222,-0.23815381526947021,-0.8185370287528643,-1.5625929066791953,-0.5335617380393968,-0.6832672357559204,0.7301470041275024,-0.0056052543222904205,0.24525940418243408,-0.36528289318084717,0.48454466462135315
5.762507915496826,0.18500500917434692,-0.16688954830169678,-0.194427490234375,-0.8280621377982139,-1.5647723562619733,-0.5262781765502753,-0.6762924194335938,0.736622154712677,-0.004074014723300934,0.2239559441804886,-0.3952263295650482,0.3421812653541565
5.781435966491699,0.08997130393981934,-0.14656883478164673,-0.14220362901687622,-0.8333854931217136,-1.5670169526252014,-0.5198278329596091,-0.6723688840866089,0.7402119040489197,-0.0025411457754671574,0.22028468549251556,-0.2707020044326782,0.19766056537628174
5.802448749542236,0.067890465259552,-0.13629746437072754,-0.09373992681503296,-0.8362915992877227,-1.5675258251976953,-0.5135599272837016,-0.6702159643173218,0.7421627640724182,-0.002191950101405382,0.17673668265342712,-0.24048878252506256,0.11646022647619247
5.81984281539917,0.051854729652404785,-0.09284311532974243,-0.07891291379928589,-0.8393515530794934,-1.568435222524683,-0.5087685057473502,-0.6679436564445496,0.7442101240158081,-0.0015770875615999103,0.14396116137504578,-0.20788787305355072,0.17874732613563538
5.83995795249939,-0.01038360595703125,-0.01092994213104248,-0.08550548553466797,-0.8413580588421494,-1.5698735823782455,-0.5046590911566368,-0.6664505004882812,0.7455489039421082,-0.0006149636465124786,0.17683003842830658,-0.25304114818573,0.0029298095032572746
5.85985803604126,0.014586031436920166,-0.026923716068267822,-0.024478554725646973,-0.8404695455042668,-1.5701383146269348,-0.49760301218323594,-0.6671129465103149,0.7449564337730408,-0.00043896850547753274,0.3099275827407837,-0.29980430006980896,-0.11249013990163803
5.88024377822876,0.09165990352630615,-0.11278122663497925,0.05863672494888306,-0.8374727702675461,-1.5699116463362879,-0.48717063719327236,-0.6693425178527832,0.742953896522522,-0.0005921543925069273,0.33342868089675903,-0.44912463426589966,-0.15884143114089966
5.899815082550049,0.11822712421417236,-0.2007356882095337,0.06173419952392578,-0.8335188822724883,-1.57774627155349,-0.48218057389397884,-0.6722585558891296,0.7403016090393066,0.00467223534360528,-0.03203263133764267,-0.6936787366867065,-0.2759160101413727
5.919849872589111,0.11958152055740356,-0.2042635679244995,0.09288668632507324,-0.8270326081061103,-1.5959857900105043,-0.48887206960009977,-0.6768478751182556,0.7359254956245422,0.017053041607141495,-0.3512532413005829,-0.66520756483078,-0.4138234257698059
5.939833879470825,0.10042387247085571,-0.12147480249404907,0.09608757495880127,-0.8149053581535384,-1.6130928940893663,-0.49421540294180843,-0.68532395362854,0.7276606559753418,0.02900414727628231,0.13464009761810303,-0.5834646821022034,-0.742968738079071
5.959843873977661,0.09594255685806274,-0.0361475944519043,-0.01697862334549427,-0.7984530193952348,-1.6084095271196512,-0.4711844304590493,-0.6973220109939575,0.7162774205207825,0.026240887120366096,1.3896372318267822,-0.7285031676292419,-1.0197561979293823
5.9798479080200195,0.17457425594329834,-0.049082398414611816,0.12652838230133057,-0.7763907077546274,-1.594898959647665,-0.4278555104305281,-0.7132402062416077,0.7007089257240295,0.017194297164678574,1.4364991188049316,-1.1158244609832764,-1.1098945140838623
5.999845027923584,-0.1253122091293335,0.14668536186218262,-0.016449332237243652,-0.7828953958258237,-1.5843154366185968,-0.393282772597755,-0.7088096141815186,0.7053348422050476,0.009583058767020702,0.3930474817752838,0.24079999327659607,1.0478339195251465
6.019844055175781,-0.6568421721458435,0.8314587473869324,-0.43873071670532227,-0.7567914911008449,-1.5825215100300711,-0.3751816962364371,-0.7269927263259888,0.6865922808647156,0.008524513803422451,1.726753830909729,-1.369673252105713,-2.3672454357147217
6.039851903915405,0.3165134787559509,0.042437851428985596,0.08230644464492798,-0.7368977715854331,-1.5615030138674635,-0.31965892849642324,-0.7405247688293457,0.6719937920570374,-0.006882126443088055,2.0075953006744385,-0.4921199381351471,-0.09632377326488495
6.059844970703125,-0.3125247359275818,-0.29719650745391846,-0.044663846492767334,-0.7306778207063004,-1.5446101189788708,-0.2798933226901393,-0.7444669008255005,0.6673745512962341,-0.019499221816658974,0.7564805746078491,-0.2543119192123413,-0.6224603652954102
6.079881906509399,-0.3655521869659424,-0.4209674000740051,-0.1193016767501831,-0.7182979543862077,-1.5312180054178872,-0.2607997290134549,-0.7523372769355774,0.6581041216850281,-0.029791804030537605,0.891762912273407,0.16825716197490692,-0.27561694383621216
6.100027084350586,-0.13550174236297607,-0.36371397972106934,-0.002920921891927719,-0.7158249552016911,-1.5200860790168913,-0.2452761257096683,-0.7535821199417114,0.6562401056289673,-0.03824712708592415,0.25227808952331543,-0.08431879431009293,-0.07033671438694
6.120160102844238,-0.25116515159606934,-0.22565698623657227,0.07178133726119995,-0.7163772345060712,-1.5175963296168886,-0.24153935391962716,-0.7531228065490723,0.6566567420959473,-0.0401039719581604,0.10342730581760406,0.11046906560659409,0.1418236643075943
6.140304088592529,-0.17766255140304565,-0.020834922790527344,0.03508890047669411,-0.7188030419801643,-1.511283196220934,-0.23539318832905506,-0.7512620687484741,0.6584843397140503,-0.04476282000541687,0.39019909501075745,0.08133452385663986,0.1330530345439911
6.159872055053711,-0.11160588264465332,-0.020390748977661133,0.02757066860795021,-0.7211348607920723,-1.5005277653544975,-0.22081132233449854,-0.7492035031318665,0.6602374315261841,-0.05273227021098137,0.6566110253334045,0.03561204671859741,0.17016951739788055
6.179961919784546,-0.07941049337387085,-0.1391819715499878,0.06428354978561401,-0.7231704534948856,-1.4892358690843943,-0.20393075060723284,-0.7472192645072937,0.661764919757843,-0.06107904016971588,0.542405366897583,-0.03034619800746441,0.1351201832294464
6.199895858764648,-0.04491549730300903,-0.17266517877578735,0.05353064090013504,-0.7249292812399423,-1.4824535569625945,-0.19086839010647758,-0.7456271648406982,0.663082480430603,-0.06604266911745071,0.42365825176239014,-0.14448395371437073,0.1215689554810524
6.219870090484619,-0.09147948026657104,-0.1557154655456543,0.10432404279708862,-0.726687600410335,-1.4785063703543209,-0.18034637444214568,-0.744198739528656,0.664397656917572,-0.06887773424386978,0.3462224006652832,-0.10947039723396301,0.12452211230993271
6.239893913269043,-0.13060146570205688,-0.1625768542289734,0.14492662250995636,-0.7280493945492852,-1.4740014715367822,-0.1722412953519046,-0.7429794669151306,0.6654148101806641,-0.07214203476905823,0.2530585527420044,0.012822311371564865,0.07552123069763184
6.259791851043701,-0.10541659593582153,-0.13900601863861084,0.11139161139726639,-0.7293842565573655,-1.4689445326765318,-0.16573704411672294,-0.7417208552360535,0.6664106845855713,-0.07580792158842087,0.21110495924949646,0.060418859124183655,0.10766139626502991
6.27985692024231,-0.11560231447219849,-0.13110750913619995,0.0838276743888855,-0.7312761985681906,-1.4633999651790848,-0.16006770226960965,-0.7400344014167786,0.6678200960159302,-0.07978397607803345,0.17914092540740967,0.11276213824748993,0.11155669391155243
6.299842834472656,-0.08678984642028809,-0.12517791986465454,0.0794118121266365,-0.7328639283229058,-1.458421183240161,-0.15604765771182028,-0.7385733723640442,0.669001042842865,-0.08334843069314957,0.09869585186243057,0.09140802174806595,0.07827823609113693
6.319844961166382,-0.05824005603790283,-0.09798610210418701,0.05884642153978348,-0.7338283959803416,-1.4558987290197039,-0.1538031372568076,-0.7377194762229919,0.66971755027771,-0.08513717353343964,0.06564370542764664,0.02304423414170742,0.030094493180513382
6.339849948883057,-0.06370580196380615,-0.027125298976898193,0.009452998638153076,-0.7330287416575937,-1.4542878252745575,-0.15134676047500004,-0.7381131052970886,0.6691235303878784,-0.08638769388198853,0.13135626912117004,-0.0350593701004982,-0.09129943698644638
6.359982013702393,-0.025768041610717773,-0.010422587394714355,-0.017023198306560516,-0.7278536280943831,-1.4557990564430312,-0.149821755218795,-0.7416728138923645,0.6652686595916748,-0.08566831797361374,0.10070420801639557,-0.101479671895504,-0.16916902363300323
6.379853963851929,-0.02701127529144287,-0.04760867357254028,-0.04102151840925217,-0.7231022797620995,-1.458000276470702,-0.14886341467082556,-0.7449919581413269,0.6617137789726257,-0.08439034968614578,0.06567364931106567,-0.10210516303777695,-0.1560448408126831
6.3998448848724365,-0.04330354928970337,-0.04493492841720581,-0.036419324576854706,-0.7188520651050784,-1.4604708431344111,-0.14919355449443192,-0.7479867935180664,0.6585212349891663,-0.08285845816135406,-0.01334935612976551,-0.0733233168721199,-0.15800465643405914
6.419893980026245,-0.03745532035827637,-0.05146211385726929,-0.0183674618601799,-0.7151428997270791,-1.463165487630691,-0.15094309229641206,-0.7506306767463684,0.6557253003120422,-0.08110443502664566,-0.040196239948272705,-0.055519819259643555,-0.15606240928173065
6.439996957778931,-0.06076788902282715,-0.031084120273590088,0.006458878517150879,-0.7119442090742171,-1.464254421028343,-0.15187163097929735,-0.7528003454208374,0.6533069610595703,-0.08050964027643204,-0.05056750029325485,0.006029209122061729,-0.13931560516357422
6.459910869598389,-0.11125439405441284,-0.07204359769821167,0.030924439430236816,-0.7087705746762977,-1.464720330687546,-0.15532735838199,-0.7548956274986267,0.6509009003639221,-0.08037800341844559,-0.24742813408374786,0.08737244457006454,-0.09602158516645432
6.479966878890991,-0.1269211769104004,-0.14430445432662964,0.043383777141571045,-0.7080410004995548,-1.4655436462221243,-0.16323308986385296,-0.7554336786270142,0.6503468751907349,-0.07980634272098541,-0.44081398844718933,0.26537618041038513,0.10020612180233002
6.4998719692230225,-0.09241652488708496,-0.12191510200500488,0.05193888396024704,-0.7109510945112776,-1.4668654176807214,-0.17567183155509838,-0.7536530494689941,0.6525547504425049,-0.0786110907793045,-0.5288406610488892,0.3997633457183838,0.15435044467449188
6.519883871078491,-0.0541841983795166,-0.12349557876586914,-0.006358809769153595,-0.7149163976979659,-1.4654424941260897,-0.18742956686347106,-0.7509613037109375,0.6555542945861816,-0.07941067218780518,-0.39606767892837524,0.5088580846786499,0.1406693011522293
6.539846897125244,-0.014734089374542236,-0.15113288164138794,-0.10397189855575562,-0.7181587410282223,-1.4607647975366242,-0.1948484294969221,-0.7484648823738098,0.6579992771148682,-0.08268870413303375,-0.21312232315540314,0.4353582262992859,0.08064047247171402
6.559845924377441,-0.004770755767822266,-0.215293288230896,-0.16459953784942627,-0.7166361988553397,-1.4560297957703496,-0.1984632543069223,-0.74905925989151,0.6568520069122314,-0.08634636551141739,0.03657706081867218,0.2707829177379608,-0.27251967787742615
6.579074859619141,0.09763365983963013,-0.3126745820045471,-0.09499108791351318,-0.7090317432704285,-1.4482848351783477,-0.19597686329589412,-0.7533039450645447,0.6510992050170898,-0.09275290369987488,0.1433236449956894,0.35693106055259705,-0.47459152340888977
6.599884986877441,0.1525195837020874,-0.37729549407958984,-0.060027241706848145,-0.697309443094904,-1.441308776714531,-0.19497785060310155,-0.760155200958252,0.6421574950218201,-0.09898447245359421,0.032655034214258194,0.2749670445919037,-0.7064647674560547
6.619846820831299,0.1938895583152771,-0.34966397285461426,-0.025786757469177246,-0.679509408072888,-1.439997415631689,-0.2029535343391271,-0.7712364792823792,0.6284114718437195,-0.10145613551139832,-0.5184217691421509,0.41430217027664185,-1.1670066118240356
6.63984489440918,0.2972870469093323,-0.42313069105148315,-0.03728635609149933,-0.6583026819322249,-1.448048849857496,-0.22858107847255768,-0.7850801944732666,0.6117751002311707,-0.09685353189706802,-1.3215270042419434,0.37950772047042847,-1.165610671043396
6.659846782684326,0.39931148290634155,-0.2722585201263428,0.058905839920043945,-0.6314461171132746,-1.463586302599205,-0.26878829553154876,-0.8025403618812561,0.590312659740448,-0.0863715410232544,-1.249276876449585,0.47950977087020874,-1.9194555282592773
6.679464817047119,0.5051782131195068,-0.14889401197433472,-0.106112539768219,-0.5918601820746361,-1.4699647864486165,-0.2924376127374853,-0.8256891965866089,0.5579057335853577,-0.08353881537914276,-0.21471650898456573,0.210976243019104,-2.1104965209960938
6.699845790863037,0.5602155327796936,-0.03977668285369873,-0.15378600358963013,-0.5500889779596758,-1.4730451587107136,-0.295333578721793,-0.8484085202217102,0.5227630734443665,-0.08319808542728424,0.2553238868713379,-0.36836257576942444,-2.1615281105041504
6.71989893913269,0.4736464023590088,0.030156731605529785,-0.129219651222229,-0.5045961360207318,-1.4843263442717853,-0.2973990715065886,-0.8720991611480713,0.4834539592266083,-0.07559891045093536,-0.061594754457473755,-0.5773239731788635,-2.3639140129089355
6.73984694480896,0.40107572078704834,0.011163115501403809,-0.13827413320541382,-0.4588223371614965,-1.4998006136878526,-0.3069649690418165,-0.8943161368370056,0.44289255142211914,-0.06359950453042984,-0.43478280305862427,-0.5333285331726074,-2.269176959991455
6.7598419189453125,0.35014206171035767,0.05765032768249512,-0.09542804956436157,-0.41533958821241385,-1.5162530035656812,-0.323091946989834,-0.9136186242103577,0.40350067615509033,-0.04988127201795578,-0.7736293077468872,-0.4645534157752991,-2.177316427230835
6.779885768890381,0.20741581916809082,0.10767200589179993,-0.13769841194152832,-0.37199368735016747,-1.5326437756210665,-0.34326038416985805,-0.9309266209602356,0.36347347497940063,-0.03553446754813194,-0.8435238599777222,-0.359343022108078,-2.248931646347046
6.799844980239868,0.10734659433364868,0.1409093737602234,-0.16653931140899658,-0.3284983343245341,-1.5438121053166798,-0.3607242280240968,-0.946183443069458,0.32262203097343445,-0.02553822286427021,-0.6498385667800903,-0.16122005879878998,-2.1466267108917236
6.819849014282227,0.1347472071647644,0.17008158564567566,-0.08200132846832275,-0.28726798870992637,-1.5484883257197288,-0.3742980483410529,-0.9587829113006592,0.2833332419395447,-0.021392079070210457,-0.4751742482185364,0.05274922028183937,-2.0121803283691406
6.8398449420928955,0.13713288307189941,0.17523153126239777,-0.14574843645095825,-0.24896310167169017,-1.5488594104295765,-0.3785587419345315,-0.9689351916313171,0.2463991641998291,-0.02125886082649231,0.1834384948015213,0.007078760769218206,-1.8338488340377808
6.859917879104614,0.03711909055709839,0.22487252950668335,-0.18139851093292236,-0.2125455834336995,-1.5480214674752069,-0.3699157664011632,-0.9772436022758484,0.2109488844871521,-0.022260434925556183,0.6715642213821411,-0.1030096560716629,-1.8407583236694336
6.879833936691284,-0.05596369504928589,0.1958737075328827,-0.15029752254486084,-0.17631510743953616,-1.5481022903194164,-0.35862475248894726,-0.9842432141304016,0.17540301382541656,-0.022340286523103714,0.3751182556152344,-0.11849993467330933,-1.7209575176239014
6.8998308181762695,-0.10368913412094116,0.15049618482589722,-0.09930574893951416,-0.14533338402071205,-1.5496691864039185,-0.3591559285594668,-0.9892369508743286,0.14482231438159943,-0.020902859047055244,-0.3363577425479889,-0.019768565893173218,-1.3758573532104492
6.919820785522461,-0.1753997802734375,0.20192237198352814,-0.0051152706146240234,-0.12118886494247505,-1.5483864769146642,-0.3697778134703821,-0.9924164414405823,0.12089243531227112,-0.022243626415729523,-0.5237628817558289,0.3483448326587677,-1.0418531894683838
6.939868927001953,-0.2629247307777405,0.27938541769981384,-0.04875820502638817,-0.10413383874330776,-1.5389630417695108,-0.3762925157543535,-0.994079053401947,0.10394573956727982,-0.03165549412369728,0.0011297983583062887,0.61031174659729,-0.7161616683006287
6.959853887557983,-0.2916593551635742,0.31954944133758545,0.006745576858520508,-0.09099155788825447,-1.5254567338343508,-0.37339337865905764,-0.9948397278785706,0.09086605161428452,-0.04513656347990036,0.2503598630428314,0.6972054243087769,-0.6378144025802612
6.979846954345703,-0.2948514223098755,0.20251846313476562,0.04638064280152321,-0.0806651595594586,-1.5108642720768612,-0.3687853802495365,-0.994958758354187,0.08057770878076553,-0.05970142036676407,0.15580138564109802,0.7145593762397766,-0.37218236923217773
6.999876976013184,-0.3301165699958801,0.17262771725654602,0.10595434904098511,-0.07483271690626243,-1.49820575643591,-0.36588201343760596,-0.9945752620697021,0.07476289570331573,-0.07232386618852615,0.15291157364845276,0.5701764822006226,-0.14977754652500153
7.0198469161987305,-0.4069315791130066,0.20145174860954285,0.15361082553863525,-0.07186436289425614,-1.487338756263091,-0.3633249792635145,-0.9939475059509277,0.071802519261837,-0.08314557373523712,0.19752459228038788,0.5064961910247803,-0.12399277836084366
7.0398850440979,-0.44514602422714233,0.1404465138912201,0.19679206609725952,-0.07181904375304371,-1.4773572022475179,-0.35980503737248987,-0.9930711984634399,0.07175731658935547,-0.09306269884109497,0.1422336846590042,0.48513302206993103,0.15000128746032715
7.059844970703125,-0.5082648396492004,0.06522030383348465,0.22626781463623047,-0.07927175087104424,-1.4668181662048754,-0.35775298977909153,-0.9914758205413818,0.0791887491941452,-0.10346496850252151,-0.07392750680446625,0.6132627725601196,0.5331555008888245
7.079858779907227,-0.5584052205085754,0.14979831874370575,0.19270271062850952,-0.08591818203113999,-1.4554470384970637,-0.355559321843507,-0.9896904826164246,0.0858125165104866,-0.11466912180185318,0.20456042885780334,0.44040071964263916,0.30089473724365234
7.099014759063721,-0.42982542514801025,-0.0028397589921951294,0.2708130478858948,-0.09362882855926029,-1.4499333496858486,-0.3475855011402538,-0.9883569478988647,0.09349209070205688,-0.12004084885120392,0.3886312246322632,0.19642774760723114,0.7066472172737122
7.119868755340576,-0.4854012727737427,-0.14944776892662048,0.4056634306907654,-0.11291374245769666,-1.4425315064234407,-0.3449466801150656,-0.9854697585105896,0.11267396062612534,-0.12709887325763702,-0.3478641211986542,0.5191243886947632,1.1249135732650757
7.139845848083496,-0.5081940293312073,-0.04035273194313049,0.25562894344329834,-0.13629421993165577,-1.4311291430428081,-0.35012421225499923,-0.9810791015625,0.13587264716625214,-0.13792254030704498,-0.3940542936325073,0.6481641530990601,1.1781545877456665
7.159844875335693,-0.42385566234588623,0.05308368802070618,0.23086929321289062,-0.16460802498777996,-1.4193562221941858,-0.3536749232196202,-0.9751922488212585,0.16386567056179047,-0.14882266521453857,-0.3874478042125702,0.5520830154418945,1.4937620162963867
7.179843902587891,-0.4669334292411804,-0.04322822391986847,0.20091044902801514,-0.19836556086652543,-1.4113712780497953,-0.3567489319183622,-0.9679573774337769,0.19706720113754272,-0.1556374728679657,-0.3989991247653961,0.2975436747074127,1.7829971313476562
7.199950933456421,-0.5169938206672668,0.030442997813224792,0.25477397441864014,-0.23715450361837895,-1.4073126348123544,-0.35670127878103786,-0.9590499401092529,0.23493772745132446,-0.1582009494304657,-0.2698851227760315,0.1957719922065735,2.037956476211548
7.219850063323975,-0.5531490445137024,0.02232620120048523,0.26437532901763916,-0.2799615793722862,-1.4030956126591745,-0.35434687472069437,-0.9475836157798767,0.2763187289237976,-0.1604171097278595,-0.16915762424468994,0.11278397589921951,2.2184627056121826
7.239853858947754,-0.5430988073348999,0.029559344053268433,0.28138983249664307,-0.3245100615099979,-1.399696712079685,-0.3474243110888055,-0.9339673519134521,0.3188444674015045,-0.16137933731079102,0.1026187464594841,0.06584842503070831,2.27521014213562
7.259846925735474,-0.5336858034133911,0.06982198357582092,0.3331204652786255,-0.36761674812365686,-1.3923682413188279,-0.3323599223725689,-0.9183712601661682,0.3593924343585968,-0.16562461853027344,0.5822707414627075,0.09630993008613586,2.2105789184570312
7.279843807220459,-0.430161714553833,0.1204538345336914,0.30954861640930176,-0.40766648117266896,-1.3837603586837857,-0.3081435876945233,-0.9020375609397888,0.3964681327342987,-0.17070873081684113,0.808980405330658,-0.23790276050567627,2.143925905227661
7.299845933914185,-0.34803080558776855,0.0778207778930664,0.3023291826248169,-0.4463772640239989,-1.3822065764142446,-0.2828657315200702,-0.8860238790512085,0.43170061707496643,-0.16910459101200104,0.6571517586708069,-0.5753839612007141,2.132266044616699
7.319854974746704,-0.24738800525665283,0.07872581481933594,0.3549429178237915,-0.4852618969816491,-1.3885659655754223,-0.26594973141672307,-0.8699063062667847,0.4664400517940521,-0.16030170023441315,0.14468735456466675,-0.8117170333862305,1.989367961883545
7.3398847579956055,-0.1615568995475769,0.06822329759597778,0.2623875141143799,-0.5250955359011992,-1.4018332400101228,-0.25787829326605316,-0.8529543280601501,0.5012956857681274,-0.14550508558750153,-0.064972884953022,-0.9488638043403625,2.023986577987671
7.359857082366943,-0.12029194831848145,0.10640978813171387,0.1426476389169693,-0.5638677852321264,-1.4181470379197976,-0.24996857105343756,-0.8353660702705383,0.5344592332839966,-0.12851782143115997,0.11344140022993088,-1.0465916395187378,1.9600478410720825
7.379844903945923,-0.11676192283630371,0.03661179542541504,0.01194751262664795,-0.6016869771304489,-1.4335822693931342,-0.2390182930926266,-0.8166335821151733,0.5660340189933777,-0.11276218295097351,0.20331481099128723,-1.1262603998184204,1.8946380615234375
7.399931907653809,-0.09068310260772705,-0.07788532972335815,-0.02849884331226349,-0.6385073380488274,-1.4487385950058485,-0.22738211298691538,-0.7970123887062073,0.5959975123405457,-0.09776752442121506,0.1899348348379135,-1.0195060968399048,1.9199415445327759
7.419878959655762,-0.08698314428329468,-0.11534559726715088,-0.041792817413806915,-0.6750589492182828,-1.4632623571006802,-0.2201737007954529,-0.7761610150337219,0.6249433159828186,-0.08378688246011734,-0.009294092655181885,-0.9041486978530884,1.7840286493301392
7.439864873886108,-0.04649972915649414,-0.1208263635635376,-0.07556676864624023,-0.7099979062199717,-1.479166415476158,-0.21693471613542978,-0.7551818490028381,0.6518321633338928,-0.06939156353473663,-0.10830508172512054,-0.8819777965545654,1.7294349670410156
7.459789752960205,-0.09029674530029297,-0.14905214309692383,-0.14554178714752197,-0.7437078129363407,-1.4954689021240006,-0.2163568085517692,-0.7338762283325195,0.6770213842391968,-0.055385805666446686,-0.1621314436197281,-0.7769819498062134,1.6207454204559326
7.479795932769775,-0.13274788856506348,-0.15714222192764282,-0.18624591827392578,-0.7742501457204316,-1.5114680384108445,-0.21912772236330713,-0.7136878371238708,0.6991801857948303,-0.04239162802696228,-0.24824126064777374,-0.6080529093742371,1.454959750175476
7.499936103820801,-0.061129748821258545,-0.1686115264892578,-0.1681334376335144,-0.8023127366594237,-1.5269804726666207,-0.22573953341022537,-0.6943787932395935,0.718965470790863,-0.03044428490102291,-0.33813709020614624,-0.48783189058303833,1.3517786264419556
7.519835948944092,0.0011766552925109863,-0.17177611589431763,-0.1850011944770813,-0.8298518775132133,-1.5424953249071773,-0.23515119472554188,-0.6747150421142578,0.7378314137458801,-0.019100211560726166,-0.38123080134391785,-0.42382389307022095,1.3121495246887207
7.5398850440979,0.04131662845611572,-0.15659350156784058,-0.2075129747390747,-0.8540226968698509,-1.5580117008871572,-0.24421931661216476,-0.656902015209198,0.7539292573928833,-0.00839870423078537,-0.23320156335830688,-0.4393535852432251,1.125686526298523
7.559846878051758,0.09745270013809204,-0.1756919026374817,-0.21198266744613647,-0.8758670491371974,-1.5689020447615156,-0.24720953685052596,-0.6403299570083618,0.7680990099906921,-0.0012129669776186347,0.00015988852828741074,-0.42769524455070496,1.0383634567260742
7.579847812652588,0.14286667108535767,-0.21377849578857422,-0.1956944465637207,-0.8955464431799682,-1.578242661994304,-0.24811445472687224,-0.6250749826431274,0.7805507779121399,0.004654604010283947,-0.11421813815832138,-0.44137290120124817,0.9237827062606812
7.598915100097656,0.13643163442611694,-0.19715487957000732,-0.2327747344970703,-0.9118872151900207,-1.588844447158101,-0.25027881884402076,-0.6121549606323242,0.7906606197357178,0.01104944571852684,0.11176295578479767,-0.43107959628105164,0.7372634410858154
7.619848966598511,0.15633076429367065,-0.1260225772857666,-0.26084601879119873,-0.9256747065803458,-1.5885560550566054,-0.23950258296893157,-0.6012008190155029,0.7990266680717468,0.010678285732865334,0.49345099925994873,-0.4118264317512512,0.6362716555595398
7.639845848083496,0.16255897283554077,-0.21463000774383545,-0.20828020572662354,-0.937284708900107,-1.5840934645774882,-0.2235912172721219,-0.5919260382652283,0.8059536814689636,0.007871385663747787,0.4037240147590637,-0.39173513650894165,0.5376150012016296
7.659843921661377,0.16651535034179688,-0.27968811988830566,-0.18444764614105225,-0.9480781574717009,-1.5829350038343228,-0.21418977126245572,-0.5832024812698364,0.8122960925102234,0.00707965437322855,0.19806277751922607,-0.2752537131309509,0.514021635055542
7.679843902587891,0.13988953828811646,-0.20162761211395264,-0.2187364101409912,-0.956425892411681,-1.5811761249017333,-0.2059643672795632,-0.5764130353927612,0.8171365261077881,0.005983265582472086,0.4038865268230438,-0.2162206470966339,0.3048688769340515
7.699965000152588,0.1324220895767212,-0.17290472984313965,-0.1919226050376892,-0.9610101427638305,-1.5654635268546055,-0.18350445463316134,-0.5726839900016785,0.8197705149650574,-0.0030540379229933023,0.8433005213737488,-0.06300374120473862,0.1775832176208496
7.719929933547974,0.16301614046096802,-0.28221994638442993,-0.13488924503326416,-0.9632272520790821,-1.5412596191740904,-0.15242622414257884,-0.5706242322921753,0.8210381865501404,-0.0168592631816864,0.8397874236106873,-0.07708556205034256,0.05047745257616043
7.739812850952148,0.14403754472732544,-0.3010541796684265,-0.10927087068557739,-0.9623811798134465,-1.5219809624857374,-0.12631153315674645,-0.57088702917099,0.8205549120903015,-0.027890216559171677,0.687953531742096,-0.12186528742313385,-0.10851272940635681
7.7598490715026855,0.08710545301437378,-0.24606436491012573,-0.07781821489334106,-0.9577300539955319,-1.5042601323219178,-0.1019598935197085,-0.5741051435470581,0.8178876042366028,-0.0382552407681942,0.8002511858940125,-0.07471099495887756,-0.29255178570747375
7.779851913452148,0.06273865699768066,-0.19143056869506836,-0.016786810010671616,-0.9486003333139735,-1.4800636508969023,-0.07131151363436293,-0.5804236531257629,0.8126005530357361,-0.05280838534235954,1.0096590518951416,0.010018447414040565,-0.4849241077899933
7.799854755401611,0.11905157566070557,-0.25495362281799316,0.08743680268526077,-0.9364256843422151,-1.4534546661661505,-0.04019778356165669,-0.5885950922966003,0.8054448366165161,-0.06938547641038895,0.8958050012588501,0.09936555474996567,-0.5420171618461609
7.81984281539917,0.14187562465667725,-0.2585945129394531,0.15076333284378052,-0.9238306737355021,-1.4303351116134297,-0.013455126674862587,-0.5968318581581116,0.7979164719581604,-0.08438742905855179,0.8860292434692383,0.05996834114193916,-0.5268163084983826
7.839855909347534,0.07260555028915405,-0.14767348766326904,0.12516635656356812,-0.9092051141476623,-1.4114208431997552,0.011515670382875352,-0.6065869331359863,0.7890156507492065,-0.09750202298164368,0.844129741191864,-0.2685607969760895,-0.7296172976493835
7.859883785247803,0.10537415742874146,-0.15642547607421875,0.06375427544116974,-0.8941151716394071,-1.4018327686471856,0.0357424831278088,-0.6172913312911987,0.7796552777290344,-0.10530374944210052,0.7523177862167358,-0.25301772356033325,-0.05071565881371498
7.879734992980957,-0.45621389150619507,0.35314637422561646,-0.24479526281356812,-0.9033720966103811,-1.3983122639049703,0.034885686268399364,-0.6097804307937622,0.7854185700416565,-0.10623300075531006,-0.6783153414726257,-0.1385411024093628,-0.7887061834335327
7.899942874908447,0.031177163124084473,0.18612796068191528,-0.15111161768436432,-0.8803779764224199,-1.4170975267319803,0.024508890135688296,-0.629352331161499,0.770979642868042,-0.09749966859817505,0.19488997757434845,-0.526756763458252,-0.493052214384079
7.919848918914795,0.2584763169288635,-0.02830064296722412,-0.14731019735336304,-0.8792954375960961,-1.4243392224250506,0.03234542914611407,-0.6308671832084656,0.7702897787094116,-0.09306131303310394,-0.02950487658381462,-0.9061754941940308,0.01849387027323246
7.939872980117798,-0.29502207040786743,0.19535648822784424,-0.23931866884231567,-0.8743428365449772,-1.4437224160567887,0.0279592740672331,-0.6363287568092346,0.7671220898628235,-0.08129885047674179,0.2179265171289444,-0.5883920788764954,-0.3896087110042572
7.959846019744873,-0.32802945375442505,0.2496592402458191,-0.23723554611206055,-0.8668178307599679,-1.4385699876095694,0.0470870286187167,-0.6416056156158447,0.7622731328010559,-0.08533507585525513,0.8076674342155457,-0.4521242380142212,-0.29424959421157837
7.979846000671387,-0.16157257556915283,0.03193002939224243,-0.06663960218429565,-0.8606892754881716,-1.4344150321396278,0.0661279709245001,-0.6458616256713867,0.7582920789718628,-0.08863364905118942,0.4982645809650421,-0.5207108855247498,-0.09594453126192093
7.9998838901519775,-0.1588914394378662,-0.05803179740905762,0.018293015658855438,-0.8569465504772537,-1.4321588534783958,0.07908387330845693,-0.6484664678573608,0.7558468580245972,-0.090482197701931,0.549371063709259,-0.25246119499206543,-0.1722748875617981
8.019855976104736,-0.1231279969215393,-0.05404925346374512,-0.07056570053100586,-0.851347934707507,-1.423987004550047,0.09471325922487989,-0.651881217956543,0.7521693110466003,-0.09639577567577362,0.4944171607494354,-0.1574346423149109,-0.29372143745422363
8.039894104003906,-0.13905364274978638,-0.18757754564285278,-0.0974767804145813,-0.8440819920135332,-1.4175502185401645,0.10520914535306429,-0.6566312909126282,0.7473614811897278,-0.10142137110233307,0.2923942506313324,0.03904716670513153,-0.2153782844543457
8.059844017028809,-0.17692816257476807,-0.1321006417274475,-0.019849538803100586,-0.8411532565387673,-1.412718948533959,0.10955635622040685,-0.6582922339439392,0.7454124093055725,-0.1049366444349289,0.04426831007003784,0.1376083642244339,-0.15864887833595276
8.079843044281006,-0.21145832538604736,-0.0989120602607727,-0.00088481605052948,-0.8366084433457021,-1.4087510656638593,0.11078258424813327,-0.6612071394920349,0.7423750758171082,-0.1080932691693306,0.046317487955093384,0.1747257262468338,-0.2270137071609497
8.099906921386719,-0.17829585075378418,-0.18830406665802002,0.017571277916431427,-0.8324818811878953,-1.4079881461272992,0.10745932661210766,-0.6641419529914856,0.7396040558815002,-0.10909334570169449,-0.2771624028682709,0.1618579626083374,-0.24062836170196533
8.119847774505615,-0.22158509492874146,-0.27469921112060547,-0.030472755432128906,-0.8268539401545755,-1.4140069906154393,0.09450401322268696,-0.6688873767852783,0.7358044981956482,-0.10574232041835785,-0.3855170011520386,0.09030751883983612,-0.40299704670906067
8.139863967895508,-0.20374375581741333,-0.241904616355896,-0.009646475315093994,-0.8212552592253357,-1.42124016767216,0.08194388285846439,-0.6736977696418762,0.7320016026496887,-0.10151363164186478,-0.24272561073303223,0.12056183069944382,-0.3459528684616089
8.15984582901001,-0.22324341535568237,-0.22250300645828247,-0.05910009145736694,-0.8127940985021029,-1.4211331902304651,0.07959162328710831,-0.6797870993614197,0.72621089220047,-0.10250555723905563,0.16423293948173523,0.04243044927716255,-0.4812129735946655
8.179844856262207,-0.215268075466156,-0.16008543968200684,-0.021783828735351562,-0.8015278917143196,-1.4168272826149777,0.08501160286184191,-0.6873809695243835,0.7184197306632996,-0.10667972266674042,0.4111567437648773,0.04006928950548172,-0.6262632608413696
8.199874877929688,-0.19566857814788818,-0.1634308099746704,0.03124558925628662,-0.7865349623638345,-1.4091299124947227,0.09296618899048421,-0.6970927119255066,0.7079101800918579,-0.11368867009878159,0.1272079348564148,0.16605278849601746,-0.7019246816635132
8.219851970672607,-0.1629546880722046,-0.20858782529830933,0.10310786962509155,-0.7708524546305742,-1.4117291330236412,0.08428704667301998,-0.7082611918449402,0.6967469453811646,-0.11362103372812271,-0.11658056080341339,0.16314293444156647,-0.8956342935562134
8.239851951599121,-0.09251153469085693,-0.022740721702575684,0.17017865180969238,-0.7575015696597214,-1.4060974181660644,0.08295153498037688,-0.7167231440544128,0.6871083378791809,-0.11912257224321365,0.24321819841861725,0.46923354268074036,-0.5305235385894775
8.259844779968262,-0.1678486466407776,0.14657002687454224,0.10229110717773438,-0.7375490892155732,-1.384023374822546,0.0997603651789302,-0.7272472977638245,0.6724759936332703,-0.13743191957473755,1.424306035041809,0.574577271938324,-1.2273685932159424
8.279881000518799,0.03745603561401367,0.15990877151489258,0.40005946159362793,-0.7125709656663012,-1.343966444348024,0.13785083151872626,-0.737300455570221,0.6537813544273376,-0.1701703518629074,1.4581170082092285,0.9907177090644836,-0.5293512940406799
8.299854755401611,0.002882659435272217,-0.13531100749969482,0.32062190771102905,-0.6949888697760227,-1.3068893531969044,0.1615585319378396,-0.7414692044258118,0.6403768658638,-0.20035192370414734,0.8839728832244873,1.1586413383483887,-0.7935130596160889
8.319843769073486,-0.01490318775177002,-0.20190656185150146,0.19195546209812164,-0.6816409100429398,-1.2746081371661522,0.17138267485271286,-0.74272620677948,0.6300681233406067,-0.22665373980998993,0.17713241279125214,1.4334481954574585,-0.22955068945884705
8.339865922927856,-0.06972169876098633,-0.11244481801986694,0.1233934760093689,-0.6770913301821058,-1.2486904675770096,0.16775200391961673,-0.7393146753311157,0.6265286803245544,-0.24673011898994446,-0.32033443450927734,1.38334059715271,-0.38638269901275635
8.35988187789917,-0.021949470043182373,-0.060129642486572266,0.10596597194671631,-0.6718646918901087,-1.2325087361041427,0.1495150020722453,-0.7383045554161072,0.6224464774131775,-0.25974392890930176,-0.7721536755561829,1.3476181030273438,-0.5637723803520203
8.379843950271606,0.012302815914154053,-0.02563655376434326,0.07752114534378052,-0.6637698155996566,-1.224306931835164,0.1250242147589696,-0.7408643364906311,0.6160905957221985,-0.2674929201602936,-0.749382734298706,0.9721100926399231,-0.8567406535148621
8.399871826171875,0.05705571174621582,-0.11238360404968262,0.14049386978149414,-0.6529295834820524,-1.2237477640387873,0.09915901908666691,-0.7469514608383179,0.6075159907341003,-0.2701629102230072,-0.8490934371948242,0.7084689736366272,-0.7722645998001099
