timestamp,acceleration_x,acceleration_y,acceleration_z,attitude_pitch,attitude_roll,attitude_yaw,gravity_x,gravity_y,gravity_z,rotation_x,rotation_y,rotation_z
0.0,0.13392969965934753,-0.18947595357894897,-0.00357624888420105,-1.0001654172371388,-0.9840439495044834,-2.1936753949993006,-0.4498171806335449,0.8415603637695312,-0.2990664839744568,-1.034490704536438,1.8739173412322998,-0.22003711760044098
0.01980900764465332,0.1499500274658203,-0.16784608364105225,-0.002788364887237549,-1.0077089306725342,-0.9801416220944765,-2.2326657916174586,-0.4433613121509552,0.8456110954284668,-0.2972756624221802,-1.1236876249313354,1.8078917264938354,-0.3133634328842163
0.039466142654418945,0.14231854677200317,-0.1401243805885315,-0.013574659824371338,-1.014382670735343,-0.9804369897935112,-2.274122928499905,-0.43875110149383545,0.8491546511650085,-0.293996661901474,-1.0502034425735474,1.678237795829773,-0.3501964807510376
0.059860944747924805,0.1347271203994751,-0.04849958419799805,-0.0604383647441864,-1.0197878092126655,-0.9819986576794905,-2.312846455673557,-0.4353863298892975,0.8519969582557678,-0.29075783491134644,-0.9531303644180298,1.4627927541732788,-0.3175187408924103
0.07891702651977539,0.10780689120292664,0.004495084285736084,-0.09677165746688843,-1.02514314063563,-0.9844293094912125,-2.347277809707681,-0.4322850704193115,0.8547884821891785,-0.2871699035167694,-0.8450973033905029,1.2359257936477661,-0.2382531315088272
0.09991192817687988,0.0976983904838562,0.04238992929458618,-0.11268815398216248,-1.0303259091092074,-0.9874238019250259,-2.3768145336496733,-0.4294397234916687,0.8574667572975159,-0.28342992067337036,-0.712003231048584,1.0011959075927734,-0.16352584958076477
0.11980795860290527,0.09187322854995728,0.07207715511322021,-0.13202223181724548,-1.0350122427890267,-0.9883117932698388,-2.398986977764549,-0.4263305962085724,0.859868586063385,-0.28083473443984985,-0.5062078237533569,0.8291091918945312,-0.08866045624017715
0.1392228603363037,0.08550453186035156,0.07305222749710083,-0.1253712773323059,-1.0383123621054242,-0.9839047035935021,-2.4121283902358375,-0.42272379994392395,0.861548662185669,-0.28113800287246704,-0.2271907478570938,0.7581973671913147,0.0035059184301644564
0.15933799743652344,0.11003392934799194,0.0789419412612915,-0.14767929911613464,-1.0403599775272077,-0.9725572489041053,-2.415614092254363,-0.41804781556129456,0.8625863790512085,-0.2849225103855133,-0.061860740184783936,0.6645570993423462,0.0478912852704525
0.17911601066589355,0.13334912061691284,0.035560667514801025,-0.15812760591506958,-1.0416897293897929,-0.9601167504203152,-2.4155357928658105,-0.41353103518486023,0.8632583618164062,-0.28944313526153564,-0.049368731677532196,0.571208119392395,0.05768449604511261
0.19994807243347168,0.15278300642967224,-0.01563960313796997,-0.14758822321891785,-1.0437326071869217,-0.9519834470644543,-2.418484403084022,-0.40972575545310974,0.8642877340316772,-0.29177325963974,-0.1877869814634323,0.5026925206184387,0.02334333024919033
0.21988511085510254,0.16574901342391968,-0.02254664897918701,-0.15876150131225586,-1.0467639056543707,-0.949606852664012,-2.4266423362660756,-0.40689894556999207,0.8658084869384766,-0.29122012853622437,-0.30751848220825195,0.44277799129486084,-0.008375311270356178
0.23978900909423828,0.1810641586780548,-0.022163212299346924,-0.19074282050132751,-1.0502773025991419,-0.9515590429699735,-2.4379858535088355,-0.4049868881702423,0.8675611615180969,-0.2886577248573303,-0.341829776763916,0.3401731550693512,-0.03570038080215454
0.25968289375305176,0.18052655458450317,-0.021687805652618408,-0.23374733328819275,-1.0531946584470138,-0.9546983561217695,-2.4480667168198713,-0.4038236737251282,0.8690083622932434,-0.2859211266040802,-0.21081872284412384,0.22692595422267914,-0.011668367311358452
0.27997899055480957,0.15086644887924194,0.02253800630569458,-0.27926698327064514,-1.0539852666850242,-0.9525078885344167,-2.450148562836926,-0.40263646841049194,0.8693993091583252,-0.2864066958427429,0.11802491545677185,0.16915711760520935,0.06071961298584938
0.29962611198425293,0.12928923964500427,0.0727226734161377,-0.3131483197212219,-1.0521077698563743,-0.9376761080918334,-2.4368989848145626,-0.39965975284576416,0.8684700727462769,-0.293312132358551,0.5230405926704407,0.1553189754486084,0.16558021306991577
0.3190181255340576,0.10236972570419312,0.08201003074645996,-0.3020886778831482,-1.047733549671806,-0.9127149178243636,-2.411329278013998,-0.3952164351940155,0.8662932515144348,-0.30551624298095703,0.6992764472961426,0.12323125451803207,0.23519203066825867
0.33939504623413086,0.09534043073654175,0.04403996467590332,-0.2627924084663391,-1.0433032135603872,-0.8875753468937875,-2.3847086934800634,-0.39038440585136414,0.8640716671943665,-0.3177739083766937,0.585393488407135,0.0605972558259964,0.23606336116790771
0.3598330020904541,0.08817541599273682,0.010513246059417725,-0.2108016312122345,-1.041070547718006,-0.8721952336433206,-2.3666191976619295,-0.3869272470474243,0.8629456758499146,-0.32498013973236084,0.2290811836719513,-0.08619565516710281,0.15907400846481323
0.37980198860168457,0.037334829568862915,0.04221785068511963,-0.1630200445652008,-1.0416209206431501,-0.8711121799445285,-2.3626523403784225,-0.3862118721008301,0.8632236123085022,-0.3250932991504669,0.006953556556254625,-0.11797399073839188,0.07264355570077896
0.3993849754333496,0.0238322913646698,0.192746102809906,-0.16763272881507874,-1.0422247455086675,-0.8667650853847231,-2.354883640524186,-0.3843974471092224,0.863528311252594,-0.3264315128326416,0.2719646692276001,-0.11675292998552322,0.21387463808059692
0.4198169708251953,3.2067298889160156e-05,0.25817620754241943,-0.12938514351844788,-1.040532123818981,-0.8507994659825764,-2.3338782940513965,-0.38023534417152405,0.8626734614372253,-0.3334901034832001,0.6259689927101135,-0.09342524409294128,0.3428691029548645
0.43985486030578613,-0.029055684804916382,0.1907690167427063,-0.04522144794464111,-1.0367609296710365,-0.8265628899470836,-2.3045695795190033,-0.3744325041770935,0.8607600331306458,-0.3448083996772766,0.6766521334648132,-0.020482679829001427,0.3663198947906494
0.4598250389099121,-0.0008904337882995605,0.059653282165527344,0.053004562854766846,-1.034212309054059,-0.802515022826576,-2.2768215251409196,-0.3676093518733978,0.8594599366188049,-0.3552353084087372,0.4794459342956543,0.042074885219335556,0.3899136185646057
0.4798109531402588,0.012022733688354492,-0.0452609658241272,0.14074492454528809,-1.0346202982169885,-0.7846603732919103,-2.2578626347569006,-0.3609607517719269,0.8596684336662292,-0.3614937663078308,0.1872290074825287,0.10117673128843307,0.31522753834724426
0.4998180866241455,0.037543147802352905,-0.10852402448654175,0.18683496117591858,-1.0367747285875688,-0.7738032181781933,-2.247342826150651,-0.3557194173336029,0.8607670664787292,-0.36406567692756653,0.07919184118509293,0.06448103487491608,0.23137710988521576
0.5197470188140869,0.04425406455993652,-0.11100441217422485,0.18768566846847534,-1.0378418899122843,-0.7643108001444515,-2.2373755840871237,-0.3516118824481964,0.8613097667694092,-0.36676275730133057,0.2169313132762909,0.026316337287425995,0.21200242638587952
0.5391349792480469,0.003746241331100464,-0.09030312299728394,0.1986151933670044,-1.0366213275077008,-0.7539665838751504,-2.2253233004088853,-0.34851861000061035,0.8606889843940735,-0.3711462616920471,0.25893858075141907,-0.0248123612254858,0.1382044553756714
0.5597319602966309,-0.06623035669326782,-0.02324843406677246,0.21210622787475586,-1.0348109724685013,-0.7472313326040544,-2.217243172004258,-0.34706923365592957,0.8597658276557922,-0.3746275007724762,0.13494884967803955,0.016041241586208344,0.04446524754166603
0.57979416847229,-0.11078080534934998,0.010469615459442139,0.23261290788650513,-1.0346693080574867,-0.7450719154627325,-2.2164032196532593,-0.3463420271873474,0.8596934676170349,-0.37546560168266296,-0.10112132132053375,0.11842628568410873,-0.01073982659727335
0.5997331142425537,-0.09525918960571289,0.010398805141448975,0.23859447240829468,-1.0375331694651853,-0.7463678274660944,-2.2217124570626283,-0.345155268907547,0.8611528277397156,-0.3732074499130249,-0.2770001292228699,0.19836115837097168,0.01710575632750988
0.6197540760040283,-0.05282360315322876,-0.022200822830200195,0.21285265684127808,-1.042338725238522,-0.7485326150766805,-2.228682143378495,-0.34314200282096863,0.8635857701301575,-0.3694230020046234,-0.28364071249961853,0.16822020709514618,0.04662678763270378
0.6397700309753418,-0.029259413480758667,-0.05120396614074707,0.19000044465065002,-1.0462482216624984,-0.7501580216802799,-2.2333321336862686,-0.34143760800361633,0.8655503392219543,-0.36639195680618286,-0.14480116963386536,0.07364851981401443,0.033546965569257736
0.6598279476165771,-0.024666547775268555,-0.08530086278915405,0.19024357199668884,-1.047913275328429,-0.7517223069764812,-2.2358108069331233,-0.34102559089660645,0.8663830161094666,-0.3648039996623993,-0.06439579278230667,0.005957536865025759,-0.0075176795944571495
0.6798059940338135,-0.019140303134918213,-0.11740267276763916,0.20311114192008972,-1.0487335863444631,-0.7560444324268635,-2.2405309592843192,-0.3421115577220917,0.8667923808097839,-0.36280953884124756,-0.14634206891059875,-0.009562123566865921,-0.09736336022615433
0.6997630596160889,-0.0006932318210601807,-0.12747591733932495,0.19244396686553955,-1.0503012227920998,-0.7655791674854614,-2.2511641749619398,-0.3446131944656372,0.867573082447052,-0.358551025390625,-0.31333693861961365,-0.014590615406632423,-0.1730271875858307
0.7198419570922852,0.00342404842376709,-0.10759973526000977,0.17099463939666748,-1.0523419559519192,-0.7797392023890893,-2.2671678934420245,-0.3484100103378296,0.8685861229896545,-0.3523757755756378,-0.3601049780845642,-0.002166436053812504,-0.23890766501426697
0.7398159503936768,0.0017227530479431152,-0.07348793745040894,0.1473957896232605,-1.0534963654520568,-0.7965729269852737,-2.2863685696124576,-0.3535752296447754,0.869157612323761,-0.3457599878311157,-0.36903440952301025,-0.02041512541472912,-0.34599992632865906
0.7597939968109131,0.016572654247283936,-0.04988718032836914,0.1236322820186615,-1.0527963562307299,-0.8152069405705142,-2.3070755793598567,-0.36039894819259644,0.8688111901283264,-0.33952876925468445,-0.3429950773715973,-0.05329566448926926,-0.408871054649353
0.7798459529876709,0.04705685377120972,-0.053698599338531494,0.11035749316215515,-1.05082083088793,-0.8366811465409701,-2.3300733091320374,-0.3688799738883972,0.8678313493728638,-0.3328610360622406,-0.33883383870124817,-0.09589976072311401,-0.5050488710403442
0.7997920513153076,0.0674457848072052,-0.016056835651397705,0.10097122192382812,-1.0451401941275906,-0.8589147826381809,-2.3535622585207614,-0.3799152970314026,0.8649948835372925,-0.32779303193092346,-0.15819847583770752,-0.11208903044462204,-0.7387484312057495
0.8198878765106201,0.08493059873580933,0.036110103130340576,0.06365153193473816,-1.0327790050013472,-0.8794561900126747,-2.3748206350837435,-0.3947755694389343,0.8587263822555542,-0.3267129361629486,0.11277101933956146,-0.09654033929109573,-0.8548994064331055
0.8398621082305908,0.13037389516830444,-0.09767943620681763,0.0622592568397522,-1.018886564079266,-0.8963992108672193,-2.3928337440141894,-0.40953347086906433,0.8515247702598572,-0.3273959159851074,-0.05050860345363617,-0.07636751979589462,-0.8271364569664001
0.8597948551177979,0.15148529410362244,-0.1192559003829956,0.03211832046508789,-1.0092141012875009,-0.919315814713139,-2.417692428772716,-0.4234580099582672,0.8464136123657227,-0.3229050040245056,-0.3878868818283081,-0.11372776329517365,-0.7499498724937439
0.8798868656158447,0.15095773339271545,-0.03890007734298706,-0.008401572704315186,-1.0025671658466888,-0.9499011521103279,-2.4501808602427935,-0.43770092725753784,0.8428552746772766,-0.31307053565979004,-0.5247364640235901,-0.1812341809272766,-0.8037145137786865
0.899742841720581,0.1318545639514923,0.016129732131958008,-0.038155704736709595,-0.9946362601272755,-0.9787790985606313,-2.4806277970803667,-0.4520907700061798,0.8385608792304993,-0.30402252078056335,-0.38981786370277405,-0.14295586943626404,-0.8159936666488647
0.9197709560394287,0.1268024742603302,0.019927620887756348,-0.044584810733795166,-0.9841645374554037,-1.0034370758918092,-2.507579847819422,-0.4668293595314026,0.8328099250793457,-0.29748663306236267,-0.3108925521373749,-0.05931556597352028,-0.8704519271850586
0.9394500255584717,0.10872939229011536,0.009726941585540771,-0.03486797213554382,-0.9728623970404738,-1.0263633843299946,-2.535402582379245,-0.48154738545417786,0.826500415802002,-0.2915632128715515,-0.4361337125301361,0.06520381569862366,-0.9232898950576782
0.9597959518432617,0.06932690739631653,0.009305715560913086,-0.05189085006713867,-0.9616675420279527,-1.049783603198362,-2.5675240960210246,-0.49623727798461914,0.8201467990875244,-0.2847942113876343,-0.5833234786987305,0.2214612513780594,-0.9844501614570618
0.9798469543457031,0.05015408992767334,0.056781768798828125,-0.06572425365447998,-0.9493119525148362,-1.0753645593552135,-2.6053178646421875,-0.5122360587120056,0.8130151033401489,-0.27680498361587524,-0.706996738910675,0.30562344193458557,-1.1685776710510254
0.999871015548706,0.03994178771972656,0.1302458643913269,-0.08629682660102844,-0.9343580435733285,-1.102598945830052,-2.647404201198243,-0.5303745269775391,0.8042176961898804,-0.2682105302810669,-0.779776930809021,0.37584078311920166,-1.305241584777832
1.0197970867156982,0.09849333763122559,0.0904269814491272,-0.09849566221237183,-0.9181443468164286,-1.1289707912683549,-2.690731929732825,-0.5489786267280579,0.7944760322570801,-0.2596737742424011,-0.8689810633659363,0.4685315787792206,-1.268298625946045
1.0390479564666748,0.18214893341064453,0.010308623313903809,-0.10712948441505432,-0.9037968546182166,-1.1517827659740716,-2.73291974048654,-0.5651140213012695,0.785681426525116,-0.25169607996940613,-0.8831117749214172,0.5704669952392578,-1.1034258604049683
1.0597951412200928,0.2607295513153076,-0.08071887493133545,-0.14678947627544403,-0.8921561679904917,-1.1684564500752228,-2.7697588040241476,-0.5776088237762451,0.7784270644187927,-0.2458038032054901,-0.7249853610992432,0.638378918170929,-0.886155366897583
1.0797970294952393,0.2745804786682129,-0.17480331659317017,-0.1245112419128418,-0.8822487236944088,-1.1772894943911278,-2.7980049672779024,-0.5868516564369202,0.7721697092056274,-0.24363747239112854,-0.5567276477813721,0.6685017943382263,-0.7448117136955261
1.0998060703277588,0.25589680671691895,-0.24063456058502197,-0.07444721460342407,-0.8723025808056002,-1.182119882509197,-2.821674153931536,-0.5950997471809387,0.7658116817474365,-0.24369844794273376,-0.47668737173080444,0.6599884629249573,-0.7856388092041016
1.1198749542236328,0.25073522329330444,-0.2683579921722412,-0.03379085659980774,-0.8606586653507186,-1.1880037462726496,-2.845801309704419,-0.6047545075416565,0.758272111415863,-0.24350707232952118,-0.5427724719047546,0.5768502950668335,-0.8742469549179077
1.139862060546875,0.28951728343963623,-0.311845064163208,-0.026325494050979614,-0.8482022968386758,-1.1982977221684035,-2.8721263154945227,-0.6159790754318237,0.7500927448272705,-0.24068793654441833,-0.5857800841331482,0.3782646059989929,-0.910616397857666
1.159930944442749,0.316450297832489,-0.3198685050010681,-0.01831996440887451,-0.8362808352481776,-1.211864900653156,-2.8976422812137193,-0.6275160312652588,0.7421555519104004,-0.23543357849121094,-0.5632694363594055,0.18037426471710205,-0.825075626373291
1.1801600456237793,0.2616806626319885,-0.29347074031829834,-0.012116611003875732,-0.8241589138569273,-1.2261866014325309,-2.9209768738211173,-0.6392441987991333,0.7339767813682556,-0.22944515943527222,-0.5077614188194275,0.12940667569637299,-0.8982561230659485
1.2001278400421143,0.26327192783355713,-0.26949334144592285,-0.00899052619934082,-0.8087977382105888,-1.2399134553837563,-2.9429865981119314,-0.6529204249382019,0.7234576940536499,-0.22428575158119202,-0.38173341751098633,0.10578373074531555,-1.041482925415039
1.2200579643249512,0.32373303174972534,-0.2607297897338867,-0.016341447830200195,-0.7903139354600008,-1.250966326639656,-2.960338207197983,-0.6679409146308899,0.710574209690094,-0.22122251987457275,-0.17393216490745544,0.029973212629556656,-1.0851255655288696
1.2399680614471436,0.3354557156562805,-0.2658225893974304,-0.01168757677078247,-0.7702558787127528,-1.2585878840098714,-2.9706029662690483,-0.6830357909202576,0.6963189244270325,-0.22045955061912537,0.15824885666370392,-0.06841868907213211,-1.050702452659607
1.2599570751190186,0.32459741830825806,-0.2591521739959717,0.004739522933959961,-0.7483521898160913,-1.2579088110724759,-2.967555438813395,-0.6972323656082153,0.680432140827179,-0.2255646139383316,0.746113121509552,-0.061501044780015945,-0.9649180173873901
1.2799088954925537,0.35826611518859863,-0.22668612003326416,0.03928416967391968,-0.7237746958994982,-1.24811055360145,-2.9505933998314924,-0.7106374502182007,0.6622177958488464,-0.23761782050132751,1.2107568979263306,-0.10319123417139053,-1.0326647758483887
1.299882173538208,0.43165743350982666,-0.2518320083618164,0.1286626160144806,-0.6915632758291262,-1.2322060915714683,-2.9228577381761727,-0.7265182733535767,0.6377421021461487,-0.25584450364112854,1.8692041635513306,-0.1721467822790146,-1.3256996870040894
1.3199079036712646,0.5312645435333252,-0.3028080463409424,0.1490844190120697,-0.6558077467139525,-1.2137376450533468,-2.8853442573204844,-0.74256831407547,0.6097996234893799,-0.27701398730278015,2.0205774307250977,-0.34594643115997314,-1.0301979780197144
1.3388640880584717,0.5207725167274475,-0.51768958568573,0.11388638615608215,-0.6247059539491931,-1.2060431413641655,-2.85436785813107,-0.7577720284461975,0.584858775138855,-0.2893470823764801,1.3156462907791138,-0.7389277219772339,-1.0845619440078735
1.3663928508758545,0.1998913288116455,-0.04317373037338257,0.18974167108535767,-0.563238196110157,-1.2382618583383338,-2.8479545951689977,-0.7992109060287476,0.5339269638061523,-0.2760148048400879,0.15060634911060333,-0.9175828695297241,-1.6936969757080078
1.386234998703003,0.19906622171401978,-0.024465084075927734,0.20042449235916138,-0.531764399036519,-1.2613845728839799,-2.859262303259589,-0.8209840655326843,0.50705486536026,-0.2624513804912567,-0.04034678265452385,-0.7900831699371338,-1.5252282619476318
1.3997738361358643,0.19906622171401978,-0.024465084075927734,0.20042449235916138,-0.531764399036519,-1.2613845728839799,-2.859262303259589,-0.8209840655326843,0.50705486536026,-0.2624513804912567,-0.04034678265452385,-0.7900831699371338,-1.5252282619476318
1.4281890392303467,-0.050409018993377686,0.07556197047233582,0.09341850876808167,-0.47985913571354805,-1.295759488718869,-2.8632494732074454,-0.8537200093269348,0.4616542160511017,-0.2409098744392395,0.9146957397460938,-0.9285150766372681,-1.1983013153076172
1.4470288753509521,-0.22524964809417725,0.1534954011440277,0.09074178338050842,-0.44841828503021164,-1.3088419455809246,-2.8455716116205547,-0.8703924417495728,0.4335407316684723,-0.23336555063724518,1.384134292602539,-1.1879652738571167,-1.4007670879364014
1.467879056930542,-0.33564281463623047,0.04329848289489746,0.06016148626804352,-0.41233264424864935,-1.325524263052504,-2.822496763277556,-0.8887682557106018,0.4007475674152374,-0.22246915102005005,1.4905833005905151,-1.449477195739746,-1.550679326057434
1.4884400367736816,-0.44109392166137695,-0.012530773878097534,-0.019654661417007446,-0.37406844970842523,-1.3472001532367348,-2.799067720729572,-0.9076761603355408,0.3654055595397949,-0.2064041793346405,1.509123682975769,-1.5776530504226685,-1.6446462869644165
1.50819993019104,-0.560084879398346,-0.016944915056228638,-0.054007694125175476,-0.33489152831589747,-1.3677973888391086,-2.770111456303316,-0.9250531196594238,0.32866671681404114,-0.19040748476982117,2.113386869430542,-1.5322266817092896,-1.6175166368484497
1.5277841091156006,-0.7772740721702576,0.050173014402389526,-0.034068092703819275,-0.2934683539970084,-1.3810006177427532,-2.724596718559283,-0.9400568604469299,0.28927403688430786,-0.18059244751930237,2.8405089378356934,-1.171311378479004,-1.5950517654418945
1.539017915725708,-0.7772740721702576,0.050173014402389526,-0.034068092703819275,-0.2934683539970084,-1.3810006177427532,-2.724596718559283,-0.9400568604469299,0.28927403688430786,-0.18059244751930237,2.8405089378356934,-1.171311378479004,-1.5950517654418945
1.569019079208374,-0.777143120765686,0.022688299417495728,0.1349952220916748,-0.2130819227356084,-1.3789056462462976,-2.6242091875701905,-0.959444522857666,0.21147312223911285,-0.18640199303627014,2.0450453758239746,0.18374964594841003,-1.3310953378677368
1.5878510475158691,-0.681736946105957,0.11171276867389679,0.18556714057922363,-0.18328760727044038,-1.362596496984009,-2.600815425039266,-0.962016224861145,0.1822630912065506,-0.20323671400547028,0.8889949321746826,0.9721788763999939,-1.0967810153961182
1.6065709590911865,-0.7251957654953003,0.11091005802154541,0.34886056184768677,-0.1675987102467868,-1.3338045610197364,-2.5983922059101268,-0.9584286212921143,0.16681519150733948,-0.2314898818731308,-0.3115931749343872,1.8392455577850342,-0.40835505723953247
1.627573013305664,-0.971210241317749,-0.0029427707195281982,0.46120086312294006,-0.16932383428767325,-1.2914563654445965,-2.610026818112961,-0.947490930557251,0.1685158908367157,-0.2717781662940979,-0.706544816493988,2.508951187133789,0.2683306336402893
1.6441528797149658,-1.0536525249481201,-0.013574153184890747,0.5689564943313599,-0.18461932073911405,-1.2398687048297257,-2.6138409855579607,-0.9296696782112122,0.18357233703136444,-0.3193988502025604,0.09686315059661865,2.6776320934295654,1.1456626653671265
1.6654431819915771,-0.9942713975906372,0.025155141949653625,0.45933669805526733,-0.2065814801685947,-1.1855144007866416,-2.590929853735047,-0.9069890975952148,0.20511527359485626,-0.36782968044281006,1.0310858488082886,2.1087679862976074,1.6094090938568115
1.6876261234283447,-0.8704137802124023,-0.2641061544418335,0.14017927646636963,-0.231641549164325,-1.1522460161510395,-2.5639879177237184,-0.8892756700515747,0.2295755296945572,-0.39558082818984985,0.14572377502918243,0.42886877059936523,1.819547176361084
1.707153081893921,-0.8026480078697205,-0.30110740661621094,-0.002457857131958008,-0.26713335750774386,-1.1587391481790703,-2.5605198303126526,-0.8837991952896118,0.2639675438404083,-0.3862902522087097,-0.6525260806083679,-1.0171412229537964,1.5013997554779053
1.727276086807251,-1.0430481433868408,-0.1949765980243683,0.03895553946495056,-0.3061836584722176,-1.1783246785928596,-2.565750329764927,-0.8809937834739685,0.30142199993133545,-0.3646848499774933,-1.3554480075836182,-0.45314091444015503,1.6802268028259277
1.7471821308135986,-1.3217015266418457,-0.2813210189342499,0.04787573218345642,-0.34494492130065985,-1.184295477172524,-2.5819695488565286,-0.8716732859611511,0.33814483880996704,-0.35474520921707153,-1.5567997694015503,0.3330136835575104,1.3901445865631104
1.7668111324310303,-1.0342328548431396,-0.13700002431869507,-0.15894454717636108,-0.38139362247866443,-1.1836622198256903,-2.6027811054770873,-0.8594592213630676,0.37221431732177734,-0.35040903091430664,-1.6097368001937866,0.36207151412963867,1.27942955493927
1.7868988513946533,-0.9177353978157043,-0.05075618624687195,-0.2025284767150879,-0.4160157602033431,-1.188571204506322,-2.626812404299454,-0.8486984372138977,0.40411925315856934,-0.34117263555526733,-1.7820979356765747,0.10800862312316895,1.0986813306808472
1.8059651851654053,-0.8458467721939087,-0.013043910264968872,-0.1378742754459381,-0.4480173561067891,-1.199337297859572,-2.65558469340036,-0.8398374319076538,0.43317940831184387,-0.3271524906158447,-1.7791242599487305,0.045397356152534485,0.9446987509727478
1.826828956604004,-0.7339402437210083,0.0777181088924408,-0.13381296396255493,-0.4766914872105676,-1.2108599956190664,-2.682901550731856,-0.8315810561180115,0.458842009305954,-0.3129490315914154,-1.5148563385009766,-0.02871522307395935,0.8382969498634338
1.846681833267212,-0.5946836471557617,0.1709558069705963,-0.20494478940963745,-0.5001671213436581,-1.223768260040576,-2.7045934519976136,-0.8251925706863403,0.47957220673561096,-0.2984426021575928,-1.1056427955627441,-0.23516400158405304,0.7111299633979797
1.8666331768035889,-0.535352885723114,0.2105545997619629,-0.22669166326522827,-0.5186389433374679,-1.2387201628224156,-2.721479060110587,-0.8210467100143433,0.4956985414028168,-0.28313490748405457,-0.9620112776756287,-0.4075605571269989,0.5357171297073364
1.8864271640777588,-0.4769340753555298,0.21446889638900757,-0.21282580494880676,-0.5336813224519986,-1.2554683475211488,-2.7389635309466676,-0.8184913992881775,0.5087061524391174,-0.2670019567012787,-0.962984025478363,-0.39443525671958923,0.39259985089302063
1.9082281589508057,-0.3595064878463745,0.26043176651000977,-0.22957879304885864,-0.5451302196563402,-1.272492154148453,-2.7567361211388484,-0.8172972202301025,0.5185294151306152,-0.2513018250465393,-0.8165719509124756,-0.3956933319568634,0.29539501667022705
1.926530122756958,-0.2456795573234558,0.3081337809562683,-0.26254719495773315,-0.5548274675183528,-1.2878568547208147,-2.7706286034371836,-0.8161948919296265,0.5267966389656067,-0.23730014264583588,-0.6133849024772644,-0.3797486126422882,0.2813054323196411
1.9455978870391846,-0.21370285749435425,0.30786842107772827,-0.23707595467567444,-0.5629151859366737,-1.3017947534526535,-2.7831628552588983,-0.8152888417243958,0.5336538553237915,-0.2247617095708847,-0.5999893546104431,-0.3230268359184265,0.19719333946704865
1.9653980731964111,-0.09119874238967896,0.31162601709365845,-0.21174143254756927,-0.5708693341455258,-1.3144567362546897,-2.796779487376359,-0.8139374256134033,0.5403637290000916,-0.21333779394626617,-0.7491320967674255,-0.25150346755981445,0.2649911940097809
1.9875061511993408,-0.03215306997299194,0.3774285912513733,-0.2477942556142807,-0.5803930309836068,-1.3301308790423703,-2.815125511703211,-0.8121462464332581,0.5483526587486267,-0.19931866228580475,-0.9090176820755005,-0.26814141869544983,0.28383567929267883
2.0066301822662354,0.0389590859413147,0.3949991464614868,-0.23497126996517181,-0.5904345349083099,-1.341293170931912,-2.8294221683324254,-0.8089176416397095,0.5567220449447632,-0.18897880613803864,-0.40204858779907227,-0.07245462387800217,0.3847358822822571
2.026216983795166,0.12830376625061035,0.42889147996902466,-0.2132517546415329,-0.597963301125917,-1.3405868056091554,-2.829943287603756,-0.8046801686286926,0.5629603266716003,-0.18858836591243744,0.00853909645229578,0.16551248729228973,0.29918673634529114
2.0463101863861084,0.32988041639328003,0.2374274730682373,-0.08454208076000214,-0.6031193546897198,-1.334213051338527,-2.8283794157667774,-0.8006293773651123,0.5672142505645752,-0.1930304318666458,0.09459294378757477,0.39804932475090027,0.3438492715358734
2.0661470890045166,0.5573133826255798,0.1447184681892395,-0.05357617139816284,-0.6089075335914003,-1.318837088475549,-2.8167049721165824,-0.7943739891052246,0.5719716548919678,-0.2044956535100937,0.7402898669242859,0.42597097158432007,0.45666494965553284
2.086164951324463,0.7039353251457214,0.08817917108535767,0.010819196701049805,-0.613404365146059,-1.2965080054026232,-2.7922404777525203,-0.787126362323761,0.5756545066833496,-0.22148194909095764,0.8961759805679321,0.4483727514743805,0.5372445583343506
2.106074094772339,0.7994981408119202,-0.1632845401763916,0.11805552244186401,-0.6206994668934492,-1.275226852328806,-2.771664049400878,-0.7781969308853149,0.5816043019294739,-0.23695193231105804,0.5456542372703552,0.46111029386520386,0.648227870464325
2.125964879989624,0.862744152545929,-0.11024010181427002,0.14649969339370728,-0.6301607388050016,-1.256002516497471,-2.7529343198448912,-0.7682313323020935,0.5892746448516846,-0.2501525282859802,0.6568408012390137,0.3616945147514343,0.7754127979278564
2.1458709239959717,0.9569215178489685,-0.1814638376235962,0.2802867889404297,-0.6427349096380117,-1.2384192340243025,-2.7314968249677336,-0.7566499710083008,0.5993868708610535,-0.2611827254295349,0.5592453479766846,0.10118818283081055,0.9660510420799255
2.1656830310821533,0.9679529666900635,-0.24713599681854248,0.3499178886413574,-0.6595959196865001,-1.2258109246430038,-2.7096101646229123,-0.7436792850494385,0.6127975583076477,-0.26724565029144287,0.5572982430458069,-0.16522203385829926,1.2050740718841553
2.1874821186065674,0.9270539879798889,-0.2738761901855469,0.3913266658782959,-0.6801604532146539,-1.2144477399760856,-2.683016446054436,-0.7286287546157837,0.6289177536964417,-0.27122461795806885,0.6931028962135315,-0.33572274446487427,1.430217981338501
2.2058980464935303,0.8769440650939941,-0.30173158645629883,0.44081661105155945,-0.7028329547949297,-1.2024300759665862,-2.650691222873715,-0.7118287682533264,0.6463818550109863,-0.2747550904750824,0.8422279953956604,-0.5238426327705383,1.5916074514389038
2.2249460220336914,0.8974584341049194,-0.2979763150215149,0.48993390798568726,-0.7268348933046412,-1.1919855308193557,-2.6145643684263233,-0.694303035736084,0.6645077466964722,-0.2763565182685852,0.8266264796257019,-0.818788468837738,1.632102370262146
2.245736837387085,0.9068299531936646,-0.368503212928772,0.5548481941223145,-0.7512593219311395,-1.1854839293638022,-2.5768928449969937,-0.6772462129592896,0.6825596690177917,-0.27468141913414,0.8485673666000366,-1.042304515838623,1.640555739402771
2.2662580013275146,0.8253162503242493,-0.44410139322280884,0.6153402924537659,-0.7733576023896241,-1.1771557278191942,-2.537085745962141,-0.6608418226242065,0.6985417604446411,-0.2744588851928711,0.9808300733566284,-0.8275781273841858,1.429990291595459
2.2856860160827637,0.9659406542778015,-0.4287680983543396,0.6358960866928101,-0.7899574595735941,-1.1625317318551283,-2.4963299484142363,-0.6460249423980713,0.7103233337402344,-0.2794507145881653,1.0333296060562134,-0.6820564866065979,1.2707545757293701
2.3053979873657227,1.0934841632843018,-0.438228964805603,0.5125956535339355,-0.8016248795617179,-1.1479703189377617,-2.451631397556674,-0.6342861652374268,0.7184872031211853,-0.28540748357772827,1.4481719732284546,-1.0383163690567017,1.0712878704071045
2.325493097305298,0.9334527254104614,-0.5008052587509155,0.3460521996021271,-0.803337461310088,-1.1287140878773905,-2.3965056211547378,-0.6275597810745239,0.7196773290634155,-0.2970408499240875,1.9363443851470947,-0.9169617891311646,0.5911636352539062
2.344313859939575,0.8638469576835632,-0.5475672483444214,0.3545556962490082,-0.7919023306792033,-1.1083120845399235,-2.3434861158663574,-0.6286938786506653,0.7116909623146057,-0.3134332299232483,1.8103046417236328,-0.8752411007881165,0.09431719034910202
2.365262985229492,0.6700888276100159,-0.4805801510810852,0.23564088344573975,-0.7736918672246964,-1.0988686962256435,-2.304776050530507,-0.6371451616287231,0.69878089427948,-0.3251946270465851,1.6589864492416382,-0.8417193293571472,-0.5253395438194275
2.385725975036621,0.3110048770904541,-0.22958362102508545,0.16567111015319824,-0.7417550216133322,-1.0887217136892315,-2.2692580507813367,-0.6532595753669739,0.6755828857421875,-0.3418184816837311,2.083514451980591,-0.7354243993759155,-1.1669410467147827
2.404524087905884,0.26743340492248535,-0.23277318477630615,0.14331546425819397,-0.6972017117841895,-1.087083322976513,-2.2345325648601677,-0.6786882877349854,0.6420749425888062,-0.3565416932106018,2.2461650371551514,-1.4706788063049316,-1.4996652603149414
2.425020933151245,-0.006812155246734619,-0.2542911171913147,0.18612009286880493,-0.6497265536716882,-1.1080780816519396,-2.207525670934559,-0.7125177979469299,0.6049687266349792,-0.35543152689933777,1.794083833694458,-2.2835118770599365,-1.8253498077392578
2.4441030025482178,-0.5653943419456482,-0.24913549423217773,0.1956002414226532,-0.5985021915145424,-1.1508197946305552,-2.1924668379886887,-0.7543842792510986,0.5634056329727173,-0.3368660807609558,1.600394606590271,-2.8361117839813232,-2.2221808433532715
2.464992046356201,-0.8007478713989258,-0.1288989782333374,0.0177537202835083,-0.5440274729372835,-1.2046754754474032,-2.177363761386376,-0.798922598361969,0.5175862312316895,-0.306312620639801,1.6516096591949463,-3.384221076965332,-2.3533623218536377
2.4850189685821533,-1.0475964546203613,-0.095370352268219,-0.08644068241119385,-0.4877230440191763,-1.2651688108532568,-2.159506926948297,-0.8424639701843262,0.46861565113067627,-0.2658084034919739,1.7167704105377197,-3.495882987976074,-2.46075701713562
2.5048348903656006,-1.257331371307373,-0.053306639194488525,-0.24442943930625916,-0.4303939293189864,-1.3220805036291383,-2.1361793862621585,-0.8808372616767883,0.4172288477420807,-0.22371016442775726,1.7609760761260986,-3.1014344692230225,-2.432764768600464
2.5248119831085205,-1.0943036079406738,-0.009112268686294556,-0.21636345982551575,-0.379926749661962,-1.3641389520853073,-2.113052477935251,-0.9089314937591553,0.37085244059562683,-0.19055789709091187,1.4436918497085571,-2.002171516418457,-1.977747917175293
2.5447020530700684,-0.805001974105835,0.05780068039894104,-0.13929231464862823,-0.3427782702217131,-1.3851118261754862,-2.0925817673502176,-0.9256348609924316,0.33610501885414124,-0.17387902736663818,1.1827806234359741,-0.8763420581817627,-1.2891175746917725
2.5647590160369873,-0.5271271467208862,0.11155357956886292,-0.0829610675573349,-0.3209934422164137,-1.3884183936364962,-2.070721805924498,-0.933184802532196,0.3155094087123871,-0.17210473120212555,1.2771168947219849,-0.2524890899658203,-0.507421612739563
2.5842301845550537,-0.4037591218948364,0.07022303342819214,-0.023195981979370117,-0.31172358542417483,-1.3826038417190498,-2.0448046117394374,-0.9350013732910156,0.30669960379600525,-0.1780673861503601,1.2818810939788818,0.02176561765372753,-0.015703944489359856
2.6046230792999268,-0.4758344888687134,-0.08700013160705566,0.12256486713886261,-0.3089157693294092,-1.3726961423953314,-2.021389924371152,-0.9340318441390991,0.30402591824531555,-0.18749092519283295,0.9649022221565247,0.20734772086143494,0.10954727232456207
2.624768018722534,-0.494853138923645,-0.16750246286392212,0.06798149645328522,-0.3074714168948829,-1.3641294676530349,-2.006529892114274,-0.9328202605247498,0.3026496171951294,-0.19557541608810425,0.4440796673297882,0.22681179642677307,0.04318444803357124
2.6460201740264893,-0.5420501828193665,-0.1459813416004181,0.020754650235176086,-0.3067924893607154,-1.35758027709545,-2.0010332527596653,-0.931719958782196,0.3020024597644806,-0.20172381401062012,0.04393864795565605,0.26280662417411804,-0.031911347061395645
2.6614649295806885,-0.5744434595108032,-0.07727187871932983,0.0037467777729034424,-0.3078980990554639,-1.352383847610563,-2.0040347885871137,-0.9303327798843384,0.3030562400817871,-0.20649024844169617,-0.3223276436328888,0.3007294237613678,0.134130597114563
2.684329032897949,-0.5110788345336914,-0.0346837043762207,0.05340230464935303,-0.3160578124034354,-1.3487021856553472,-2.0114670362940696,-0.9271231889724731,0.310822069644928,-0.20936231315135956,-0.4283497631549835,0.30646657943725586,0.5217687487602234
2.7043821811676025,-0.4157100319862366,0.03348034620285034,-0.009609490633010864,-0.33189331453211723,-1.3437980466494261,-2.0149667234003883,-0.9211735129356384,0.32583358883857727,-0.21277201175689697,-0.16420972347259521,0.2382332980632782,0.9088504910469055
2.7242538928985596,-0.3591218590736389,0.049071818590164185,-0.01717156171798706,-0.3534926693788934,-1.3397154550072121,-2.010312567793056,-0.9132323861122131,0.3461766242980957,-0.21486876904964447,-0.042334042489528656,-0.021119266748428345,1.391828179359436
2.744225025177002,-0.3546234965324402,-0.0315401554107666,0.0780143141746521,-0.3802033120740502,-1.3382820553004962,-2.005919173701402,-0.9036011099815369,0.371109277009964,-0.21397006511688232,-0.030738042667508125,0.11025198549032211,1.2467526197433472
2.7640459537506104,-0.41324901580810547,-0.11389514803886414,0.06725490093231201,-0.40725595946210597,-1.3304602361401052,-2.003362794169967,-0.8918200731277466,0.3960912227630615,-0.21856097877025604,-0.5498239994049072,0.47628259658813477,1.3725109100341797
2.782989978790283,-0.41203761100769043,-0.15135976672172546,0.10208559036254883,-0.43627855574115865,-1.326992025282274,-2.0163079400713118,-0.8795273900032043,0.42256954312324524,-0.21878473460674286,-1.1797912120819092,0.4453316032886505,1.2415794134140015
2.8041250705718994,-0.3326297998428345,-0.12872183322906494,0.12549330294132233,-0.46804241269183133,-1.325554289470702,-2.035424372346612,-0.8657497763633728,0.4511401057243347,-0.21667972207069397,-1.200942039489746,0.5151864886283875,1.4025626182556152
2.8239569664001465,-0.2573332190513611,-0.09157797694206238,0.14797934889793396,-0.5000352691565514,-1.322855321842633,-2.051676344793878,-0.8507297039031982,0.47945648431777954,-0.215362086892128,-0.9834692478179932,0.5006982088088989,1.3532277345657349
2.841933012008667,-0.1252616047859192,-0.0894702672958374,0.15359216928482056,-0.5302280663152699,-1.3197330166257109,-2.0640379033681744,-0.8356454372406006,0.5057300925254822,-0.2143220603466034,-0.8227306008338928,0.42189276218414307,1.325897216796875
2.86358904838562,-0.050321757793426514,-0.11024421453475952,0.15759560465812683,-0.5595165105774785,-1.316413469944327,-2.0731076437645237,-0.820237934589386,0.5307765007019043,-0.21327482163906097,-0.657550573348999,0.4272199869155884,1.3169630765914917
2.8826839923858643,-0.016153931617736816,-0.10975170135498047,0.1358637511730194,-0.5872117133273405,-1.3115139102442295,-2.0793488702784324,-0.80466228723526,0.5540419816970825,-0.21343934535980225,-0.5633841156959534,0.36435747146606445,1.2145166397094727
2.9035210609436035,0.07341289520263672,-0.12507224082946777,0.08050358295440674,-0.6114770054435956,-1.3082560091590307,-2.082171012957822,-0.7907439470291138,0.5740774869918823,-0.21250727772712708,-0.2491294890642166,0.11749880015850067,1.1164672374725342
2.9235260486602783,0.164575457572937,-0.1579534411430359,0.03343760967254639,-0.6344913774969322,-1.3058053264014622,-2.0773592871185675,-0.7772617340087891,0.5927679538726807,-0.21092775464057922,-0.011289975605905056,-0.17570005357265472,1.2120602130889893
2.9434311389923096,0.1472499966621399,-0.15493452548980713,-0.000594794750213623,-0.6579651458821664,-1.3066591551360864,-2.0673018851207035,-0.7637966871261597,0.6115080714225769,-0.2065737098455429,0.14208869636058807,-0.5038340091705322,1.2704882621765137
2.9615161418914795,-0.013844907283782959,-0.1081896424293518,0.02263869345188141,-0.6807407711000842,-1.3103305315882672,-2.0558679643213686,-0.7508951425552368,0.6293688416481018,-0.20012883841991425,0.13707849383354187,-0.500565230846405,1.1201527118682861
2.9826500415802,-0.0865984559059143,-0.10076618194580078,0.004852801561355591,-0.7003265945483481,-1.3138412380744706,-2.046225828294017,-0.7395277619361877,0.6444674730300903,-0.19432111084461212,0.05751464143395424,-0.5013355016708374,0.9934980869293213
3.0032100677490234,-0.014057695865631104,-0.10703247785568237,-0.015336558222770691,-0.7187230398829213,-1.3192146728420042,-2.0378621981598655,-0.7289537787437439,0.6584240794181824,-0.18736109137535095,0.15549179911613464,-0.5269673466682434,1.0162169933319092
3.023144006729126,0.044523656368255615,-0.1640189290046692,-0.02741558849811554,-0.7377917642172769,-1.318779451305019,-2.0231994163544114,-0.7165818810462952,0.6726555824279785,-0.18451367318630219,0.43629610538482666,-0.4408647119998932,1.0727418661117554
3.043205976486206,0.13447225093841553,-0.12680178880691528,-0.059711337089538574,-0.754665010343442,-1.3153463484128263,-2.002006776039206,-0.7048611044883728,0.6850446462631226,-0.18407827615737915,0.6562873125076294,-0.6674205660820007,0.9277125000953674
3.0622398853302,0.22942692041397095,-0.10409832000732422,-0.05697166919708252,-0.768137117481782,-1.3130330641519872,-1.9766900364214632,-0.695445716381073,0.694796621799469,-0.18333891034126282,0.666254460811615,-0.8662647008895874,0.867286741733551
3.0819709300994873,0.24102520942687988,-0.020898401737213135,-0.06421846151351929,-0.7810626343733336,-1.3175388194708952,-1.9577493538928048,-0.6875126957893372,0.7040344476699829,-0.17793840169906616,0.33240100741386414,-0.8858147263526917,0.6992431879043579
3.103199005126953,0.2187436819076538,0.0755799412727356,-0.1715206503868103,-0.7909779451702339,-1.325889925694093,-1.9448536733605264,-0.6821684241294861,0.711041271686554,-0.17048972845077515,0.30063027143478394,-0.9155811667442322,0.4740053415298462
3.121938943862915,0.2225140929222107,0.2873328924179077,-0.24903857707977295,-0.7951653946189783,-1.3369000714163317,-1.9337803846402852,-0.6811017990112305,0.7139794230461121,-0.16227728128433228,0.4042174816131592,-0.9473007321357727,0.15578629076480865
3.1429741382598877,0.23412060737609863,0.3538544178009033,-0.23133976757526398,-0.7953277577841203,-1.3438702721370182,-1.9198432630830244,-0.6821035146713257,0.7140930891036987,-0.15749989449977875,0.5149872899055481,-0.6906169652938843,0.09015960991382599
3.162757158279419,0.27323710918426514,0.2723410129547119,-0.18579590320587158,-0.7947406818031859,-1.3445279133809669,-1.9060668914847114,-0.6826152801513672,0.7136819958686829,-0.15714527666568756,0.4467376172542572,-0.3587200343608856,0.10815964639186859
3.181852102279663,0.360604465007782,0.23131626844406128,-0.18899112939834595,-0.7958217550817016,-1.3448200234348269,-1.8976114713248682,-0.6819088459014893,0.7144388556480408,-0.1567729264497757,0.23594406247138977,-0.30866068601608276,0.1450846940279007
3.2030041217803955,0.38733696937561035,0.184023916721344,-0.22518013417720795,-0.7989746707157235,-1.347278619946012,-1.8919295847865503,-0.6800920963287354,0.716641366481781,-0.15459579229354858,0.02556084841489792,-0.3790332078933716,0.18975830078125
3.2217490673065186,0.3558248281478882,0.18130367994308472,-0.18697212636470795,-0.8012806345687526,-1.3582843531001612,-1.8945770539081828,-0.6801351308822632,0.7182477116584778,-0.14675273001194,-0.18608759343624115,-0.4858047664165497,-0.00027229462284594774
3.2425780296325684,0.3342856168746948,0.14813661575317383,-0.1084665060043335,-0.8012288811418267,-1.3682919376611082,-1.8973306893579291,-0.6816062331199646,0.7182117104530334,-0.13994647562503815,0.05168690159916878,-0.2990882992744446,0.002748209284618497
3.262863874435425,0.3604070544242859,0.12428194284439087,0.000836491584777832,-0.8024871749932876,-1.3667629219832624,-1.891196610730839,-0.6805060505867004,0.7190867066383362,-0.14080530405044556,0.3221553564071655,-0.0229648370295763,0.19927635788917542
3.2815091609954834,0.35742539167404175,0.15744036436080933,0.010806247591972351,-0.805762874031639,-1.3547172671694885,-1.8755401200017063,-0.6764562726020813,0.7213591933250427,-0.1484862118959427,0.6920844912528992,0.11300000548362732,0.326372891664505
3.3015658855438232,0.3618085980415344,0.12359583377838135,0.01967783272266388,-0.8095384512392684,-1.332701237038391,-1.8492276460257306,-0.6703718900680542,0.7239688634872437,-0.16269834339618683,0.9386187791824341,0.1408187597990036,0.44101405143737793
3.3223631381988525,0.4230009913444519,0.042590439319610596,0.04587745666503906,-0.8133900235366138,-1.3106501379463715,-1.819655595206723,-0.6639220714569092,0.7266204357147217,-0.1767214983701706,0.924609899520874,-0.11108102649450302,0.4303368628025055
3.341341018676758,0.4369072914123535,0.03815805912017822,0.08325065672397614,-0.8174069485219786,-1.294537022030631,-1.7915823383927665,-0.658174991607666,0.729374349117279,-0.18659831583499908,0.8076884746551514,-0.3060333728790283,0.43509578704833984
3.3622679710388184,0.3965492844581604,0.07454919815063477,0.13194257020950317,-0.8206706655614107,-1.283779337740018,-1.7675280963363929,-0.6538430452346802,0.73160320520401,-0.1929928958415985,0.7151328921318054,-0.3650323450565338,0.3552764654159546
3.3813841342926025,0.38660043478012085,0.12704873085021973,0.13275904953479767,-0.8236610773757437,-1.2730825673501913,-1.7421998421246374,-0.6496467590332031,0.7336385846138,-0.199333056807518,0.8838165998458862,-0.4329131245613098,0.45224934816360474
3.4023890495300293,0.40714073181152344,0.1616809368133545,0.10143408179283142,-0.8274263058929123,-1.258846879440201,-1.7087018291369913,-0.6441097259521484,0.736191987991333,-0.20771142840385437,1.1902334690093994,-0.6412191987037659,0.5875955820083618
3.4211928844451904,0.4016816020011902,0.15183979272842407,0.10482281446456909,-0.8310850608343562,-1.2426935706040765,-1.665713932122882,-0.6381165981292725,0.7386631965637207,-0.21721898019313812,1.4508497714996338,-0.905005693435669,0.6801044344902039
3.441951036453247,0.33688586950302124,0.11798954010009766,0.15946437418460846,-0.8349961774708206,-1.2261691335763323,-1.6168054950847048,-0.6317161917686462,0.7412939667701721,-0.2267555594444275,1.49514639377594,-1.021161675453186,0.7775017023086548
3.4620611667633057,0.21117812395095825,0.054952263832092285,0.2362903505563736,-0.839650751812744,-1.2087925292359534,-1.5676498341644933,-0.624447226524353,0.74440997838974,-0.23647333681583405,1.423814296722412,-0.8667203783988953,0.7889001369476318
3.4819259643554688,0.07300823926925659,0.02385735511779785,0.2969723343849182,-0.8433107419290932,-1.1902706552143176,-1.5230649680272104,-0.6174265742301941,0.7468488216400146,-0.24698443710803986,1.2108490467071533,-0.59120112657547,0.5812033414840698
3.5018320083618164,-0.010278463363647461,0.008248507976531982,0.31176409125328064,-0.8426214382246348,-1.1737226031939152,-1.4886350098782284,-0.6137298345565796,0.7463902831077576,-0.25736644864082336,0.9243548512458801,-0.34247857332229614,0.24134208261966705
3.5219051837921143,-0.003544926643371582,-0.03919106721878052,0.28875505924224854,-0.8386407755262792,-1.1632313401857786,-1.4671061360997715,-0.6137189269065857,0.7437351942062378,-0.26496654748916626,0.5584616661071777,-0.2512047588825226,-0.05826767534017563
3.5417211055755615,0.04007989168167114,-0.10105383396148682,0.22197994589805603,-0.8317335738801594,-1.161854334211664,-1.4570915816453143,-0.6180524230003357,0.7391002178192139,-0.26784780621528625,0.35768604278564453,-0.35444796085357666,-0.28513169288635254
3.5618069171905518,0.06854093074798584,-0.12197309732437134,0.1627846658229828,-0.8232323465888566,-1.1672423887654886,-1.4532942292050472,-0.6252427101135254,0.7333471775054932,-0.266971617937088,0.2134920060634613,-0.4930686056613922,-0.40005746483802795
3.581860065460205,0.08754241466522217,-0.13121390342712402,0.09662887454032898,-0.81444426836569,-1.1804964463319247,-1.455683392787615,-0.6346615552902222,0.7273443341255188,-0.2611032724380493,-0.011385183781385422,-0.6579049229621887,-0.4462176263332367
3.6016299724578857,0.13257509469985962,-0.13995826244354248,0.029667258262634277,-0.8085720265644624,-1.1985564580751185,-1.461024189412698,-0.6432410478591919,0.7233018279075623,-0.2511484920978546,-0.10334883630275726,-0.7615981698036194,-0.2105819135904312
3.6216881275177,0.1504414677619934,-0.12471193075180054,-0.059532612562179565,-0.8071769591150962,-1.2165870877971956,-1.4626740478064042,-0.648610532283783,0.7223377823829651,-0.23986004292964935,0.11055618524551392,-0.9332946538925171,0.03773225471377373
3.641291856765747,0.1355990171432495,-0.11451280117034912,-0.19402551651000977,-0.8072119639271126,-1.2280802298242552,-1.4499570342707682,-0.6513004302978516,0.7223620414733887,-0.23238123953342438,0.8023338317871094,-1.1263364553451538,0.25497856736183167
3.661710023880005,0.09358870983123779,-0.15977394580841064,-0.251904159784317,-0.8051011916227938,-1.2237680495760979,-1.412996744664731,-0.6517248153686523,0.7209007740020752,-0.2357056885957718,1.624553918838501,-1.0756547451019287,0.38869792222976685
3.681375026702881,0.06829565763473511,-0.22840458154678345,-0.20636187493801117,-0.7992354646282406,-1.2053522107186279,-1.3606228851488669,-0.6512119174003601,0.7168232202529907,-0.24917393922805786,1.9035310745239258,-0.8659747242927551,0.2982652187347412
3.701399087905884,0.009797513484954834,-0.30727308988571167,-0.09988647699356079,-0.7901244770497545,-1.1851525200072806,-1.3118995095449526,-0.6520705223083496,0.7104408740997314,-0.26472219824790955,1.5085418224334717,-0.5827392339706421,0.0843384712934494
3.7213308811187744,-0.07039785385131836,-0.34690606594085693,-0.05547511577606201,-0.7800798166646137,-1.1741815351817906,-1.28349265771648,-0.6556764245033264,0.7033361792564392,-0.2746029198169708,0.7704313397407532,-0.3001207113265991,-0.22579829394817352
3.741178035736084,-0.010306119918823242,-0.3633236289024353,-0.07271260023117065,-0.7715711627472409,-1.1700128761893787,-1.2716127927688985,-0.6600125432014465,0.6972623467445374,-0.27965855598449707,0.42537835240364075,-0.16321204602718353,-0.20176440477371216
3.7613179683685303,0.05886662006378174,-0.2998412847518921,-0.1354188621044159,-0.7647947682150525,-1.167482875274902,-1.2612356912085017,-0.6636335253715515,0.6923889517784119,-0.28317537903785706,0.5845160484313965,-0.35772424936294556,-0.12178219854831696
3.780165910720825,-0.0898432731628418,-0.24257588386535645,-0.09525406360626221,-0.7564127083220129,-1.1629022000829485,-1.244171851316031,-0.667633593082428,0.6863168478012085,-0.28850436210632324,0.8487146496772766,-0.3601103723049164,-0.19951015710830688
3.8011138439178467,-0.1793164610862732,-0.25585228204727173,-0.057892292737960815,-0.7447504949125863,-1.1588799789851019,-1.2274371230072316,-0.6737566590309143,0.6777883768081665,-0.294372022151947,0.6400384306907654,-0.38207948207855225,-0.3497295081615448
3.8200461864471436,-0.11643970012664795,-0.30970340967178345,0.00013688206672668457,-0.7347763174520501,-1.1625893251829458,-1.220654448401762,-0.6810151934623718,0.6704211831092834,-0.29453983902931213,0.20785672962665558,-0.3803984224796295,-0.3078802824020386
3.8408920764923096,-0.05663907527923584,-0.327616810798645,0.010972857475280762,-0.7295645903710518,-1.1690586139297543,-1.220146638876277,-0.6861130595207214,0.6665450930595398,-0.291490375995636,0.18322885036468506,-0.3165420591831207,-0.22074423730373383
3.8607749938964844,0.0010791420936584473,-0.2379574179649353,-0.029524803161621094,-0.7217945555498749,-1.1672732402595214,-1.2090282309462517,-0.6903339624404907,0.6607327461242676,-0.29473966360092163,0.9226883053779602,-0.2543754279613495,-0.12358585745096207
3.8799099922180176,0.10486435890197754,-0.22013187408447266,0.010939985513687134,-0.7107243968494156,-1.1531790051424047,-1.1799969331700562,-0.6927551031112671,0.6523829698562622,-0.30738770961761475,1.4325791597366333,-0.2506987452507019,-0.057994164526462555
3.900604009628296,0.14950484037399292,-0.2991645336151123,0.068881094455719,-0.6967047926871295,-1.1386113266867717,-1.1485775793335213,-0.6964409947395325,0.6416938900947571,-0.32124611735343933,1.2553060054779053,-0.34900081157684326,-0.25296419858932495
3.9205029010772705,0.20949691534042358,-0.32891005277633667,0.09638562798500061,-0.6815095213695553,-1.1335570557106913,-1.1278414737003064,-0.7035613656044006,0.6299660801887512,-0.3288532495498657,0.8501628637313843,-0.45927920937538147,-0.4134519100189209
3.9397919178009033,0.29486602544784546,-0.33156710863113403,0.12346556782722473,-0.6679312815428836,-1.1373438902298898,-1.1173594902290624,-0.7124991416931152,0.6193631291389465,-0.32974904775619507,0.513738214969635,-0.5788905024528503,-0.503309965133667
3.960515022277832,0.32619142532348633,-0.21961605548858643,0.08687615394592285,-0.6529794551463656,-1.1461829675617834,-1.1105636079823629,-0.7237439751625061,0.607555627822876,-0.3272172510623932,0.6962926983833313,-0.7453662753105164,-0.6199386119842529
3.979788064956665,0.32707297801971436,-0.04797565937042236,0.03698301315307617,-0.6342733963385881,-1.1529678624826438,-1.0951537134678118,-0.7362069487571716,0.5925924181938171,-0.3268541395664215,1.208237648010254,-0.8475624918937683,-0.5685302019119263
4.000234842300415,0.3519400358200073,-0.062352120876312256,0.08637481927871704,-0.6140057448660252,-1.1553775503807537,-1.0693713994642966,-0.7478293776512146,0.5761461853981018,-0.3298592269420624,1.4685651063919067,-0.9004669189453125,-0.436069130897522
4.0201380252838135,0.3684382438659668,-0.1305031180381775,0.1173715889453888,-0.5955372242922429,-1.1583836214574579,-1.041952195780331,-0.7584376335144043,0.5609535574913025,-0.33181849122047424,1.2802728414535522,-0.9714377522468567,-0.3889579772949219
4.040497064590454,0.32755863666534424,-0.08882635831832886,0.13462534546852112,-0.5782138275801741,-1.1680339802964106,-1.023302221945572,-0.7704297304153442,0.5465289950370789,-0.32824403047561646,0.8750203847885132,-1.055923342704773,-0.6327327489852905
4.060180902481079,0.2729973793029785,-0.014858543872833252,0.11311987042427063,-0.5566529373684798,-1.1838062511366712,-1.0111933724950843,-0.7862421870231628,0.5283474326133728,-0.32042571902275085,0.9762729406356812,-1.156264305114746,-0.9360337257385254
4.08031702041626,0.16958433389663696,0.12394088506698608,-0.0079764723777771,-0.5298015929983719,-1.2006189407889596,-0.994665044853062,-0.8044568300247192,0.5053621530532837,-0.31218335032463074,1.3415284156799316,-1.388834834098816,-1.0541871786117554
4.099815130233765,0.05239003896713257,0.1536111831665039,-0.010354012250900269,-0.5000053278552778,-1.22040162316657,-0.9731100444095901,-0.8242558836936951,0.479430228471756,-0.30124562978744507,1.3808921575546265,-1.6807200908660889,-1.0378544330596924
4.121569871902466,-0.09183526039123535,0.0549638569355011,0.04923391342163086,-0.4714473050699541,-1.247473595965353,-0.9546292642832929,-0.8447492718696594,0.4541761875152588,-0.2830595076084137,1.0262434482574463,-1.9040786027908325,-1.1630090475082397
4.140904188156128,-0.24534708261489868,0.06216728687286377,0.18974244594573975,-0.4414920689876624,-1.2852548487178383,-0.9491945936923385,-0.8675070405006409,0.4272889494895935,-0.25466853380203247,0.31390494108200073,-1.9712311029434204,-1.5556972026824951
4.159990072250366,-0.39441215991973877,0.08610010147094727,0.3001813590526581,-0.4086542319446773,-1.3233539481545573,-0.9580308143002219,-0.8897066712379456,0.3973747491836548,-0.2247570902109146,-0.12394008785486221,-1.4003915786743164,-1.758443832397461
4.179917097091675,-0.46507495641708374,0.002539217472076416,0.265728235244751,-0.3764854111407605,-1.355106353199519,-0.9716374802154872,-0.9084145426750183,0.36765432357788086,-0.1990319788455963,-0.3107759356498718,-1.1978974342346191,-1.658035397529602
4.200098037719727,-0.48232507705688477,0.04250305891036987,0.20056194067001343,-0.3465158547455344,-1.3818265499767552,-0.9835282462044769,-0.9238181710243225,0.33962282538414,-0.17668181657791138,-0.11509239673614502,-1.1519527435302734,-1.5460799932479858
4.219933986663818,-0.5133361220359802,0.1457381546497345,0.1647573858499527,-0.3157507326857947,-1.4059875828720998,-0.9865223103901742,-0.9376832246780396,0.3105301856994629,-0.15595296025276184,0.3745010495185852,-1.1860389709472656,-1.5034730434417725
4.239978075027466,-0.47459959983825684,0.16678833961486816,0.18538671731948853,-0.28662896862922005,-1.4273495860408534,-0.9783796448386894,-0.9493507146835327,0.28272032737731934,-0.13712307810783386,0.8408575654029846,-1.1195828914642334,-1.2313215732574463
4.259860038757324,-0.4606422781944275,0.11227783560752869,0.19918574392795563,-0.2636448376710158,-1.4406419310583427,-0.95702537105237,-0.9572806358337402,0.2606011629104614,-0.12530264258384705,1.593955636024475,-0.7454898953437805,-0.8164410591125488
4.279814958572388,-0.6004595160484314,0.254926860332489,0.04248917102813721,-0.2406761048837843,-1.4404677760790952,-0.9123249558460668,-0.9629408121109009,0.23835930228233337,-0.12621410191059113,3.0977683067321777,-0.4229046106338501,-0.9356586337089539
4.299928903579712,-0.3837035298347473,0.301980197429657,0.02451629936695099,-0.2137739265429739,-1.4325974644287678,-0.845123600970067,-0.9679200053215027,0.21214942634105682,-0.13462360203266144,3.4055843353271484,-0.2542102038860321,-0.8438433408737183
4.31983494758606,-0.15733247995376587,-0.04237563908100128,0.27377283573150635,-0.19253451658734821,-1.419894490923018,-0.792111787446067,-0.9703683853149414,0.19134719669818878,-0.14755205810070038,1.9062069654464722,0.36027398705482483,-0.4647620618343353
4.339925050735474,-0.1303943395614624,-0.20696288347244263,0.093661367893219,-0.18292645827811527,-1.4110900582790915,-0.7692819847296656,-0.9708020687103271,0.18190798163414001,-0.1563749462366104,0.6263226270675659,0.11835970729589462,-0.14724478125572205
4.359796047210693,-0.20868343114852905,0.0806567519903183,0.12666544318199158,-0.18175586551172776,-1.4056702941060037,-0.7595404132390019,-0.9701495170593262,0.18075679242610931,-0.16166901588439941,0.5164272785186768,0.2432428002357483,0.12421035021543503
4.379792928695679,-0.5122995972633362,0.13141024112701416,0.26196354627609253,-0.18273059441094114,-1.3936109835088264,-0.7439197460237683,-0.9679556488990784,0.18171538412570953,-0.17332518100738525,0.9596302509307861,0.747775673866272,0.22802889347076416
4.399803876876831,-0.6998535990715027,0.0032973289489746094,0.4171741306781769,-0.18454653243508465,-1.3698141343119372,-0.7222945714685367,-0.9632325768470764,0.18350078165531158,-0.1962420642375946,0.8898317217826843,1.2525068521499634,0.40791743993759155
4.41988205909729,-0.628594160079956,-0.15165068209171295,0.4627037048339844,-0.19411191414689727,-1.3445542862899982,-0.708747943449678,-0.9562142491340637,0.19289520382881165,-0.22010411322116852,0.3763503134250641,0.9078735113143921,0.8576645851135254
4.44057297706604,-0.47992509603500366,-0.15676277875900269,0.41958606243133545,-0.21432331041409738,-1.3306303709010265,-0.6991767637544478,-0.9490758776664734,0.21268627047538757,-0.2324216514825821,0.13810455799102783,0.33196893334388733,1.2652493715286255
4.46110987663269,-0.5511595010757446,-0.14460331201553345,0.3520296812057495,-0.23983733673191132,-1.3253520061692319,-0.6908236003684457,-0.9422640800476074,0.23754462599754333,-0.23603227734565735,0.04780472815036774,0.015815671533346176,1.3859061002731323
4.479907035827637,-0.629798412322998,-0.15922710299491882,0.24915385246276855,-0.2669551017480084,-1.3231794536364494,-0.6821205535403766,-0.935158371925354,0.2637956142425537,-0.2364126592874527,0.09167928993701935,0.10626371949911118,1.5484440326690674
4.49979305267334,-0.7135879993438721,-0.14630556106567383,0.23940284550189972,-0.2999212172147405,-1.3140579505940928,-0.6749699794118028,-0.9240462779998779,0.29544493556022644,-0.24259182810783386,-0.2780989408493042,0.576897919178009,1.7532461881637573
4.519790887832642,-0.7764776349067688,-0.10969224572181702,0.1832616925239563,-0.3368679715216984,-1.3015306838059386,-0.6734874882516914,-0.9097864627838135,0.3305327296257019,-0.25107166171073914,-0.5394526124000549,0.5659504532814026,1.8886045217514038
4.539830923080444,-0.687882661819458,-0.054347723722457886,0.2020922601222992,-0.3786381184668181,-1.2929673973590887,-0.6757206617767268,-0.8935384154319763,0.36965540051460266,-0.25484180450439453,-0.775812566280365,0.39133140444755554,2.098379373550415
4.559014081954956,-0.6860494017601013,-0.05623304843902588,0.24502381682395935,-0.424119855881137,-1.2873407208499685,-0.6816878756692308,-0.8750317692756653,0.41151878237724304,-0.25489622354507446,-0.9486032128334045,0.4504804015159607,2.095041036605835
4.580004930496216,-0.6942750215530396,-0.049475669860839844,0.17451024055480957,-0.4676752296035047,-1.2792462104119087,-0.6861893564309148,-0.8549498915672302,0.45081236958503723,-0.2565719485282898,-0.5911214351654053,0.5251069068908691,1.9892703294754028
4.600236177444458,-0.637233316898346,0.007938921451568604,0.04622173309326172,-0.504981074324904,-1.2717394566115312,-0.6853679853089722,-0.8363385796546936,0.48379087448120117,-0.25784581899642944,-0.5150606632232666,0.19879871606826782,1.5949432849884033
4.6198179721832275,-0.5727161169052124,-0.053521573543548584,0.01396399736404419,-0.5382606013646287,-1.2701560348318495,-0.6884784429046413,-0.8200910091400146,0.5126433372497559,-0.254259318113327,-0.7746601700782776,0.145176500082016,1.540772795677185
4.639940023422241,-0.5520561933517456,-0.008711099624633789,-0.037805795669555664,-0.5718782711357812,-1.2737251561840912,-0.6998682193901083,-0.8040534853935242,0.5412124395370483,-0.24614495038986206,-1.1188960075378418,0.11247226595878601,1.3899043798446655
4.659860849380493,-0.5528156757354736,0.09996747970581055,-0.09792135655879974,-0.6033709892524582,-1.2824115989955198,-0.7185921283239202,-0.7894237041473389,0.5674214363098145,-0.2341861128807068,-1.221940517425537,0.050252921879291534,1.1747063398361206
4.679882049560547,-0.4896088242530823,0.149508535861969,-0.11343567073345184,-0.6314665583495206,-1.2930546460195709,-0.7385923259260332,-0.7762298583984375,0.5903291702270508,-0.221311554312706,-1.1485360860824585,0.01843693107366562,1.0451359748840332
4.699803113937378,-0.39543938636779785,0.12530988454818726,-0.11486232280731201,-0.6557667500202402,-1.3063920944373988,-0.7602077795607769,-0.7650374174118042,0.6097671389579773,-0.20712852478027344,-1.2391161918640137,-0.019485149532556534,0.8976390957832336
4.719781160354614,-0.2544340491294861,0.1188088059425354,-0.12271946668624878,-0.6793951572277556,-1.3256350424179941,-0.7888060637934259,-0.7546908259391785,0.6283226013183594,-0.18881914019584656,-1.5428681373596191,-0.1583661586046219,0.7982395887374878
4.739875078201294,-0.1813884973526001,0.12995129823684692,-0.13334441184997559,-0.7020579792571774,-1.3567224768297765,-0.8293359659149244,-0.7460865378379822,0.6457903385162354,-0.16220301389694214,-2.0908260345458984,-0.3776288330554962,0.7112608551979065
4.759793043136597,-0.10963046550750732,0.0945778489112854,-0.09470705687999725,-0.7224445894177595,-1.4015702204133071,-0.8834096799788952,-0.7394753694534302,0.6612205505371094,-0.12634693086147308,-2.120857000350952,-0.5379144549369812,0.5345791578292847
4.779793977737427,0.05942821502685547,0.16028070449829102,-0.09954124689102173,-0.7368785052935147,-1.4416316481560774,-0.9255268978338907,-0.7344008088111877,0.6719794869422913,-0.0953897163271904,-1.1687694787979126,-0.7222588658332825,0.4564827084541321
4.799792051315308,0.23630422353744507,0.05687135457992554,-0.10227316617965698,-0.7481873717817424,-1.4749565170794614,-0.9471150960614395,-0.7295599579811096,0.680311381816864,-0.07013575732707977,-0.7330270409584045,-1.1426303386688232,0.49818241596221924
4.819791078567505,0.3030237555503845,-0.21544140577316284,-0.02186131477355957,-0.7601056070498464,-1.5176261483257565,-0.971316639955481,-0.7237392067909241,0.6889979839324951,-0.03851764649152756,-1.1841684579849243,-1.4277288913726807,0.5601438879966736
4.839794874191284,0.28530967235565186,-0.20551055669784546,0.015563011169433594,-0.771540482748812,-1.5758639215373493,-1.0138506379847307,-0.7168282866477966,0.6972403526306152,0.003632626263424754,-1.8971693515777588,-1.377392292022705,0.4809538722038269
4.85979700088501,0.17191344499588013,0.04218214750289917,-0.023315906524658203,-0.7752341275247692,-1.641225612441315,-1.0736253356918852,-0.7124866843223572,0.6998833417892456,0.05026306211948395,-2.1812546253204346,-0.9182224273681641,-0.0026290982495993376
4.879788160324097,0.11802059412002563,0.24736911058425903,-0.20346367359161377,-0.7692459482504208,-1.6861284995920447,-1.1190660386983662,-0.7136628031730652,0.6955937147140503,0.08267517387866974,-0.9899401664733887,-0.5225730538368225,-0.21115750074386597
4.899744987487793,0.23850589990615845,0.35796332359313965,-0.32115721702575684,-0.7650934577242163,-1.70492050643155,-1.129362667821667,-0.7148396372795105,0.6926044225692749,0.0964563637971878,-0.05699954181909561,-0.6103571057319641,-0.01321427058428526
4.91975998878479,0.283588171005249,0.0998658537864685,-0.1794661283493042,-0.7663353521636129,-1.7210030026767282,-1.1373542015109745,-0.7123449444770813,0.6934996843338013,0.10781100392341614,-0.6042779088020325,-0.3868614733219147,0.1861012876033783
4.939794063568115,0.19672554731369019,0.09862011671066284,-0.17531967163085938,-0.7685115347016854,-1.743540830283792,-1.164049930742511,-0.7082460522651672,0.6950658559799194,0.12357727438211441,-1.1320710182189941,-0.024512488394975662,0.3322318196296692
4.959820985794067,0.2200334072113037,0.22985899448394775,-0.22356462478637695,-0.7725759934154386,-1.7626657119794091,-1.1957654836334715,-0.7029742002487183,0.6979822516441345,0.1365591138601303,-0.9624274969100952,0.31469452381134033,0.4587121307849884
4.979794025421143,0.29679161310195923,0.1959206461906433,-0.22609080374240875,-0.7798073832407713,-1.7686125369592665,-1.2161749602839471,-0.6971822381019592,0.7031424641609192,0.13974148035049438,-0.3436562120914459,0.5027454495429993,0.5194953680038452
4.999794960021973,0.3631567358970642,0.09132653474807739,-0.19143380224704742,-0.789373952150634,-1.7630642838526822,-1.225747770588822,-0.691312313079834,0.7099124789237976,0.1345796436071396,-0.26245829463005066,0.6307409405708313,0.5495904088020325
5.019834995269775,0.40400397777557373,-0.03769183158874512,-0.15970100462436676,-0.7998801029229046,-1.7569828660040379,-1.2367048484096035,-0.6847504377365112,0.7172725796699524,0.1289852112531662,-0.32493653893470764,0.825068473815918,0.6749356985092163
5.039792060852051,0.42821747064590454,-0.05042839050292969,-0.1352524608373642,-0.8128147165506532,-1.7510006472345188,-1.2526792387767394,-0.6763255000114441,0.7262250185012817,0.12321339547634125,-0.45330291986465454,0.9098692536354065,0.7365185618400574
5.0588648319244385,0.4602589011192322,-0.10722100734710693,-0.14526855945587158,-0.8260915623508015,-1.7411320262061718,-1.2659327071789888,-0.6679463386535645,0.7352880239486694,0.11488839238882065,-0.20745575428009033,1.0458018779754639,0.7522857189178467
5.0798139572143555,0.5368801355361938,-0.144811749458313,-0.1212393194437027,-0.8400789760943149,-1.7251511839934517,-1.2715517211621632,-0.6594692468643188,0.7446958422660828,0.10260847955942154,0.09530442208051682,0.9477419257164001,0.6895673274993896
5.09982705116272,0.5755014419555664,-0.23968064785003662,-0.12299215793609619,-0.8548409029551113,-1.7042990458461582,-1.2673987968661216,-0.6504984498023987,0.7544665336608887,0.08736295253038406,0.37924903631210327,0.8348024487495422,0.7737624049186707
5.119801998138428,0.5912826061248779,-0.29953598976135254,-0.10362935811281204,-0.8693927490153026,-1.6837459153582117,-1.2587228068146668,-0.6411789059638977,0.76393723487854,0.07273044437170029,0.33600613474845886,0.5726514458656311,0.5510162115097046
5.13916802406311,0.5881374478340149,-0.36406052112579346,-0.08717739582061768,-0.8803575860595946,-1.6644988872029882,-1.2471945672907352,-0.6340816617012024,0.770966649055481,0.059589583426713943,0.5641002058982849,0.5150456428527832,0.4992404878139496
5.159837007522583,0.6112710237503052,-0.3696839213371277,-0.05573820695281029,-0.8896471936996087,-1.639327417805267,-1.2269516824936142,-0.6282083988189697,0.776849627494812,0.04311932995915413,0.7904952764511108,0.40665292739868164,0.3207445740699768
5.179792165756226,0.5860738754272461,-0.371748685836792,-0.08155763149261475,-0.8962485262036425,-1.6116813844196356,-1.2008336330235407,-0.6240225434303284,0.7809894680976868,0.02552742324769497,0.7769711017608643,0.3189983367919922,0.2199048399925232
5.199794054031372,0.5305350422859192,-0.4041629433631897,-0.04600226879119873,-0.8983354278941882,-1.5930357642598982,-1.1830263453482233,-0.622759222984314,0.7822911143302917,0.01385209895670414,0.36512595415115356,0.188876211643219,-0.02722916007041931
5.219775915145874,0.48272448778152466,-0.3280577063560486,-0.04752326011657715,-0.8948003832523234,-1.58541705965694,-1.177229140544372,-0.6256079077720642,0.7800841927528381,0.009147497825324535,0.0759638324379921,0.10573695600032806,-0.35714125633239746
5.239827871322632,0.45199108123779297,-0.1560530662536621,-0.07544577121734619,-0.8861526116978394,-1.5729297763750822,-1.1631247152847244,-0.6323957443237305,0.7746444344520569,0.0013491865247488022,0.9257453680038452,0.05083490535616875,-0.457515686750412
5.259793043136597,0.39229708909988403,0.01969623565673828,-0.13237392902374268,-0.87713210487468,-1.539557295472072,-1.1181240172860287,-0.6390470266342163,0.7689084410667419,-0.019969705492258072,1.837168574333191,-0.1985529065132141,-0.49094530940055847
5.27979302406311,0.3069189190864563,-0.08418279886245728,-0.06113051995635033,-0.8635395797875638,-1.5012805501068753,-1.0596695093907333,-0.6481817364692688,0.7601471543312073,-0.04513157904148102,1.91525399684906,-0.4896969497203827,-0.6648198366165161
5.299793004989624,0.2614682912826538,-0.10578888654708862,-0.04921555519104004,-0.8461030394191598,-1.4761060231709964,-1.0085442946030945,-0.6599364280700684,0.7487027645111084,-0.06267701834440231,1.5439069271087646,-0.9268007278442383,-0.7456321716308594
5.319818019866943,0.11647224426269531,-0.06456685066223145,-0.0150068998336792,-0.8270967386682444,-1.4674432828828867,-0.9692192748898386,-0.6734028458595276,0.7359689474105835,-0.06984711438417435,1.2303053140640259,-1.0077764987945557,-0.9205471277236938
5.339794874191284,-0.11144381761550903,0.03052222728729248,0.05164486914873123,-0.801425720371932,-1.4560385805469984,-0.9291544426082028,-0.6911075115203857,0.7183486819267273,-0.07965993881225586,2.0293667316436768,-0.7729540467262268,-1.3275814056396484
5.359792947769165,-0.027190744876861572,0.19026035070419312,0.039859429001808167,-0.766566336808426,-1.4240533885835867,-0.8614350629712783,-0.7125554084777832,0.6936661005020142,-0.10531952232122421,3.101619005203247,-0.9355688095092773,-1.5072575807571411
5.379812955856323,0.09044331312179565,-0.014957606792449951,0.1509508490562439,-0.7263466654803596,-1.3903163109547012,-0.7773305330299296,-0.7354629635810852,0.6641428470611572,-0.13419660925865173,3.561187267303467,-1.3797990083694458,-1.4729187488555908
5.399944067001343,-0.12821757793426514,-0.1030154824256897,0.3131559491157532,-0.6811709924536483,-1.3677774427680662,-0.6957347870087113,-0.7608815431594849,0.6297031044960022,-0.15663118660449982,3.4200639724731445,-1.683898687362671,-1.8318243026733398
5.419934988021851,-0.21803641319274902,-0.10978788137435913,0.2626194953918457,-0.6286763294731975,-1.359650212659769,-0.6207541639773569,-0.7908443212509155,0.5880746841430664,-0.16951029002666473,3.550790786743164,-2.0938923358917236,-2.0143532752990723
5.439785003662109,-0.2210557460784912,-0.12280935049057007,0.15960897505283356,-0.5741761440919733,-1.3552135202914295,-0.5398864083382211,-0.8202040195465088,0.5431432127952576,-0.1796131134033203,4.38953971862793,-1.7949451208114624,-1.7955529689788818
5.459835052490234,-0.6082672476768494,-0.04511994123458862,-0.11320900917053223,-0.5388008268991021,-1.3380617177813499,-0.46059049705230826,-0.8351837992668152,0.5131070613861084,-0.1979634016752243,1.9623117446899414,-1.0449076890945435,-0.27110254764556885
5.479524850845337,-0.6475958228111267,-0.6795585751533508,-0.2780832052230835,-0.5221115391359155,-1.3530487812823717,-0.44730539320075446,-0.8463007807731628,0.4987114667892456,-0.18724872171878815,-0.3274131715297699,-0.8461063504219055,-0.9268777370452881
5.499847173690796,-0.777849018573761,-0.20771735906600952,-0.17363454401493073,-0.5157928283477249,-1.3765638448010995,-0.48292772578381354,-0.8535446524620056,0.4932246804237366,-0.167902871966362,-2.357914924621582,0.3298603296279907,-0.49602892994880676
5.519757032394409,-0.6547223329544067,-0.06712737679481506,-0.12816596031188965,-0.5110681992997295,-1.3913506679541667,-0.5438104466670068,-0.8582172393798828,0.48910924792289734,-0.1556779444217682,-2.681823253631592,1.1260221004486084,-0.9043532609939575
5.5397820472717285,-0.4421825408935547,0.258758544921875,-0.014835834503173828,-0.5031214299302057,-1.395012601452815,-0.5993781740182597,-0.8625813722610474,0.4821625053882599,-0.15320907533168793,-1.703657865524292,1.1098949909210205,-0.6182073950767517
5.559636831283569,-0.26200491189956665,0.06722626090049744,0.03768014907836914,-0.5026209258722046,-1.3858456028014423,-0.6243547379862658,-0.8613777756690979,0.48172396421432495,-0.16115418076515198,-0.6601366400718689,1.0252281427383423,0.2699355185031891
5.579743146896362,-0.3006023168563843,-0.24095475673675537,0.1178564578294754,-0.5167971457719641,-1.3702738757851625,-0.6347822277160626,-0.8519856333732605,0.49409809708595276,-0.17316949367523193,-0.5586486458778381,1.0793932676315308,0.8564780950546265
5.599817991256714,-0.31865447759628296,-0.2849714756011963,0.07854032516479492,-0.5381415425033137,-1.3519122937613248,-0.6423149856134343,-0.8381754755973816,0.5125411152839661,-0.18645040690898895,-0.548129677772522,1.1918158531188965,1.0409876108169556
5.619807958602905,-0.3248401880264282,-0.317796528339386,0.022922351956367493,-0.5599152674760182,-1.3311129139307272,-0.6505072899527099,-0.8230785727500916,0.531114399433136,-0.20114491879940033,-0.6179417371749878,1.3147987127304077,0.944899320602417
5.639894962310791,-0.28100818395614624,-0.4426724910736084,0.01839110255241394,-0.5815457365112013,-1.30864513005834,-0.6613800482346056,-0.8070657253265381,0.5493162274360657,-0.21655695140361786,-0.8909444212913513,1.559883952140808,0.9661179184913635
5.6598241329193115,-0.23185384273529053,-0.4633404016494751,0.04642355442047119,-0.6072667500635773,-1.2861481218447293,-0.679559953562942,-0.788165807723999,0.5706250071525574,-0.23061230778694153,-1.272757887840271,1.661121129989624,1.1066875457763672
5.679816007614136,-0.22046571969985962,-0.4370990991592407,0.027355462312698364,-0.6373950159485163,-1.266772735215086,-0.7036328357520384,-0.7667933702468872,0.5951039791107178,-0.2405817061662674,-1.5204304456710815,1.674907922744751,1.173615574836731
5.69980001449585,-0.24134987592697144,-0.34085947275161743,0.065633624792099,-0.669039417383763,-1.2527170232285232,-0.7342993871701429,-0.7450699806213379,0.6202327609062195,-0.2453210949897766,-1.8522064685821533,1.6581799983978271,1.0237187147140503
5.719792127609253,-0.2784504294395447,-0.2605786919593811,0.1142488420009613,-0.695675361825574,-1.2471804840144884,-0.7789802159443817,-0.7277752161026001,0.6409040093421936,-0.24410101771354675,-2.100374937057495,1.7236076593399048,0.47556155920028687
5.739820957183838,-0.18209922313690186,-0.25518500804901123,0.07997298240661621,-0.7181621754291432,-1.2466020039910135,-0.8245196525079664,-0.7137901186943054,0.6580018997192383,-0.23986978828907013,-1.9433329105377197,1.3105114698410034,0.5911445021629333
5.759817838668823,-0.1211932897567749,-0.16902077198028564,0.06286749243736267,-0.7377876163581809,-1.244260940920949,-0.8617684171952211,-0.7008588910102844,0.6726524829864502,-0.2373517006635666,-1.2719124555587769,1.3618680238723755,0.45124322175979614
5.779793977737427,-0.12386751174926758,-0.08995014429092407,0.023196160793304443,-0.750774001976857,-1.233112047934287,-0.881608754308709,-0.6898685097694397,0.6822049021720886,-0.2422359585762024,-0.6207659244537354,1.1674202680587769,0.27096283435821533
5.799820184707642,-0.07612037658691406,-0.13808250427246094,0.06521666049957275,-0.7577545988000243,-1.2195955582709173,-0.8947714803259575,-0.6820431351661682,0.6872921586036682,-0.2498936951160431,-0.5923832058906555,1.1161524057388306,0.13124318420886993
5.819792032241821,-0.06320446729660034,-0.22519946098327637,0.10368770360946655,-0.7644411679535028,-1.2098465889889383,-0.9140764290206256,-0.6752599477767944,0.6921337842941284,-0.2549022138118744,-0.9744734764099121,1.2141146659851074,-0.014775894582271576
5.839800119400024,-0.046870410442352295,-0.17956018447875977,0.09517079591751099,-0.7702921360948891,-1.2064617617100315,-0.9452787462398814,-0.6705979108810425,0.6963449120521545,-0.2557389736175537,-1.370245099067688,1.2584619522094727,-0.16904433071613312
5.859792947769165,-0.00862044095993042,-0.10181063413619995,0.07272493839263916,-0.7765533193694231,-1.211330681794084,-0.9878847352957127,-0.6677407026290894,0.7008249759674072,-0.2509322166442871,-1.672413945198059,1.262265682220459,-0.2714066207408905
5.879820108413696,0.020578086376190186,-0.055346667766571045,0.03170999884605408,-0.7838081445912575,-1.218417278159318,-1.0345014863527149,-0.6647127270698547,0.7059815526008606,-0.2444327473640442,-1.6749571561813354,1.32970130443573,-0.18299560248851776
5.899792909622192,0.04446667432785034,0.05812501907348633,0.017802491784095764,-0.7905639619666326,-1.2226480192569456,-1.0791178930215228,-0.6612422466278076,0.7107501029968262,-0.2399856299161911,-1.4877839088439941,1.3823435306549072,-0.2689180374145508
5.9198009967803955,0.09405016899108887,0.13275331258773804,-0.041295990347862244,-0.7933696376770193,-1.2240230003664034,-1.117544437490866,-0.6596935391426086,0.7127209305763245,-0.2383975237607956,-1.2006970643997192,1.219768762588501,-0.3774254620075226
5.939791917800903,0.1437232494354248,0.1070549488067627,-0.036443695425987244,-0.7936997050380558,-1.2234389299467665,-1.1499852110528577,-0.6593329906463623,0.7129524350166321,-0.2387027144432068,-1.011467456817627,1.1343107223510742,-0.2979249358177185
5.959790945053101,0.15873932838439941,0.030141055583953857,0.015547394752502441,-0.7966119279860578,-1.2232607896931698,-1.1815459646026547,-0.6573355793952942,0.7149915099143982,-0.23811203241348267,-1.2321417331695557,1.1440287828445435,-0.19313205778598785
5.979790925979614,0.14260554313659668,-0.008154332637786865,0.0523984432220459,-0.8018361060386531,-1.227955836089103,-1.2202266512109938,-0.6549195051193237,0.7186341285705566,-0.23376435041427612,-1.4797096252441406,1.1624250411987305,-0.23552380502223969
5.999794006347656,0.1322876214981079,0.057269394397735596,0.02892988920211792,-0.8059127185790195,-1.2382639956538322,-1.2649975817399133,-0.6545197367668152,0.7214629650115967,-0.22604282200336456,-1.5286033153533936,1.0099776983261108,-0.4282447099685669
6.019819021224976,0.14294558763504028,0.14229142665863037,-0.05964940786361694,-0.8042834597825562,-1.2515755633864607,-1.3076532533777128,-0.6585859060287476,0.7203338146209717,-0.2176789790391922,-1.1940114498138428,0.729744017124176,-0.6595004796981812
6.039793968200684,0.18309181928634644,0.17049264907836914,-0.09680581092834473,-0.7971122007941395,-1.2630980208037454,-1.3404908984079165,-0.6659562587738037,0.7153411507606506,-0.21163523197174072,-0.8090893626213074,0.49829551577568054,-0.6985127925872803
6.059799909591675,0.22739505767822266,0.15229249000549316,-0.04150748252868652,-0.7885193503791983,-1.2734264221818117,-1.3673871807081512,-0.6739588379859924,0.7093103528022766,-0.20653928816318512,-0.7846347093582153,0.4256303608417511,-0.6850194334983826
6.07979416847229,0.25009971857070923,0.09953761100769043,-0.0032726526260375977,-0.7808286289697388,-1.282616015487436,-1.3936328502726691,-0.681038498878479,0.7038682699203491,-0.20188169181346893,-0.7618075013160706,0.5043137669563293,-0.5646653175354004
6.099841833114624,0.2838481068611145,0.0979190468788147,0.012420415878295898,-0.774897280105364,-1.2896268719854316,-1.417695951247751,-0.686436116695404,0.6996426582336426,-0.19825708866119385,-0.7050583362579346,0.4696601331233978,-0.5087743997573853
6.119793176651001,0.2890257239341736,0.10195153951644897,0.022817671298980713,-0.7688016915538367,-1.29461547027098,-1.4365891446920063,-0.6915068626403809,0.6952744722366333,-0.19598957896232605,-0.41344499588012695,0.3760114908218384,-0.4395653307437897
6.139791965484619,0.2696812152862549,0.11843931674957275,0.03361386060714722,-0.7625251343186956,-1.2952337736231467,-1.44743628190421,-0.6958135366439819,0.6907495260238647,-0.19674548506736755,-0.19209836423397064,0.32008111476898193,-0.40687891840934753
6.159790992736816,0.22118771076202393,0.12845653295516968,0.04492403566837311,-0.7554693098112902,-1.2930626505955962,-1.4538537247779375,-0.7000542879104614,0.6856303811073303,-0.19958701729774475,-0.104975625872612,0.344241201877594,-0.3801860213279724
6.179821014404297,0.17754876613616943,0.09829860925674438,0.08871352672576904,-0.7497086622256669,-1.2906329547543889,-1.461294020029231,-0.7033514380455017,0.6814255714416504,-0.20237617194652557,-0.2900644540786743,0.4104803502559662,-0.3407885432243347
6.199790000915527,0.1228477954864502,0.09531354904174805,0.10985231399536133,-0.7452693254003109,-1.290186531484817,-1.474151935931504,-0.706160843372345,0.6781697869300842,-0.20352591574192047,-0.4864329397678375,0.5224261283874512,-0.3447149097919464
6.219786882400513,0.1076812744140625,0.08851778507232666,0.12086863815784454,-0.7422911166712778,-1.290415634885815,-1.4914693649228223,-0.7081451416015625,0.6759780645370483,-0.2039221078157425,-0.6525988578796387,0.6113820672035217,-0.29928797483444214
6.239793062210083,0.11517322063446045,0.07129251956939697,0.13721472024917603,-0.7407367422893165,-1.2915296264736282,-1.5114720762874174,-0.7093810439109802,0.6748318076133728,-0.20342250168323517,-0.7158260345458984,0.6329624056816101,-0.2614005506038666
6.259803056716919,0.09782010316848755,0.0607185959815979,0.15144886076450348,-0.7397647647659662,-1.2922386045988659,-1.5316442772729675,-0.7101553678512573,0.6741141676902771,-0.20309977233409882,-0.6926723718643188,0.6593565344810486,-0.24142369627952576
6.279793977737427,0.10601150989532471,0.027179360389709473,0.16753792762756348,-0.7391251697398344,-1.2921388459855834,-1.5514227649068815,-0.7105495929718018,0.6736416220664978,-0.203289195895195,-0.6985662579536438,0.6794085502624512,-0.21643702685832977
6.299878835678101,0.1405947208404541,-0.014733850955963135,0.1725035309791565,-0.7394519030945439,-1.2922377886776606,-1.5708971126809879,-0.7103579640388489,0.6738830804824829,-0.20315834879875183,-0.6997325420379639,0.6037440299987793,-0.15291284024715424
6.319792985916138,0.11959505081176758,-0.003925919532775879,0.16549445688724518,-0.7401893014482956,-1.2936000387693483,-1.5894248869157028,-0.7101559638977051,0.6744276881217957,-0.2020544409751892,-0.632136881351471,0.5157583355903625,-0.1669938713312149
6.339793920516968,0.06051868200302124,0.0004839301109313965,0.1671704798936844,-0.7395900088316887,-1.2955624171090327,-1.6066234189093391,-0.7109398245811462,0.6739850640296936,-0.20077022910118103,-0.5873053073883057,0.47567737102508545,-0.2563818097114563
6.359863996505737,0.018698573112487793,-0.006684243679046631,0.17384850978851318,-0.7370065368948286,-1.2972818370980204,-1.6237956554487747,-0.7129583358764648,0.6720743179321289,-0.20001725852489471,-0.5991610884666443,0.5010350346565247,-0.3249143660068512
6.379793882369995,0.00010257959365844727,0.0012212395668029785,0.17708714306354523,-0.7335891130169221,-1.300082834095305,-1.6434649074492322,-0.7157245874404907,0.6695398688316345,-0.19863247871398926,-0.7254413962364197,0.5470329523086548,-0.4128747880458832
6.3998191356658936,-0.007094740867614746,-0.0075261592864990234,0.17749275267124176,-0.7293299256539515,-1.3039095582071005,-1.6669081608102836,-0.7192236185073853,0.666370153427124,-0.1966424435377121,-0.8625028133392334,0.6389533281326294,-0.44234755635261536
6.419824838638306,-0.005990564823150635,-0.02295631170272827,0.1595270335674286,-0.7250045200264164,-1.3082416046960805,-1.6935856736642005,-0.7228455543518066,0.6631388068199158,-0.19427119195461273,-0.935825526714325,0.7070698738098145,-0.5215305685997009
6.439794063568115,0.0027304887771606445,-0.029336214065551758,0.14633959531784058,-0.7186034796048326,-1.312084976414704,-1.7217537446116626,-0.7276756167411804,0.6583341360092163,-0.1925736516714096,-0.9477739930152893,0.7838881015777588,-0.6407791972160339
6.459795951843262,0.0460471510887146,-0.04537695646286011,0.16130369901657104,-0.7095826282268879,-1.3151291223011097,-1.7515094222337964,-0.7339744567871094,0.6515172123908997,-0.19185170531272888,-1.0149022340774536,0.866906464099884,-0.8128917217254639
6.479801893234253,0.11764401197433472,-0.058085858821868896,0.1741417646408081,-0.6971956402041144,-1.3184691527086967,-1.7846203931317175,-0.7423694133758545,0.6420702934265137,-0.19139939546585083,-1.0770620107650757,0.9694533348083496,-1.0374146699905396
6.499819993972778,0.2714070677757263,-0.1486620306968689,0.1851528435945511,-0.6817111202057893,-1.3179929973298108,-1.81732556830127,-0.7518148422241211,0.6301226019859314,-0.19421645998954773,-1.0671579837799072,1.0649224519729614,-1.046775221824646
6.519804000854492,0.35899901390075684,-0.15216481685638428,0.16510233283042908,-0.6669734442737121,-1.3244037029030742,-1.8559284523550734,-0.7619686126708984,0.6186108589172363,-0.1916372925043106,-1.4940553903579712,0.6757044196128845,-1.2051283121109009
6.5398008823394775,0.21441733837127686,-0.09589457511901855,0.0005805343389511108,-0.6476647960586759,-1.341447192920842,-1.9008957940182574,-0.776612401008606,0.6033257246017456,-0.18130554258823395,-1.4338371753692627,0.4546125829219818,-1.4731534719467163
6.559795141220093,0.18698608875274658,-0.052716076374053955,0.014899566769599915,-0.6259762568857818,-1.3553798828143138,-1.9414547993574387,-0.7916613817214966,0.585888683795929,-0.17322465777397156,-1.309718370437622,0.5798641443252563,-1.3232777118682861
6.579800844192505,0.22514009475708008,-0.06083106994628906,0.028429940342903137,-0.6075109925216774,-1.3658668562003544,-1.9801450226179906,-0.8038906455039978,0.5708255767822266,-0.16708645224571228,-1.3859533071517944,0.5901864767074585,-1.186318039894104
6.599792003631592,0.13299775123596191,-0.03827112913131714,-0.12570840120315552,-0.5894393569642599,-1.375857088208952,-2.0170337171192805,-0.815508246421814,0.5558950901031494,-0.16101938486099243,-1.196043848991394,0.47262609004974365,-1.2117104530334473
6.619794130325317,0.005686044692993164,-0.017428934574127197,-0.20792214572429657,-0.5688205344102443,-1.3844562198536199,-2.047400396368366,-0.8279517292976379,0.5386386513710022,-0.15609145164489746,-0.9618611931800842,0.37559524178504944,-1.2826128005981445
6.639763116836548,-0.0804440975189209,0.008769452571868896,-0.20109887421131134,-0.5477903563632385,-1.3919284287301241,-2.076124116186466,-0.8400577902793884,0.5208021998405457,-0.151882603764534,-1.0934102535247803,0.42168933153152466,-1.2041414976119995
6.65979790687561,-0.03996676206588745,0.01377028226852417,-0.19157898426055908,-0.5306884218849667,-1.3982444055121006,-2.1059599607732022,-0.8496512770652771,0.5061271786689758,-0.14808155596256256,-1.0973424911499023,0.4925113022327423,-0.9061625599861145
6.679857015609741,0.06484919786453247,0.021847009658813477,-0.24062193930149078,-0.5192213248711514,-1.400736952924563,-2.1316256823316495,-0.8556819558143616,0.4962042272090912,-0.14693593978881836,-0.8379137516021729,0.5297791957855225,-0.6331742405891418
6.699793100357056,0.16541332006454468,0.008330166339874268,-0.27681219577789307,-0.5109949944200374,-1.3980510630849627,-2.1479584726830625,-0.859276294708252,0.4890453815460205,-0.14993023872375488,-0.39943888783454895,0.5545704960823059,-0.43402552604675293
6.719796895980835,0.23286354541778564,-0.05973845720291138,-0.21586745977401733,-0.5046725604808804,-1.389046834059338,-2.154300481928558,-0.8609153628349304,0.48352083563804626,-0.15821689367294312,-0.12991830706596375,0.6673113703727722,-0.2876626253128052
6.739803075790405,0.2908068299293518,-0.14588454365730286,-0.12947843968868256,-0.5008358117824523,-1.3761430754512045,-2.158708806633612,-0.8606157898902893,0.48015886545181274,-0.1696700155735016,-0.16329149901866913,0.8249632120132446,-0.16320332884788513
6.759793043136597,0.3567436933517456,-0.228297621011734,-0.07402044534683228,-0.4992192377366366,-1.3610331928269352,-2.162305892531732,-0.8587121367454529,0.47874021530151367,-0.18281537294387817,-0.13279451429843903,0.8656399250030518,-0.03681443631649017
6.779793977737427,0.40377575159072876,-0.2555014193058014,-0.09545885026454926,-0.5004505856764518,-1.3451791815221659,-2.1641185718946976,-0.8551307916641235,0.4798209071159363,-0.1962738335132599,-0.006703558843582869,0.788297712802887,0.08397577702999115
6.7998011112213135,0.38793981075286865,-0.26644569635391235,-0.08214673399925232,-0.5022123244244792,-1.3304211914212913,-2.1630007149691957,-0.8513189554214478,0.4813658595085144,-0.2086704820394516,0.07684187591075897,0.6409093141555786,0.10070885717868805
6.819833993911743,0.3221023678779602,-0.24482789635658264,-0.09371387958526611,-0.502373418725198,-1.3168440703126132,-2.158072061479162,-0.8483323454856873,0.4815070629119873,-0.22018985450267792,0.3194705843925476,0.4913012385368347,0.024322234094142914
6.839793920516968,0.2438223958015442,-0.1739191710948944,-0.0863262414932251,-0.4998493920509871,-1.3030206106480668,-2.1487795437790647,-0.8463767766952515,0.4792933762073517,-0.23221611976623535,0.5488390922546387,0.45742201805114746,-0.06580723077058792
6.859796047210693,0.189067542552948,-0.16153067350387573,-0.021028444170951843,-0.4956486505656515,-1.2870196405361904,-2.1364136510253187,-0.8444783091545105,0.47560232877731323,-0.2462902069091797,0.5821825265884399,0.5584509372711182,-0.020855838432908058
6.8798229694366455,0.15453892946243286,-0.1380249559879303,-0.026755809783935547,-0.4917764067638814,-1.269357103565589,-2.124543493782767,-0.8417490720748901,0.47219252586364746,-0.2617114782333374,0.5429378747940063,0.639783501625061,-0.05233726650476456
6.899803876876831,0.1338309645652771,-0.056279003620147705,-0.04804787039756775,-0.48739672889037533,-1.2527558990393037,-2.113943221864179,-0.8392448425292969,0.4683273434638977,-0.2762928605079651,0.4992164671421051,0.499959260225296,-0.07166416943073273
6.919801950454712,0.0888180136680603,-0.012276828289031982,-0.02963361144065857,-0.48317509216734406,-1.2394389908331964,-2.104137000890581,-0.8373531699180603,0.46459314227104187,-0.28808480501174927,0.44618359208106995,0.40897637605667114,-0.0737672671675682
6.939851999282837,0.014954030513763428,0.0028189122676849365,0.0035208463668823242,-0.47809325030770056,-1.2269675821572792,-2.0949199437607975,-0.835907518863678,0.4600870609283447,-0.29929715394973755,0.5556586980819702,0.40289345383644104,-0.13198530673980713
6.959791898727417,-0.004581570625305176,0.03278723359107971,0.03534269332885742,-0.470665937747022,-1.212353322137171,-2.08081209302266,-0.8346214294433594,0.45347991585731506,-0.31267112493515015,0.8620508313179016,0.403164803981781,-0.1253276765346527
6.979802846908569,-0.012109518051147461,0.04558876156806946,0.061268627643585205,-0.46064237163598304,-1.196724904416696,-2.0613551519172386,-0.8338226079940796,0.4445236027240753,-0.32732081413269043,1.1072152853012085,0.2819198966026306,-0.21490788459777832
6.999808073043823,-0.05416446924209595,0.05139842629432678,0.0705251395702362,-0.44648939977760294,-1.183456994326725,-2.039856065424241,-0.8351484537124634,0.4318017363548279,-0.34069719910621643,1.2163273096084595,0.07063408941030502,-0.37346068024635315
7.01979398727417,-0.09929931163787842,0.02176782488822937,0.09385645389556885,-0.4293350500185087,-1.175651469215977,-2.0198662326324373,-0.8391773104667664,0.4162662923336029,-0.3500056564807892,1.0846706628799438,-0.13518290221691132,-0.5282385349273682
7.039806127548218,-0.17727404832839966,0.0030929148197174072,0.11955058574676514,-0.41059979056187185,-1.1749087994913088,-2.0060514394582816,-0.8459652066230774,0.39915934205055237,-0.3535745441913605,0.8078117370605469,-0.3598003685474396,-0.7261789441108704
7.059813976287842,-0.23452728986740112,0.013163119554519653,0.09761661291122437,-0.39069824024860034,-1.180618718320389,-1.9981221965070195,-0.8551487326622009,0.3808341324329376,-0.3516906499862671,0.6738971471786499,-0.5352285504341125,-0.8131706118583679
7.079843997955322,-0.2930222749710083,0.07071477174758911,0.05404636263847351,-0.3690314260978836,-1.1906578610711056,-1.99009386598581,-0.8660964369773865,0.3607122302055359,-0.34606900811195374,0.88413006067276,-0.7771139740943909,-0.9158987998962402
7.099802017211914,-0.35525739192962646,0.18194085359573364,0.0202597975730896,-0.34294589706065143,-1.204617847474867,-1.9777288428417215,-0.8793313503265381,0.33626291155815125,-0.33720001578330994,1.132846474647522,-1.0658366680145264,-1.0984500646591187
7.1197919845581055,-0.34484875202178955,0.1777557134628296,0.12758785486221313,-0.3146064016705686,-1.2230432011472039,-1.9632126500151292,-0.8939971327781677,0.3094422221183777,-0.32405996322631836,1.076280117034912,-1.209265112876892,-1.0188548564910889
7.139825105667114,-0.39849138259887695,0.0727393627166748,0.29032060503959656,-0.2888184968804586,-1.242401860709948,-1.9494520929469679,-0.907355785369873,0.2848198711872101,-0.3091651201248169,1.069518804550171,-0.9618247747421265,-0.9479312300682068
7.159801006317139,-0.5992748141288757,0.032637059688568115,0.216737300157547,-0.26363443954904225,-1.251812930503905,-1.9296830354124157,-0.916746973991394,0.2605911195278168,-0.30276626348495483,1.6300078630447388,-0.6102745532989502,-0.9224652647972107
7.179797887802124,-0.6194373965263367,0.08427166938781738,0.09754204750061035,-0.23262483901312792,-1.255874255326515,-1.8979837646194428,-0.9252099394798279,0.2305324524641037,-0.3013993799686432,2.123439073562622,-0.5131860971450806,-1.020187497138977
7.199793100357056,-0.6633585095405579,-0.006746798753738403,0.16168051958084106,-0.20230738515380317,-1.257993293426916,-1.8693329163667087,-0.9320700764656067,0.20093019306659698,-0.3014509677886963,1.3016997575759888,-0.3312602639198303,-1.0286306142807007
7.219832181930542,-0.6533384919166565,-0.16474756598472595,0.22143471240997314,-0.18015536919753372,-1.259718424106288,-1.8613269717864702,-0.9365968704223633,0.17918242514133453,-0.3011312782764435,0.11840249598026276,-0.017686273902654648,-0.7477594017982483
7.239802122116089,-0.6145955920219421,-0.03190280497074127,0.2065540850162506,-0.17221816629883668,-1.2615582419350302,-1.8701876630377317,-0.9384744763374329,0.17136812210083008,-0.29983097314834595,-0.4892393946647644,-0.21903829276561737,-0.15618732571601868
7.259793043136597,-0.5713659524917603,0.12461636960506439,0.10723912715911865,-0.17381927395102226,-1.268157770726979,-1.87621348187793,-0.9401697516441345,0.1729453206062317,-0.2935488820075989,-0.2365540862083435,-0.40036794543266296,0.16945981979370117
7.279803991317749,-0.6938290596008301,0.09992314875125885,0.11747920513153076,-0.17833385907582683,-1.2762603036399476,-1.8724664018325732,-0.9417606592178345,0.17739009857177734,-0.2856920063495636,0.44304078817367554,-0.48694857954978943,0.45328614115715027
7.29983115196228,-0.675369143486023,0.051363661885261536,0.13664966821670532,-0.18876913892687341,-1.2817817996427696,-1.8571141493954866,-0.9414980411529541,0.18765003979206085,-0.27994492650032043,0.6286273002624512,-0.23943926393985748,0.9987305402755737
7.319791078567505,-0.8091768026351929,-0.04337996244430542,0.11398741602897644,-0.2081799900970194,-1.278798293838235,-1.8394845117355245,-0.9369933009147644,0.20667952299118042,-0.2816508412361145,0.40945959091186523,0.15192309021949768,1.3566340208053589
7.339831113815308,-0.7661463618278503,-0.035340577363967896,0.0017096996307373047,-0.23631009787828147,-1.2726017736477306,-1.8275315093693545,-0.9293035268783569,0.23411686718463898,-0.28562992811203003,-0.11180765926837921,0.1735992729663849,1.6781965494155884
7.359907865524292,-0.6976343393325806,-0.10247206687927246,-0.006141722202301025,-0.27343886940412016,-1.2676461476507583,-1.82351303433207,-0.918942928314209,0.27004414796829224,-0.2874372899532318,-0.5757231712341309,0.23640422523021698,1.9422229528427124
7.379798173904419,-0.6443372368812561,-0.08491235971450806,-0.02406972646713257,-0.3144493815888216,-1.262000385239091,-1.822757148941033,-0.9059863686561584,0.30929291248321533,-0.28901001811027527,-0.5215821266174316,0.3158460557460785,1.9863085746765137
7.399793863296509,-0.5951358079910278,-0.03404146432876587,-0.05414104461669922,-0.35428832476780103,-1.2530626465435826,-1.8179312849513332,-0.8909482359886169,0.34692296385765076,-0.2930115759372711,-0.2957688570022583,0.3864082992076874,1.9311693906784058
7.419806957244873,-0.5560644865036011,-0.05924403667449951,-0.0381065309047699,-0.3920232638589426,-1.2423980091925042,-1.8106526490773804,-0.8747521042823792,0.3820589780807495,-0.29805976152420044,-0.31856685876846313,0.42104005813598633,1.86899733543396
7.439815044403076,-0.501829981803894,-0.07994276285171509,-0.008072316646575928,-0.42798797795972576,-1.2333950808057983,-1.806320100421025,-0.858506441116333,0.41504108905792236,-0.3011774718761444,-0.4695715606212616,0.28927135467529297,1.6605645418167114
7.459829092025757,-0.37536001205444336,-0.06427130103111267,-0.02932170033454895,-0.4609453404716496,-1.2290799183987036,-1.8050728226078765,-0.8438477516174316,0.44479498267173767,-0.300130695104599,-0.5234586596488953,0.07722888141870499,1.4723223447799683
7.479896068572998,-0.29229408502578735,-0.02803140878677368,-0.05994567275047302,-0.49107473007991065,-1.2290941479079331,-1.8056666681737759,-0.8308443427085876,0.4715738892555237,-0.2954924702644348,-0.521328866481781,-0.01950681209564209,1.3740084171295166
7.499796152114868,-0.2942396402359009,0.020595937967300415,-0.08195415139198303,-0.5188344592832993,-1.2301279671567675,-1.8064731047721656,-0.8184922933578491,0.4958683252334595,-0.2901465594768524,-0.48347318172454834,-0.044265687465667725,1.2418160438537598
7.519806146621704,-0.27360910177230835,0.05101567506790161,-0.08155828714370728,-0.5446359362214699,-1.2315776268610303,-1.8076618508847564,-0.8065759539604187,0.5181067585945129,-0.28460681438446045,-0.46130070090293884,-0.05973989516496658,1.1421011686325073
7.539811849594116,-0.21493971347808838,0.07661855220794678,-0.10295400023460388,-0.5680872633721312,-1.2339976031034015,-1.8086906964935106,-0.7955735921859741,0.5380207300186157,-0.27856141328811646,-0.4236176013946533,-0.10302548855543137,1.0933183431625366
7.5598108768463135,-0.19386792182922363,0.09493106603622437,-0.10172194242477417,-0.5902557463845957,-1.2374298018813024,-1.8105681375696172,-0.7850598096847534,0.5565735101699829,-0.27185893058776855,-0.45092833042144775,-0.12023377418518066,0.9292021989822388
7.579797983169556,-0.16891539096832275,0.07840108871459961,-0.08555030822753906,-0.6100087223975811,-1.2413269680388146,-1.8144178764729555,-0.7755579948425293,0.5728746056556702,-0.26518815755844116,-0.48648348450660706,-0.07818868011236191,0.814885139465332
7.599799871444702,-0.11457139253616333,0.07193028926849365,-0.0877431333065033,-0.6273547690302972,-1.2467479553143632,-1.8213950811474484,-0.7674476504325867,0.5870052576065063,-0.25777676701545715,-0.6261501908302307,-0.08839568495750427,0.6576613783836365
7.619884967803955,-0.049025535583496094,0.04854738712310791,-0.07127831876277924,-0.6434019199639504,-1.254950056690852,-1.8331384897169807,-0.7604837417602539,0.5999206304550171,-0.2485153079032898,-0.8091174364089966,-0.03888370469212532,0.5686147212982178
7.639788866043091,-0.11383938789367676,0.059975385665893555,-0.044063836336135864,-0.6576500910997859,-1.2681834822225837,-1.8531946212342152,-0.755469024181366,0.6112587451934814,-0.2358585149049759,-1.2248902320861816,-0.07951981574296951,0.28110426664352417
7.659826993942261,-0.17695605754852295,0.11535942554473877,-0.004304319620132446,-0.6678968196687991,-1.2921247256048038,-1.8898282154203083,-0.7548373341560364,0.6193360686302185,-0.21597152948379517,-1.8848060369491577,-0.006571038160473108,-0.04617408290505409
7.679792165756226,-0.05586707592010498,0.21574395895004272,-0.01847127079963684,-0.6773815701920511,-1.3241024281844405,-1.9421498499510073,-0.75562584400177,0.626754879951477,-0.1902841329574585,-2.2318899631500244,0.08276239037513733,-0.06466162949800491
7.699820041656494,0.07713991403579712,0.29716914892196655,-0.016490086913108826,-0.6858054223645614,-1.3555431208108855,-1.9969863414461175,-0.7560492753982544,0.633296549320221,-0.16530299186706543,-2.0227229595184326,0.25113657116889954,-0.09992451965808868
7.719838857650757,0.28784966468811035,0.2547326683998108,-0.05084963142871857,-0.6930457298481906,-1.3779517494247984,-2.041647594351076,-0.7550434470176697,0.6388832330703735,-0.14743827283382416,-1.500282645225525,0.30998995900154114,0.15039049088954926
7.739856958389282,0.3914119601249695,0.11615526676177979,-0.046840354800224304,-0.7020607112939022,-1.3922982194950813,-2.076207310621697,-0.751382052898407,0.6457924246788025,-0.13556309044361115,-1.3470383882522583,0.4680541455745697,0.17129133641719818
7.759795904159546,0.5130345821380615,-0.023953497409820557,-0.04056333005428314,-0.7101859200047022,-1.403131383614065,-2.109199015364058,-0.7476080060005188,0.6519747376441956,-0.1265355795621872,-1.3007912635803223,0.5557876825332642,0.22482362389564514
7.779794931411743,0.6460613012313843,-0.09516829252243042,-0.004294633865356445,-0.7180840725783838,-1.4144752792672066,-2.142150493582417,-0.7438854575157166,0.657943069934845,-0.1172415018081665,-1.2785844802856445,0.47952431440353394,0.17191404104232788
7.799810171127319,0.7606403231620789,-0.13511371612548828,-0.018238365650177002,-0.7264803995678132,-1.427237273377546,-2.1737672629734495,-0.7398274540901184,0.6642428040504456,-0.10694462060928345,-1.184113621711731,0.3340582549571991,0.2773907780647278
7.819805860519409,0.8096795082092285,-0.1673641800880432,-0.022958561778068542,-0.7374458681426631,-1.4399239396185015,-2.2012199840058795,-0.733858585357666,0.6723995804786682,-0.09659392386674881,-0.935395359992981,0.2568708062171936,0.5082724094390869
7.839793920516968,0.7895758748054504,-0.15539586544036865,-0.06264925003051758,-0.7494610631579138,-1.4484888090384238,-2.218605849132382,-0.72658771276474,0.6812443137168884,-0.08931293338537216,-0.47904011607170105,0.10250573605298996,0.550689697265625
7.859847068786621,0.788833498954773,-0.2032596468925476,-0.07786469906568527,-0.7633033413130107,-1.45240710593587,-2.2249703407083032,-0.7174986600875854,0.6913120746612549,-0.08534320443868637,-0.1655712127685547,-0.09066256880760193,0.7687633633613586
7.879802942276001,0.7372390627861023,-0.20461642742156982,-0.11282205581665039,-0.7806360421083027,-1.456761566109321,-2.224374342664981,-0.7058518528938293,0.7037314772605896,-0.08084236830472946,0.004269303288310766,-0.3926394581794739,0.9146079421043396
7.899824857711792,0.651880145072937,-0.2381514310836792,-0.11253714561462402,-0.7992523276888578,-1.4624587039689256,-2.2185851862182084,-0.6931552290916443,0.7168349623680115,-0.07538997381925583,0.18013182282447815,-0.5727253556251526,0.9956749081611633
7.919878959655762,0.6593618392944336,-0.29053425788879395,-0.1011660024523735,-0.8197111507996983,-1.4658729285251373,-2.2058244585074585,-0.6786794662475586,0.7309487462043762,-0.07147182524204254,0.4814950227737427,-0.6910758018493652,1.1513140201568604
7.939888000488281,0.592261016368866,-0.2638418674468994,-0.1271495223045349,-0.8419731482654474,-1.4639148656487169,-2.1844160938938666,-0.662192165851593,0.745958685874939,-0.07104681432247162,0.7328529357910156,-0.7025817036628723,1.1665306091308594
7.9598469734191895,0.5363823771476746,-0.2587049603462219,-0.1472873091697693,-0.8620024956875524,-1.453874341885104,-2.153321755581505,-0.6464745998382568,0.7591475248336792,-0.07593342661857605,1.106781005859375,-0.6476261019706726,1.062514305114746
7.979893922805786,0.5726506114006042,-0.280224084854126,-0.1279190182685852,-0.8788184427714101,-1.4320627879853152,-2.1076223124690805,-0.6319311261177063,0.7699854969978333,-0.08823686093091965,1.590415596961975,-0.6959863901138306,0.9681817889213562
7.999917984008789,0.5605897307395935,-0.32495182752609253,-0.044669389724731445,-0.8903364190153871,-1.4044417860150513,-2.051644981484567,-0.6204652786254883,0.7772834300994873,-0.10418001562356949,1.6898092031478882,-0.9015312790870667,0.7077259421348572
8.019930124282837,0.47911983728408813,-0.41036343574523926,0.0574224591255188,-0.8965089563500028,-1.385927484009073,-2.0018697140650668,-0.6137024164199829,0.781152069568634,-0.11476486921310425,1.1683759689331055,-1.1711171865463257,0.34883445501327515
8.03992486000061,0.25129520893096924,-0.37411725521087646,0.057478733360767365,-0.894570002975875,-1.3961256064018484,-1.981423615177545,-0.6163312196731567,0.7799400091171265,-0.10876339673995972,0.039430033415555954,-1.4292207956314087,-0.28273916244506836
8.05977988243103,0.22189444303512573,-0.3288195729255676,0.11743319034576416,-0.8863560286731744,-1.4406557559136162,-2.0004688331597382,-0.6268932819366455,0.7747730612754822,-0.08204798400402069,-0.984599232673645,-1.5106818675994873,-0.6534490585327148
8.088296175003052,0.11682552099227905,0.181973397731781,0.1114959716796875,-0.8516727610602077,-1.532311438660382,-2.0341303746490618,-0.658237874507904,0.7523833513259888,-0.0253447238355875,1.180959939956665,-1.6173133850097656,-1.304908275604248
8.108300924301147,-0.0028703808784484863,0.2687806487083435,0.24356377124786377,-0.8179406842104494,-1.51539503260969,-1.9721251049939745,-0.6826765537261963,0.7297393679618835,-0.03785990551114082,2.8833234310150146,-1.3508931398391724,-1.8681031465530396
8.128262996673584,0.143294095993042,-0.012945830821990967,0.3590462803840637,-0.7739929051658501,-1.485462349445986,-1.890857853162196,-0.7125232219696045,0.6989962458610535,-0.06095045804977417,2.8015594482421875,-1.458470344543457,-1.9978227615356445
8.147943019866943,0.08408939838409424,-0.19711464643478394,0.3850741386413574,-0.7298800648266812,-1.484651164965735,-1.841644892864133,-0.7424909472465515,0.6667802333831787,-0.06412069499492645,1.2010339498519897,-1.9244964122772217,-2.194594144821167
8.167969942092896,-0.34372854232788086,-0.027485311031341553,0.25525963306427,-0.6792291300660407,-1.5167860200361285,-1.8254139628293296,-0.7769228219985962,0.6281934380531311,-0.042002689093351364,0.5512551069259644,-2.302617311477661,-2.78265380859375
8.188049077987671,-0.4747423529624939,0.08604884147644043,0.2329927682876587,-0.6198498125575047,-1.5516476516687625,-1.8073351369056512,-0.8138168454170227,0.5809129476547241,-0.015585418790578842,1.3668272495269775,-2.1790168285369873,-3.036832571029663
8.208168029785156,-0.6238590478897095,0.1443721055984497,0.03467446565628052,-0.5615245517008765,-1.5654167440277302,-1.7683622143461328,-0.846432089805603,0.5324772596359253,-0.004553495440632105,1.0408077239990234,-0.8781086802482605,-2.327563524246216
