timestamp,acceleration_x,acceleration_y,acceleration_z,attitude_pitch,attitude_roll,attitude_yaw,gravity_x,gravity_y,gravity_z,rotation_x,rotation_y,rotation_z
0.0,0.06981372833251953,0.02498483657836914,-0.15171754360198975,-0.8249609670426815,-0.9365675756593504,-1.6233798097204162,-0.5466203689575195,0.7345212697982788,-0.4021002948284149,-0.38745516538619995,0.17614580690860748,-0.06643670797348022
0.019688129425048828,0.07267868518829346,0.04093432426452637,-0.1457078754901886,-0.8296665477535731,-0.940032178341044,-1.6333706568238082,-0.5452128648757935,0.7377063035964966,-0.3981612026691437,-0.418009877204895,0.19330713152885437,0.03657354414463043
0.03968095779418945,0.06449538469314575,0.08981198072433472,-0.15241709351539612,-0.8344650841328546,-0.9434482691940721,-1.6415331076861541,-0.5436976552009583,0.7409374117851257,-0.39421385526657104,-0.2827143967151642,0.030547069385647774,-0.013914895243942738
0.059623003005981445,-0.021855592727661133,0.16416555643081665,-0.21664220094680786,-0.8349916597998771,-0.9489145500429795,-1.6474776280177432,-0.5455272793769836,0.7412909269332886,-0.3910086750984192,-0.08712434768676758,-0.08804633468389511,-0.18387897312641144
0.07967710494995117,-0.1419152021408081,0.2769814729690552,-0.2236386239528656,-0.831666989558089,-0.9504596364777009,-1.6511397729468673,-0.5481330752372742,0.739055335521698,-0.3915958106517792,0.048626918345689774,0.23602521419525146,-0.20849722623825073
0.09976696968078613,-0.18043309450149536,0.3062862753868103,-0.20838132500648499,-0.8286476497226378,-0.9416917984983073,-1.6514828332671148,-0.5464803576469421,0.7370180487632751,-0.3976978659629822,0.04117271676659584,0.6707264184951782,-0.042493581771850586
0.11973285675048828,-0.10032236576080322,0.18468278646469116,-0.1134350597858429,-0.8300802987962885,-0.9270107978269442,-1.653613089420215,-0.5397379994392395,0.7379855513572693,-0.40504342317581177,-0.2750815153121948,0.8536693453788757,0.021694092079997063
0.13968396186828613,0.013812780380249023,0.10164010524749756,-0.06188786029815674,-0.8351660370936209,-0.9160722217128866,-1.6608162755259286,-0.5322912335395813,0.7414079308509827,-0.4086322784423828,-0.41986677050590515,0.71754390001297,0.07779569923877716
0.15967202186584473,0.09404397010803223,0.09607338905334473,-0.051592350006103516,-0.8418032356829731,-0.9080860251056813,-1.6668893086654097,-0.5251200199127197,0.7458454966545105,-0.40983355045318604,-0.3217708468437195,0.47851037979125977,0.15224625170230865
0.1797008514404297,0.1249358057975769,0.08660799264907837,-0.03124833106994629,-0.8470949230462702,-0.9009987316695487,-1.6676100562533651,-0.5191009044647217,0.7493599653244019,-0.41108888387680054,-0.07798601686954498,0.2252865582704544,0.19512943923473358
0.1997079849243164,0.1343870759010315,0.047652244567871094,-0.011071264743804932,-0.8503733657916579,-0.8916576924266906,-1.658785266920095,-0.5133239030838013,0.7515267729759216,-0.4143744111061096,0.28216877579689026,-0.040068600326776505,0.38893407583236694
0.22061800956726074,0.1248636245727539,-0.0023286938667297363,0.026952147483825684,-0.8523312301790881,-0.8806594010816613,-1.640041338687916,-0.5075998902320862,0.752816915512085,-0.4190573990345001,0.5385810732841492,-0.2993971109390259,0.5055420994758606
0.2392730712890625,0.10131770372390747,-0.05796778202056885,0.055349916219711304,-0.8525018008223592,-0.8691358472323593,-1.6135368868653983,-0.50263911485672,0.7529292106628418,-0.42479580640792847,0.7747077345848083,-0.6085914969444275,0.5870466828346252
0.25968503952026367,0.03755819797515869,-0.05150264501571655,0.011913895606994629,-0.8493611943720757,-0.8616260922580786,-1.5827417725459412,-0.501227080821991,0.7508586645126343,-0.4300963878631592,0.9639965295791626,-0.9638045430183411,0.46288299560546875
0.2797551155090332,-0.08044880628585815,0.0014589428901672363,0.08052811026573181,-0.8430788702026383,-0.8571756521617085,-1.5527908920625506,-0.5028641819953918,0.7466946244239807,-0.43540188670158386,0.9629390835762024,-0.7337201833724976,0.3751554787158966
0.29967594146728516,-0.17849242687225342,-0.00810939073562622,0.1301930546760559,-0.8378427367563233,-0.8465224627315028,-1.5257150069575396,-0.5011188983917236,0.743201494216919,-0.44331878423690796,0.6348344087600708,-0.2623864412307739,0.4134611487388611
0.32117295265197754,-0.16700804233551025,-0.08535051345825195,0.1500239372253418,-0.8385744811066531,-0.8349663676123029,-1.5082159359870082,-0.4955591857433319,0.7436909079551697,-0.44871482253074646,0.2025870680809021,0.08821036666631699,0.38724184036254883
0.33965587615966797,-0.06524538993835449,-0.11390161514282227,0.16620588302612305,-0.8407483441471079,-0.823776853868725,-1.4970945379752478,-0.4893200695514679,0.74514240026474,-0.4531322419643402,0.24531589448451996,0.1719999760389328,0.2976512312889099
0.35886502265930176,0.040425658226013184,-0.09951114654541016,0.14317059516906738,-0.8408148052183869,-0.8116529900834515,-1.4850194690616874,-0.48375454545021057,0.7451867461204529,-0.45899710059165955,0.3381797671318054,0.055867429822683334,0.20407560467720032
0.38217592239379883,0.05672428011894226,-0.1729598045349121,0.1418958306312561,-0.8382449893622345,-0.805053227127111,-1.476005348709854,-0.48209360241889954,0.7434705495834351,-0.46350541710853577,0.20587749779224396,-0.012854911386966705,0.041168615221977234
0.39925599098205566,0.06207585334777832,-0.20177358388900757,0.19193661212921143,-0.8372949620825492,-0.80263470874997,-1.4734181399013155,-0.4814789891242981,0.7428348660469055,-0.4651605784893036,-0.0521601065993309,0.05171822011470795,0.016069404780864716
0.419766902923584,0.06954127550125122,-0.18254095315933228,0.19444388151168823,-0.8409392280457966,-0.8053742334547445,-1.4789762780339049,-0.48079612851142883,0.7452697157859802,-0.4619610607624054,-0.5000548958778381,0.09187594056129456,0.010333970189094543
0.4396660327911377,0.07455286383628845,-0.2025250792503357,0.21190011501312256,-0.8523793372839955,-0.8155130158270908,-1.4962165712902387,-0.479216068983078,0.7528486251831055,-0.4511885941028595,-1.0927594900131226,0.16278305649757385,0.0006499749142676592
0.45967817306518555,0.035362571477890015,-0.19795620441436768,0.11698132753372192,-0.8682316491904218,-0.8316005793177262,-1.5230279048681332,-0.4775318205356598,0.7631874680519104,-0.435325562953949,-1.2038739919662476,0.22024500370025635,-0.03593572601675987
0.47966909408569336,0.044166356325149536,-0.022662878036499023,0.06498345732688904,-0.8801456538235436,-0.847473956790645,-1.5491741917418331,-0.47753122448921204,0.7708316445350647,-0.4216425120830536,-0.7134525179862976,0.22458995878696442,-0.14828374981880188
0.4996790885925293,0.08814221620559692,0.07594531774520874,0.05252748727798462,-0.8855917941217935,-0.8535311256003185,-1.5629518469043662,-0.4769057035446167,0.774289608001709,-0.4159766733646393,-0.42304927110671997,0.21636202931404114,-0.028935447335243225
0.5196759700775146,0.07144114375114441,0.004696249961853027,0.10550546646118164,-0.8934753905094271,-0.8614911060495112,-1.5795550350444532,-0.4755549728870392,0.7792544960975647,-0.40817898511886597,-0.9373798370361328,0.31935498118400574,-0.0358874537050724
0.5396819114685059,0.03357267379760742,-0.08002805709838867,0.11570322513580322,-0.9095475338933541,-0.8797729814135338,-1.6131673647489797,-0.4732242226600647,0.7892259359359741,-0.3913838863372803,-1.560754418373108,0.4930878281593323,-0.062005117535591125
0.5596790313720703,0.025005578994750977,0.022991597652435303,0.06270438432693481,-0.929674714704305,-0.9050604461536588,-1.6590569724934585,-0.47037914395332336,0.8014254570007324,-0.369406133890152,-1.779881238937378,0.6338837742805481,-0.13739150762557983
0.5796689987182617,0.029035985469818115,0.14328789710998535,-0.001822352409362793,-0.9455147771483483,-0.9285120242608113,-1.7036144786369616,-0.4686874747276306,0.8107983469963074,-0.35062533617019653,-1.35089910030365,0.6661407351493835,-0.1585599184036255
0.5996718406677246,-0.01195952296257019,0.20750141143798828,-0.07412317395210266,-0.9576796607475762,-0.9417402764119759,-1.7376022643525386,-0.4652743637561798,0.8178585767745972,-0.3385661840438843,-1.0603047609329224,0.8271701335906982,-0.09257645159959793
0.6196689605712891,-0.03320133686065674,0.20293337106704712,-0.06142708659172058,-0.9707517898490831,-0.9589383008730447,-1.7780835786020184,-0.46223628520965576,0.825310468673706,-0.3243457078933716,-1.6289098262786865,0.7212474346160889,-0.19195550680160522
0.6397218704223633,-0.06442561745643616,0.12757247686386108,-0.03751349449157715,-0.9911023895232347,-1.0041501913177768,-1.8485749944191652,-0.46215522289276123,0.8366303443908691,-0.2940448522567749,-2.848269462585449,0.7032216191291809,-0.3581954836845398
0.6597518920898438,-0.13194116950035095,0.11559486389160156,-0.04039689898490906,-1.0143300977012024,-1.076808980312351,-1.953111908804062,-0.4650437831878662,0.849126935005188,-0.2504357695579529,-3.019042730331421,0.8270803093910217,-0.4282645583152771
0.6796300411224365,-0.10780301690101624,0.321571946144104,-0.05854885280132294,-1.032510048124011,-1.1423377480352852,-2.0511897269815975,-0.46632418036460876,0.8585885167121887,-0.212996706366539,-2.293288469314575,0.8715720772743225,-0.22225706279277802
0.6996810436248779,-0.10209047794342041,0.4089627265930176,-0.23138028383255005,-1.0468429402071033,-1.1935377623043986,-2.1276219911012983,-0.46512454748153687,0.8658480644226074,-0.1842997521162033,-2.05126953125,0.519091010093689,0.04840424656867981
0.7196719646453857,-0.05724635720252991,0.1925315260887146,-0.09427700936794281,-1.0636185427740923,-1.2502565882147307,-2.201242578192171,-0.4609726071357727,0.8741187453269958,-0.15303762257099152,-1.7211885452270508,0.388248473405838,0.3691064417362213
0.7396700382232666,-0.11919987201690674,0.13355284929275513,-0.19792282581329346,-1.0848619124754695,-1.2920418944789853,-2.255854170589141,-0.44900694489479065,0.8842389583587646,-0.12850859761238098,-1.4927492141723633,0.15733982622623444,0.7172316908836365
0.7596678733825684,-0.2440231740474701,0.06761538982391357,-0.20582951605319977,-1.1032261393532123,-1.3253055955887005,-2.29727295455651,-0.4372055232524872,0.8926661014556885,-0.10953928530216217,-0.8108616471290588,0.24993020296096802,0.6229695081710815
0.7796730995178223,-0.33453041315078735,-0.05254173278808594,-0.1613360047340393,-1.120293938957071,-1.3345929875423095,-2.319927441586338,-0.42332780361175537,0.9002284407615662,-0.10189347714185715,-0.7851040363311768,0.8442367911338806,0.6772186160087585
0.7997431755065918,-0.41282328963279724,-0.2669726610183716,-0.20874899625778198,-1.135640185749308,-1.3480345244441574,-2.356125730677377,-0.41113609075546265,0.9068042039871216,-0.09313100576400757,-1.0995522737503052,1.1584805250167847,0.4596565067768097
0.8196699619293213,-0.3429891765117645,-0.37753432989120483,-0.17829154431819916,-1.1482545677214404,-1.3646319957052464,-2.4046132474746775,-0.4013955593109131,0.9120495915412903,-0.08394616842269897,-1.079939603805542,1.552420735359192,0.3243103623390198
0.8397731781005859,-0.2583532929420471,-0.349648118019104,-0.195611834526062,-1.157634735819278,-1.3746424320284543,-2.4532187670305774,-0.3938073515892029,0.9158560037612915,-0.07825306057929993,-1.0507102012634277,1.8526403903961182,0.17856882512569427
0.8591339588165283,-0.18987011909484863,-0.43700677156448364,-0.22772061824798584,-1.1628778385426901,-1.3814959224716445,-2.5026878349701684,-0.38961294293403625,0.9179485440254211,-0.0746476799249649,-0.9918615221977234,1.964791178703308,-0.04023720324039459
0.8796730041503906,-0.12775138020515442,-0.4634992480278015,-0.259563148021698,-1.163155293154977,-1.3857145571448581,-2.5497655311959657,-0.3896741271018982,0.9180585741996765,-0.07295653223991394,-0.8022919297218323,1.9373960494995117,-0.2744937539100647
0.8996739387512207,-0.08030998706817627,-0.41126716136932373,-0.30283838510513306,-1.158024788991749,-1.3840822362171268,-2.587783567151098,-0.39417725801467896,0.9160125255584717,-0.074465811252594,-0.5887559652328491,1.711145281791687,-0.5303707718849182
0.9196691513061523,-0.01788952946662903,-0.38897979259490967,-0.22859281301498413,-1.149562350475329,-1.3806011236822757,-2.6215213988395405,-0.4015134871006012,0.9125850796699524,-0.0773002877831459,-0.6797404289245605,1.7317854166030884,-0.5706803798675537
0.9396700859069824,-0.008656740188598633,-0.39644211530685425,-0.20299988985061646,-1.1390155877816355,-1.3845249330527762,-2.662603203097437,-0.41124987602233887,0.908221960067749,-0.0775025337934494,-0.6790456175804138,1.6204547882080078,-0.76700359582901
0.9598498344421387,0.034136563539505005,-0.25251007080078125,-0.1511489748954773,-1.1265414347049938,-1.385102834188475,-2.701644992627527,-0.42239639163017273,0.9029311537742615,-0.07935041934251785,-0.5475669503211975,1.7895493507385254,-0.8444592356681824
0.9797580242156982,0.05898094177246094,-0.16456329822540283,-0.2576061487197876,-1.110285407980288,-1.3675944333763292,-2.7206103376542257,-0.4352625906467438,0.8958255648612976,-0.08968397974967957,-0.24844612181186676,1.6737933158874512,-0.8307291865348816
1.002305030822754,0.19087928533554077,-0.18897080421447754,-0.17117230594158173,-1.0932237017944058,-1.3584590186477932,-2.743741766218024,-0.4493020176887512,0.8881132006645203,-0.09686373919248581,-0.31361711025238037,1.3259592056274414,-1.0164729356765747
1.0196518898010254,0.21217721700668335,-0.19943106174468994,-0.23123323917388916,-1.0750351057096765,-1.3598106656325473,-2.7708603421360474,-0.4651525914669037,0.8796068429946899,-0.0996231734752655,-0.5314906239509583,1.0011816024780273,-1.0260744094848633
1.0396671295166016,0.19675907492637634,-0.0889124870300293,-0.24755725264549255,-1.0559035002675594,-1.3676174760402398,-2.7992870375516716,-0.4823119044303894,0.8703455328941345,-0.099366694688797,-0.3665863573551178,0.7158146500587463,-1.11474609375
1.0596389770507812,0.2030402421951294,0.06703203916549683,-0.19209736585617065,-1.0347326484586616,-1.3657129438690663,-2.8127782448922316,-0.5000525116920471,0.859725832939148,-0.1040148213505745,0.18955329060554504,0.6421120166778564,-1.0815657377243042
1.0796871185302734,0.22642451524734497,0.15920108556747437,-0.19250410795211792,-1.0118568417332763,-1.3491760256102832,-2.806835057105805,-0.5173180103302002,0.8478179574012756,-0.11656279861927032,0.5215851664543152,0.45868590474128723,-1.132789134979248
1.0996699333190918,0.2839732766151428,0.13026642799377441,-0.1316472887992859,-0.9864517114792866,-1.3367527472194207,-2.801142792250738,-0.5366130471229553,0.8340737819671631,-0.12793536484241486,0.39133015275001526,0.36549708247184753,-1.2431833744049072
1.1196861267089844,0.2675609588623047,-0.03229653835296631,-0.21511660516262054,-0.9635220252455517,-1.3172072417376672,-2.7866015956568115,-0.5523813962936401,0.8212064504623413,-0.143159881234169,0.8859217166900635,0.31253108382225037,-0.7865708470344543
1.1397919654846191,0.26329123973846436,0.08187490701675415,-0.22394375503063202,-0.9396410105016707,-1.293120755112184,-2.758800412210338,-0.5674751400947571,0.8073463439941406,-0.16175274550914764,1.2257863283157349,-0.08053737133741379,-1.147840142250061
1.1596789360046387,0.3181920051574707,0.1784651279449463,-0.15576350688934326,-0.9091848067165721,-1.2676001202146285,-2.721679567948849,-0.5863651037216187,0.7890031337738037,-0.18343950808048248,1.7307870388031006,-0.35481739044189453,-1.0702495574951172
1.1796820163726807,0.35370075702667236,0.03489619493484497,-0.05411607027053833,-0.8775345655576612,-1.2457820174178376,-2.680695325253198,-0.6055927872657776,0.7691656947135925,-0.2040627896785736,1.6507376432418823,-0.6165565848350525,-1.2020384073257446
1.1997261047363281,0.279053270816803,-0.07584923505783081,0.025059834122657776,-0.8437093577034073,-1.2314993856116958,-2.6461140264840983,-0.6268009543418884,0.747113823890686,-0.22122691571712494,1.537537932395935,-0.5816960334777832,-1.2567533254623413
1.2196879386901855,0.2537195086479187,-0.058355629444122314,0.1166776567697525,-0.8094581439059353,-1.2212609158345937,-2.6190514061506374,-0.6481743454933167,0.7239134311676025,-0.23626090586185455,1.3596850633621216,-0.4032004773616791,-1.355482578277588
1.239668846130371,0.2206193208694458,-0.08450162410736084,0.11130362749099731,-0.7735978626448615,-1.2147773826476251,-2.597725915069587,-0.670539915561676,0.6987136602401733,-0.24935001134872437,1.300094485282898,-0.5125848054885864,-1.528815507888794
1.259108066558838,0.12791699171066284,-0.055213868618011475,0.10136726498603821,-0.7317116682549294,-1.2158968114504625,-2.5806729548856464,-0.6976648569107056,0.668144166469574,-0.25854820013046265,1.3477656841278076,-0.7874079942703247,-1.9875297546386719
1.2797060012817383,0.029068470001220703,-0.010885536670684814,0.15671458840370178,-0.6814492838859422,-1.2222134962906686,-2.564926536023088,-0.7299503684043884,0.6299192905426025,-0.26528099179267883,1.4939522743225098,-0.843583881855011,-2.2873101234436035
1.2996699810028076,0.012651622295379639,-0.018515944480895996,0.189304918050766,-0.6276088587536341,-1.230500750629421,-2.549514352465758,-0.7630177736282349,0.5872109532356262,-0.27016130089759827,1.4721754789352417,-0.9264125227928162,-2.3508424758911133
1.3197121620178223,0.04450422525405884,-0.01482003927230835,0.21235117316246033,-0.5728648648913511,-1.2397877172013296,-2.533780221542136,-0.7947332262992859,0.5420417785644531,-0.27311182022094727,1.63746976852417,-0.9294605255126953,-2.400850772857666
1.3396720886230469,0.01493227481842041,0.05031949281692505,0.11377671360969543,-0.5157803388386671,-1.2478763417594394,-2.5126006652362705,-0.8249450325965881,0.49321383237838745,-0.2760539948940277,1.9527480602264404,-0.8992551565170288,-2.4309256076812744
1.3596711158752441,0.055969059467315674,0.10998320579528809,0.14543762803077698,-0.4583583183778134,-1.2498300329926821,-2.484649622646044,-0.8509824275970459,0.4424764811992645,-0.28291943669319153,2.122331142425537,-0.6952407956123352,-2.199108362197876
1.3797240257263184,0.14643138647079468,-0.11985516548156738,0.14493834972381592,-0.4077976703157911,-1.2537578667299352,-2.4557416018141613,-0.8722462058067322,0.3965885639190674,-0.28618907928466797,1.877280354499817,-0.9305636882781982,-1.8791786432266235
1.3996679782867432,0.08033865690231323,-0.02133116126060486,0.1513010859489441,-0.36127713831358266,-1.2647173749495608,-2.433798835698137,-0.8919689059257507,0.35346922278404236,-0.28187066316604614,1.4285328388214111,-0.9215265512466431,-1.8929201364517212
1.4196701049804688,-0.02566373348236084,-0.01465827226638794,0.1812291443347931,-0.3193122576920079,-1.276446969007252,-2.4229874977882693,-0.9086167216300964,0.31391364336013794,-0.27545228600502014,0.8256415128707886,-0.5819317102432251,-1.8123502731323242
1.4396891593933105,0.01416701078414917,-0.1071443259716034,0.24626293778419495,-0.28326534350055305,-1.282226208429163,-2.420816409567693,-0.9204476475715637,0.2794923484325409,-0.2732406258583069,0.4987131655216217,-0.10750782489776611,-1.6366229057312012
1.4597740173339844,0.10003358125686646,0.013844266533851624,0.2798449695110321,-0.24898961822397,-1.2819515846264058,-2.4190041846687693,-0.9290130138397217,0.2464248687028885,-0.27606093883514404,0.7239058017730713,-0.008577253669500351,-1.6406477689743042
1.479672908782959,0.06491780281066895,0.0983709841966629,0.17589077353477478,-0.2108040307655775,-1.2813519962088025,-2.4090047891558926,-0.937186598777771,0.2092462033033371,-0.2791014015674591,1.2896203994750977,-0.15775936841964722,-1.75990629196167
1.4996709823608398,-0.014241397380828857,0.1217699944972992,0.2239157259464264,-0.16805182441403574,-1.2821465314464204,-2.3925447910932047,-0.9451244473457336,0.16726194322109222,-0.28064802289009094,1.4052785634994507,-0.23904374241828918,-1.8842233419418335
1.5196690559387207,-0.10256975889205933,0.059905312955379486,0.29631173610687256,-0.12437502943146334,-1.2843460296412292,-2.376688904771795,-0.9518430829048157,0.12405461817979813,-0.2803663909435272,1.38030207157135,-0.2043914943933487,-1.8140193223953247
1.5396690368652344,-0.1431436538696289,0.09243293106555939,0.33105409145355225,-0.08493045260216404,-1.2840173955195169,-2.360968749748859,-0.9557027816772461,0.08482838422060013,-0.2818446159362793,1.219093918800354,0.12614719569683075,-1.5423221588134766
1.559669017791748,-0.11491036415100098,0.1902119517326355,0.3315376043319702,-0.05154055785997123,-1.278780661576012,-2.3473097360140915,-0.9563939571380615,0.05151774361729622,-0.28750088810920715,1.0037099123001099,0.2708434462547302,-1.21204674243927
1.579671859741211,-0.03687173128128052,0.16211141645908356,0.3019714951515198,-0.02845939370244475,-1.2733895855811606,-2.3408390324794324,-0.9557124972343445,0.028455551713705063,-0.29292312264442444,0.2898736000061035,0.22733408212661743,-0.8634725213050842
1.599740982055664,-0.04350996017456055,0.054439425468444824,0.29564976692199707,-0.01523274859770146,-1.2683714562148831,-2.344682107806809,-0.9545063376426697,0.01523215975612402,-0.29780134558677673,-0.19358420372009277,0.2820156216621399,-0.5511906147003174
1.619704008102417,-0.15006732940673828,0.1433938890695572,0.27345970273017883,-0.0059743847110749135,-1.2612049635973974,-2.350246995315517,-0.9524412751197815,0.005974349100142717,-0.3046640455722809,0.021316958591341972,0.42317983508110046,-0.5184975266456604
1.6396698951721191,-0.20247191190719604,0.15335524082183838,0.27547791600227356,0.005055138784075707,-1.2506265683312534,-2.347826007415525,-0.9491698145866394,-0.005055117420852184,-0.3147236704826355,0.5119096040725708,0.6801065802574158,-0.4259527325630188
1.6597809791564941,-0.16140389442443848,0.048245035111904144,0.2746732234954834,0.015988678724978524,-1.237483930534679,-2.340223115176416,-0.9448429942131042,-0.015987997874617577,-0.32713308930397034,0.4479627311229706,0.6435791254043579,-0.39415407180786133
1.6796698570251465,-0.07602256536483765,-0.05179927498102188,0.32001736760139465,0.026557781966542,-1.2264381836184246,-2.3355878626464803,-0.9409604072570801,-0.026554660871624947,-0.3374735116958618,0.2863621413707733,0.40629515051841736,-0.40612608194351196
1.6997129917144775,-0.07863283157348633,-0.08869603276252747,0.2403056025505066,0.03646467943445267,-1.2206587351401497,-2.334588981296718,-0.9387010931968689,-0.036456599831581116,-0.34279903769493103,0.1856979876756668,0.19756783545017242,-0.4918709695339203
1.7196688652038574,-0.03154647350311279,-0.03609117493033409,0.23992133140563965,0.0478351969291051,-1.219429199607954,-2.3334157308411676,-0.9378290772438049,-0.04781695455312729,-0.3437880277633667,0.42872440814971924,-0.05320766195654869,-0.5626339316368103
1.7396678924560547,-0.08218365907669067,0.13417941331863403,0.15450119972229004,0.0638187213665783,-1.2218054170198454,-2.324565597739816,-0.9378052949905396,-0.06377541273832321,-0.3412536382675171,0.8839330077171326,-0.10924474149942398,-0.620048463344574
1.7597219944000244,-0.16514408588409424,0.19380934536457062,0.15690374374389648,0.08251383918186071,-1.2234329780722215,-2.310187646698171,-0.9370744824409485,-0.0824202373623848,-0.33926162123680115,1.0088952779769897,0.04398191720247269,-0.6035934090614319
1.779670000076294,-0.14311063289642334,0.17540884017944336,0.18142524361610413,0.09797461633575807,-1.2235612738568735,-2.297613592859044,-0.9358077049255371,-0.09781794995069504,-0.33866721391677856,0.7346987128257751,0.07053931802511215,-0.38010430335998535
1.7996690273284912,-0.09693688154220581,0.1619052290916443,0.14951092004776,0.10656487299672629,-1.2247847309329538,-2.288521029823137,-0.9353964924812317,-0.10636329650878906,-0.3372246325016022,0.5051377415657043,-0.11075422167778015,-0.18065829575061798
1.819666862487793,-0.17855209112167358,0.20160901546478271,0.11489027738571167,0.1106942574279247,-1.226366424857131,-2.278137431227835,-0.9355072975158691,-0.11046833544969559,-0.3355935513973236,0.5102260112762451,0.07717786729335785,0.10311102122068405
1.8397350311279297,-0.2350623607635498,0.2428341507911682,0.1610974371433258,0.11334653229187239,-1.2255864937457324,-2.266381559585454,-0.9349661469459534,-0.11310398578643799,-0.33622270822525024,0.778839647769928,0.0530782975256443,0.06086491420865059
1.8597111701965332,-0.2453795075416565,0.3339012861251831,0.20285487174987793,0.11763499364280797,-1.2265566388507638,-2.2429076186020955,-0.9348267316818237,-0.11736387759447098,-0.33514872193336487,1.6177098751068115,0.2584191858768463,0.40085187554359436
1.8796770572662354,-0.2955284118652344,0.3892873525619507,0.2912559509277344,0.12029021221874923,-1.223151558426124,-2.2054186491407317,-0.9333838820457458,-0.12000032514333725,-0.33822259306907654,1.9069466590881348,0.5095341205596924,0.5374639630317688
1.8996779918670654,-0.42401278018951416,0.49311745166778564,0.18784788250923157,0.1248964514771815,-1.223664653985689,-2.165851506454672,-0.9330275654792786,-0.12457199394702911,-0.3375519812107086,2.048513174057007,-0.2647346258163452,0.38570156693458557
1.9196679592132568,-0.32601916790008545,0.3295060396194458,0.3256496489048004,0.1305510364323728,-1.2423086022676937,-2.120319823886631,-0.9384765625,-0.1301805078983307,-0.3198666274547577,2.400947093963623,-0.9124945998191833,0.6914260387420654
1.938765048980713,-0.31039363145828247,0.28784582018852234,0.5644112825393677,0.1239940823879213,-1.265113611612626,-2.069290636633672,-0.9463202953338623,-0.123676598072052,-0.298633873462677,2.2064483165740967,-0.5519649982452393,1.4048410654067993
1.9598069190979004,-0.6064106822013855,0.21481020748615265,0.42387259006500244,0.11009791731677292,-1.27700976583903,-2.0184874552807366,-0.9513590931892395,-0.1098756268620491,-0.287825345993042,2.265476942062378,-0.12709644436836243,1.4386177062988281
1.979841947555542,-0.6111406683921814,0.15804237127304077,0.36947527527809143,0.09222467555201927,-1.2854241351896052,-1.9687949086085508,-0.955479085445404,-0.09209399670362473,-0.2803182601928711,1.9428296089172363,-0.2219749391078949,1.6814519166946411
1.9997339248657227,-0.5431689620018005,-0.042599573731422424,0.34805700182914734,0.06797227430125817,-1.295966957951661,-1.9238043619438774,-0.9602489471435547,-0.06791994720697403,-0.2707560360431671,1.8497538566589355,-0.5365327596664429,1.9368906021118164
2.019582986831665,-0.5847804546356201,-0.07089501619338989,0.22533252835273743,0.036626702534138036,-1.3102012093596043,-1.875650087589393,-0.9655888080596924,-0.036618512123823166,-0.2574828267097473,2.015483856201172,-0.5931957960128784,2.3190629482269287
2.039635181427002,-0.7078060507774353,0.01806488074362278,0.1210864782333374,0.00018170267948376806,-1.3225650405923233,-1.822713179063555,-0.9693484902381897,-0.00018170267867390066,-0.24568983912467957,2.034893274307251,-0.5081058144569397,2.5567808151245117
2.0596120357513428,-0.8558935523033142,-0.04162268713116646,0.09456479549407959,-0.04183314142868374,-1.3300422895971011,-1.7733254617316467,-0.9703088402748108,0.041820939630270004,-0.23822638392448425,1.6687431335449219,-0.23113566637039185,2.739276647567749
2.0796170234680176,-0.8755236864089966,-0.20680579543113708,0.16759289801120758,-0.09361530218553574,-1.3292417793764033,-1.7343619174851241,-0.9667156934738159,0.09347862750291824,-0.23816488683223724,0.9231299161911011,0.03874294459819794,3.1225297451019287
2.099609851837158,-0.8406563401222229,-0.29154494404792786,0.15769900381565094,-0.15378353880071394,-1.3254239768429505,-1.7070635787927124,-0.9585990309715271,0.1531781107187271,-0.2400507628917694,0.31327518820762634,-0.04496216028928757,3.311910390853882
2.119680881500244,-0.9249770641326904,-0.21387328207492828,0.18441224098205566,-0.21702231734555436,-1.3219071070687147,-1.688465581266375,-0.9464523792266846,0.21532274782657623,-0.24054944515228271,-0.04172265902161598,0.07684266567230225,3.246455192565918
2.139615058898926,-0.9706925749778748,-0.31311556696891785,0.13848377764225006,-0.2792235119787486,-1.3157999493094714,-1.6724366561425013,-0.9301863312721252,0.2756093144416809,-0.24247249960899353,-0.019679129123687744,0.0860460102558136,3.152782440185547
2.1596169471740723,-0.8133944272994995,-0.2990294098854065,0.12316355109214783,-0.3391871973924928,-1.3111390116802177,-1.6571910247928487,-0.9114134311676025,0.33272069692611694,-0.24212120473384857,-0.1483662873506546,-0.1416330486536026,3.016144037246704
2.179676055908203,-0.8182279467582703,-0.3034396171569824,0.09580829739570618,-0.39495731053826616,-1.3129348999406019,-1.6463430597368875,-0.89249587059021,0.3847687840461731,-0.23538054525852203,-0.2789090573787689,-0.33984413743019104,2.681323766708374
2.199695110321045,-0.8071334958076477,-0.33769071102142334,0.124425008893013,-0.44664724526421984,-1.316742675017142,-1.6400481682328947,-0.8729507327079773,0.4319441020488739,-0.22667419910430908,-0.5059865117073059,-0.3330896198749542,2.437589168548584
2.219636917114258,-0.7303187251091003,-0.33589765429496765,0.06650790572166443,-0.4944227330004554,-1.3252928502731844,-1.641278852942504,-0.8538486957550049,0.4745236039161682,-0.21393835544586182,-0.8027398586273193,-0.4397578537464142,2.2160918712615967
2.239635944366455,-0.6773102879524231,-0.2825937271118164,0.01879364252090454,-0.539335515647296,-1.3397411092141076,-1.6519791594271829,-0.8352477550506592,0.5135659575462341,-0.19649763405323029,-1.1337916851043701,-0.4760023057460785,1.9227687120437622
2.2596988677978516,-0.637519896030426,-0.23960387706756592,-0.008032023906707764,-0.5800433425613214,-1.3580068981517486,-1.6704211891882874,-0.817573606967926,0.5480601787567139,-0.17664523422718048,-1.279428482055664,-0.36352717876434326,1.7195121049880981
2.2791271209716797,-0.5643409490585327,-0.1645568609237671,-0.037070587277412415,-0.6164362989930756,-1.3762894258617882,-1.6922205510361372,-0.8005579113960266,0.5781310796737671,-0.15770792961120605,-1.1906944513320923,-0.23866762220859528,1.4614773988723755
2.299669027328491,-0.4999638795852661,-0.07136094570159912,-0.08523803949356079,-0.6459085610276356,-1.3928252314644414,-1.71403489658817,-0.7859401106834412,0.6019242405891418,-0.14137035608291626,-1.1045923233032227,-0.22373385727405548,1.1298801898956299
2.319705009460449,-0.3517405390739441,-0.09075570106506348,-0.12665648758411407,-0.6699187212779899,-1.412472638788012,-1.73707195061839,-0.7740683555603027,0.6209222674369812,-0.1235877200961113,-1.0935229063034058,-0.27305471897125244,1.0078352689743042
2.3396711349487305,-0.2444496750831604,-0.06549477577209473,-0.10124541819095612,-0.6931530752836816,-1.4321372674416504,-1.762051813608098,-0.7618523836135864,0.6389657855033875,-0.10631999373435974,-1.2070438861846924,-0.1494566947221756,0.9654291272163391
2.359678030014038,-0.1840628981590271,-0.019105255603790283,-0.13563024997711182,-0.7138997726364747,-1.4522270550510317,-1.7905382653594049,-0.7505074739456177,0.654786229133606,-0.08940649777650833,-1.197815179824829,-0.014158706180751324,0.7771288156509399
2.3796701431274414,-0.07410639524459839,0.024210333824157715,-0.20609557628631592,-0.7297824490220229,-1.4693983893302625,-1.816995975529306,-0.7414911389350891,0.6667075157165527,-0.07544440776109695,-1.0210193395614624,0.05476345866918564,0.6173967123031616
2.399712085723877,0.09749794006347656,-0.04105645418167114,-0.21349775791168213,-0.7427214253451582,-1.4865507451840774,-1.8447305433069592,-0.7340184450149536,0.6762951016426086,-0.06198452040553093,-1.189240574836731,0.13915255665779114,0.4979117810726166
2.419667959213257,0.2589121460914612,-0.16542917490005493,-0.18582487106323242,-0.7525197817810445,-1.505745522395915,-1.8799388955485812,-0.728425145149231,0.6834802627563477,-0.04745159298181534,-1.4045809507369995,0.3334900736808777,0.2830103933811188
2.439702033996582,0.4630677103996277,-0.18159973621368408,-0.21456027030944824,-0.7563676963682908,-1.522786465078829,-1.9154540686966464,-0.7264955043792725,0.686284065246582,-0.034905772656202316,-1.038123369216919,0.4120132029056549,-0.049278758466243744
2.4596781730651855,0.65146803855896,-0.17348182201385498,-0.25251930952072144,-0.7533298558720102,-1.5262885141377143,-1.9378170471638008,-0.7286928296089172,0.68407142162323,-0.032453957945108414,-0.6979597210884094,0.6314471960067749,-0.3605482280254364
2.4797000885009766,0.8417007923126221,-0.30735331773757935,-0.26607638597488403,-0.7462491652814793,-1.5287752763729487,-1.9593007052782163,-0.7335923314094543,0.6788895130157471,-0.03084447793662548,-0.8674837946891785,0.5776873230934143,-0.3918626010417938
2.4996790885925293,0.9441125988960266,-0.4129408001899719,-0.260678231716156,-0.7390572059640786,-1.534696984614693,-1.984455461721915,-0.7386226058006287,0.6735913753509521,-0.026675378903746605,-0.8511895537376404,0.5397948026657104,-0.3387403190135956
2.5196681022644043,0.9358235001564026,-0.3231743574142456,-0.30773818492889404,-0.7327797938671621,-1.5351506203896554,-2.002599757723158,-0.7428457140922546,0.6689384579658508,-0.026490481570363045,-0.3749697208404541,0.6187917590141296,-0.31288087368011475
2.5396690368652344,0.9671542048454285,-0.2948155403137207,-0.3002249002456665,-0.7275058430062051,-1.5237366374526253,-2.0058819279687627,-0.7460086345672607,0.6650089621543884,-0.03513287380337715,0.1436864733695984,0.6794396638870239,-0.23520119488239288
2.559678077697754,1.0133309364318848,-0.3346344828605652,-0.26243990659713745,-0.7227060615671732,-1.5068149592551734,-1.9990710659966129,-0.7484842538833618,0.6614167094230652,-0.0479544997215271,0.34864091873168945,0.5539673566818237,-0.24518579244613647
2.5797119140625,0.9723024368286133,-0.37417906522750854,-0.23506957292556763,-0.7170965911121021,-1.4905921913602527,-1.9882139402081624,-0.7512943148612976,0.6571990847587585,-0.060386452823877335,0.48789656162261963,0.33615633845329285,-0.25122010707855225
2.599677085876465,0.9179724454879761,-0.3732532858848572,-0.14265680313110352,-0.7107436840478971,-1.477505945438321,-1.9750239113928192,-0.7545815110206604,0.6523975729942322,-0.07060012966394424,0.6329344511032104,0.14140567183494568,-0.2876632809638977
2.6196939945220947,0.7985114455223083,-0.31116783618927,-0.09838372468948364,-0.7023412797448352,-1.4641021878379705,-1.956970046959299,-0.7589912414550781,0.6460066437721252,-0.08128860592842102,0.7909926176071167,-0.017204029485583305,-0.4585042893886566
2.639672040939331,0.6525638699531555,-0.2543905973434448,-0.0729982927441597,-0.6884507280075692,-1.4547265089106547,-1.938729780563081,-0.7670354843139648,0.6353415250778198,-0.08943164348602295,0.7877789735794067,-0.21835027635097504,-0.7654961347579956
2.6596899032592773,0.5870733261108398,-0.19489675760269165,0.0006669759750366211,-0.6703272885134576,-1.450073078028576,-1.9207778834929898,-0.7779150605201721,0.6212424635887146,-0.09437133371829987,0.7792189121246338,-0.4622982144355774,-0.8064672946929932
2.6796770095825195,0.5349632501602173,-0.2122201919555664,0.07665025442838669,-0.6537345851190907,-1.4533615072732144,-1.9077365232000283,-0.7883508801460266,0.6081552505493164,-0.09300778806209564,0.46084997057914734,-0.6997560858726501,-0.7785366773605347
2.699676036834717,0.3437412977218628,-0.07459050416946411,0.046928770840168,-0.6361921990958846,-1.4632849264121326,-1.8989333138736948,-0.7997196316719055,0.5941368937492371,-0.08631177991628647,0.4852393865585327,-0.7842719554901123,-0.9224315881729126
2.7197141647338867,0.246709406375885,0.02055138349533081,0.10414063185453415,-0.6145627590475282,-1.4731155037923067,-1.8869879246313093,-0.8131311535835266,0.5766013264656067,-0.0796809047460556,0.6669275760650635,-0.942914605140686,-1.1300569772720337
2.739668846130371,0.28560149669647217,-1.1622905731201172e-05,0.17755776643753052,-0.5912507210024359,-1.4857396531065163,-1.8725182358235597,-0.8272427916526794,0.5573998689651489,-0.07053269445896149,0.7381488680839539,-1.1608624458312988,-1.0535296201705933
2.7597110271453857,0.23978054523468018,-0.005007147789001465,0.12969225645065308,-0.5703410628974722,-1.4999189518043539,-1.855017756995584,-0.8396036028862,0.5399191379547119,-0.05960875004529953,0.9384334087371826,-1.2070709466934204,-0.9549041390419006
2.7797529697418213,0.23827046155929565,0.024373173713684082,0.0028498172760009766,-0.5503731366642108,-1.512477005963475,-1.8309792147613329,-0.8508804440498352,0.5230053067207336,-0.04967910423874855,1.16148841381073,-1.3278990983963013,-0.9472731947898865
2.7997100353240967,0.3348654508590698,-0.0691022276878357,0.00543898344039917,-0.5301599351276032,-1.526734099925935,-1.804278181216999,-0.8618888854980469,0.5056713223457336,-0.03800133988261223,1.219300389289856,-1.5412449836730957,-0.9868848323822021
2.819706916809082,0.33508944511413574,-0.12107968330383301,0.03101206012070179,-0.5096658295081644,-1.543411400051153,-1.7780944060099664,-0.8725802898406982,0.48788556456565857,-0.023901522159576416,1.1328917741775513,-1.3790969848632812,-0.9967159628868103
2.8397750854492188,0.2607738971710205,-0.1661936640739441,-0.0364985466003418,-0.4878174741183419,-1.5580992676703207,-1.7527055155025761,-0.8832868337631226,0.46869906783103943,-0.011215747334063053,1.1223891973495483,-1.3008443117141724,-1.130446195602417
2.859692096710205,0.32079803943634033,-0.22904899716377258,-0.04925644397735596,-0.4644044808603458,-1.5731356012526427,-1.7277393694271075,-0.8940860629081726,0.44789043068885803,0.0020915165077894926,1.0832916498184204,-1.3962959051132202,-1.1808639764785767
2.8797359466552734,0.27464717626571655,-0.23604580760002136,-0.042157649993896484,-0.4397153080983019,-1.5928857849883353,-1.7053799271878696,-0.9046520590782166,0.42568185925483704,0.019986525177955627,0.9048329591751099,-1.4403748512268066,-1.3417545557022095
2.8996691703796387,0.0344853401184082,-0.19665846228599548,-0.014061454683542252,-0.41216288614944313,-1.6085339575807993,-1.685941635955467,-0.9156041741371155,0.40059202909469604,0.0345691442489624,0.7511895895004272,-0.9473357200622559,-1.46195387840271
2.9196548461914062,0.02735358476638794,-0.1781320869922638,-0.06469094753265381,-0.3832293668085071,-1.620643810115619,-1.6704627527177591,-0.926310122013092,0.37391752004623413,0.04621250927448273,0.5894486308097839,-0.8799269795417786,-1.451344609260559
2.9481019973754883,-0.03764301538467407,-0.17716556787490845,-0.055096156895160675,-0.32703743479622077,-1.641587037295183,-1.6432103115753702,-0.9446263313293457,0.3212389051914215,0.0669826939702034,0.5470084547996521,-0.7099589109420776,-1.48757004737854
2.966994047164917,-0.23111170530319214,-0.1760469377040863,-0.07195377349853516,-0.29890115728756894,-1.6505958492974162,-1.6324230641457567,-0.9526194930076599,0.29447025060653687,0.0761803537607193,0.20675864815711975,-0.49219781160354614,-1.407918095588684
2.9893360137939453,-0.40739524364471436,-0.2030295431613922,0.002871982753276825,-0.27307631383139386,-1.6572450838471147,-1.6317503067273162,-0.9593496918678284,0.2696950435638428,0.08314181119203568,-0.29429447650909424,-0.24866361916065216,-1.1738353967666626
3.0085091590881348,-0.49757570028305054,-0.14351525902748108,0.04598582535982132,-0.25251336485501247,-1.6607929419064988,-1.6367079595954555,-0.9643690586090088,0.24983841180801392,0.08702503144741058,-0.24468658864498138,0.00470410892739892,-0.8704526424407959
3.027841091156006,-0.5571549534797668,-0.011447519063949585,0.05608212947845459,-0.23805468701569016,-1.6564527213865474,-1.6376462457003607,-0.9682357311248779,0.23581261932849884,0.08313900977373123,-0.005468915682286024,0.38906988501548767,-0.5862146019935608
3.047027111053467,-0.4892611503601074,-0.1069461852312088,0.0632239580154419,-0.2297818824516243,-1.647305496848395,-1.6374853483489964,-0.9708676934242249,0.22776514291763306,0.07442555576562881,-0.1041826531291008,0.482217937707901,-0.28039681911468506
3.0668821334838867,-0.3790596127510071,-0.21585071086883545,0.05922722816467285,-0.22658888064582927,-1.6383928352627013,-1.6390473758798916,-0.9722130298614502,0.2246549129486084,0.06581848859786987,-0.08350122720003128,0.4512009918689728,-0.06011224910616875
3.08787202835083,-0.406227171421051,-0.1922055333852768,0.042379990220069885,-0.22523290555452533,-1.6292758568055168,-1.6409763674464337,-0.9730761051177979,0.22333338856697083,0.05696999281644821,-0.01717156358063221,0.5399319529533386,-0.035007890313863754
3.1078100204467773,-0.45222795009613037,-0.20064376294612885,0.07520151138305664,-0.2269866209685373,-1.6163150161639332,-1.6401148864513035,-0.973339855670929,0.225042462348938,0.044335778802633286,0.04463133588433266,0.71630859375,0.1933230459690094
3.1276378631591797,-0.5067665576934814,-0.22911690175533295,0.15086662769317627,-0.23201678653853783,-1.6021718093798187,-1.6397832942069757,-0.9727256894111633,0.2299407422542572,0.030529756098985672,0.06415004283189774,0.6693750023841858,0.3494565784931183
3.147799015045166,-0.4693818688392639,-0.25483238697052,0.24131250381469727,-0.24172217203697363,-1.5886085119466016,-1.6398425022041054,-0.9707731008529663,0.23937508463859558,0.017293419688940048,-0.0977330207824707,0.6805595755577087,0.5775455832481384
3.167490005493164,-0.4937295913696289,-0.2925657629966736,0.2713676691055298,-0.2524846168942243,-1.576999555200886,-1.6434522749135345,-0.9682762026786804,0.2498105764389038,0.006006515584886074,-0.14467447996139526,0.6202819347381592,0.5454761981964111
3.187340021133423,-0.5309746861457825,-0.21951588988304138,0.24960732460021973,-0.26382540545998173,-1.5642010429959965,-1.6477841151110713,-0.96537846326828,0.26077550649642944,-0.006367037072777748,-0.2473713457584381,0.7411611676216125,0.5321062207221985
3.2073020935058594,-0.6034676432609558,-0.20466256141662598,0.23252570629119873,-0.2771672863345818,-1.5485241227467579,-1.6533441429205664,-0.9615958333015442,0.27363213896751404,-0.021420400589704514,-0.36998215317726135,1.0391569137573242,0.8487156629562378
3.2275550365448,-0.6243376135826111,-0.21057838201522827,0.22023415565490723,-0.2978484004140893,-1.5277462683544563,-1.6623263920309173,-0.9550844430923462,0.2934640347957611,-0.04114186018705368,-0.6096047759056091,1.2475929260253906,1.224064588546753
3.24884295463562,-0.5895191431045532,-0.17216113209724426,0.17435216903686523,-0.32618407801151184,-1.5098803871686304,-1.6784216046994067,-0.9455150961875916,0.3204306662082672,-0.057668287307024,-1.0279500484466553,1.0262678861618042,1.5042939186096191
3.2663488388061523,-0.5861195921897888,-0.12675470113754272,0.18287330865859985,-0.35928833816068945,-1.497598274615951,-1.7001871394247419,-0.9336405992507935,0.3516080975532532,-0.06846299022436142,-1.1909310817718506,0.9430068731307983,1.6869993209838867
3.2861499786376953,-0.6401773691177368,-0.05013248324394226,0.15266156196594238,-0.39167421968849686,-1.4881600941898796,-1.7235631605298973,-0.9211172461509705,0.3817363679409027,-0.07629139721393585,-1.2538081407546997,0.9359263181686401,1.4163838624954224
3.3060078620910645,-0.6424654722213745,-0.06654489040374756,0.18112701177597046,-0.4229445851151381,-1.4798706581763983,-1.7529391869395174,-0.9081174731254578,0.410447359085083,-0.08279949426651001,-1.6958855390548706,1.0652414560317993,1.5317530632019043
3.3271241188049316,-0.6001182198524475,-0.2600129544734955,0.15467888116836548,-0.46060665210007706,-1.476577368831917,-1.79513830558666,-0.8918099403381348,0.4444916248321533,-0.08427492529153824,-2.548159599304199,1.0152310132980347,1.8020151853561401
3.3470280170440674,-0.5238416194915771,-0.2208104133605957,0.17925965785980225,-0.4991202990638396,-1.4854669902953528,-1.8561894038082374,-0.8748095631599426,0.47865334153175354,-0.0748286172747612,-3.0614943504333496,0.9502004981040955,1.5420695543289185
3.3667850494384766,-0.4463878273963928,-0.08872753381729126,0.15628176927566528,-0.5317377396337323,-1.4999408090036004,-1.9221897070534524,-0.859764575958252,0.5070319175720215,-0.061021219938993454,-2.856166124343872,0.8850016593933105,1.2346656322479248
3.3866970539093018,-0.3994584083557129,0.015491187572479248,0.12720966339111328,-0.5554131321120765,-1.5109450134156046,-1.9783220409530964,-0.8481612801551819,0.527294397354126,-0.05082426592707634,-2.079918622970581,0.9192286133766174,0.8812088966369629
3.4069559574127197,-0.3472503423690796,-0.02039891481399536,0.024377472698688507,-0.5734207268906432,-1.5149195757388605,-2.018742461745497,-0.8387390375137329,0.5425087809562683,-0.04691484570503235,-1.5459809303283691,0.879888117313385,0.6913822889328003
3.426949977874756,-0.33962178230285645,0.04743766784667969,0.057582974433898926,-0.5830645308588092,-1.514215721243113,-2.049855921673097,-0.8334434032440186,0.5505847334861755,-0.047207120805978775,-1.1477590799331665,0.9246749877929688,0.2412114292383194
3.448307991027832,-0.2576311230659485,-0.011399269104003906,0.10215914994478226,-0.5883918236345712,-1.5089554581535547,-2.0760579205138265,-0.8302441835403442,0.5550240278244019,-0.051408570259809494,-1.1568571329116821,1.0428866147994995,0.14649929106235504
3.464445114135742,-0.18294274806976318,-0.15708184242248535,0.10499417036771774,-0.5918529028613821,-1.5048544525658012,-2.1059935583302583,-0.8281047940254211,0.5578997135162354,-0.05468606948852539,-1.334739327430725,1.0562747716903687,0.06598874181509018
3.4862051010131836,-0.09639233350753784,-0.14789170026779175,0.11201602220535278,-0.5932639915751949,-1.5025749201487946,-2.1388957318578132,-0.8271917700767517,0.5590702295303345,-0.056519895792007446,-1.380714774131775,0.975775957107544,-0.14125019311904907
3.507209062576294,-0.06816607713699341,-0.11332648992538452,0.06404197216033936,-0.5911074718068603,-1.5012744486990275,-2.1704821736428426,-0.8283183574676514,0.5572808980941772,-0.057679206132888794,-1.1948541402816772,0.9568811058998108,-0.19461968541145325
3.5287740230560303,-0.005170285701751709,-0.1009473204612732,0.09416574239730835,-0.5878714267025796,-1.4959060005609612,-2.198284110701734,-0.8297906517982483,0.5545910596847534,-0.0622597336769104,-1.0991617441177368,1.138415813446045,-0.3375323414802551
3.5465660095214844,0.05960440635681152,-0.12289893627166748,0.08011293411254883,-0.5810950204702411,-1.4870847224347745,-2.224136541704127,-0.8329351544380188,0.5489395260810852,-0.06988966464996338,-1.0319186449050903,1.1798573732376099,-0.4764987826347351
3.5652618408203125,0.11331087350845337,-0.1365283727645874,0.0847022533416748,-0.5715085502324041,-1.4789231546459514,-2.251759707063538,-0.8375388383865356,0.5409014821052551,-0.07716457545757294,-1.2509002685546875,1.1312875747680664,-0.672163724899292
3.5851998329162598,0.09614771604537964,-0.13904500007629395,0.10259652882814407,-0.5610382277119804,-1.4736926995103277,-2.287326036222454,-0.8427144885063171,0.5320655703544617,-0.08208880573511124,-1.6731104850769043,1.3655391931533813,-0.6413953900337219
3.6052000522613525,0.13060694932937622,-0.13629108667373657,0.12940287590026855,-0.5514350566927303,-1.468929637255292,-2.3329890674353817,-0.847358226776123,0.5239101052284241,-0.08661738783121109,-2.0339980125427246,1.48603093624115,-0.690621554851532
3.6268069744110107,0.20002514123916626,-0.08890765905380249,0.05852312594652176,-0.5431916355576654,-1.463584593382923,-2.3813471419758874,-0.8511481285095215,0.5168708562850952,-0.0916043147444725,-2.011542558670044,1.5398616790771484,-0.5503435730934143
3.6461801528930664,0.23693549633026123,-0.09250533580780029,0.017950065433979034,-0.5360908789472654,-1.4585953495703845,-2.4292661559955575,-0.8543061017990112,0.5107792019844055,-0.0962582528591156,-1.9922888278961182,1.4352461099624634,-0.5979651212692261
3.6659440994262695,0.25189781188964844,0.0017102956771850586,0.04726792126893997,-0.5291208969279279,-1.4547272693558264,-2.4771945889603875,-0.8574427962303162,0.5047746300697327,-0.09997192025184631,-2.0368683338165283,1.423462986946106,-0.5705183744430542
3.6839780807495117,0.23588865995407104,0.0372830331325531,0.054524704813957214,-0.5233278663644952,-1.4510463689472914,-2.5267516958659413,-0.8599579930305481,0.4997653663158417,-0.10347501933574677,-2.1645827293395996,1.4209277629852295,-0.5090635418891907
3.7061610221862793,0.22611838579177856,0.12676027417182922,0.028803057968616486,-0.5179808947750042,-1.4476584201025953,-2.5775076548593394,-0.8622420430183411,0.4951269030570984,-0.10671459138393402,-2.1507837772369385,1.4294636249542236,-0.5460361242294312
3.725849151611328,0.25830698013305664,0.24474015831947327,-0.032447442412376404,-0.513509337822304,-1.444848908303719,-2.6272709098305267,-0.8641265630722046,0.49123698472976685,-0.10941366106271744,-2.0667378902435303,1.3268555402755737,-0.37073999643325806
3.744810104370117,0.256519079208374,0.3361186683177948,-0.13617104291915894,-0.5146206769911658,-1.4402382153443527,-2.6723454791558225,-0.8630712032318115,0.4922046959400177,-0.1133255735039711,-1.8252339363098145,1.399045705795288,0.004094900097697973
3.7646970748901367,0.2570335865020752,0.4026114046573639,-0.14783215522766113,-0.5234307041458273,-1.4289097168865748,-2.711143085736372,-0.8574059009552002,0.4998544454574585,-0.12247741967439651,-1.6609318256378174,1.6243209838867188,0.38167282938957214
3.785778045654297,0.3646674156188965,0.3194611668586731,-0.1851521134376526,-0.5382109019416048,-1.412544272458672,-2.7443532157308455,-0.847898006439209,0.5126006603240967,-0.13531307876110077,-1.3915659189224243,1.6852625608444214,0.6919559240341187
3.8055670261383057,0.5140933990478516,0.1400080919265747,-0.2116651087999344,-0.5583370945133973,-1.3929312376575465,-2.7686368383850932,-0.8347569108009338,0.5297765731811523,-0.15005989372730255,-0.9434443116188049,1.4978057146072388,0.8991534113883972
3.8256211280822754,0.6188518404960632,-0.046546220779418945,-0.2214120775461197,-0.578726538964745,-1.3720472450638919,-2.778938787752508,-0.8206799626350403,0.5469582676887512,-0.16529154777526855,-0.3287294805049896,1.121138572692871,0.9252978563308716
3.8455419540405273,0.6260091662406921,-0.16967791318893433,-0.1569206714630127,-0.5948804684462703,-1.3506641472886374,-2.7785277539101645,-0.8082296252250671,0.5604097843170166,-0.18084801733493805,-0.0525701567530632,1.0567456483840942,0.6365907788276672
3.8654260635375977,0.6098161935806274,-0.33350300788879395,-0.0950545072555542,-0.6046116620539587,-1.3292670835666294,-2.778925901754871,-0.7988420724868774,0.5684426426887512,-0.19678527116775513,-0.3033686876296997,1.027803897857666,0.35229477286338806
3.8861541748046875,0.6621302366256714,-0.4214446544647217,-0.028322488069534302,-0.6115713782277753,-1.315949703524831,-2.789237025853564,-0.7923030257225037,0.5741547346115112,-0.20640364289283752,-0.7275272607803345,0.8557657599449158,0.12540335953235626
3.9054131507873535,0.6710795164108276,-0.3819084167480469,-0.02074858546257019,-0.6159941313312433,-1.3137380714842744,-2.809923214896772,-0.7893807291984558,0.5777702331542969,-0.20750772953033447,-0.9356182813644409,0.5660316944122314,-0.12454086542129517
3.925485134124756,0.6444316506385803,-0.26310259103775024,-0.036316484212875366,-0.6159557694012517,-1.3163394286541725,-2.831381118406628,-0.7899395823478699,0.577738881111145,-0.20545920729637146,-0.7119275331497192,0.40981432795524597,-0.33865097165107727
3.945266008377075,0.610564649105072,-0.11606764793395996,0.012334123253822327,-0.6102451438277882,-1.316567252643163,-2.845328634851474,-0.79316645860672,0.573068380355835,-0.20610560476779938,-0.29936420917510986,0.4024738371372223,-0.46280744671821594
3.964184045791626,0.5424490571022034,0.035590410232543945,0.04198075830936432,-0.6004463345218143,-1.3126478778674304,-2.8522089767401555,-0.7977437973022461,0.5650107860565186,-0.2106362134218216,-0.042971763759851456,0.3983234763145447,-0.6451596617698669
3.983860969543457,0.4542894959449768,0.0753985047340393,0.05198389291763306,-0.5879265895367065,-1.306909941086783,-2.857156300923594,-0.803288459777832,0.5546369552612305,-0.2170383334159851,-0.057461224496364594,0.4014807641506195,-0.6447822451591492
4.005234956741333,0.40910911560058594,0.018109440803527832,0.05800354480743408,-0.5757716120466457,-1.30430258404689,-2.864349151100881,-0.8091639876365662,0.5444821715354919,-0.22089122235774994,-0.21839739382266998,0.23780056834220886,-0.7211710214614868
4.024971961975098,0.33687537908554077,0.04403632879257202,0.0504300594329834,-0.5619141548780404,-1.306790660299747,-2.8749514167095764,-0.816916823387146,0.5328069925308228,-0.22082510590553284,-0.2805623412132263,0.1228620857000351,-0.8534309267997742
4.04544997215271,0.27584052085876465,0.028276562690734863,0.06548453867435455,-0.5457642543774289,-1.311736990464557,-2.888770307130916,-0.8262096643447876,0.5190714597702026,-0.2189575880765915,-0.4624353349208832,0.13137665390968323,-1.0194001197814941
4.0639259815216064,0.26634180545806885,0.012390673160552979,0.0880327820777893,-0.5279733136723125,-1.317106484207117,-2.905172629155229,-0.8361812829971313,0.503783643245697,-0.21680179238319397,-0.38883519172668457,0.1679202765226364,-1.0207027196884155
4.083752155303955,0.28611093759536743,0.007686913013458252,0.06280429661273956,-0.5102456363825385,-1.319111591888942,-2.915752432562107,-0.8451318144798279,0.48839160799980164,-0.21731489896774292,-0.02757183462381363,0.1439453512430191,-0.9581043124198914
4.1047821044921875,0.2618539333343506,0.024435698986053467,0.006106764078140259,-0.48987295180432205,-1.3174712882198194,-2.9172072967064215,-0.8542307615280151,0.47051379084587097,-0.2211490422487259,0.40933698415756226,0.08165587484836578,-1.0584629774093628
4.12490701675415,0.23194372653961182,0.011657238006591797,-0.037985265254974365,-0.4660962611192734,-1.3146869745609524,-2.9106015637145193,-0.8641916513442993,0.449402391910553,-0.22629709541797638,0.6660524606704712,-0.12474904954433441,-1.1066757440567017
4.144650936126709,0.18883639574050903,-0.04467138648033142,-0.03094927966594696,-0.4401385871390466,-1.3160560067961284,-2.9035708004200256,-0.8754971027374268,0.4260648488998413,-0.2279772162437439,0.6215811967849731,-0.31135860085487366,-1.3014299869537354
4.1645519733428955,0.08830100297927856,-0.058648526668548584,-0.0006599873304367065,-0.40885780477944594,-1.3162057588672635,-2.895623009883308,-0.8879988193511963,0.39756155014038086,-0.23109064996242523,0.7109966278076172,0.00040718738455325365,-1.4520343542099
4.183182001113892,0.055217862129211426,-0.13062021136283875,0.11857248842716217,-0.37922267771330676,-1.3122111000350878,-2.894582651382625,-0.8980675339698792,0.37019848823547363,-0.23754534125328064,0.2064460813999176,0.3650560677051544,-1.4457371234893799
4.204316139221191,0.0002452731132507324,-0.16108790040016174,0.11148488521575928,-0.3492676755253428,-1.3044647024029234,-2.899001186206194,-0.906495213508606,0.3422097861766815,-0.24730347096920013,0.300339013338089,0.47569549083709717,-1.5697418451309204
4.2245800495147705,-0.09660273790359497,0.0459655225276947,-0.02153715491294861,-0.3131946339856455,-1.2974432797295132,-2.8976288251668483,-0.9160314798355103,0.3080994188785553,-0.25682899355888367,0.7739763259887695,0.17479096353054047,-1.9787802696228027
4.244103908538818,-0.2283293604850769,0.132045179605484,-0.03158387541770935,-0.2666732552246967,-1.2915852157621666,-2.8909057810803604,-0.9272950887680054,0.26352375745773315,-0.2658558785915375,1.0128525495529175,0.33443015813827515,-2.2036821842193604
4.264020919799805,-0.2516798973083496,0.03679320216178894,0.06831744313240051,-0.22301598480487456,-1.2804501938991835,-2.8873645161754857,-0.9344162344932556,0.22117191553115845,-0.27919402718544006,0.3683459460735321,0.6974892616271973,-1.8908895254135132
4.2839930057525635,-0.12866204977035522,-0.061397477984428406,0.2541654407978058,-0.19111409628512266,-1.265579771124241,-2.900884581700535,-0.9364166259765625,0.1899528205394745,-0.29502859711647034,-0.6554970145225525,0.9592586755752563,-1.5311436653137207
4.303810119628906,0.06137603521347046,-0.08946308493614197,0.2839333713054657,-0.17064285803419185,-1.2523642665853598,-2.9241652907819105,-0.9359334707260132,0.16981589794158936,-0.30853062868118286,-0.7940874099731445,0.7529974579811096,-1.1600511074066162
4.324243068695068,0.10717380046844482,0.005659148097038269,0.19064998626708984,-0.15065663737445015,-1.2461340571198982,-2.9433209244955565,-0.9370230436325073,0.150087371468544,-0.3153754472732544,-0.18991999328136444,0.17616942524909973,-1.4243007898330688
4.344171047210693,-0.06783449649810791,0.09185770153999329,0.11694565415382385,-0.11870227180972884,-1.2454202582526273,-2.948533141225521,-0.9408628940582275,0.1184237077832222,-0.31741568446159363,0.7127576470375061,0.04996533319354057,-1.8009154796600342
4.36393404006958,-0.23732304573059082,0.07560832053422928,0.19875258207321167,-0.0745003034034987,-1.2412187367708822,-2.9423528448883127,-0.9435545802116394,0.0744314044713974,-0.3227456510066986,1.3016704320907593,0.2627294361591339,-2.101048469543457
4.383756160736084,-0.19984006881713867,-0.07870376110076904,0.20731651782989502,-0.02716296338246853,-1.236597336001175,-2.92359723425882,-0.9443249702453613,0.02715962380170822,-0.32789161801338196,2.075582981109619,0.13305027782917023,-1.796434998512268
4.403730869293213,-0.4827747941017151,0.12248454988002777,0.08731779456138611,0.02748674668022312,-1.2321186881035944,-2.8905437222791743,-0.9428385496139526,-0.02748328633606434,-0.33211463689804077,2.6826131343841553,0.3066438138484955,-2.3973968029022217
4.423616886138916,-0.9271818399429321,0.37753358483314514,-0.0033881962299346924,0.09068575446347187,-1.2222940155769733,-2.861758599534424,-0.9360232353210449,-0.09056150913238525,-0.340087354183197,1.8586790561676025,0.8470985293388367,-2.336149215698242
4.445105075836182,-0.5348278880119324,0.023317277431488037,0.5662797689437866,0.12280781991132045,-1.20227381957651,-2.866312708342564,-0.9258348941802979,-0.12249936163425446,-0.35752445459365845,-1.3806071281433105,1.1338870525360107,-0.7437353730201721
4.459943056106567,-0.36446791887283325,-0.07987374812364578,0.6962184906005859,0.10742070495115891,-1.1741004351259212,-2.9048350418871034,-0.9170262813568115,-0.10721423476934433,-0.3841458857059479,-2.3446545600891113,1.1196376085281372,0.4916900098323822
4.483468055725098,-0.4492226243019104,0.5824443101882935,0.45939093828201294,0.08806646326082432,-1.1532238007811626,-2.9329487535946552,-0.9105337858200073,-0.08795267343521118,-0.4039711654186249,-0.7225047945976257,0.652446448802948,0.10770292580127716
4.503587961196899,-0.3368844985961914,0.6770538091659546,0.24183791875839233,0.09985755544277511,-1.1512794560312667,-2.9230620703282835,-0.9087362289428711,-0.09969168156385422,-0.4052901864051819,1.7649489641189575,0.020242322236299515,-0.04753914475440979
4.525053977966309,-0.5120607614517212,0.37521615624427795,0.0017015337944030762,0.11242177567776182,-1.147611833251595,-2.887979425606238,-0.906029999256134,-0.11218511313199997,-0.4080737233161926,2.404296398162842,-0.6910053491592407,-0.2301686704158783
4.543732166290283,-0.1824471354484558,-0.100009486079216,0.7207910418510437,0.11720811722825332,-1.1572296036302026,-2.870990195312126,-0.9094107151031494,-0.11693993955850601,-0.39912062883377075,0.06172793731093407,-0.26196974515914917,0.7475388050079346
4.5632829666137695,-0.4367179274559021,-0.2915312349796295,0.40631920099258423,0.1002073991941431,-1.1666192593938003,-2.8628536537324387,-0.9148139953613281,-0.1000397801399231,-0.39128947257995605,-0.17942504584789276,-0.2850345969200134,1.072887897491455
4.583179950714111,-0.5604152679443359,0.09271399676799774,0.40173327922821045,0.08383998039730318,-1.171150064241853,-2.8526421163292794,-0.9179629683494568,-0.08374179154634476,-0.387725830078125,0.6404512524604797,-0.21302483975887299,0.7935277223587036
4.603360176086426,-0.44543737173080444,0.04211636632680893,0.15504416823387146,0.07600295082224703,-1.181923068499772,-2.829043139429377,-0.922665536403656,-0.07592979818582535,-0.3780515193939209,1.141952395439148,-0.6740733981132507,0.8850556015968323
4.623155117034912,-0.415469765663147,-0.18654337525367737,0.25414058566093445,0.06502829061449768,-1.1987679894916718,-2.800525522659031,-0.9296228885650635,-0.06498246639966965,-0.3627374470233917,1.0371248722076416,-0.7208174467086792,1.1851725578308105
4.643133163452148,-0.6084008812904358,-0.21552743017673492,0.19450002908706665,0.04903381976114742,-1.2137840399017155,-2.772844376309382,-0.9358190298080444,-0.049014173448085785,-0.3490564525127411,1.086512804031372,-0.6147385835647583,1.289062738418579
4.663094997406006,-0.656321108341217,-0.07777953147888184,-0.00043955445289611816,0.031631230104528486,-1.2288731153006538,-2.740802947803867,-0.9416401982307434,-0.031625956296920776,-0.33513185381889343,1.3115607500076294,-0.7712984085083008,1.446305513381958
4.68359899520874,-0.6214250326156616,-0.032232437282800674,0.05521473288536072,0.008859581184355843,-1.2432484568172157,-2.707863108686305,-0.9467968940734863,-0.008859464898705482,-0.3217095732688904,0.9947941899299622,-0.48930731415748596,1.81094491481781
4.7043609619140625,-0.7528687119483948,-0.17014998197555542,0.07033637166023254,-0.02604892973073273,-1.2503117538701036,-2.6830510959892915,-0.9487608671188354,0.026045983657240868,-0.3149196207523346,0.20927920937538147,-0.18639571964740753,2.2734692096710205
4.722031116485596,-0.7349377870559692,-0.23223981261253357,0.14180931448936462,-0.07387498501812789,-1.2518532074660818,-2.670119194265417,-0.9469773173332214,0.07380780577659607,-0.31270790100097656,-0.17844367027282715,-0.07258419692516327,2.649271011352539
4.739629030227661,-0.7258509397506714,-0.1544429063796997,0.016729354858398438,-0.12430625110085701,-1.2515573378359155,-2.6478381355311167,-0.9421483278274536,0.1239863708615303,-0.3114224374294281,0.878827691078186,-0.15563613176345825,2.7953269481658936
4.762799978256226,-0.7512256503105164,-0.011459127068519592,-0.04620194435119629,-0.16848994009130164,-1.2478335101466103,-2.6038860175400376,-0.9348705410957336,0.1676938682794571,-0.31288325786590576,1.6143211126327515,-0.11607690155506134,2.7583861351013184
4.782974004745483,-0.7900265455245972,-0.21173562109470367,0.10939586162567139,-0.21171144337851186,-1.2407131027059242,-2.5577239394865665,-0.9248934388160706,0.21013343334197998,-0.3168850243091583,1.077927827835083,-0.022779090330004692,2.8656704425811768
4.800642967224121,-0.7886587381362915,-0.4360106289386749,0.20985400676727295,-0.2627382827839607,-1.2350567560067789,-2.530982407158094,-0.911765456199646,0.2597258388996124,-0.3181610405445099,-0.25536486506462097,-0.01718219183385372,2.7978978157043457
4.821575164794922,-0.6572898030281067,-0.4362705945968628,0.2188795804977417,-0.3189712975932523,-1.2346712880612756,-2.5250513489573114,-0.8964211344718933,0.3135899007320404,-0.31319430470466614,-0.922997772693634,-0.11050095409154892,2.67192006111145
4.8425750732421875,-0.5663110017776489,-0.26253542304039,0.15752679109573364,-0.3721889866288957,-1.2376921532712934,-2.526500376202342,-0.8803289532661438,0.3636554181575775,-0.3045911192893982,-0.8762204051017761,-0.19045579433441162,2.278991937637329
4.86225700378418,-0.48998206853866577,-0.18537461757659912,0.06715553998947144,-0.4170894911114575,-1.2412515572923166,-2.526388846880808,-0.8650746941566467,0.4051011800765991,-0.2958696484565735,-0.6908634305000305,-0.1421235054731369,2.0366904735565186
4.88159704208374,-0.42586737871170044,-0.19089698791503906,0.029794365167617798,-0.45753310310978695,-1.2470746695142805,-2.5306194502134254,-0.8505456447601318,0.44173628091812134,-0.28537923097610474,-1.0110716819763184,-0.2015744149684906,1.7272300720214844
4.902147054672241,-0.36438971757888794,-0.2004435658454895,0.023244261741638184,-0.4970749767367908,-1.2566836454661197,-2.5448724897449555,-0.8359734416007996,0.476856529712677,-0.27158117294311523,-1.3620463609695435,-0.11617472767829895,1.6154693365097046
4.92214298248291,-0.29057151079177856,-0.13487106561660767,-0.04145926237106323,-0.5347688593452947,-1.26853734681641,-2.5649806874311345,-0.8213822245597839,0.5096421837806702,-0.2561177611351013,-1.4101519584655762,-0.09889063984155655,1.41270112991333
4.9423298835754395,-0.21476846933364868,-0.04972594976425171,-0.09261812269687653,-0.5674376775087506,-1.281514451426122,-2.5856281615591743,-0.8082416653633118,0.5374730825424194,-0.2405576854944229,-1.2354377508163452,-0.10686058551073074,1.2560575008392334
4.961137056350708,-0.14554208517074585,-0.08235824108123779,-0.09495154023170471,-0.5964365195800323,-1.2925793989991363,-2.6041670080825785,-0.7955283522605896,0.5616978406906128,-0.22722263634204865,-1.0846288204193115,0.028238995000720024,1.0912549495697021
4.981811046600342,-0.0645674467086792,-0.08750391006469727,-0.10435539484024048,-0.6224758049806669,-1.3023909676319272,-2.6219138391821755,-0.7833481431007385,0.583048403263092,-0.21545372903347015,-1.0705779790878296,0.011691977269947529,1.0614749193191528
5.001996040344238,0.003859996795654297,-0.1091766357421875,-0.08713947236537933,-0.6475010705309004,-1.3152013493171584,-2.642281685545344,-0.7716822028160095,0.6031951904296875,-0.20164848864078522,-1.1420676708221436,-0.061369895935058594,0.940117597579956
5.021249055862427,0.00438690185546875,-0.05486983060836792,-0.10006318986415863,-0.6701364607129885,-1.3309336188956002,-2.665944322393501,-0.7612990736961365,0.6210929155349731,-0.18619181215763092,-1.2132951021194458,-0.03926033154129982,0.8101290464401245
5.042093992233276,0.0988200306892395,-0.0928310751914978,-0.07345296442508698,-0.6907854059251692,-1.3455173493756794,-2.688418971311952,-0.7512706518173218,0.6371427178382874,-0.17216792702674866,-0.9549723863601685,-0.012160358019173145,0.7959219217300415
5.0616819858551025,0.19137322902679443,-0.04836052656173706,-0.11323340237140656,-0.7092513945816021,-1.3585337676946936,-2.706114110375373,-0.7418187856674194,0.6512658596038818,-0.15986858308315277,-0.7803295254707336,-0.14970730245113373,0.6998704671859741
5.081568002700806,0.22139501571655273,-0.08465993404388428,-0.15236569941043854,-0.7251638470113109,-1.3705357632846364,-2.720905523616974,-0.7334342002868652,0.6632580757141113,-0.1488734483718872,-0.6947627663612366,-0.06965037435293198,0.6516852974891663
5.1016600131988525,0.3141048550605774,-0.11326003074645996,-0.11908824741840363,-0.7394935687032288,-1.383421564772746,-2.7361459191960154,-0.7258785367012024,0.673913836479187,-0.13762575387954712,-0.6109337210655212,-0.2172357439994812,0.5887876749038696
5.120757102966309,0.4027264714241028,-0.03594791889190674,-0.15352849662303925,-0.7535302032887717,-1.3953278737000228,-2.745108670262852,-0.7180797457695007,0.6842175126075745,-0.1273096203804016,-0.27094224095344543,-0.40722858905792236,0.5868564248085022
5.1414971351623535,0.3328826427459717,0.11844170093536377,-0.30391329526901245,-0.7628595147972798,-1.4035804192909958,-2.745110489012999,-0.7127807140350342,0.6909912824630737,-0.12031172215938568,0.198036789894104,-0.34910112619400024,0.4758995771408081
5.1606831550598145,0.3261774182319641,0.05108523368835449,-0.3972921371459961,-0.7691536054060084,-1.4025052069441275,-2.735170015332639,-0.7083490490913391,0.6955273747444153,-0.12034716457128525,0.3574793338775635,-0.2892874777317047,0.28318607807159424
5.180341005325317,0.3671671748161316,-0.0994219183921814,-0.396012544631958,-0.7738286716988836,-1.3979669779382233,-2.723529453214801,-0.7045847177505493,0.6988787651062012,-0.12300003319978714,0.3988858759403229,-0.08460144698619843,0.3502158224582672
5.201557159423828,0.4672966003417969,-0.22056639194488525,-0.32868754863739014,-0.7785612264508589,-1.3880459889195906,-2.7082147771599363,-0.7000693082809448,0.7022558450698853,-0.1293814778327942,0.5876197814941406,-0.0210160780698061,0.2797350585460663
5.221762180328369,0.5560832023620605,-0.2869179844856262,-0.29240965843200684,-0.7811670319371857,-1.3764444182370528,-2.6913272011260516,-0.696723461151123,0.7041085958480835,-0.13714063167572021,0.5277093052864075,-0.02594727650284767,0.22141315042972565
5.24208402633667,0.6577416062355042,-0.38691985607147217,-0.23755677044391632,-0.783592184622363,-1.367204815751126,-2.675973957433679,-0.6937523484230042,0.7058286070823669,-0.1432264745235443,0.5848066806793213,-0.07757371664047241,0.2626049816608429
5.262907981872559,0.6941025257110596,-0.4010576009750366,-0.17902147769927979,-0.7849831481333077,-1.3529731514136454,-2.654567913140634,-0.6906845569610596,0.7068132758140564,-0.15287256240844727,0.8756170868873596,-0.00686883507296443,0.16681277751922607
5.283193111419678,0.7074601054191589,-0.42766159772872925,-0.10118472576141357,-0.7832701467194916,-1.3327692523854744,-2.627126967614525,-0.6886307597160339,0.7056004405021667,-0.16708014905452728,1.0311627388000488,0.04638444632291794,0.10641402006149292
5.30157995223999,0.7517839074134827,-0.48669272661209106,-0.07713967561721802,-0.7787939478908351,-1.3132843786367685,-2.5964566747695126,-0.6882920265197754,0.7024214863777161,-0.18126802146434784,1.1849929094314575,-0.27930712699890137,-0.02897806651890278
5.321287155151367,0.741544783115387,-0.47287487983703613,-0.010734379291534424,-0.7707529411861886,-1.2970372171744793,-2.563020562153188,-0.690671980381012,0.6966755986213684,-0.1939471811056137,1.3159533739089966,-0.34301480650901794,-0.06561458110809326
5.341315031051636,0.7115180492401123,-0.5249535441398621,0.06794556975364685,-0.7600674479436108,-1.2818021076016433,-2.5292594789667553,-0.6947333812713623,0.6889703273773193,-0.20655657351016998,1.3597747087478638,-0.5337775945663452,-0.32672545313835144
5.361270904541016,0.680718719959259,-0.4158481955528259,0.03033539652824402,-0.7432881169466113,-1.2699499628319575,-2.4939845222006607,-0.7031795978546143,0.6767124533653259,-0.21817120909690857,1.493614912033081,-0.7008848190307617,-0.5373080968856812
5.381006956100464,0.665908694267273,-0.43537431955337524,0.12946629524230957,-0.7224434065480143,-1.2636010564707496,-2.4616030537442968,-0.715072512626648,0.6612196564674377,-0.22684799134731293,1.4323720932006836,-0.9038422107696533,-0.7734973430633545
5.400979995727539,0.6067861914634705,-0.28785067796707153,0.11028099060058594,-0.6992048738235898,-1.267129578619796,-2.435604051183034,-0.730336606502533,0.643609344959259,-0.2288571447134018,1.0919654369354248,-1.1108697652816772,-0.8336081504821777
5.420897960662842,0.45211511850357056,-0.17305314540863037,0.09944386780261993,-0.6764654519669563,-1.2781659224782083,-2.4170051413761415,-0.7466402053833008,0.6260407567024231,-0.22494752705097198,1.0554219484329224,-1.1965538263320923,-0.967004656791687
5.440465927124023,0.32394230365753174,0.11808383464813232,-0.026315510272979736,-0.6492864311901263,-1.2873759585063582,-2.3942988939199545,-0.7647382020950317,0.6046181917190552,-0.22273854911327362,1.4408600330352783,-1.0662411451339722,-1.1034541130065918
5.459882020950317,0.3961406946182251,0.12296485900878906,-0.02623724937438965,-0.6180076475420749,-1.291512457473333,-2.3629052198411533,-0.7834545373916626,0.5794124603271484,-0.2246784120798111,1.7912482023239136,-1.3156806230545044,-1.20147705078125
5.480677127838135,0.46557992696762085,0.0763130784034729,-0.00836704671382904,-0.5841730192337007,-1.3052733262918377,-2.3324794255388137,-0.8049353957176208,0.5515097379684448,-0.21889746189117432,1.5344293117523193,-1.7915560007095337,-1.4312772750854492
5.50068998336792,0.24556595087051392,0.04633355140686035,-0.004187107086181641,-0.5466502510366481,-1.3307649388974727,-2.305515973656161,-0.8297792077064514,0.5198285579681396,-0.2030884325504303,1.5756524801254272,-2.198314905166626,-1.6685750484466553
5.520419120788574,0.05819612741470337,0.06236514449119568,0.06662352383136749,-0.5054538326515595,-1.3650749637806168,-2.282733224144716,-0.8565053939819336,0.48420456051826477,-0.17872995138168335,1.2139726877212524,-2.3509280681610107,-1.826694130897522
5.540506839752197,-0.07930552959442139,0.03070768713951111,0.029359817504882812,-0.4645511128316396,-1.4069126627923092,-2.2668139332108983,-0.8820439577102661,0.4480215311050415,-0.14586077630519867,1.0488643646240234,-2.4836771488189697,-1.936475157737732
5.560969829559326,-0.31136202812194824,0.15114331245422363,-0.057180389761924744,-0.4222349940999586,-1.444286623958288,-2.245219003424849,-0.904885470867157,0.4098001718521118,-0.11509144306182861,1.4745514392852783,-2.1961987018585205,-1.994883418083191
5.579668998718262,-0.4670161008834839,0.16480159759521484,-0.10107558220624924,-0.3794892835467199,-1.4745480060635356,-2.218273995084919,-0.9245549440383911,0.3704461455345154,-0.08926266431808472,1.4743691682815552,-1.8791455030441284,-1.9397871494293213
5.600193977355957,-0.5241137742996216,0.09861737489700317,-0.11613578349351883,-0.3413534188484181,-1.4983347307786157,-2.1917898417252193,-0.9398298859596252,0.33476272225379944,-0.06822101771831512,1.3008304834365845,-1.5002301931381226,-1.7429155111312866
5.62001895904541,-0.5376210808753967,0.15072518587112427,-0.09887201339006424,-0.30743343097407677,-1.516877241879552,-2.1667249814482283,-0.9517284631729126,0.30261340737342834,-0.051366113126277924,1.2593694925308228,-1.1772289276123047,-1.508398175239563
5.640921115875244,-0.49457716941833496,0.14235633611679077,-0.0665128231048584,-0.28068733596027184,-1.5298134022784282,-2.1417805226313025,-0.9600584506988525,0.27701616287231445,-0.03936804458498955,1.2116392850875854,-0.828018307685852,-1.05265212059021
5.6596999168396,-0.4552748203277588,0.14357808232307434,-0.031339287757873535,-0.26316603745311146,-1.5363368087085296,-2.1207941194511966,-0.9649980068206787,0.2601388990879059,-0.03326653689146042,0.8725782632827759,-0.4195505678653717,-0.6351017951965332
5.680039882659912,-0.3641875386238098,0.07178789377212524,-0.00967847928404808,-0.25424550426272924,-1.5377500755263054,-2.1053441462213294,-0.9673249125480652,0.2515152394771576,-0.03197810426354408,0.7085199952125549,-0.1992865651845932,-0.24596622586250305
5.700088024139404,-0.2659204602241516,0.026392683386802673,0.006118357181549072,-0.2513303102441899,-1.5378811275127842,-2.0921101680815806,-0.9680578112602234,0.24869269132614136,-0.03187532722949982,0.5830865502357483,-0.12826333940029144,-0.007941174320876598
5.719667911529541,-0.2748401165008545,-0.07836839556694031,0.010485295206308365,-0.25176547072007643,-1.5367236751373823,-2.0802032598644575,-0.9679120182991028,0.24911415576934814,-0.03299209475517273,0.5507078766822815,-0.01608097553253174,0.08533672988414764
5.739727020263672,-0.2847438454627991,-0.06586644053459167,0.03821616992354393,-0.2534938242561428,-1.5328856014958157,-2.0696704296867297,-0.967346727848053,0.2507876455783844,-0.03669039532542229,0.47976383566856384,0.08944270014762878,0.11906599998474121
5.759801864624023,-0.2615703344345093,-0.13360720872879028,0.029017150402069092,-0.2570807990351644,-1.528189915543303,-2.0623675568682764,-0.966258704662323,0.2542583644390106,-0.04119374603033066,0.2401476353406906,0.19899937510490417,0.2774848937988281
5.779703140258789,-0.310327410697937,-0.16896426677703857,0.011776022613048553,-0.26377888007286276,-1.5218310027584998,-2.058234547926249,-0.96425461769104,0.2607305645942688,-0.04725281149148941,0.1201581209897995,0.332234650850296,0.37774303555488586
5.800970077514648,-0.4242039918899536,-0.15562322735786438,0.016661353409290314,-0.27261970040921907,-1.5124746825464204,-2.0571443011227672,-0.9614313244819641,0.26925531029701233,-0.05613591521978378,-0.0766889676451683,0.6055020689964294,0.548684298992157
5.8211510181427,-0.5136687755584717,-0.17433923482894897,0.02865993231534958,-0.2850406734307759,-1.499131462746402,-2.061165651266926,-0.9571870565414429,0.2811964750289917,-0.06871435791254044,-0.39215901494026184,0.8434725403785706,0.6867502331733704
5.839709043502808,-0.49158740043640137,-0.1666528880596161,0.07058954238891602,-0.3024374175937326,-1.4818680125117867,-2.06999349646107,-0.9508411884307861,0.2978478670120239,-0.08478031307458878,-0.6084787845611572,1.1353940963745117,0.9622752666473389
5.859668970108032,-0.4638568162918091,-0.17084220051765442,0.07853394746780396,-0.32455061143012165,-1.4602785458701817,-2.082018222434226,-0.9420117735862732,0.31888288259506226,-0.10453499853610992,-0.7247000932693481,1.378903865814209,1.1433485746383667
5.879770994186401,-0.4330706000328064,-0.18248552083969116,0.10464650392532349,-0.3515633456440627,-1.4350235267463458,-2.0959245392815027,-0.9301954507827759,0.3443659543991089,-0.12707705795764923,-0.9089893102645874,1.640592336654663,1.3526067733764648
5.899673938751221,-0.4650998115539551,-0.20305359363555908,0.15180592238903046,-0.3820657995046893,-1.4040544113069482,-2.1116139698794543,-0.9150272607803345,0.3728381097316742,-0.1540032923221588,-0.9992001056671143,1.9627454280853271,1.4241427183151245
5.919679164886475,-0.3964013457298279,-0.17374667525291443,0.08421260118484497,-0.4119207395131984,-1.3726810734944799,-2.124984552659242,-0.8984290361404419,0.40037015080451965,-0.18035835027694702,-0.8057265877723694,1.6911628246307373,1.3249517679214478
5.93966817855835,-0.31405842304229736,-0.20627272129058838,0.15054279565811157,-0.4404708546677622,-1.3449986712322484,-2.137441801948688,-0.8815897703170776,0.4263654351234436,-0.20251436531543732,-0.9143921136856079,1.6353118419647217,1.2100435495376587
5.959668159484863,-0.3066369891166687,-0.29795289039611816,0.19789564609527588,-0.4683454194927929,-1.3192358957510208,-2.1534373199070735,-0.8642309904098511,0.4514105021953583,-0.22211147844791412,-1.1760181188583374,1.638040542602539,1.20008385181427
5.979804039001465,-0.26189106702804565,-0.3111773133277893,0.19173765182495117,-0.49876037800771533,-1.2960560798020964,-2.1755057455363325,-0.8452409505844116,0.47833728790283203,-0.23824654519557953,-1.5070621967315674,1.743204116821289,1.2311718463897705
5.999670028686523,-0.2606379985809326,-0.24232369661331177,0.15566927194595337,-0.5300404834369405,-1.2747522611669326,-2.203575321718321,-0.8252537250518799,0.505568265914917,-0.2517082095146179,-1.6147924661636353,1.7510740756988525,1.0846476554870605
6.019681930541992,-0.19308710098266602,-0.20054399967193604,0.08858820796012878,-0.5587943161160568,-1.2525210520005898,-2.2273861469439966,-0.8053106665611267,0.5301643013954163,-0.26533082127571106,-1.1779464483261108,1.716964840888977,1.0427169799804688
6.0397138595581055,-0.11599820852279663,-0.1425008773803711,0.05339103937149048,-0.5828966706781588,-1.2276815422936138,-2.24236992902916,-0.7862082123756409,0.5504446029663086,-0.28086918592453003,-0.8501579165458679,1.5381824970245361,0.7979498505592346
6.058750152587891,-0.09522920846939087,-0.17707079648971558,0.09059733152389526,-0.6014631437090289,-1.2049513986109213,-2.255204135211543,-0.7699441313743591,0.5658494234085083,-0.2949584126472473,-0.8532729744911194,1.511941909790039,0.6288124918937683
6.0810019969940186,-0.06999784708023071,-0.29430705308914185,0.13546457886695862,-0.6199246928999615,-1.1847030767482443,-2.2727980418614235,-0.7540072798728943,0.5809738636016846,-0.3065004348754883,-1.1767854690551758,1.5345654487609863,0.556995153427124
6.099787950515747,-0.03439205884933472,-0.28636330366134644,0.14785796403884888,-0.6393021193753912,-1.1668259106976744,-2.296931745557855,-0.7379162907600403,0.5966355204582214,-0.3154453933238983,-1.3428500890731812,1.687402367591858,0.49366506934165955
6.120100021362305,0.02883976697921753,-0.21859300136566162,0.09913277626037598,-0.6577513863353518,-1.1479853334725436,-2.321492330665883,-0.7216802835464478,0.6113389134407043,-0.3247188925743103,-1.1381900310516357,1.695312738418579,0.4676772654056549
6.139758110046387,0.07262927293777466,-0.16908258199691772,0.12871280312538147,-0.6754441712417865,-1.1251021982952774,-2.3414649525634132,-0.7041904330253601,0.6252440214157104,-0.3364308178424835,-1.0704786777496338,1.8457882404327393,0.4299987852573395
6.1597208976745605,0.08392167091369629,-0.19318538904190063,0.1365327537059784,-0.6911577710104446,-1.1011993347906237,-2.3635957439820547,-0.6871014833450317,0.6374296545982361,-0.34867584705352783,-1.1712148189544678,1.9083278179168701,0.23171666264533997
6.179808139801025,0.12803328037261963,-0.2608101963996887,0.10345444083213806,-0.7061206181944598,-1.0791347621753258,-2.387473521507772,-0.6707578301429749,0.6488869190216064,-0.3592071235179901,-1.1785035133361816,1.8363196849822998,0.2861591875553131
6.200026988983154,0.150723397731781,-0.25213295221328735,0.06883817911148071,-0.7227097747219583,-1.0604937572854634,-2.4119795354168927,-0.6544617414474487,0.6614194512367249,-0.36633890867233276,-1.2804654836654663,1.684106707572937,0.26105862855911255
6.219959020614624,0.08456355333328247,-0.2625895142555237,0.08047869801521301,-0.7388627248914842,-1.0430451053671628,-2.4380047075047617,-0.6386558413505554,0.6734476089477539,-0.3722726106643677,-1.3074010610580444,1.7256481647491455,0.27422282099723816
6.239665985107422,0.016169607639312744,-0.2778198719024658,0.09847256541252136,-0.7608645075874777,-1.0273869995304226,-2.4648024047565227,-0.6199141144752502,0.6895478367805481,-0.3744736611843109,-1.6314473152160645,1.8849241733551025,0.7119121551513672
6.259675025939941,0.044847190380096436,-0.22407221794128418,0.06382536888122559,-0.7958072400746294,-1.0111372487687191,-2.4972327051472987,-0.5929580330848694,0.7144286632537842,-0.3714732229709625,-2.150303363800049,1.8958499431610107,1.0288331508636475
6.279713153839111,0.09379535913467407,-0.13861596584320068,0.008666187524795532,-0.8364727903743452,-1.0028730449152836,-2.5375731283029794,-0.5648952126502991,0.7422842383384705,-0.3604271709918976,-2.2653002738952637,1.9430372714996338,0.9830682277679443
6.299684047698975,0.1326468586921692,-0.07438421249389648,-0.018444836139678955,-0.8728867910786896,-0.9912672375933513,-2.5735722251208974,-0.5376913547515869,0.7661872506141663,-0.3519166111946106,-1.7321231365203857,1.9439281225204468,0.8254088759422302
6.3196680545806885,0.1736621856689453,0.01892387866973877,-0.02036556601524353,-0.8990111213130898,-0.9728336608514679,-2.6012115809542076,-0.514390766620636,0.7827118039131165,-0.35037732124328613,-1.239908218383789,1.9858440160751343,0.36848706007003784
6.339668035507202,0.22170531749725342,0.11774086952209473,-0.06728601455688477,-0.9116131313395194,-0.9544273924776704,-2.6266028969764545,-0.49976617097854614,0.7904927730560303,-0.3540550768375397,-0.7448723912239075,1.8699742555618286,-0.17120333015918732
6.35968804359436,0.30737707018852234,-0.04447239637374878,-0.12579038739204407,-0.9150540417261361,-0.935342981448469,-2.645707785624465,-0.4907265901565552,0.7925955653190613,-0.3619111180305481,-0.5195112228393555,1.561093807220459,-0.12167581170797348
6.379678010940552,0.36081117391586304,-0.20628756284713745,-0.07350566983222961,-0.9212531474689512,-0.9155706926433476,-2.6580431210268225,-0.4795701801776886,0.796360194683075,-0.36854150891304016,-0.5169824361801147,1.3970887660980225,0.17325973510742188
6.399667024612427,0.3437963128089905,-0.10837483406066895,-0.07620704174041748,-0.9324924695189757,-0.9029809410130758,-2.673714605037642,-0.4678349196910858,0.8031075596809387,-0.36898350715637207,-0.9393476843833923,1.1174530982971191,-0.0001447622198611498
6.419667959213257,0.2661890983581543,0.1978989839553833,-0.11566507816314697,-0.9401905535166308,-0.9047365062394467,-2.703488129834368,-0.46360722184181213,0.8076704740524292,-0.3643307387828827,-0.8377685546875,1.1536206007003784,-0.4075339436531067
6.439687013626099,0.26870855689048767,0.22376704216003418,-0.0936303436756134,-0.9410117001571409,-0.9036178314268926,-2.731056517285978,-0.4626781642436981,0.8081544041633606,-0.36443859338760376,-0.40488797426223755,1.195169448852539,-0.5081056356430054
6.459671974182129,0.33715564012527466,0.13019782304763794,-0.08605045080184937,-0.9390492739765794,-0.8928000787229282,-2.746304925595198,-0.4599429965019226,0.8069970011711121,-0.3704163134098053,-0.3655916750431061,1.1221864223480225,-0.1500709354877472
6.479671001434326,0.3205468952655792,0.12840169668197632,-0.08567100763320923,-0.9452174247789331,-0.8847459697665753,-2.7626056253118203,-0.4530846178531647,0.8106242418289185,-0.37094834446907043,-0.7310274243354797,0.9779011607170105,-0.08582207560539246
6.499680995941162,0.2424202859401703,0.17236292362213135,-0.0986437201499939,-0.952760443701511,-0.8856523796738448,-2.785158610226756,-0.4486732482910156,0.8150181174278259,-0.36665791273117065,-0.7059407234191895,0.7766937613487244,-0.10143867880105972
6.519669055938721,0.22511667013168335,0.30364012718200684,-0.11492297053337097,-0.9590455527104088,-0.884793171347164,-2.8007531596253314,-0.4443853497505188,0.8186438083648682,-0.3637910485267639,-0.38291803002357483,0.5712679624557495,0.009054361842572689
6.539675951004028,0.16504737734794617,0.3301267623901367,-0.08837690949440002,-0.9637155447756087,-0.8784616675610051,-2.805235141582099,-0.439125657081604,0.8213168382644653,-0.3641531467437744,-0.13479766249656677,0.4583662152290344,0.20397283136844635
6.559669017791748,0.11194831132888794,0.23812085390090942,-0.03192418813705444,-0.9692663119743257,-0.8646590718002074,-2.799981314455796,-0.4305822253227234,0.8244707584381104,-0.3672153055667877,-0.06037076562643051,0.37799033522605896,0.3987314701080322
6.5796799659729,0.12540659308433533,0.21112573146820068,0.008810758590698242,-0.9737067889607783,-0.8527731670826786,-2.7900765662310585,-0.4234258830547333,0.8269754648208618,-0.3698948621749878,0.288293719291687,0.02549496479332447,0.3255354166030884
6.599668979644775,0.13525351881980896,0.1294628381729126,0.009432554244995117,-0.9757688813252302,-0.835423466599105,-2.767357903665919,-0.4156794846057892,0.8281331062316895,-0.37604036927223206,0.49769067764282227,-0.20802174508571625,0.5854785442352295
6.619668960571289,0.11860883235931396,0.006604194641113281,0.08055663108825684,-0.9763587236162912,-0.8147396243873373,-2.7356234945159796,-0.4074575901031494,0.828463613986969,-0.3842218816280365,0.7735698819160461,-0.3798719644546509,0.6163215041160583
6.63966703414917,0.1195867657661438,-0.07900601625442505,0.12499165534973145,-0.9734917719535439,-0.7871779719262676,-2.6927523216037734,-0.39839527010917664,0.8268545866012573,-0.3969796299934387,1.032440185546875,-0.4266045093536377,0.9055172204971313
6.659666061401367,0.11743351817131042,-0.14369291067123413,0.14494436979293823,-0.9723619380564722,-0.7583329010731363,-2.646118176104536,-0.3874223828315735,0.8262186050415039,-0.4089825451374054,0.9023133516311646,-0.5485256314277649,0.7524222731590271
6.679707050323486,0.04534909129142761,-0.16525006294250488,0.14220020174980164,-0.9657513982204536,-0.7384276641262625,-2.609193536555383,-0.3828733563423157,0.8224765658378601,-0.4206426739692688,1.041610598564148,-0.5125930905342102,0.39505675435066223
6.699668884277344,0.031296759843826294,-0.161118745803833,0.133064866065979,-0.9549245001557014,-0.7215798745024026,-2.5758924587613836,-0.38159266114234924,0.816270112991333,-0.4336935877799988,0.9798727631568909,-0.5576680302619934,0.2684134542942047
6.719667911529541,0.034009307622909546,-0.20978283882141113,0.15888932347297668,-0.9425968448128074,-0.7133460177468469,-2.5523315145913275,-0.3845645785331726,0.8090869784355164,-0.44439658522605896,0.8503149151802063,-0.5482676029205322,0.008125831373035908
6.739668846130371,0.05114296078681946,-0.23137682676315308,0.19658583402633667,-0.9326988385022564,-0.7105605301932719,-2.5357286845567546,-0.3885299265384674,0.8032304644584656,-0.45151451230049133,0.552178680896759,-0.48954662680625916,0.09320767968893051
6.759703159332275,-0.006768405437469482,-0.18150544166564941,0.19231000542640686,-0.9262619125775657,-0.7072227973997335,-2.5218096367014726,-0.3903719484806061,0.7993795871734619,-0.4567296504974365,0.42313534021377563,-0.30679023265838623,0.0855347216129303
6.779666900634766,-0.06652563810348511,0.003509819507598877,0.13761058449745178,-0.920741584210813,-0.7090896607962306,-2.5171155382236896,-0.39409130811691284,0.7960506677627563,-0.45934224128723145,0.32274821400642395,-0.28297773003578186,-0.2080514132976532
6.799666881561279,-0.0838308334350586,0.10147732496261597,0.0542568564414978,-0.9126564356345414,-0.711263655818242,-2.513229661732783,-0.39927756786346436,0.791131317615509,-0.46334508061408997,0.3464258909225464,-0.1715422123670578,-0.10618111491203308
6.819693088531494,-0.0917394757270813,0.1312907338142395,0.07534539699554443,-0.906225699748414,-0.7088684586648477,-2.5089675048933646,-0.4014703333377838,0.7871816754341125,-0.46815255284309387,0.3008757531642914,0.022037114948034286,-0.1436670571565628
6.839663028717041,-0.06929293274879456,0.03959083557128906,0.09238576889038086,-0.9011364364221471,-0.7078158858044494,-2.509129295291409,-0.4035768210887909,0.7840328216552734,-0.4716125726699829,0.09189341962337494,0.09884427487850189,-0.19123166799545288
6.859668970108032,-0.02211049199104309,-0.02861618995666504,0.12042367458343506,-0.8975803392363769,-0.7085736180601796,-2.513447206160532,-0.40574586391448975,0.78182053565979,-0.4734206199645996,0.03777012974023819,0.15829074382781982,-0.24963915348052979
6.879754066467285,-0.03365013003349304,-0.01360398530960083,0.0846824049949646,-0.8928991747935138,-0.7094374526096561,-2.51924174510557,-0.4085342288017273,0.778893232345581,-0.47584155201911926,0.048272889107465744,0.1939237415790558,-0.34978219866752625
6.899714946746826,-0.08364903926849365,0.05135160684585571,0.05917787551879883,-0.8874693711025778,-0.7114496007084016,-2.5287104405158876,-0.4122462272644043,0.7754764556884766,-0.4782148599624634,-0.022075390443205833,0.36800551414489746,-0.44514572620391846
6.919669151306152,-0.11181002855300903,0.03770571947097778,0.04645004868507385,-0.8824649566187222,-0.7124559713568207,-2.541626510731687,-0.4152589440345764,0.7723070979118347,-0.4807305335998535,-0.16117289662361145,0.520263135433197,-0.5234536528587341
6.9397430419921875,-0.1256828010082245,0.05599015951156616,0.016972005367279053,-0.878623747598785,-0.7148579778180677,-2.5586139653888287,-0.41835397481918335,0.7698612809181213,-0.4819684326648712,-0.2670036554336548,0.5550534129142761,-0.542855441570282
6.9597649574279785,-0.18111774325370789,0.1374242901802063,0.0224267840385437,-0.8748103085428526,-0.7171635846824456,-2.5783253014320886,-0.42139068245887756,0.7674219012260437,-0.48321181535720825,-0.29327207803726196,0.7519428730010986,-0.684180736541748
6.979663848876953,-0.25410234928131104,0.2940964698791504,0.005862891674041748,-0.8694330274576776,-0.7185619131814754,-2.6033279462698165,-0.4247763454914093,0.7639632225036621,-0.4857213497161865,-0.32650989294052124,1.095716118812561,-0.8217288851737976
6.999706983566284,-0.26353690028190613,0.3335149884223938,-0.016319215297698975,-0.8651793008260901,-0.7094629047468392,-2.6254080939964353,-0.4224523901939392,0.7612115740776062,-0.4920274317264557,-0.3326367437839508,1.4316800832748413,-0.5104714035987854
7.01875901222229,-0.2219066321849823,0.24350637197494507,-0.04304927587509155,-0.8671063520843746,-0.6924889427941414,-2.642112687984846,-0.41310298442840576,0.7624598145484924,-0.497996985912323,-0.5038622617721558,1.5696171522140503,-0.20975537598133087
7.039494037628174,-0.18267154693603516,0.060721755027770996,0.000718235969543457,-0.8753050059703839,-0.6696154708618856,-2.6561692056264157,-0.3977116048336029,0.7677389979362488,-0.502396821975708,-0.7049338221549988,1.759254813194275,-0.038254473358392715
7.05963397026062,-0.21771126985549927,-0.0533062219619751,0.08419901132583618,-0.8848357362509377,-0.6472738132610804,-2.6743954010613584,-0.3819589912891388,0.7738109230995178,-0.5052958130836487,-0.6365454792976379,1.9142565727233887,-0.3291683495044708
7.079643964767456,-0.2557230293750763,-0.16794592142105103,0.05343759059906006,-0.8874423251865056,-0.6233032992711743,-2.693211609802811,-0.36855968832969666,0.775459349155426,-0.5126662254333496,-0.3504699468612671,1.9645823240280151,-0.44108015298843384
7.099649906158447,-0.28107067942619324,-0.25765031576156616,0.1358286738395691,-0.8871249948509918,-0.5999750343444531,-2.71541895107952,-0.3566397428512573,0.7752589583396912,-0.5213267803192139,-0.4821048974990845,2.1433792114257812,-0.7775981426239014
7.119618892669678,-0.3112914264202118,-0.3228450417518616,0.21317154169082642,-0.8881065902363545,-0.5832382466372003,-2.7523579815556993,-0.34744563698768616,0.7758786082267761,-0.5265871286392212,-0.9683698415756226,2.3691606521606445,-1.0784904956817627
7.139624118804932,-0.24743711948394775,-0.37560516595840454,0.22480398416519165,-0.8968042646829496,-0.5776299563170654,-2.8066838096846363,-0.3407890796661377,0.7813364267349243,-0.5228539705276489,-1.6112056970596313,2.3460898399353027,-1.309847116470337
7.1596360206604,-0.1215377151966095,-0.3741283416748047,0.198430597782135,-0.9109442480610831,-0.5874225536077543,-2.8763249761616914,-0.3397352993488312,0.7900829315185547,-0.5102439522743225,-1.8870717287063599,2.105402946472168,-1.4976844787597656
7.179657936096191,-0.03623694181442261,-0.3095585107803345,0.1854192018508911,-0.9247672650848302,-0.6086167135395562,-2.9527778320171105,-0.34419500827789307,0.7984806895256042,-0.4939214587211609,-1.8351569175720215,1.888859748840332,-1.5352089405059814
7.199635982513428,-0.010639071464538574,-0.23796969652175903,0.10914173722267151,-0.9353953014018006,-0.634959385590124,-3.0291384164476494,-0.3520316481590271,0.8048337697982788,-0.4778245985507965,-1.6140300035476685,1.6046639680862427,-1.590590000152588
7.219667911529541,-0.006306350231170654,-0.07010042667388916,-0.02364140748977661,-0.9370817089641859,-0.6603488938228932,-3.0975318261399893,-0.3632155954837799,0.8058335185050964,-0.4676611125469208,-1.017185091972351,1.4035640954971313,-1.524463176727295
7.239670038223267,0.024054527282714844,0.1217418909072876,-0.06558254361152649,-0.9320334707918841,-0.6796301360892113,3.129391545296543,-0.3747166097164154,0.8028339743614197,-0.4637295603752136,-0.6806507110595703,1.231347680091858,-1.4190438985824585
7.259703159332275,0.08745208382606506,0.11312401294708252,-0.08767125010490417,-0.9258853077672575,-0.6943047300997324,3.081946029293722,-0.38463208079338074,0.7991532683372498,-0.4619655907154083,-0.7072652578353882,1.0825742483139038,-1.1583633422851562
7.279134035110474,0.1683274805545807,0.05135005712509155,-0.06581181287765503,-0.924779984543664,-0.7075451803270942,3.040428792332546,-0.39128878712654114,0.7984883189201355,-0.45750364661216736,-0.8172321915626526,0.9082192182540894,-0.8316158056259155
7.299669981002808,0.22385752201080322,0.031196773052215576,-0.11081427335739136,-0.9270077240565618,-0.7196861415417667,3.005704019615992,-0.3956408202648163,0.7998274564743042,-0.45138055086135864,-0.6799219250679016,0.6476790904998779,-0.6010982990264893
7.3196680545806885,0.26621201634407043,0.046903133392333984,-0.15788596868515015,-0.9280168632976304,-0.7289865116485207,2.981408248429397,-0.399283766746521,0.8004328012466431,-0.44707921147346497,-0.3333159387111664,0.3696500360965729,-0.4415282607078552
7.3396689891815186,0.27994006872177124,0.031157374382019043,-0.19850176572799683,-0.9252704446249412,-0.7328292788860244,2.9700403665008643,-0.4024679958820343,0.7987834811210632,-0.44717392325401306,0.048834189772605896,0.18193916976451874,-0.24910081923007965
7.359716892242432,0.28849852085113525,-0.03141605854034424,-0.1772170066833496,-0.9203612736764304,-0.731009745528797,2.9695064273674436,-0.4042668044567108,0.795820415019989,-0.4508194923400879,0.2823830246925354,0.05426127463579178,-0.10522773861885071
7.379670143127441,0.30101680755615234,-0.04861569404602051,-0.21586236357688904,-0.9144921694870546,-0.7267688122627526,2.9748952830866933,-0.405447781085968,0.7922528386116028,-0.4560126066207886,0.3238388001918793,-0.09499851614236832,-0.04210566356778145
7.399667024612427,0.28596585988998413,-0.0514339804649353,-0.21158695220947266,-0.9106681876202516,-0.7249683924925385,2.980629265594374,-0.4066322147846222,0.7899136543273926,-0.45900633931159973,0.1770908087491989,-0.13091497123241425,0.06900300085544586
7.419669151306152,0.2580166757106781,-0.04211026430130005,-0.22565001249313354,-0.9121617154571152,-0.724356508392677,2.9844140543619853,-0.40556904673576355,0.7908286452293396,-0.45837095379829407,-0.13540640473365784,-0.03968643769621849,0.14947719871997833
7.439692974090576,0.26220548152923584,-0.006853461265563965,-0.2706161141395569,-0.9186814842542308,-0.7266753315349694,2.9909022764065734,-0.4031965732574463,0.7948021292686462,-0.4535659849643707,-0.00109580485150218,-0.5672136545181274,0.6473596096038818
7.459700107574463,0.22349438071250916,0.0664680004119873,-0.38112401962280273,-0.925901778796856,-0.7209020859359935,3.0132025515645036,-0.3967730402946472,0.7991631627082825,-0.45156338810920715,0.31679767370224,-0.5687920451164246,0.7402098178863525
7.479672908782959,0.09424576163291931,0.13066315650939941,-0.4006885886192322,-0.9292321295212238,-0.7095486311829068,3.037304805153056,-0.3898846507072449,0.8011606335639954,-0.4540172517299652,0.3222915232181549,-0.27672216296195984,0.5556769967079163
7.499679088592529,0.0627453625202179,0.1101527214050293,-0.39716625213623047,-0.9319697750695394,-0.70232975892806,3.0519317080182593,-0.38517868518829346,0.8027960062026978,-0.4551439583301544,-0.01032192725688219,-0.24487313628196716,0.29994454979896545
7.519669055938721,0.07102108001708984,0.15115046501159668,-0.35755887627601624,-0.9395623038137277,-0.7118230102089215,3.052137764583989,-0.385489284992218,0.8072998523712158,-0.44683870673179626,-0.5051048398017883,-0.7514595985412598,0.2446272224187851
7.539669036865234,-0.025466054677963257,0.2873040437698364,-0.35878050327301025,-0.9529769136034619,-0.7211312766155147,3.0590015892192177,-0.3824470341205597,0.8151435256004333,-0.43505799770355225,0.03707674890756607,-0.5321921110153198,1.2245404720306396
7.559703826904297,-0.1451730728149414,0.5679997205734253,-0.3151240348815918,-0.957690120515049,-0.6657601791132814,3.1262052474310664,-0.35540661215782166,0.8178645968437195,-0.4525303840637207,1.8738890886306763,0.4822683036327362,1.5878852605819702
7.579669952392578,-0.2430410087108612,0.5092924237251282,-0.1248326301574707,-0.9375692213039729,-0.6033381090133905,-3.089939474642691,-0.33575522899627686,0.8061220645904541,-0.4872737228870392,1.86505925655365,0.34295690059661865,0.5477354526519775
7.599678993225098,-0.07632860541343689,0.05920439958572388,0.11011010408401489,-0.9193311318187319,-0.5629282611019962,-3.04147579378428,-0.3235888183116913,0.7951962351799011,-0.5127895474433899,1.2055226564407349,-0.054117217659950256,0.9437040686607361
7.619686126708984,0.019355326890945435,-0.11776793003082275,0.24791640043258667,-0.9163690956995167,-0.5343833790496091,-3.0017127009885893,-0.310019850730896,0.7933967113494873,-0.5238410830497742,0.3360931873321533,-0.3151112496852875,0.844799280166626
7.639669895172119,-0.061723411083221436,-0.044703662395477295,0.25279998779296875,-0.9212896339890105,-0.5245604619140407,-2.9783866450130865,-0.30290043354034424,0.7963822484016418,-0.523475706577301,0.04701291024684906,-0.4745532274246216,0.7118138670921326
7.659672021865845,-0.11254599690437317,0.052644968032836914,0.2218550443649292,-0.9272459225472779,-0.5159832907154803,-2.9556477816837265,-0.2960537075996399,0.7999704480171204,-0.5219191312789917,0.1528858095407486,-0.5104499459266663,0.7558995485305786
7.67971396446228,-0.12072896957397461,0.05969226360321045,0.20930397510528564,-0.9290064216677815,-0.5056187825434845,-2.9282830258765675,-0.28994590044021606,0.8010255694389343,-0.5237265825271606,0.5265963077545166,-0.6576400399208069,0.7691032290458679
7.699668884277344,-0.12219876050949097,0.10751509666442871,0.16654592752456665,-0.92243045375555,-0.49094506881303435,-2.8921582516972557,-0.2847071886062622,0.7970716953277588,-0.5325584411621094,1.1305657625198364,-0.7821999788284302,0.8209794759750366
7.719668865203857,-0.13674390316009521,0.06278842687606812,0.1943267583847046,-0.9063337098272213,-0.47117593883156444,-2.846918023590894,-0.27991241216659546,0.7872482538223267,-0.5494445562362671,1.4706677198410034,-0.7867821455001831,0.8791559338569641
7.739667892456055,-0.13610732555389404,-0.041747987270355225,0.28780168294906616,-0.8882278197310405,-0.4506951996793087,-2.8021384631582067,-0.27476587891578674,0.775955080986023,-0.5678004622459412,1.3614568710327148,-0.675790548324585,0.8003990054130554
7.759696960449219,-0.13118240237236023,-0.13448166847229004,0.3231884837150574,-0.872472390898853,-0.43386277196349576,-2.7645466699472516,-0.27027615904808044,0.765920877456665,-0.5833660364151001,1.0940721035003662,-0.5271877646446228,0.7000370621681213
7.7796690464019775,-0.12670853734016418,-0.15987473726272583,0.3373575806617737,-0.8602474913903088,-0.4189485529407448,-2.734504069658357,-0.265335351228714,0.7580040097236633,-0.5958414673805237,0.7936099767684937,-0.2849597632884979,0.5625467896461487
7.799698829650879,-0.11650872230529785,-0.1806107759475708,0.3050183057785034,-0.8526071722060113,-0.4079222441881647,-2.71374550167825,-0.2610393464565277,0.7529985308647156,-0.6040295362472534,0.4615917205810547,-0.18718799948692322,0.3723828196525574
7.819651126861572,-0.10122174024581909,-0.19213241338729858,0.31085652112960815,-0.8481680014209803,-0.4015998518164259,-2.7021351978776056,-0.25851932168006897,0.7500700354576111,-0.6087386608123779,0.29634854197502136,-0.036281585693359375,0.17106851935386658
7.8396689891815186,-0.09316569566726685,-0.13604587316513062,0.2738880515098572,-0.8435039185245186,-0.39648200469811706,-2.695952576677788,-0.2567487061023712,0.7469772696495056,-0.6132739782333374,0.3263855576515198,0.086389921605587,0.0372888445854187
7.859688997268677,-0.08220311999320984,-0.07495296001434326,0.24475252628326416,-0.8366272009305133,-0.3903625207503587,-2.691986880473161,-0.2549396753311157,0.7423876523971558,-0.6195694804191589,0.41528746485710144,0.2224053591489792,-0.04349234327673912
7.879671096801758,-0.08310794830322266,-0.04874861240386963,0.2117319107055664,-0.8281189758745131,-0.383267550846808,-2.6898429340835617,-0.2528904378414154,0.7366605997085571,-0.6271982789039612,0.3973037898540497,0.3402256667613983,-0.1487424522638321
7.8996758460998535,-0.07556629180908203,-0.03285932540893555,0.1893022060394287,-0.8203152845285264,-0.3767594873294611,-2.6918750235529436,-0.25091060996055603,0.731360912322998,-0.6341570019721985,0.2617800533771515,0.4519943594932556,-0.25600337982177734
7.919680118560791,-0.04255349934101105,-0.04316514730453491,0.1741873025894165,-0.8157710754755186,-0.3714387679742428,-2.698052743490087,-0.24873660504817963,0.7282542586326599,-0.6385732889175415,-0.004590231459587812,0.521545946598053,-0.2999062240123749
7.939669132232666,-0.011144161224365234,-0.061840593814849854,0.16173481941223145,-0.8162592064993901,-0.3689989498847104,-2.7087508637884152,-0.24704965949058533,0.7285887002944946,-0.6388466954231262,-0.2937626540660858,0.5204066038131714,-0.3653193414211273
7.959668159484863,-0.007295578718185425,-0.049793362617492676,0.12830448150634766,-0.8207134632285685,-0.3688812128334221,-2.723474194734117,-0.24580180644989014,0.73163241147995,-0.6358423829078674,-0.4682975113391876,0.5432618260383606,-0.42461761832237244
7.979700088500977,-0.013281390070915222,-0.02737593650817871,0.08237564563751221,-0.8263229387092175,-0.3720205174069623,-2.741902477647389,-0.24630096554756165,0.7354448437690735,-0.6312342882156372,-0.4862576425075531,0.5038620829582214,-0.5367781519889832
7.999699115753174,-0.016903355717658997,-0.005960941314697266,0.04844719171524048,-0.8302393456911087,-0.37674341741796613,-2.761962818288964,-0.24821792542934418,0.7380928993225098,-0.627380907535553,-0.38042154908180237,0.5009936094284058,-0.5844575762748718
8.019678115844727,-0.03353065252304077,0.01264500617980957,0.018557727336883545,-0.8320876711860832,-0.3822873740655049,-2.7830493188689487,-0.2511829435825348,0.7393386960029602,-0.6247284412384033,-0.31342601776123047,0.5017892718315125,-0.6686129570007324
8.03971004486084,-0.03286924958229065,0.0329318642616272,-0.022233247756958008,-0.832234566786179,-0.3895533874594152,-2.8054295961466402,-0.2556743025779724,0.7394375801086426,-0.6227863430976868,-0.25378212332725525,0.4374079406261444,-0.7053081393241882
8.059676170349121,-0.006797492504119873,0.04864466190338135,-0.06126445531845093,-0.8302703665870073,-0.39698532823376725,-2.8262273624512493,-0.2608567774295807,0.7381138205528259,-0.6222072839736938,-0.09985506534576416,0.35574105381965637,-0.6725370287895203
8.079668045043945,0.006964385509490967,0.07903033494949341,-0.11245018243789673,-0.8245581572927149,-0.40382771452618516,-2.844094093787648,-0.26676037907600403,0.7342479228973389,-0.6242746710777283,0.1751442402601242,0.2825607657432556,-0.6636936664581299
8.099669933319092,0.008493810892105103,0.12420541048049927,-0.18204593658447266,-0.8119093857264921,-0.40895701445176036,-2.857546590514637,-0.27363038063049316,0.725602388381958,-0.6313695907592773,0.6732499003410339,0.21274839341640472,-0.6889992952346802
