timestamp,acceleration_x,acceleration_y,acceleration_z,attitude_pitch,attitude_roll,attitude_yaw,gravity_x,gravity_y,gravity_z,rotation_x,rotation_y,rotation_z
0.0,0.26743993163108826,0.1182970404624939,0.004610419273376465,-0.928325709312141,-0.725790857705643,-2.319163888576164,-0.39768901467323303,0.8006178736686707,-0.4481680691242218,-0.7969441413879395,0.13995546102523804,-0.30231526494026184
0.019973039627075195,0.34622201323509216,0.04992878437042236,0.07277339696884155,-0.9357370169508613,-0.7431846066539832,-2.3437218585419437,-0.40139782428741455,0.8050364851951599,-0.4368022680282593,-0.7845475077629089,0.05929843336343765,-0.28388744592666626
0.04008603096008301,0.3925573229789734,-0.05040121078491211,0.11256203055381775,-0.9449054075160581,-0.7658514273545042,-2.3712522988103353,-0.4060613811016083,0.8104414939880371,-0.4222542941570282,-1.0301523208618164,-0.10132764279842377,-0.27745020389556885
0.05901908874511719,0.3203596770763397,-0.14771997928619385,0.07401758432388306,-0.957595013038344,-0.7950216477243367,-2.4029996551403054,-0.4108291268348694,0.8178098797798157,-0.40299704670906067,-1.0020570755004883,-0.2468816339969635,-0.09447327256202698
0.07991909980773926,0.24504783749580383,-0.07313203811645508,-0.05789950489997864,-0.9654821295855437,-0.8149061356816218,-2.4191263325585926,-0.41405418515205383,0.8223233819007874,-0.3903120756149292,-0.11186594516038895,-0.43623560667037964,0.04549342021346092
0.09992098808288574,0.009294569492340088,0.3438205122947693,-0.21174678206443787,-0.9627415555732614,-0.8079732566531418,-2.400418844961587,-0.4129658639431,0.8207608461380005,-0.39472895860671997,0.9845147132873535,-0.3822612166404724,0.4564208984375
0.12015795707702637,-0.293381005525589,0.42233985662460327,-0.20951014757156372,-0.9544085944476091,-0.7789859778842024,-2.358377075556756,-0.4061429500579834,0.8159719705581665,-0.411385178565979,1.1690077781677246,-0.1314680576324463,0.6357207894325256
0.13997387886047363,-0.43987253308296204,0.4330821633338928,-0.20052874088287354,-0.9509853546314833,-0.7456451391255747,-2.3186114882513946,-0.39409661293029785,0.8139882683753967,-0.4267447292804718,0.6217636466026306,0.22865727543830872,0.7854301333427429
0.15997004508972168,-0.5360555648803711,0.4247758984565735,-0.1722792088985443,-0.9584413638296468,-0.7161628264391494,-2.2926832849851717,-0.377350777387619,0.8182966709136963,-0.43358615040779114,-0.19857478141784668,0.6040166020393372,0.8022750020027161
0.17997503280639648,-0.4402198791503906,0.17217093706130981,-0.10689932107925415,-0.9771606610040854,-0.6942398732319873,-2.283825184888118,-0.3578910827636719,0.8289124369621277,-0.4299047887325287,-0.8325552940368652,0.828073263168335,0.8015214204788208
0.19997501373291016,-0.2889748513698578,-0.06458121538162231,-0.08260717988014221,-1.0014349575790893,-0.6771797798370034,-2.2833172867184803,-0.3377951681613922,0.8422453999519348,-0.4201393127441406,-0.9806249737739563,0.7969915270805359,0.7158266305923462
0.2193591594696045,-0.17307671904563904,-0.22047656774520874,-0.06353124976158142,-1.0233445966717394,-0.6644379091810197,-2.2851607322540057,-0.32095709443092346,0.853853702545166,-0.40978100895881653,-0.7499804496765137,0.6264484524726868,0.5644774436950684
0.2400071620941162,-0.08310067653656006,-0.3183053731918335,-0.04147675633430481,-1.0376818039422555,-0.6527266867004313,-2.2836868128708416,-0.30866873264312744,0.8612284064292908,-0.40374407172203064,-0.35022392868995667,0.429127961397171,0.3741016685962677
0.25954413414001465,-0.007504552602767944,-0.35502851009368896,-0.03102061152458191,-1.042677611333624,-0.6414459090647683,-2.2783512637189562,-0.30151644349098206,0.8637565970420837,-0.4037479758262634,0.13633283972740173,0.24180912971496582,0.1222447082400322
0.27994322776794434,0.04419320821762085,-0.31819432973861694,-0.042319536209106445,-1.0353364010610904,-0.6267436029295385,-2.2651723277565683,-0.29925915598869324,0.8600340485572815,-0.4132620394229889,0.8844488859176636,0.09897926449775696,-0.004800863564014435
0.4747140407562256,0.0738396942615509,-0.24826174974441528,-0.0028384923934936523,-1.0151599444109503,-0.6058270062978726,-2.24099004907629,-0.3003717064857483,0.8495649099349976,-0.4336085915565491,1.3728617429733276,-0.078054279088974,-0.1400032937526703
0.4846360683441162,0.07459434866905212,-0.2180885672569275,0.020046919584274292,-0.9904133058766084,-0.5909065765892637,-2.2200492740300244,-0.3054903447628021,0.8362526893615723,-0.45536482334136963,1.2414824962615967,-0.1858224719762802,-0.3136182129383087
0.5018742084503174,0.07045379281044006,-0.1440666913986206,-0.02596384286880493,-0.9585919126837789,-0.5953368777926845,-2.2148940033548654,-0.32226958870887756,0.8183832168579102,-0.4758061170578003,0.1060442328453064,-0.22024008631706238,-0.4841606318950653
0.5206820964813232,0.10796535015106201,0.070465087890625,-0.19282877445220947,-0.9544473399995257,-0.6489028065617133,-2.270184455579771,-0.3493289351463318,0.815994381904602,-0.46056774258613586,-0.21324151754379272,-0.06315699964761734,-0.3689073920249939
0.541374921798706,0.1343756914138794,-0.039473772048950195,-0.15082108974456787,-0.9620362108507815,-0.680558835600799,-2.339450958465989,-0.3598243296146393,0.8203576803207397,-0.44445469975471497,-0.5251744985580444,0.3827168047428131,-0.3193160891532898
0.5597789287567139,0.17236965894699097,0.0009236335754394531,-0.19358080625534058,-0.9668965545756912,-0.6920447431740446,-2.3689844080803817,-0.36235687136650085,0.8231273889541626,-0.43721747398376465,-0.2769505977630615,0.2554949223995209,-0.1806190013885498
0.5800430774688721,0.1983177661895752,-0.01171940565109253,-0.23355704545974731,-0.968768556395541,-0.6930606995732124,-2.376252538877815,-0.3618157207965851,0.8241889476776123,-0.4356628656387329,-0.13536112010478973,0.2178085446357727,-0.025548363104462624
0.5999650955200195,0.13534554839134216,0.013983964920043945,-0.27658212184906006,-0.9693212680125645,-0.6939769451590467,-2.3795917744189405,-0.36192333698272705,0.8245018124580383,-0.43498095870018005,-0.03147672116756439,-0.014286038465797901,-0.1251252293586731
0.6199080944061279,0.006573081016540527,0.12218642234802246,-0.2932213544845581,-0.9663302325989874,-0.6984387254570468,-2.3840984254412523,-0.365444540977478,0.822805643081665,-0.43524840474128723,0.09847807139158249,-0.05669412389397621,-0.24252398312091827
0.6399240493774414,-0.06148242950439453,0.2662677764892578,-0.25482577085494995,-0.9612341140620592,-0.7012441284870774,-2.387353478619816,-0.36936476826667786,0.8198987245559692,-0.4374196529388428,0.15105631947517395,0.04803823307156563,-0.25710663199424744
0.6599330902099609,-0.05881825089454651,0.29812806844711304,-0.1796320676803589,-0.9551042939657416,-0.7019898683347223,-2.390801702850425,-0.3729292154312134,0.8163740038871765,-0.44097331166267395,0.20542575418949127,0.1543739140033722,-0.2763669788837433
0.6799700260162354,-0.020490705966949463,0.24594569206237793,-0.1260043978691101,-0.9474524025900375,-0.6974521629430661,-2.3895837640978046,-0.3749256134033203,0.8119309544563293,-0.44743606448173523,0.4479527175426483,0.18035215139389038,-0.18104468286037445
0.6999571323394775,0.01003807783126831,0.1445496678352356,-0.050546228885650635,-0.9371511677973929,-0.6873738608759734,-2.381055232466182,-0.3756844699382782,0.8058746457099915,-0.4576323926448822,0.6166031956672668,0.13056959211826324,-0.1295343041419983
0.7199521064758301,0.062378257513046265,0.02672046422958374,0.04978114366531372,-0.9263307961164758,-0.6781098105808595,-2.3722217059506936,-0.37687718868255615,0.799420952796936,-0.46785664558410645,0.5074716806411743,0.0647774413228035,-0.17514939606189728
0.7399489879608154,0.08808746933937073,-0.06360161304473877,0.1477876603603363,-0.9176774559668344,-0.6726855538607945,-2.367101788834032,-0.3786300718784332,0.7941924333572388,-0.47528696060180664,0.3614244759082794,0.06163642555475235,-0.1508163958787918
0.7600572109222412,0.09787765145301819,-0.1723933219909668,0.2323228120803833,-0.9118683496393598,-0.6704773015904176,-2.366350306228934,-0.3804399371147156,0.7906490564346313,-0.47972872853279114,0.16977740824222565,0.09187537431716919,-0.1587650030851364
0.7799580097198486,0.08469286561012268,-0.18606460094451904,0.23839426040649414,-0.9075677939124764,-0.6694557562900028,-2.3670175752363853,-0.38205617666244507,0.7880086302757263,-0.48277896642684937,0.17339839041233063,0.03866355121135712,-0.18466761708259583
0.7999680042266846,0.05941924452781677,-0.1302754282951355,0.22046062350273132,-0.9006537201117067,-0.671295876400098,-2.3688471474256754,-0.38632357120513916,0.7837331295013428,-0.48632967472076416,0.29156073927879333,-0.08838547766208649,-0.33170074224472046
0.8199810981750488,0.05150595307350159,-0.08784770965576172,0.2345714569091797,-0.8911163902355336,-0.6774138284694589,-2.3730950323783055,-0.39395901560783386,0.777773916721344,-0.4897594153881073,0.24649390578269958,-0.19526399672031403,-0.47340649366378784
0.8399560451507568,0.031936854124069214,-0.04217416048049927,0.2527537941932678,-0.8826336482201688,-0.6894805043155471,-2.383118693685112,-0.40402254462242126,0.7724142074584961,-0.49004319310188293,-6.415415555238724e-06,-0.2234465330839157,-0.5512956976890564
0.8599879741668701,0.00043764710426330566,0.037648141384124756,0.23120489716529846,-0.8771920397367059,-0.7066105126925581,-2.3998681434890825,-0.4150799810886383,0.7689467668533325,-0.4862401783466339,-0.2535591423511505,-0.20016419887542725,-0.6050633192062378
0.8799569606781006,0.0049661993980407715,0.09291452169418335,0.20941272377967834,-0.8742391899658367,-0.725853615291558,-2.420088883225053,-0.42586466670036316,0.7670556306838989,-0.4798594117164612,-0.36359599232673645,-0.1879315972328186,-0.5659734606742859
0.9000198841094971,0.04608944058418274,0.09180617332458496,0.19602751731872559,-0.8728760635527985,-0.7459261552232752,-2.4405387548944395,-0.4361193776130676,0.7661803364753723,-0.4719826281070709,-0.40110480785369873,-0.2650051712989807,-0.49523085355758667
0.9199569225311279,0.08706647157669067,0.051571786403656006,0.1898571252822876,-0.8720407620901897,-0.7665359146269076,-2.458991818954998,-0.44619736075401306,0.765643298625946,-0.4633556008338928,-0.333185613155365,-0.3776797950267792,-0.44021210074424744
0.9399669170379639,0.11442685127258301,0.02345907688140869,0.21109962463378906,-0.8693502086533369,-0.7869775171208161,-2.4748525182639733,-0.4570325016975403,0.7639097571372986,-0.4555911421775818,-0.19406521320343018,-0.4556369185447693,-0.49781644344329834
0.9614930152893066,0.15021100640296936,-0.004563868045806885,0.21696138381958008,-0.8643407122746235,-0.8074972526864771,-2.489027114862847,-0.46904346346855164,0.7606674432754517,-0.4487575888633728,-0.1469399482011795,-0.5037847757339478,-0.4918997287750244
0.9800000190734863,0.18385940790176392,-0.10121601819992065,0.20071351528167725,-0.8601246111109366,-0.8292169985589755,-2.503296129945935,-0.4810396432876587,0.7579238414764404,-0.44062739610671997,-0.24199235439300537,-0.593593955039978,-0.4415084421634674
0.9999649524688721,0.17702072858810425,-0.10181838274002075,0.1586730182170868,-0.8574265710753262,-0.8525461248076058,-2.517626107179707,-0.49272507429122925,0.7561610341072083,-0.43063029646873474,-0.2507496476173401,-0.6513745784759521,-0.4134865999221802
1.0199849605560303,0.1531403660774231,-0.030676186084747314,0.138590008020401,-0.8529987953856337,-0.8761004015117194,-2.5313376963331264,-0.5052979588508606,0.7532562017440796,-0.42104536294937134,-0.15428824722766876,-0.6569471955299377,-0.5156888365745544
1.0399680137634277,0.1388561725616455,0.010506629943847656,0.11609762907028198,-0.8458834398008442,-0.8986914353893174,-2.5448145899753056,-0.5188611149787903,0.7485572099685669,-0.4128504991531372,-0.10618191957473755,-0.5935719609260559,-0.5947731733322144
1.0599682331085205,0.13545262813568115,0.005104005336761475,0.08536684513092041,-0.8382546406705208,-0.9205811600656221,-2.5595104730140257,-0.5323032736778259,0.7434770464897156,-0.40484002232551575,-0.22524480521678925,-0.4989442527294159,-0.6098848581314087
1.0799729824066162,0.11812633275985718,0.007587432861328125,0.05949479341506958,-0.8321206305776481,-0.9431659318297245,-2.5777736898465564,-0.5449910163879395,0.7393608689308167,-0.3953864276409149,-0.39029231667518616,-0.4044781029224396,-0.6152927875518799
1.0999820232391357,0.11579382419586182,-0.0019639134407043457,0.04805701971054077,-0.8267419235482275,-0.9661964413439971,-2.5993295784167327,-0.5572153925895691,0.7357286810874939,-0.3849862515926361,-0.46866926550865173,-0.31698837876319885,-0.6870507597923279
1.1200149059295654,0.14371788501739502,-0.0015357136726379395,0.038042664527893066,-0.8190672987032126,-0.9889656130674847,-2.6226959595970425,-0.5705367922782898,0.7305092215538025,-0.3752923309803009,-0.41376107931137085,-0.2556215226650238,-0.8447323441505432
1.1399672031402588,0.17158836126327515,0.010401904582977295,0.028347641229629517,-0.807887134769738,-1.0094439824771904,-2.644922333879187,-0.5849794745445251,0.72282874584198,-0.36785560846328735,-0.286606103181839,-0.17262427508831024,-0.9250224828720093
1.1599819660186768,0.19092828035354614,-0.001154780387878418,-0.024056851863861084,-0.7943447934871585,-1.0276208824437016,-2.6664482287912086,-0.5998944044113159,0.7134045958518982,-0.36218881607055664,-0.27544957399368286,-0.10822451859712601,-1.0162019729614258
1.1799631118774414,0.2420094609260559,-0.03196805715560913,-0.10613280534744263,-0.7793980205861548,-1.0428726594658753,-2.6860299088001756,-0.6144918203353882,0.7028513550758362,-0.3583293855190277,-0.14353381097316742,-0.029132984578609467,-0.9398028254508972
1.1999671459197998,0.271467387676239,-0.1087222695350647,-0.13220080733299255,-0.7651928898945952,-1.052972724706312,-2.700587225491631,-0.6266920566558838,0.6926761269569397,-0.3570111095905304,-0.047254353761672974,0.04118441045284271,-0.8229168057441711
1.2200000286102295,0.2846177816390991,-0.13497483730316162,-0.14255914092063904,-0.751060643478276,-1.0576525047999148,-2.7109013137641527,-0.6368211507797241,0.6824144124984741,-0.3588445484638214,0.07405025511980057,0.178436279296875,-0.8435536623001099
1.2399590015411377,0.2515464425086975,-0.0966188907623291,-0.14339643716812134,-0.7340012285137556,-1.0605509687074153,-2.721355460514496,-0.6479240655899048,0.6698458790779114,-0.3626307249069214,0.08340007811784744,0.2508991062641144,-1.0200015306472778
1.2590830326080322,0.2790297865867615,-0.15505242347717285,-0.11764657497406006,-0.7159294735099535,-1.0641168654295126,-2.735581703728173,-0.6596908569335938,0.6563189625740051,-0.3661332428455353,-0.21859025955200195,0.32312414050102234,-1.076650857925415
1.279968023300171,0.3351127505302429,-0.20907992124557495,-0.07707777619361877,-0.7015933337963599,-1.0738249643617073,-2.760566668583385,-0.6714165210723877,0.6454355120658875,-0.3641605079174042,-0.7095379829406738,0.3186473548412323,-1.0983061790466309
1.3000121116638184,0.34874552488327026,-0.16216838359832764,-0.06915813684463501,-0.6896987662521461,-1.0886432174643224,-2.7920028738358518,-0.68349289894104,0.6363048553466797,-0.3577064275741577,-0.7881190776824951,0.17985086143016815,-1.090297818183899
1.3199689388275146,0.31390804052352905,-0.09121602773666382,-0.10375091433525085,-0.6755212981618228,-1.1025153384725388,-2.816165496685727,-0.6963696479797363,0.6253042221069336,-0.3522273898124695,-0.15770810842514038,-0.054133765399456024,-0.9983015656471252
1.3399670124053955,0.2696845531463623,-0.10492968559265137,-0.07974225282669067,-0.6573073699973193,-1.1090195678959434,-2.820975024874322,-0.7087257504463196,0.6109874844551086,-0.35270702838897705,0.5898803472518921,-0.28714847564697266,-0.8320537209510803
1.360102891921997,0.21816307306289673,-0.13608986139297485,0.005672961473464966,-0.6358021871339234,-1.1112110868413796,-2.8122884606900582,-0.7211081385612488,0.5938231348991394,-0.3568997085094452,0.9121556878089905,-0.44211122393608093,-0.7768426537513733
1.379960060119629,0.19126492738723755,-0.16221588850021362,0.059461385011672974,-0.6136261761465287,-1.1143521775106,-2.800869301545953,-0.7338674664497375,0.5758358836174011,-0.3603493571281433,0.8461838364601135,-0.5457520484924316,-0.816276490688324
1.4000561237335205,0.23753756284713745,-0.18026751279830933,0.041107624769210815,-0.5935361081050776,-1.1228081325449182,-2.7940034934655325,-0.747165858745575,0.5592958331108093,-0.35907015204429626,0.5675029158592224,-0.7257335186004639,-0.7366335988044739
1.4200451374053955,0.19953161478042603,-0.13993650674819946,-0.02110081911087036,-0.5766578397539791,-1.1366066053637418,-2.7886681466624137,-0.7605058550834656,0.5452252626419067,-0.35264790058135986,0.6569438576698303,-0.924694299697876,-0.6584261655807495
1.4399669170379639,0.06248652935028076,-0.13569629192352295,0.03875461220741272,-0.5565671426170161,-1.147782473407534,-2.7766502892464007,-0.7742329835891724,0.5282745957374573,-0.34855374693870544,1.1071652173995972,-0.7371354103088379,-0.6864669919013977
1.4599812030792236,0.050283193588256836,-0.2625918388366699,0.22927260398864746,-0.5363002956016426,-1.1481238790993926,-2.75952247292922,-0.7839563488960266,0.5109592080116272,-0.3526093065738678,0.9491611123085022,-0.1943725347518921,-0.6230621933937073
1.4799580574035645,0.06358706951141357,-0.3511170446872711,0.17666709423065186,-0.5170533714685721,-1.1462298015170806,-2.7511943721971566,-0.7921028137207031,0.4943208396434784,-0.3580787777900696,0.5732786655426025,-0.16646234691143036,-0.8355146050453186
1.4999558925628662,0.13833409547805786,-0.2071918547153473,0.014328420162200928,-0.4958473681420303,-1.1505609372880863,-2.7452044599006444,-0.8030375838279724,0.47577714920043945,-0.35884130001068115,0.8691173195838928,-0.5805509686470032,-0.8151534199714661
1.5199670791625977,0.14105790853500366,-0.07731509208679199,0.0501171350479126,-0.4742073269219904,-1.1570758892582322,-2.729198678090208,-0.8145961761474609,0.45663338899612427,-0.35765793919563293,1.2505401372909546,-0.7399255037307739,-0.6224702000617981
1.5400080680847168,0.051341474056243896,-0.13493844866752625,0.22809001803398132,-0.45345019449387297,-1.1608550411872247,-2.7105915321389205,-0.8244587182998657,0.4380696713924408,-0.35827794671058655,1.0542881488800049,-0.4138418734073639,-0.6178383231163025
1.5599329471588135,0.02432185411453247,-0.1697104275226593,0.2290622889995575,-0.43485855061379414,-1.161660986472904,-2.698345438191944,-0.8320764303207397,0.4212821125984192,-0.36079132556915283,0.7436369061470032,-0.24036960303783417,-0.6485213041305542
1.5799610614776611,0.05553269386291504,-0.09264901280403137,0.16806235909461975,-0.4175424190826234,-1.1629219912718167,-2.6887988150606157,-0.839102029800415,0.40551522374153137,-0.3625812828540802,0.8039631247520447,-0.3129592835903168,-0.6068651676177979
1.599980115890503,0.0369376540184021,0.0031477808952331543,0.09938859939575195,-0.3981252544083448,-1.1653514810431354,-2.673583452575227,-0.8470573425292969,0.3876909017562866,-0.36357924342155457,1.2765625715255737,-0.5159342288970947,-0.6160898208618164
1.6199750900268555,-0.0015867352485656738,0.025648683309555054,0.14735451340675354,-0.37583733880758086,-1.1677588490921555,-2.651254033923236,-0.8556672930717468,0.36705154180526733,-0.3648379445075989,1.37527334690094,-0.5227940678596497,-0.6202865242958069
1.640005111694336,-0.004348278045654297,-0.024431347846984863,0.2118639349937439,-0.3554142575483916,-1.1720897515717195,-2.6348542411731657,-0.8639684915542603,0.34797877073287964,-0.3639635145664215,0.7888416051864624,-0.48823896050453186,-0.6895942091941833
1.6599562168121338,0.0024524927139282227,-0.010694712400436401,0.17153054475784302,-0.3380176951223388,-1.1790068917342187,-2.6285666596051884,-0.8719289302825928,0.3316176235675812,-0.36023589968681335,0.5682868957519531,-0.46158888936042786,-0.6554019451141357
1.6799581050872803,-0.03635531663894653,0.11448809504508972,0.01519826054573059,-0.3202488213908582,-1.1873784670431098,-2.6170076293590587,-0.8802403807640076,0.31480273604393005,-0.3550724685192108,1.196580410003662,-0.756345808506012,-0.5655988454818726
1.699998140335083,-0.23506993055343628,0.19037413597106934,-0.05728769302368164,-0.30013466132888716,-1.197141624788565,-2.590083426462883,-0.8893808722496033,0.29564884305000305,-0.3487028181552887,1.869652509689331,-1.0672932863235474,-0.41162392497062683
1.7199962139129639,-0.6079797744750977,0.1656702756881714,-0.021065950393676758,-0.2767687845201327,-1.2104680059569948,-2.5555661670257797,-0.9001685380935669,0.2732488214969635,-0.3391634523868561,2.0097150802612305,-1.1674257516860962,-0.6347643136978149
1.7399580478668213,-0.822456955909729,0.10314600169658661,0.1654260754585266,-0.24759692134769168,-1.2222282859490068,-2.5220547192286653,-0.911201000213623,0.24507486820220947,-0.33113643527030945,1.972167730331421,-0.8273853659629822,-0.9286811351776123
1.759998083114624,-0.761744499206543,0.012436822056770325,0.3774341940879822,-0.21754658053916995,-1.2251342056076606,-2.4943791417164802,-0.9186755418777466,0.21583467721939087,-0.33083376288414,1.541691780090332,-0.13433867692947388,-0.9587622880935669
1.780048131942749,-0.609374463558197,-0.08978357911109924,0.35928481817245483,-0.1902020291248829,-1.222182284944363,-2.478958651758471,-0.92289799451828,0.18905729055404663,-0.33543527126312256,0.8344094157218933,0.0047446442767977715,-1.1617296934127808
1.799957036972046,-0.44298380613327026,-0.028012245893478394,0.22679775953292847,-0.16270131948116698,-1.2244639697796125,-2.476001679194851,-0.9282016158103943,0.16198444366455078,-0.3349672555923462,0.5219773054122925,-0.3683446943759918,-1.2612712383270264
1.8199610710144043,-0.4096273183822632,0.12013433873653412,0.07963389158248901,-0.13659190657144846,-1.235855904080866,-2.4706649020953413,-0.9356334209442139,0.13616755604743958,-0.32565125823020935,0.8665822148323059,-0.8246992230415344,-1.0009170770645142
1.8400108814239502,-0.49065345525741577,0.20483742654323578,0.13165375590324402,-0.1152724540169625,-1.253458234829412,-2.45816089143342,-0.9437642693519592,0.11501733958721161,-0.30996784567832947,0.9475354552268982,-0.9284053444862366,-0.5702065825462341
1.860131025314331,-0.7107320427894592,0.1012096032500267,0.33502110838890076,-0.10454717032703036,-1.2626682271747365,-2.4444577535926717,-0.947700023651123,0.10435682535171509,-0.3016195297241211,0.6247746348381042,-0.05743413046002388,-0.11321942508220673
1.880052089691162,-0.8455681800842285,0.03270622342824936,0.4266176223754883,-0.1036026918362801,-1.2548354569516664,-2.436802317668383,-0.9454017281532288,0.10341745615005493,-0.3090638220310211,0.18877911567687988,0.6633692383766174,0.2534277141094208
1.9000341892242432,-0.7108763456344604,0.03013206273317337,0.37727120518684387,-0.10958297178934133,-1.2377809398737387,-2.4307865842592804,-0.9393922686576843,0.10936378687620163,-0.3249334692955017,0.23989461362361908,0.9738360643386841,0.5504910349845886
1.9199578762054443,-0.7260919213294983,0.032415904104709625,0.2664719820022583,-0.12244612984292923,-1.2199025489956028,-2.4201042046342227,-0.9320350289344788,0.12214038521051407,-0.341163694858551,0.481221467256546,0.39849889278411865,0.9902390241622925
1.9399831295013428,-0.5713793039321899,-0.06525947153568268,0.11961516737937927,-0.13998071574497678,-1.2198324433953567,-2.4039922976338275,-0.9298567175865173,0.13952401280403137,-0.3404402434825897,0.3510653078556061,-0.5168439745903015,1.313704013824463
1.9601571559906006,-0.779003918170929,-0.11469458043575287,0.06266742944717407,-0.1671069888473719,-1.232027139718831,-2.3878360923400948,-0.9300262928009033,0.16633033752441406,-0.3276972472667694,0.15111136436462402,-0.8670852780342102,1.6889265775680542
1.9800989627838135,-0.9221725463867188,-0.030532926321029663,0.04123517870903015,-0.2035045128540152,-1.2440368159236868,-2.376692354434618,-0.9275436401367188,0.20210276544094086,-0.3143521547317505,-0.3276543915271759,-0.4098244905471802,2.120683431625366
2.0,-1.0920758247375488,-0.04212966561317444,-0.0017852783203125,-0.24964010568125308,-1.2449910608069872,-2.375362326756658,-0.918025553226471,0.24705523252487183,-0.31015005707740784,-1.0388076305389404,0.20962269604206085,2.247610092163086
2.0199460983276367,-1.039552927017212,-0.06010317802429199,-0.01536908745765686,-0.3020084729447929,-1.241887089875559,-2.385126530618642,-0.9035624265670776,0.297438383102417,-0.308391809463501,-1.3891316652297974,0.2835807204246521,2.4329586029052734
2.0485100746154785,-0.9835042357444763,-0.03230854868888855,-0.0012382864952087402,-0.4108173338045431,-1.2386431513779013,-2.4000947928660157,-0.8666850924491882,0.3993587791919708,-0.2989477813243866,-1.0586987733840942,0.2340511530637741,2.3423664569854736
2.068594217300415,-0.9642987251281738,-0.10052818059921265,-0.033824920654296875,-0.4600619421711209,-1.2357008559016853,-2.408129278499362,-0.8461872339248657,0.4440036118030548,-0.29466620087623596,-1.292475938796997,0.35107365250587463,2.0392138957977295
2.0886011123657227,-0.8277246952056885,-0.07099190354347229,-0.13230302929878235,-0.5042281861152492,-1.2385143301833184,-2.4253599990124135,-0.827655553817749,0.4831318259239197,-0.2856045663356781,-1.600766897201538,0.18083205819129944,1.6560914516448975
2.1075589656829834,-0.6537882685661316,-0.06813842058181763,-0.14779004454612732,-0.543920270989164,-1.2463393868361325,-2.4482390509656624,-0.8110402822494507,0.5174944996833801,-0.27278783917427063,-1.3839799165725708,0.2379450500011444,1.4793362617492676
2.127235174179077,-0.5456159710884094,-0.020405709743499756,-0.16068285703659058,-0.5759195422323282,-1.2483902569578915,-2.4630234540203815,-0.7954790592193604,0.5446062088012695,-0.26573920249938965,-0.9148203134536743,0.24051518738269806,1.0519379377365112
2.1484858989715576,-0.39815545082092285,-0.18381041288375854,-0.04017344117164612,-0.5939445839589546,-1.2548212474609863,-2.4780940348216527,-0.7877119183540344,0.5596343874931335,-0.25752538442611694,-0.9401599168777466,0.07549063116312027,0.33652907609939575
2.168121099472046,-0.2439703345298767,-0.3206820487976074,0.08732636272907257,-0.6026982437424016,-1.2668944471364518,-2.503003171742019,-0.7860589623451233,0.5668673515319824,-0.2465212047100067,-1.2601279020309448,0.029303960502147675,-0.13886070251464844
2.1879851818084717,-0.17237615585327148,-0.06904447078704834,-0.011463671922683716,-0.6065130415199885,-1.2819389917532655,-2.534196197214727,-0.7876002192497253,0.5700058937072754,-0.2340501993894577,-1.3360834121704102,0.24786826968193054,-0.20724178850650787
2.207834005355835,-0.16426634788513184,0.23897916078567505,-0.1729143112897873,-0.6072255182019062,-1.2989974733347838,-2.5688209853449178,-0.7910864949226379,0.570591151714325,-0.22047242522239685,-1.3704569339752197,0.05559264495968819,-0.4465608596801758
2.2284228801727295,-0.0275152325630188,0.40606600046157837,-0.23702065646648407,-0.6061259135375691,-1.315426155587096,-2.600264359073089,-0.795208215713501,0.5696877837181091,-0.20760510861873627,-1.0439053773880005,0.09172233194112778,-0.377559632062912
2.2480170726776123,0.10286945104598999,0.4961428642272949,-0.11674879491329193,-0.6009685832202275,-1.329136594880398,-2.6277195608370274,-0.8008217811584473,0.5654416084289551,-0.19738377630710602,-1.073815941810608,0.04292532056570053,-0.7800050377845764
2.26820707321167,0.1571180820465088,0.4000628590583801,-0.09035414457321167,-0.5883630784203883,-1.3455395811835626,-2.6571831761762947,-0.8108351826667786,0.5550000667572021,-0.18579930067062378,-0.9636788964271545,0.0321056954562664,-0.8192636966705322
2.2878530025482178,0.2985907793045044,0.4504236578941345,-0.10579107701778412,-0.5819118235802592,-1.3561670400179544,-2.682194969534837,-0.8162452578544617,0.549622118473053,-0.17793072760105133,-1.0526233911514282,0.27711331844329834,-0.3154531717300415
2.3068840503692627,0.38534456491470337,0.5344550609588623,-0.17335961759090424,-0.5802308765280088,-1.367731085931602,-2.7116879644490166,-0.8191519975662231,0.5482170581817627,-0.1686660349369049,-1.2251605987548828,0.1916515976190567,-0.3162977695465088
2.327683210372925,0.5369399189949036,0.4964609146118164,-0.17571495473384857,-0.5804130655686901,-1.379789187293517,-2.7379564428134504,-0.8210279941558838,0.5483694076538086,-0.15875761210918427,-0.8740379810333252,0.09876541048288345,-0.12394526600837708
2.347862958908081,0.5847622752189636,0.3179466724395752,-0.05955064296722412,-0.5824236056779676,-1.3851705247220285,-2.7546053601695815,-0.8207852840423584,0.5500496029853821,-0.15413333475589752,-0.6336122155189514,0.2889169752597809,0.08508037775754929
2.367975950241089,0.6174302697181702,0.09016036987304688,0.024133622646331787,-0.585408458687249,-1.3866561060489764,-2.771287884185659,-0.8193957209587097,0.5525398850440979,-0.15261253714561462,-0.8211048245429993,0.5552619695663452,-0.10605795681476593
2.389165163040161,0.7905334830284119,-0.0684393048286438,0.054788172245025635,-0.5846029476450042,-1.3836654638307497,-2.7920349758715868,-0.8193727135658264,0.5518683195114136,-0.15514510869979858,-0.7958134412765503,0.8156191110610962,-0.26657208800315857
2.406128168106079,1.0583568811416626,-0.09174150228500366,0.04595118761062622,-0.5847151972451716,-1.3803565262594781,-2.81089972745376,-0.8187940120697021,0.5519618988037109,-0.15784378349781036,-0.7723749279975891,0.6206609010696411,0.09315937012434006
2.4274110794067383,1.2621283531188965,-0.22110843658447266,0.03922790288925171,-0.587649393315333,-1.3724611275828056,-2.82048959596676,-0.815930962562561,0.5544062852859497,-0.16398368775844574,-0.15464623272418976,0.513902485370636,0.06627857685089111
2.4476969242095947,1.4208134412765503,-0.2776297926902771,0.10024626553058624,-0.5943229170423496,-1.3638140382652382,-2.8183341120966916,-0.8108434081077576,0.5599479079246521,-0.1702687293291092,0.20957253873348236,0.2985439598560333,0.7091276049613953
2.467137098312378,1.454075574874878,-0.3937814235687256,0.013168171048164368,-0.6115165204543471,-1.3499579612625041,-2.802969314445184,-0.7988936305046082,0.5741097927093506,-0.17935152351856232,0.6880560517311096,0.2602373957633972,1.124171495437622
2.4872450828552246,1.4368915557861328,-0.45091432332992554,-0.01443713903427124,-0.6323045248265103,-1.328624293786545,-2.773832627900886,-0.7831287384033203,0.5910053253173828,-0.1934484839439392,0.9512845277786255,0.10869492590427399,1.540513038635254
2.507291078567505,1.4002418518066406,-0.5225403308868408,0.03638578951358795,-0.6586096108489001,-1.3072526284893509,-2.741519920865371,-0.7635384202003479,0.6120178699493408,-0.2060176432132721,0.9274404048919678,-0.132843479514122,1.4889726638793945
2.5270090103149414,1.2290136814117432,-0.45148760080337524,0.12019756436347961,-0.6844649622748459,-1.3005490075555834,-2.711229313655716,-0.746637761592865,0.6322585940361023,-0.20683689415454865,0.82975834608078,-1.0221754312515259,1.6293178796768188
2.5473990440368652,0.9584720134735107,-0.21822965145111084,0.11078734695911407,-0.7100265851340131,-1.2992238557345435,-2.672261092536123,-0.7305514812469482,0.6518539190292358,-0.2034233808517456,1.33565354347229,-1.2706680297851562,1.638152003288269
2.5683810710906982,0.6878345012664795,-0.10910660028457642,0.24182945489883423,-0.734893337117224,-1.2925987950778526,-2.6291703369309323,-0.7133777737617493,0.6705080270767212,-0.20374342799186707,0.9331011176109314,-1.0537548065185547,1.4690158367156982
2.5870370864868164,0.5516922473907471,-0.14598774909973145,0.4710460901260376,-0.7598799934046357,-1.3031429893252375,-2.6096649273719024,-0.6991074681282043,0.6888344287872314,-0.19171859323978424,-0.3098738491535187,-1.3234323263168335,1.4388600587844849
2.606863021850586,0.40724557638168335,0.08515989780426025,0.4573151469230652,-0.7839321786336171,-1.3365357764152097,-2.612789505609896,-0.6888008117675781,0.7060694098472595,-0.16437681019306183,-0.07170715928077698,-1.7815468311309814,0.7493871450424194
2.626875162124634,0.25042396783828735,0.5290385484695435,0.18050384521484375,-0.7869527884190187,-1.3563239107888247,-2.5818758468456626,-0.6898313760757446,0.7082052230834961,-0.1502608209848404,2.292973279953003,-2.455287456512451,-0.0016037102323025465
2.6468541622161865,0.3944389224052429,0.030171692371368408,0.36801838874816895,-0.7713346371521058,-1.3527965288654638,-2.5040557469027456,-0.7000114321708679,0.6970927715301514,-0.15506663918495178,3.2314083576202393,-2.489682674407959,-0.1883234828710556
2.66667103767395,0.28497493267059326,-0.5068713426589966,0.454204797744751,-0.7505725463990643,-1.3369667695054472,-2.4189108884134027,-0.7113970518112183,0.6820575594902039,-0.1694451868534088,3.3071961402893066,-2.1488301753997803,-0.6704599857330322
2.6866180896759033,-0.4181029200553894,-0.4673510193824768,0.3274216651916504,-0.7070609046389592,-1.319244328855961,-2.3291188493588737,-0.7363466024398804,0.6496020555496216,-0.18923796713352203,4.2555694580078125,-1.6785578727722168,-2.1364288330078125
2.7065541744232178,-1.1579294204711914,-0.020554542541503906,0.48345834016799927,-0.6246449648664321,-1.2905495173751396,-2.2327997551866554,-0.7795247435569763,0.5848093032836914,-0.2243640422821045,4.888304710388184,-1.2461708784103394,-3.4396262168884277
2.7264039516448975,-1.0709540843963623,-0.06076657772064209,0.13544520735740662,-0.55869641815349,-1.2697570502419708,-2.1853321076875134,-0.8098138570785522,0.5300812721252441,-0.25142723321914673,0.9837083220481873,-0.38926926255226135,-1.8258739709854126
2.7467129230499268,-0.9849442839622498,0.15837475657463074,-0.39220738410949707,-0.5150875149757864,-1.2888438886289446,-2.164949742917129,-0.83588707447052,0.49261102080345154,-0.24213089048862457,2.7250077724456787,-2.285771369934082,-2.250221014022827
2.766284227371216,-0.40224117040634155,0.9264751672744751,-0.04348944127559662,-0.46839471834053015,-1.322061029362942,-2.1082257573221557,-0.864833414554596,0.4514544904232025,-0.21966353058815002,2.8327503204345703,-3.2453832626342773,-1.0528531074523926
2.7862210273742676,-1.21282958984375,-0.19350114464759827,0.13902272284030914,-0.42978592842878827,-1.3520384178696692,-2.0465433446498764,-0.8873901963233948,0.41667622327804565,-0.1972806602716446,3.506762981414795,-2.326657772064209,-1.0663113594055176
2.8062820434570312,-0.8891940116882324,-0.09566107392311096,-0.14577804505825043,-0.4024253755615492,-1.3623894472653821,-1.976884146145156,-0.9002042412757874,0.39165112376213074,-0.19037294387817383,3.452129364013672,-1.723241925239563,-0.5518549084663391
2.8261420726776123,-0.8828317523002625,-0.267254501581192,-0.302026629447937,-0.37947668567845116,-1.3642441073559963,-1.911628428862543,-0.9091147184371948,0.370434433221817,-0.1904965043067932,2.6589548587799072,-0.8655278086662292,-0.41637861728668213
2.8462588787078857,-0.7417014837265015,-0.39710673689842224,0.008596360683441162,-0.3674147748546849,-1.3577942097481013,-1.8722947901611704,-0.9121682643890381,0.359203964471817,-0.197286456823349,1.210625410079956,0.09167972207069397,0.012911788187921047
2.8675692081451416,-0.48940926790237427,-0.34343016147613525,0.0684424638748169,-0.3690871292606694,-1.3434696280534142,-1.8547876017813747,-0.9086621403694153,0.36076417565345764,-0.21019649505615234,0.4615332782268524,0.5997117757797241,0.4311651587486267
2.8861119747161865,-0.45776575803756714,-0.17866572737693787,0.04088929295539856,-0.3758036869452702,-1.327623897967008,-1.8454843144020876,-0.9028452038764954,0.36702024936676025,-0.2239793986082077,0.14633238315582275,0.6737053394317627,0.4363430440425873
2.9059250354766846,-0.44705337285995483,-0.3023819625377655,0.20595961809158325,-0.3872444879924836,-1.311644176645391,-1.847412282731989,-0.8950334787368774,0.3776383697986603,-0.2372858226299286,-0.6600866317749023,0.9995169043540955,0.5745051503181458
2.9259250164031982,-0.39219439029693604,-0.3242722749710083,0.27236413955688477,-0.4025624215463291,-1.295414270329879,-1.8625804222138067,-0.8853935599327087,0.3917772173881531,-0.250177800655365,-1.0168826580047607,1.2068126201629639,0.6423415541648865
2.9463000297546387,-0.24160605669021606,-0.14296045899391174,0.2154940962791443,-0.42185687959092083,-1.2792356933300164,-1.8791819877846199,-0.8738267421722412,0.40945523977279663,-0.2622469365596771,-0.9339569211006165,1.046013593673706,0.769011914730072
2.9660470485687256,-0.14420592784881592,-0.06983122229576111,0.18214312195777893,-0.4414018349622301,-1.264253739204493,-1.8915960300603294,-0.8620044589042664,0.427207350730896,-0.2728412449359894,-0.7091548442840576,1.0359605550765991,0.7049244046211243
2.9857900142669678,-0.07643598318099976,-0.01410016417503357,0.1566382348537445,-0.45618036731734574,-1.2476234793280507,-1.900057028472351,-0.85126793384552,0.44052228331565857,-0.28510189056396484,-0.3891124427318573,0.9731023907661438,0.4961917996406555
3.0056421756744385,-0.02417856454849243,-0.04306265711784363,0.09116119146347046,-0.4671234499780076,-1.23136998447223,-1.9009411982647473,-0.8419256806373596,0.450319766998291,-0.2972768545150757,-0.13059456646442413,0.6666676998138428,0.5484775900840759
3.024806022644043,-0.04167991876602173,-0.039726197719573975,0.1678752303123474,-0.47991986857611735,-1.2212660643417,-1.902807631332058,-0.8333964943885803,0.46170809864997864,-0.30376991629600525,-0.5226845741271973,0.4842575192451477,0.5704456567764282
3.045473098754883,-0.028508663177490234,-0.04945194721221924,0.18968969583511353,-0.4945355637298365,-1.2166639672506452,-1.9121427065401453,-0.8255716562271118,0.474622905254364,-0.30522915720939636,-0.6715407371520996,0.41153645515441895,0.5566587448120117
3.0653810501098633,0.062187910079956055,-0.007801532745361328,0.2101207971572876,-0.5101241657110956,-1.2103268889585068,-1.9183093001130367,-0.8165977597236633,0.4882856011390686,-0.30780747532844543,-0.24111278355121613,0.5691844820976257,0.6988656520843506
3.0845820903778076,0.05757594108581543,0.0526423454284668,0.15092742443084717,-0.5215039679265208,-1.1924850640203055,-1.9075841637096174,-0.8057602643966675,0.4981847405433655,-0.3202541470527649,0.6300627589225769,0.6719640493392944,0.6860204935073853
3.1053168773651123,0.07036513090133667,0.023340284824371338,0.17737263441085815,-0.5292174537221083,-1.1675974275097947,-1.8869123373894081,-0.7939828038215637,0.5048580169677734,-0.3386884927749634,0.611875057220459,0.7650113701820374,0.7050387859344482
3.125540018081665,0.10943722724914551,-0.10027128458023071,0.1545456349849701,-0.5378303573077251,-1.1445219039751147,-1.870479285565982,-0.781968355178833,0.5122738480567932,-0.35510706901550293,0.3411150276660919,0.6771206259727478,0.6628938317298889
3.1451220512390137,0.19662541151046753,-0.060804009437561035,0.06547531485557556,-0.5476931508640319,-1.1282127158548534,-1.8582036401473583,-0.7714698314666748,0.5207191705703735,-0.3656308650970459,0.22614507377147675,0.2394978404045105,0.6772297620773315
3.1644411087036133,0.2031087875366211,0.003645777702331543,0.05832478404045105,-0.5582585656540168,-1.1228877844704657,-1.8488054002525165,-0.7645101547241211,0.5297099351882935,-0.3673304617404938,-0.008972331881523132,-0.13518716394901276,0.6139766573905945
3.185168981552124,0.16875731945037842,-0.006793856620788574,0.0906735360622406,-0.5700529194591535,-1.125038303817467,-1.8459414469396282,-0.7596081495285034,0.5396766066551208,-0.36296653747558594,-0.20050103962421417,-0.20720507204532623,0.5639852285385132
3.205008029937744,0.20301741361618042,0.06867837905883789,0.015742897987365723,-0.5819494831489092,-1.1274775972743645,-1.8414748455042786,-0.7546380162239075,0.5496535897254944,-0.35833317041397095,0.08978430926799774,-0.3230223059654236,0.6853912472724915
3.2248871326446533,0.15397775173187256,0.2262834906578064,-0.09860959649085999,-0.5913523737849415,-1.12839061837723,-1.8272425261637955,-0.7502607703208923,0.5574842691421509,-0.35541558265686035,0.5583498477935791,-0.5647040009498596,0.6506019830703735
3.244784116744995,0.10442996025085449,0.26444971561431885,-0.15979227423667908,-0.596170857550964,-1.1306141284916984,-1.8062901267669804,-0.748610258102417,0.5614780187606812,-0.35259777307510376,0.7648608684539795,-0.8187866806983948,0.5419189929962158
3.2645771503448486,0.12502068281173706,0.2105160355567932,-0.20892924070358276,-0.6012432004131181,-1.1361582824469594,-1.784575701138354,-0.7479608058929443,0.5656681060791016,-0.3472382724285126,0.5594150424003601,-0.9519947171211243,0.6917936205863953
3.283911943435669,0.06017988920211792,0.23992526531219482,-0.20721808075904846,-0.611058126158982,-1.1465379198983396,-1.7705723780447438,-0.7464287281036377,0.5737344026565552,-0.337154358625412,0.1032889261841774,-0.8713011741638184,0.6545881032943726
3.3046491146087646,0.07325547933578491,0.22104573249816895,-0.1923261284828186,-0.6212723330185911,-1.1556779226782548,-1.7598810335348092,-0.7440776824951172,0.5820702314376831,-0.32793745398521423,0.2752592861652374,-0.6468572020530701,0.6858658790588379
3.324816942214966,0.1835370659828186,0.20009738206863403,-0.14191541075706482,-0.6330480178887803,-1.1567042286364424,-1.743492726604751,-0.7380872964859009,0.5916048884391785,-0.32439306378364563,0.5234493017196655,-0.4358084201812744,0.90080326795578
3.34490704536438,0.2168695330619812,0.15103596448898315,-0.09523621201515198,-0.6440182471582989,-1.1490299370130024,-1.719291678728729,-0.7296106815338135,0.6004136204719543,-0.32737109065055847,0.7796945571899414,-0.27830198407173157,0.8761346340179443
3.364716053009033,0.31646138429641724,0.043507397174835205,-0.06801638007164001,-0.6529975101767002,-1.1377277890867015,-1.691551050009995,-0.7209414839744568,0.6075699329376221,-0.3333202600479126,0.7446113228797913,-0.29668188095092773,0.9109029769897461
3.3848299980163574,0.370369553565979,-0.037154555320739746,-0.026298940181732178,-0.664658344824827,-1.130875748759838,-1.6697239907813803,-0.712181806564331,0.616790235042572,-0.33521223068237305,0.32754722237586975,-0.362702876329422,0.8786579966545105
3.40260910987854,0.36612385511398315,-0.04234963655471802,-0.05178689956665039,-0.6791731206661878,-1.129427650944318,-1.65553835999615,-0.7035262584686279,0.6281498670578003,-0.33238354325294495,0.11216382682323456,-0.37187978625297546,0.8937378525733948
3.423502206802368,0.30507123470306396,0.07559466361999512,-0.087832510471344,-0.6930255566467837,-1.1259061207982435,-1.639524000523415,-0.694429874420166,0.6388677358627319,-0.33108222484588623,0.46787023544311523,-0.3149053454399109,0.8902018070220947
3.444460153579712,0.2443835735321045,0.13462907075881958,-0.07460576295852661,-0.7034664703726252,-1.114277484117192,-1.6143193173784671,-0.6845081448554993,0.6468651294708252,-0.3361760079860687,0.7683088183403015,-0.15218336880207062,0.8790814876556396
3.464325189590454,0.2573894262313843,0.018688559532165527,-0.005483657121658325,-0.713216858983758,-1.097115080657934,-1.5864814831252008,-0.6729931831359863,0.6542699337005615,-0.3449801504611969,0.6338675618171692,0.030887208878993988,0.895592212677002
3.4843862056732178,0.28748250007629395,-0.05320000648498535,0.04766085743904114,-0.7237015770831815,-1.0804954717244872,-1.5639178364146564,-0.661078691482544,0.6621630191802979,-0.352867066860199,0.41418740153312683,0.1190502718091011,0.8181925415992737
3.504081964492798,0.304040789604187,-0.08797192573547363,0.0665757954120636,-0.7343158544682775,-1.0658085642689101,-1.545617289978258,-0.6496371030807495,0.6700794696807861,-0.35911718010902405,0.2716295123100281,0.13079756498336792,0.7416563034057617
3.5239999294281006,0.259307861328125,-0.103191077709198,0.13452360033988953,-0.7427433192296179,-1.0537701331140774,-1.5320829721014242,-0.6403351426124573,0.6763112545013428,-0.36410725116729736,0.19553938508033752,0.15723112225532532,0.4748189151287079
3.5444681644439697,0.28010445833206177,-0.18220102787017822,0.28163138031959534,-0.7488505331533185,-1.0411408092801833,-1.5220538663470826,-0.6321094632148743,0.680797278881073,-0.3700712323188782,0.18107439577579498,0.43262550234794617,0.48398613929748535
3.5655500888824463,0.3342040181159973,-0.16968005895614624,0.2561054825782776,-0.7556094499483504,-1.0200925092152318,-1.5063751416766782,-0.6202453374862671,0.685732364654541,-0.3808765411376953,0.5049173831939697,0.5685583353042603,0.635123610496521
3.583966016769409,0.311958372592926,-0.04624152183532715,0.24154722690582275,-0.7558469681402725,-0.9924299165796975,-1.4813305513426387,-0.6093369722366333,0.6859052181243896,-0.39779719710350037,1.0122168064117432,0.4546714127063751,0.34629347920417786
3.6039469242095947,0.3028297424316406,-0.1847023367881775,0.22177228331565857,-0.7469341462018547,-0.9660229597624924,-1.452887481447807,-0.6036262512207031,0.6793923377990723,-0.4172067642211914,1.122926115989685,0.18980327248573303,0.05642469972372055
3.6238911151885986,0.33285242319107056,-0.3300854563713074,0.23445481061935425,-0.7352651567632372,-0.9535735428918867,-1.4338766719204024,-0.6048098802566528,0.6707838177680969,-0.42924848198890686,0.673748254776001,-0.22270679473876953,-0.20610198378562927
3.6438682079315186,0.3115425109863281,-0.2653651237487793,0.2521498203277588,-0.7246887397186726,-0.9586092836523192,-1.4302054021948152,-0.6127358078956604,0.6629024147987366,-0.4302503764629364,0.186976358294487,-0.4967954158782959,-0.5043036937713623
3.6626999378204346,0.3232771158218384,-0.1895204782485962,0.28697240352630615,-0.7143510823064841,-0.9738397447376413,-1.437662484872927,-0.6248518824577332,0.6551272869110107,-0.42469820380210876,-0.018726572394371033,-0.4994371831417084,-0.6318962574005127
3.6826741695404053,0.3526776432991028,-0.1566833257675171,0.2565881609916687,-0.7034154977645452,-0.9889916632655696,-1.4463104040170485,-0.6371625661849976,0.6468262672424316,-0.4190942049026489,0.1347910463809967,-0.4760514497756958,-0.6268119215965271
3.7036569118499756,0.36299020051956177,-0.10400015115737915,0.13525384664535522,-0.6904087350390151,-1.0012704731901525,-1.4491427198211566,-0.649290919303894,0.6368523836135864,-0.41574084758758545,0.3992786407470703,-0.5900091528892517,-0.602838397026062
3.7235591411590576,0.3474288582801819,-0.05361473560333252,0.05864417552947998,-0.676455520892302,-1.015059569183217,-1.4497011863468212,-0.6624465584754944,0.6260330080986023,-0.4113967716693878,0.2190542221069336,-0.7449135184288025,-0.6299737691879272
3.7426280975341797,0.29398012161254883,-0.03346514701843262,0.016371726989746094,-0.6644880055890349,-1.035995230898179,-1.4588844579965914,-0.6773114800453186,0.6166561841964722,-0.4012288749217987,-0.20781998336315155,-0.7354755997657776,-0.7600480914115906
3.7634270191192627,0.2836551070213318,-0.037080228328704834,-0.006393313407897949,-0.6542735414736297,-1.059105133208096,-1.476067789939168,-0.6918582916259766,0.6085829734802246,-0.3885346055030823,-0.3588095009326935,-0.5132956504821777,-0.782878041267395
3.7833259105682373,0.2725100517272949,0.0478900671005249,-0.06144297122955322,-0.6416500113156978,-1.0730584785145167,-1.4865661253981726,-0.7039066553115845,0.5985180735588074,-0.3824809193611145,0.317816823720932,-0.2708434462547302,-0.6705189943313599
3.803201913833618,0.2844064235687256,0.11266493797302246,-0.09352529048919678,-0.6263452299976607,-1.0730417808628916,-1.4795308171836692,-0.7118661999702454,0.5861876606941223,-0.38682129979133606,0.7900693416595459,-0.17362384498119354,-0.43010780215263367
3.8231890201568604,0.31870490312576294,0.0198325514793396,-0.06792804598808289,-0.6125492419534748,-1.0695593486121135,-1.4675792321018108,-0.7175391912460327,0.5749551057815552,-0.39314669370651245,0.6592252850532532,-0.18970774114131927,-0.3126043379306793
3.843179941177368,0.38064366579055786,0.00440901517868042,-0.0428580641746521,-0.6032696038457548,-1.0696209707977642,-1.4588649182157192,-0.7222117781639099,0.5673379898071289,-0.3956489861011505,0.47398626804351807,-0.32611194252967834,-0.1641458123922348
3.8620901107788086,0.3763203024864197,0.033271849155426025,-0.07067453861236572,-0.5966776598501481,-1.0714955653908416,-1.4475573911838993,-0.726219654083252,0.561897337436676,-0.396076500415802,0.6883834004402161,-0.49705490469932556,0.03738038241863251
3.883795976638794,0.31509464979171753,0.07390445470809937,-0.08766511082649231,-0.590365914611724,-1.0716266196047461,-1.4287599065641243,-0.7293707728385925,0.5566650629043579,-0.397671103477478,0.9630841612815857,-0.5701704621315002,0.13876521587371826
3.9030601978302,0.23736387491226196,0.1243734359741211,-0.10114628076553345,-0.5831732995103406,-1.0711567578996812,-1.4045000925341362,-0.732679545879364,0.5506755113601685,-0.39992183446884155,1.1841965913772583,-0.7205159664154053,0.22459182143211365
3.922974109649658,0.17373424768447876,0.09625977277755737,-0.0850139856338501,-0.5768151278154672,-1.0689396533989686,-1.3738684538359491,-0.734845757484436,0.5453571081161499,-0.4032214283943176,1.299652338027954,-0.7047221660614014,0.44937556982040405
3.9428510665893555,0.13558536767959595,0.040485918521881104,-0.01704728603363037,-0.5738360628446214,-1.0646412213202008,-1.34289441182875,-0.7345234155654907,0.5428576469421387,-0.40716221928596497,1.1412307024002075,-0.5287935137748718,0.503827691078186
3.9630041122436523,0.12202084064483643,-0.009883284568786621,0.03746786713600159,-0.5713124907246112,-1.0595263902782543,-1.315556426996377,-0.7336236238479614,0.5407365560531616,-0.4115827977657318,1.0246285200119019,-0.44853654503822327,0.38933056592941284
3.982748031616211,0.10469943284988403,-0.09396529197692871,-0.008035153150558472,-0.5648031064158098,-1.0534550681006918,-1.2884979230128273,-0.734154999256134,0.5352495312690735,-0.4177612364292145,1.378097653388977,-0.4579610228538513,0.14097388088703156
4.002578020095825,0.06852340698242188,-0.02181452512741089,-0.06764030456542969,-0.5495133749077958,-1.0477911481552702,-1.255508484252649,-0.7387810349464417,0.5222722887992859,-0.42595091462135315,1.7886124849319458,-0.7193244695663452,-0.10699010640382767
4.021601915359497,0.014974355697631836,-0.02094179391860962,0.00861552357673645,-0.5271869643009883,-1.0459806093078114,-1.2214048288141286,-0.7479150295257568,0.5031042098999023,-0.4330233633518219,1.7179679870605469,-0.7695304751396179,-0.31954458355903625
4.042777061462402,-0.09070944786071777,-0.1674892008304596,0.17108482122421265,-0.506722913200993,-1.0397891279848421,-1.1963978979891097,-0.7539409399032593,0.48531457781791687,-0.442767471075058,1.2350037097930908,0.16143518686294556,-0.39865273237228394
4.062803030014038,-0.26577693223953247,-0.11357000470161438,0.12077644467353821,-0.48309498446264654,-1.0218784513465546,-1.1805181163999976,-0.7554633617401123,0.46452218294143677,-0.46205446124076843,1.3709229230880737,0.8189875483512878,-0.8726000189781189
4.082772970199585,-0.20459145307540894,0.08666574954986572,-0.04774951934814453,-0.4498877516861359,-0.9990775575114342,-1.1609551572791508,-0.7572921514511108,0.43486446142196655,-0.4872388541698456,1.8944755792617798,0.4465501010417938,-1.0336116552352905
4.102346181869507,-0.27026623487472534,-0.06407183408737183,-0.010154187679290771,-0.41139383290370085,-0.9850565676435716,-1.1397918156064166,-0.7637761235237122,0.3998872637748718,-0.5066913962364197,1.7007132768630981,0.14980445802211761,-1.250869870185852
4.122458219528198,-0.4378795623779297,-0.28728774189949036,0.09270858764648438,-0.3701614420747814,-0.9774508511338492,-1.129542731493195,-0.7729207277297974,0.36176595091819763,-0.5212668776512146,1.3834550380706787,0.17052075266838074,-1.5994868278503418
4.1439878940582275,-0.43021130561828613,-0.2027449607849121,0.05919307470321655,-0.32825229901771713,-0.9791390340353738,-1.1285999513781246,-0.7857006192207336,0.3223891258239746,-0.5279582738876343,1.0404359102249146,-0.4751094877719879,-1.8930604457855225
4.163623094558716,-0.6385961174964905,-0.14851424098014832,0.08384048938751221,-0.2827126534693157,-0.9990748408486615,-1.134356921070741,-0.8075861930847168,0.2789616286754608,-0.5196009278297424,0.990293562412262,-1.2860283851623535,-2.211047887802124
4.182307958602905,-0.7973636984825134,-0.18224336206912994,0.26683861017227173,-0.23189302641753992,-1.0293880609621542,-1.1402470301437724,-0.8340450525283813,0.22982029616832733,-0.501549243927002,1.1441656351089478,-1.4842828512191772,-2.372089385986328
4.201168060302734,-0.9802615642547607,-0.2508343458175659,0.2502952516078949,-0.18038459472045668,-1.0608095260694632,-1.1457109376848074,-0.8585904240608215,0.17940793931484222,-0.4802451431751251,1.1856894493103027,-1.681100845336914,-2.3691554069519043
4.222121000289917,-0.9960282444953918,-0.029757559299468994,0.017561912536621094,-0.12649971707714866,-1.0976930163505236,-1.1412034843803829,-0.8830459117889404,0.1261626034975052,-0.4520101249217987,1.7687984704971313,-1.9895389080047607,-2.1722512245178223
4.241719961166382,-1.0418179035186768,0.09800393879413605,0.051411986351013184,-0.0747493794809169,-1.1354605753879397,-1.1311967572816313,-0.904196560382843,0.07467979192733765,-0.4205372929573059,1.1018931865692139,-1.8149350881576538,-2.021554946899414
4.261723041534424,-0.8672946691513062,-0.10904871672391891,0.28695744276046753,-0.045221370764171924,-1.1613711641602313,-1.14018650552951,-0.9164120554924011,0.04520595818758011,-0.39767512679100037,-0.6855502724647522,-0.6580236554145813,-0.9071974158287048
4.282077074050903,-0.6416728496551514,0.004596840590238571,0.266269326210022,-0.04563567073770497,-1.1706989741411629,-1.1599276187838712,-0.9200643301010132,0.04561983048915863,-0.3891025483608246,-0.704398512840271,-0.34852278232574463,0.16803734004497528
4.3023130893707275,-0.492512047290802,0.22562360763549805,0.11171916127204895,-0.05909399770022767,-1.1790589980676676,-1.1534249366607023,-0.9226338863372803,0.05905960872769356,-0.3811282813549042,0.8790861368179321,-0.7132909297943115,1.099721074104309
4.322489976882935,-0.5795427560806274,0.035361506044864655,0.17062416672706604,-0.0738976238989953,-1.1932053148728088,-1.118732829391664,-0.9270185828208923,0.07383038848638535,-0.3676760792732239,1.5138815641403198,-0.7135047316551208,1.5668973922729492
4.339950084686279,-0.8614347577095032,-0.39114508032798767,0.23149198293685913,-0.09531459283704956,-1.1982336447522068,-1.083640604783576,-0.9271700382232666,0.09517034143209457,-0.36235132813453674,0.7971285581588745,-0.1622331589460373,1.6703705787658691
4.359994173049927,-0.843513548374176,-0.38505417108535767,0.06896233558654785,-0.12740295567302626,-1.1983241798361162,-1.0682678250541986,-0.9238815903663635,0.12705858051776886,-0.3609697222709656,-0.5902453660964966,0.021960649639368057,1.9474170207977295
4.379936933517456,-0.8645922541618347,-0.25388723611831665,-0.0089474618434906,-0.1737512680710528,-1.1981095058162878,-1.073008257200348,-0.9173291921615601,0.17287833988666534,-0.35863664746284485,-1.31148362159729,0.01746416836977005,2.140251636505127
4.399993181228638,-0.8490394353866577,-0.104802206158638,-0.004444897174835205,-0.22495020384422326,-1.1987144385095432,-1.0796322846573645,-0.9081017971038818,0.223057821393013,-0.3543959856033325,-1.1139012575149536,0.10956870764493942,2.4185237884521484
4.41996693611145,-0.8193071484565735,-0.10802197456359863,0.0038867294788360596,-0.27787444397993916,-1.194082700324606,-1.078527326928795,-0.894209086894989,0.27431225776672363,-0.3537554144859314,-0.6728519797325134,0.2855037748813629,2.5197973251342773
4.439908027648926,-0.7827011346817017,-0.11350986361503601,-0.07478773593902588,-0.32742856863648695,-1.1851586638544633,-1.0686810053511235,-0.8773331046104431,0.3216092884540558,-0.35616618394851685,-0.4075954556465149,0.3012095093727112,2.431004047393799
4.459903001785278,-0.7009668946266174,-0.23144075274467468,-0.07288885116577148,-0.3756834005709893,-1.1770189052648747,-1.062462287020098,-0.8590613007545471,0.36690834164619446,-0.35692062973976135,-1.0060940980911255,0.3112656772136688,2.2683773040771484
4.4799721240997314,-0.6459707617759705,-0.2711096704006195,-0.055525124073028564,-0.42685304216204134,-1.1753039055549317,-1.0729727797761344,-0.8400064706802368,0.4140082597732544,-0.3506942689418793,-1.844887375831604,0.300428569316864,2.1119837760925293
4.499906063079834,-0.5854018926620483,-0.21398761868476868,-0.09265196323394775,-0.4805632168661697,-1.1801999991831196,-1.098999956584056,-0.8199478983879089,0.46227866411209106,-0.33761534094810486,-2.2756056785583496,0.3392224907875061,1.9141515493392944
4.519912958145142,-0.5111871957778931,-0.10421139001846313,-0.1442025601863861,-0.5287618725348868,-1.1892988868384895,-1.1298176017995187,-0.8013586401939392,0.5044646859169006,-0.32146507501602173,-1.9459335803985596,0.2458428293466568,1.5863094329833984
4.539984941482544,-0.36074376106262207,-0.06761801242828369,-0.10814166069030762,-0.5692225102627354,-1.1977864482181615,-1.1537518436188612,-0.7843979001045227,0.538977324962616,-0.3069583475589752,-1.4559237957000732,0.1536981761455536,1.421751856803894
4.559936046600342,-0.31500470638275146,-0.09285295009613037,-0.04060748219490051,-0.6037542129750452,-1.2044990162406364,-1.171001676097898,-0.768598198890686,0.5677369832992554,-0.29484158754348755,-1.2412282228469849,0.10772020369768143,1.278626561164856
4.579087018966675,-0.2697927951812744,-0.08678990602493286,0.017719537019729614,-0.6350263290815794,-1.2152234014072927,-1.1911840018752426,-0.7546977400779724,0.5931987166404724,-0.2802622318267822,-1.4361965656280518,0.0038443184457719326,1.086551308631897
4.600656032562256,-0.20550179481506348,-0.05954909324645996,0.04401719570159912,-0.6648647921348335,-1.2326570829624206,-1.2185849996946903,-0.7424353361129761,0.6169527173042297,-0.26107341051101685,-1.5767285823822021,-0.09448029845952988,0.9775677919387817
4.619945049285889,-0.09921002388000488,-0.030983805656433105,0.04120433330535889,-0.6915334858290164,-1.2525919527263656,-1.2468907409845966,-0.7316005825996399,0.6377191543579102,-0.2409875988960266,-1.3138790130615234,-0.13199855387210846,0.8413260579109192
4.640685081481934,0.042172372341156006,-0.06144946813583374,0.005879536271095276,-0.7136390467627304,-1.268239007747311,-1.2673865757489824,-0.7216463088989258,0.6545891761779785,-0.22525502741336823,-0.9062480926513672,-0.09916764497756958,0.8332667350769043
4.66011118888855,0.0752725601196289,-0.06402581930160522,-0.037437498569488525,-0.7335899152802814,-1.281166104364421,-1.2822092758413133,-0.7118387818336487,0.6695404648780823,-0.2121351659297943,-0.7916291356086731,-0.2158588320016861,0.7456279993057251
4.680850028991699,0.0746888518333435,-0.10289329290390015,-0.002912849187850952,-0.7524708365467356,-1.2984254669561943,-1.301884571143218,-0.7030916810035706,0.6834445595741272,-0.19638213515281677,-1.1506726741790771,-0.15497373044490814,0.6480734348297119
4.6999828815460205,0.13348889350891113,-0.10224366188049316,-0.02980649471282959,-0.7713128414104559,-1.3213165719117888,-1.331511383595687,-0.6947987675666809,0.6970771551132202,-0.17702627182006836,-1.292914867401123,-0.1061684638261795,0.6250629425048828
4.719958066940308,0.218250572681427,-0.024865806102752686,-0.07478958368301392,-0.7891310206590407,-1.3442786927630879,-1.3607687630987697,-0.6864665746688843,0.7097413539886475,-0.15821205079555511,-1.1207314729690552,-0.1132439523935318,0.6133368015289307
4.7405970096588135,0.2363572120666504,-0.09150898456573486,-0.075644850730896,-0.8052814382684618,-1.3633562299044328,-1.3861491396563537,-0.6780534982681274,0.7210257053375244,-0.14270836114883423,-1.0154372453689575,0.03459601849317551,0.5771026015281677
4.760494947433472,0.1959296464920044,-0.06353926658630371,-0.09665429592132568,-0.8197706017040808,-1.3797558739895837,-1.4125767190253964,-0.6699745059013367,0.7309893369674683,-0.12957239151000977,-1.0680818557739258,0.2651161253452301,0.4658147990703583
4.780486106872559,0.24475371837615967,-0.006910502910614014,-0.13829003274440765,-0.8321463243884942,-1.3942877951294852,-1.4417929127192122,-0.6628293395042419,0.7393781542778015,-0.11822536587715149,-1.0829660892486572,0.39053255319595337,0.43293261528015137
4.800318002700806,0.332222044467926,0.03270083665847778,-0.18281036615371704,-0.8446526132781472,-1.406102915078789,-1.4692880403156812,-0.6550065279006958,0.7477405071258545,-0.1088612973690033,-0.9425626993179321,0.45229125022888184,0.48842599987983704
4.820250034332275,0.4102790951728821,-0.018512845039367676,-0.17019133269786835,-0.8578577597478696,-1.4142160140975089,-1.4925666030145166,-0.6460578441619873,0.7564431428909302,-0.10199485719203949,-0.8264039158821106,0.515658974647522,0.6204911470413208
4.839956045150757,0.3875699043273926,-0.0232277512550354,-0.16083645820617676,-0.8738944279247199,-1.4214585518301863,-1.5156300043686852,-0.6347013115882874,0.7668343782424927,-0.09549584239721298,-0.8597556352615356,0.5589214563369751,0.7270933985710144
4.859957933425903,0.335096538066864,0.029182076454162598,-0.16109061241149902,-0.8924367646928997,-1.4274053381636067,-1.5403138061664796,-0.6210768818855286,0.778603196144104,-0.08967225253582001,-0.9373332858085632,0.7009719610214233,0.841794490814209
4.88227391242981,0.4100189208984375,0.04974055290222168,-0.18957042694091797,-0.9153711086588266,-1.4300530256222261,-1.5642616408363086,-0.6034699082374573,0.7927888035774231,-0.08549963682889938,-0.9774268865585327,0.7444732785224915,1.1770094633102417
4.900330066680908,0.44782960414886475,0.0024483799934387207,-0.11992120742797852,-0.9407097666385056,-1.4422053868661342,-1.5952737355693738,-0.584350049495697,0.807976484298706,-0.07555904984474182,-1.1968357563018799,0.6347406506538391,1.2555623054504395
4.920108079910278,0.5262290239334106,-0.16265201568603516,-0.06639217585325241,-0.9710224524681237,-1.4636250119040293,-1.635011417344688,-0.5612174272537231,0.8254632949829102,-0.06037774309515953,-1.509583830833435,0.44537681341171265,1.4320045709609985
4.940022230148315,0.5236561298370361,-0.2296767234802246,-0.05641770735383034,-1.0023614904929155,-1.5007084502055328,-1.6876041660853087,-0.5369924306869507,0.8427445292472839,-0.0376984104514122,-1.5370802879333496,0.284812867641449,1.468895673751831
4.959960222244263,0.5177078247070312,-0.2342836856842041,-0.08975398540496826,-1.0334205587197214,-1.5319490316070847,-1.7303181219471384,-0.5114975571632385,0.8590549230575562,-0.019880298525094986,-0.7966810464859009,0.1998642385005951,1.4828742742538452
4.980036020278931,0.4710931181907654,-0.1659783124923706,-0.10970836877822876,-1.0632199854983275,-1.5372579572480591,-1.7403039037274164,-0.48578736186027527,0.8739250898361206,-0.016298627480864525,0.1385699212551117,0.14197218418121338,1.467450737953186
5.000030040740967,0.4635618031024933,-0.27293479442596436,-0.043607115745544434,-1.0908611574467677,-1.5197435418875602,-1.7224860881184891,-0.4611204266548157,0.8870248794555664,-0.023561956360936165,0.5064307451248169,0.06289681047201157,1.3596043586730957
5.021259069442749,0.4734244644641876,-0.4495706558227539,0.02983766794204712,-1.1155406495114457,-1.4956472700262204,-1.6972511670181196,-0.4384513795375824,0.8981486558914185,-0.03301137313246727,0.4483460485935211,0.043667279183864594,1.1252931356430054
5.040064096450806,0.4773910343647003,-0.5045026540756226,0.05456554889678955,-1.1350530702086847,-1.4710711615426415,-1.6710920070357895,-0.4199874997138977,0.9065565466880798,-0.04202272370457649,0.576935887336731,0.048686448484659195,0.9099151492118835
5.0601489543914795,0.4409559667110443,-0.4148902893066406,0.025222841650247574,-1.1469234897169667,-1.42964697618019,-1.624942464225285,-0.4072035253047943,0.9115028977394104,-0.05786128714680672,1.2941677570343018,-0.1260242909193039,0.5043668150901794
5.080003023147583,0.4138025939464569,-0.3150760531425476,0.062435753643512726,-1.1481707361066544,-1.3554155316947756,-1.5408935861152009,-0.4006800055503845,0.9120151996612549,-0.08765845000743866,2.0190000534057617,-0.10467221587896347,0.2219165861606598
5.09994912147522,0.386238157749176,-0.40272295475006104,0.15298569202423096,-1.138528121947728,-1.2642883003639813,-1.43950351349963,-0.3994065225124359,0.9080178737640381,-0.1264047771692276,2.204911470413208,-0.01863018609583378,-0.06310251355171204
5.119957208633423,0.3973802328109741,-0.4498307704925537,0.1738244742155075,-1.1181172567461921,-1.187009720658541,-1.351623578103926,-0.4055590331554413,0.8992785811424255,-0.16376882791519165,2.044426679611206,-0.25673186779022217,-0.6146181225776672
5.14000391960144,0.5088918209075928,-0.43016088008880615,0.16165347397327423,-1.086253770780428,-1.1366358818652493,-1.2833003892293575,-0.42258813977241516,0.8848881125450134,-0.195939838886261,2.1041810512542725,-0.9038890600204468,-1.1248499155044556
5.160475015640259,0.4826452136039734,-0.32969415187835693,0.20466044545173645,-1.0408242314688734,-1.112243323934712,-1.2239085633761198,-0.45328742265701294,0.8628211617469788,-0.22376437485218048,2.417372226715088,-1.686319351196289,-1.5369396209716797
5.179933071136475,0.2794543206691742,-0.4756302237510681,0.5732508897781372,-0.9956450512553497,-1.090842130350076,-1.170819166595322,-0.48250314593315125,0.8391100168228149,-0.25116828083992004,2.1362380981445312,-0.6600797772407532,-1.5041906833648682
5.199956178665161,0.05589580535888672,-0.26858824491500854,0.2690291106700897,-0.9416854006876124,-1.077758054744633,-1.1369080280172226,-0.5183439254760742,0.8085509538650513,-0.27850472927093506,1.98530912399292,-1.0158474445343018,-2.1689984798431396
5.22005820274353,0.3358771800994873,-0.3571757674217224,0.21026527881622314,-0.8883459689295967,-1.0989600051306077,-1.1265591038445935,-0.5617836117744446,0.776029646396637,-0.2866659462451935,1.0726425647735596,-1.8929451704025269,-2.280564308166504
5.239957094192505,0.01710355281829834,-0.19879895448684692,0.12334895133972168,-0.8387563162939559,-1.1460294566288356,-1.1332364441357188,-0.6089920401573181,0.7438124418258667,-0.2754485011100769,0.943623423576355,-2.3372373580932617,-2.453749179840088
5.260066032409668,-0.2234606146812439,0.20957982540130615,0.007591426372528076,-0.7795464222008494,-1.1918956756270656,-1.1237140260641718,-0.6607862710952759,0.7029569149017334,-0.2630845010280609,2.103304386138916,-2.9429585933685303,-2.7115883827209473
5.280462980270386,-0.28220605850219727,0.1409916877746582,0.1607198417186737,-0.7108332431346197,-1.2231506079280468,-1.0805402300093567,-0.7124840021133423,0.6524654626846313,-0.2581776976585388,3.213472843170166,-3.0241315364837646,-2.5654211044311523
5.300211191177368,-0.5533398985862732,0.02746504545211792,0.06286895275115967,-0.6678432711444702,-1.2149361588882281,-1.0308921169640666,-0.7359668612480164,0.6192940473556519,-0.27354696393013,1.0967947244644165,2.8631927967071533,0.7369518280029297
5.319935083389282,-2.0068957805633545,0.9626003503799438,-1.4372090101242065,-0.6484201755976796,-1.2078058842571333,-1.0164898877630522,-0.7451031804084778,0.6039279699325562,-0.2830057144165039,0.8968217968940735,-3.1720240116119385,-2.537135362625122
5.340140104293823,0.120536208152771,0.8083603382110596,-0.43461307883262634,-0.6252514628435596,-1.262137897565064,-1.0070653093552866,-0.7724984288215637,0.5853011608123779,-0.246310293674469,0.3532494008541107,-1.847480058670044,0.7194992303848267
5.36001992225647,-1.012730598449707,0.16997092962265015,-0.09869775176048279,-0.6327334239642759,-1.2803539441326557,-0.9949995112350493,-0.7726395130157471,0.5913512110710144,-0.23093780875205994,0.5093017220497131,-1.1167128086090088,-0.16721802949905396
5.380040884017944,-0.26438939571380615,0.3785301446914673,-0.11666697263717651,-0.6294989113811691,-1.2799884138860493,-0.9658274058694657,-0.7743832468986511,0.588739812374115,-0.23176738619804382,1.753993034362793,-0.556422233581543,0.8869944214820862
5.400010108947754,-0.0813855528831482,-0.09448552131652832,0.056463927030563354,-0.6395703728278,-1.2631612761579134,-0.918248891105255,-0.7646839618682861,0.5968508124351501,-0.24295681715011597,1.5189645290374756,-0.5434167385101318,0.906864583492279
5.419965028762817,-0.15903586149215698,-0.2995445728302002,0.20657026767730713,-0.6477681380090267,-1.247158326229858,-0.8825745004898625,-0.7560337781906128,0.60340815782547,-0.25359779596328735,0.9157629013061523,-0.03630514070391655,0.860321044921875
5.4400410652160645,0.09615939855575562,-0.28777337074279785,0.19336897134780884,-0.6597932211856948,-1.2325319411385223,-0.8594021549196826,-0.7453446388244629,0.6129534840583801,-0.2622012794017792,0.4534834921360016,0.011785420589148998,0.8393577337265015
5.459960222244263,0.14448457956314087,-0.15736502408981323,0.11637979745864868,-0.6723214777462201,-1.2240883635272966,-0.8467200820297738,-0.7358237504959106,0.6228039264678955,-0.2658548057079315,0.09659702330827713,0.045769307762384415,0.6885164976119995
5.479954957962036,0.18408483266830444,-0.06551879644393921,0.03410595655441284,-0.6845071782709929,-1.219972393021955,-0.8409848918851248,-0.727541983127594,0.6322912573814392,-0.2662530839443207,-0.06647291034460068,-0.059588540345430374,0.6310083866119385
5.499957084655762,0.2084420919418335,0.011405467987060547,-0.047970086336135864,-0.69653530660589,-1.2193237544104876,-0.8355579375297497,-0.7201761603355408,0.641563892364502,-0.2640872895717621,0.06058718264102936,-0.2189464122056961,0.6276108026504517
5.519957065582275,0.15100091695785522,0.08654624223709106,-0.03315773606300354,-0.7057728789349875,-1.2182303233058194,-0.8250939276201438,-0.7142943739891052,0.6486222743988037,-0.262816846370697,0.36511778831481934,-0.34717610478401184,0.5307422876358032
5.539431095123291,0.12607550621032715,0.030740439891815186,-0.0024147331714630127,-0.7132808435023781,-1.2164998054490168,-0.8110412014164189,-0.7092512845993042,0.6543183326721191,-0.2623557150363922,0.2957073152065277,-0.39738646149635315,0.5578510761260986
5.559959173202515,0.08956784009933472,0.02223646640777588,-0.011021524667739868,-0.7223624479313436,-1.2193009313018803,-0.8025762368196834,-0.7043749690055847,0.6611589193344116,-0.25831127166748047,0.015024200081825256,-0.4699649512767792,0.48789241909980774
5.5800440311431885,0.07157731056213379,0.06199908256530762,-0.055082738399505615,-0.7304887953022497,-1.2271842534786732,-0.8001319247115732,-0.7013076543807983,0.6672337651252747,-0.2509321868419647,-0.08629471063613892,-0.5043001174926758,0.36698007583618164
5.599959135055542,0.08880597352981567,0.03583216667175293,-0.09241065382957458,-0.7374733740076854,-1.2386128780866472,-0.8005705509265735,-0.6997069716453552,0.6724199056625366,-0.24137532711029053,-0.20681743323802948,-0.6060341596603394,0.30703750252723694
5.620000123977661,0.04266822338104248,-0.02135258913040161,-0.03916071355342865,-0.7458057895862993,-1.256400778122771,-0.808936816106846,-0.69853675365448,0.6785638928413391,-0.2271508425474167,-0.693148672580719,-0.6306964159011841,0.25179412961006165
5.640005111694336,-0.0007650256156921387,-0.022581100463867188,-0.03793911635875702,-0.7547443907518617,-1.284392413463528,-0.8311304457601899,-0.6987741589546204,0.6851025223731995,-0.2057894468307495,-1.075691819190979,-0.689287543296814,0.1802656054496765
5.659959077835083,0.045945823192596436,0.03492635488510132,-0.03215527534484863,-0.76396341712127,-1.318055434315344,-0.8594378451226001,-0.6991594433784485,0.6917888522148132,-0.1805674135684967,-1.1091468334197998,-0.7082313299179077,0.14827680587768555
5.67999005317688,0.005561769008636475,0.09949600696563721,-0.047106727957725525,-0.7712018361060634,-1.3487615680531821,-0.885073569518022,-0.6994705200195312,0.6969975233078003,-0.1579103022813797,-0.8639177680015564,-0.594792366027832,0.07737058401107788
5.699956178665161,-0.07071983814239502,0.18666082620620728,-0.13518469035625458,-0.7739839956432077,-1.3732445304578715,-0.9022674068008828,-0.70122230052948,0.6989898681640625,-0.14035840332508087,-0.39597949385643005,-0.6765411496162415,-0.032470449805259705
5.719957113265991,-0.09794992208480835,0.23317557573318481,-0.1458483785390854,-0.77425306744277,-1.3914183030468232,-0.9090640009945491,-0.7034721970558167,0.6991822719573975,-0.12755852937698364,-0.1720837652683258,-0.6692892909049988,-0.07287412881851196
5.7399561405181885,-0.08138614892959595,0.2097846269607544,-0.13336996734142303,-0.7728869717863882,-1.4072824060450166,-0.9127484446185025,-0.7063488960266113,0.6982049345970154,-0.11653835326433182,-0.05440611392259598,-0.6454137563705444,-0.05145600810647011
5.75999903678894,0.008957207202911377,0.10840117931365967,-0.08678191900253296,-0.7751117516183746,-1.4183184051898647,-0.912953265428754,-0.7060550451278687,0.6997959017753601,-0.10849996656179428,-0.040131330490112305,-0.4269559681415558,0.2693098485469818
5.779958009719849,-0.00968778133392334,0.0749618411064148,-0.07377547025680542,-0.7807985215428491,-1.424615304269915,-0.9135869723301342,-0.7027756571769714,0.7038468718528748,-0.10347053408622742,-0.04527958109974861,-0.20751629769802094,0.22512666881084442
5.799957036972046,0.03457939624786377,-0.017116308212280273,-0.0989266186952591,-0.7850053257548467,-1.4269256690881427,-0.9121197215069868,-0.7000763416290283,0.7068289518356323,-0.10142117738723755,0.07827182114124298,-0.118686743080616,0.2689940333366394
5.819956064224243,0.09376305341720581,-0.06064248085021973,-0.08574831485748291,-0.7919869410902142,-1.4270533584016243,-0.9089346822375807,-0.6951882839202881,0.7117503881454468,-0.10062240809202194,0.006689291447401047,-0.14938776195049286,0.3909893333911896
5.839956998825073,0.028213143348693848,-0.03961414098739624,-0.09006470441818237,-0.7990041912108071,-1.4297018392481526,-0.9079769722825922,-0.6904904246330261,0.7166619300842285,-0.09807607531547546,-0.024365762248635292,-0.17251570522785187,0.32806849479675293
5.860016107559204,-0.04292184114456177,-0.009563565254211426,-0.08614908158779144,-0.8047227102001491,-1.4302911777413951,-0.9069732752477956,-0.686478853225708,0.7206383943557739,-0.09709358960390091,0.046864088624715805,0.0479515939950943,0.21282851696014404
5.879957914352417,-0.05859464406967163,-0.0391538143157959,-0.11905725300312042,-0.8072842660135929,-1.4230375431559474,-0.9005916211997601,-0.6839286684989929,0.7224119901657104,-0.1017983928322792,0.36967748403549194,0.20804397761821747,0.15916073322296143
5.899957895278931,0.009614527225494385,-0.08760470151901245,-0.1223706528544426,-0.8102518191442711,-1.4060160442393905,-0.8847741651603208,-0.6799789071083069,0.724460780620575,-0.11307237297296524,0.6057842969894409,0.3316887617111206,0.296551913022995
5.919964075088501,0.019217371940612793,-0.15677040815353394,-0.10275985300540924,-0.8141747249828648,-1.3856366509192743,-0.8667617326530106,-0.6747350692749023,0.727159321308136,-0.12638133764266968,0.495173841714859,0.3972714841365814,0.2929745614528656
5.939955949783325,0.02185434103012085,-0.24183523654937744,-0.09167224168777466,-0.8182915702711809,-1.3681442218966422,-0.8545326273207229,-0.6694832444190979,0.7299792170524597,-0.13756047189235687,0.21696129441261292,0.4544849991798401,0.2696040868759155
5.959999084472656,0.02885878086090088,-0.28089332580566406,-0.08156508207321167,-0.8232097263501329,-1.356861496714564,-0.8521482769977128,-0.6643722057342529,0.7333317995071411,-0.14434117078781128,-0.17261111736297607,0.4826506972312927,0.2463628202676773
5.979960203170776,0.007298111915588379,-0.26399344205856323,-0.10492956638336182,-0.8291414255677723,-1.353728842390653,-0.8606813888645872,-0.6596572399139404,0.737351655960083,-0.14548230171203613,-0.510160505771637,0.48271042108535767,0.19926217198371887
5.999959230422974,-0.02762293815612793,-0.23224526643753052,-0.10976754128932953,-0.835359753293602,-1.354012075927779,-0.8761388739105122,-0.6552078723907471,0.7415379285812378,-0.14430645108222961,-0.6182577610015869,0.6522306203842163,0.1792694330215454
6.019957065582275,-0.04070168733596802,-0.19548660516738892,-0.11994494497776031,-0.8408115984251551,-1.351290013778712,-0.8921179232750266,-0.6508572697639465,0.745184600353241,-0.1452069729566574,-0.5261534452438354,0.7920002937316895,0.13307298719882965
6.0399580001831055,-0.012784779071807861,-0.16524767875671387,-0.14020800590515137,-0.8455897350997257,-1.3447100414957078,-0.9047626584606415,-0.6464102268218994,0.7483624219894409,-0.14868652820587158,-0.417607843875885,0.8014295697212219,0.15299782156944275
6.059957027435303,-0.032211899757385254,-0.12617820501327515,-0.15766048431396484,-0.8506778715524022,-1.3370511209033729,-0.9154015553092043,-0.641539990901947,0.7517276406288147,-0.1527489870786667,-0.4383241534233093,0.7622614502906799,0.1650417298078537
6.0799560546875,-0.08093196153640747,-0.11189520359039307,-0.14771443605422974,-0.8556422251945971,-1.3321304204801931,-0.9292249216642616,-0.6371467113494873,0.7549921870231628,-0.1550198197364807,-0.5782476663589478,0.8106865882873535,0.12178323417901993
6.100003004074097,-0.08485567569732666,-0.1183767318725586,-0.12201040983200073,-0.8617552495515822,-1.3294225409394058,-0.9491131742193101,-0.6322311758995056,0.7589865922927856,-0.1556384116411209,-0.8223406672477722,0.9636072516441345,0.1417919546365738
6.119957208633423,-0.06101369857788086,-0.1153784990310669,-0.13204477727413177,-0.8686612850685397,-1.3272627321626314,-0.9727964533828257,-0.6267914772033691,0.7634649872779846,-0.15573585033416748,-0.8123553395271301,1.0347338914871216,0.18035352230072021
6.139999151229858,-0.012517392635345459,-0.09807682037353516,-0.14445213973522186,-0.8763777324118911,-1.32209308234245,-0.9928842901569963,-0.6202493906021118,0.7684258818626404,-0.15751920640468597,-0.6077597737312317,1.0163770914077759,0.24683578312397003
6.159916162490845,0.013410568237304688,-0.083210289478302,-0.15327435731887817,-0.8835070809752046,-1.3130885435240705,-1.0059208691325714,-0.613493025302887,0.7729686498641968,-0.16169749200344086,-0.3839639723300934,0.882580041885376,0.21767641603946686
6.179951906204224,0.028309285640716553,-0.09076768159866333,-0.14837628602981567,-0.8887495680796267,-1.3033677154975178,-1.014335552280649,-0.6079754829406738,0.7762840986251831,-0.16658027470111847,-0.2888219356536865,0.765811026096344,0.15442116558551788
6.199956178665161,0.0608210563659668,-0.11139267683029175,-0.1387806385755539,-0.8940357581791244,-1.2952472817790954,-1.0222347595752903,-0.6026454567909241,0.7796055674552917,-0.17039285600185394,-0.38898536562919617,0.6550429463386536,0.21881790459156036
6.219956159591675,0.04633611440658569,-0.06493216753005981,-0.15255875885486603,-0.9004983657663925,-1.2933808387404895,-1.0346311649038646,-0.5974684357643127,0.7836366295814514,-0.1701340228319168,-0.4893507957458496,0.5128190517425537,0.18139582872390747
6.239955186843872,0.04128521680831909,-0.013408243656158447,-0.1393040418624878,-0.9069185733889042,-1.2940967780761974,-1.0476723756080304,-0.5927379727363586,0.787608802318573,-0.16832830011844635,-0.48083725571632385,0.455210417509079,0.23779352009296417
6.259956121444702,0.02976173162460327,0.02872753143310547,-0.1320197433233261,-0.9147481149680348,-1.2948994946150811,-1.0597841894217674,-0.5869211554527283,0.7924089431762695,-0.16616740822792053,-0.4686008095741272,0.40436720848083496,0.30379214882850647
6.2799599170684814,0.015614807605743408,0.055818259716033936,-0.11754804849624634,-0.923012110419405,-1.2982699749932685,-1.0728315156132908,-0.5811513662338257,0.7974228262901306,-0.1624201387166977,-0.5058218240737915,0.3023744821548462,0.2740529775619507
6.299999952316284,0.021200478076934814,0.06776964664459229,-0.09315581619739532,-0.9302730606712565,-1.3037804380379097,-1.0858601611261647,-0.5764374136924744,0.8017831444740295,-0.1576833575963974,-0.4232428967952728,0.1700855791568756,0.20973989367485046
6.319958925247192,0.001069188117980957,0.12388622760772705,-0.0870177149772644,-0.934558013295468,-1.3091075943879864,-1.0944940872447757,-0.5739452242851257,0.8043365478515625,-0.15372009575366974,-0.1674141138792038,-0.012337936088442802,0.05508013442158699
6.33995795249939,-0.043924927711486816,0.16738438606262207,-0.0636027604341507,-0.9342321660871413,-1.311868138617469,-1.0957096745332973,-0.5746207237243652,0.8041428923606873,-0.15220220386981964,0.072092205286026,-0.15267249941825867,-0.0887046605348587
6.359968900680542,-0.09415096044540405,0.20014512538909912,-0.0016106963157653809,-0.93161815042223,-1.3132048907863492,-1.0935257650549668,-0.5768543481826782,0.8025862574577332,-0.15196891129016876,0.10100848972797394,-0.1222531646490097,-0.11109078675508499
6.379957914352417,-0.06990706920623779,0.1452394723892212,0.0818401426076889,-0.9299906714591291,-1.3121162947660892,-1.0913887565708713,-0.5779507160186768,0.8016143441200256,-0.15293076634407043,0.05168932303786278,0.08005093783140182,0.008767441846430302
6.399956941604614,0.018448829650878906,0.0547945499420166,0.14709021151065826,-0.9315846115046363,-1.3077040208856319,-1.0900118512819086,-0.5760354995727539,0.8025662899017334,-0.1551467627286911,-0.03204890340566635,0.2184566706418991,0.13291926681995392
6.419994115829468,0.07502859830856323,0.02332329750061035,0.19210787117481232,-0.9336721540443842,-1.3032158959964453,-1.0900329931078312,-0.5737163424491882,0.8038098812103271,-0.15728719532489777,-0.007983168587088585,0.21278412640094757,0.05363830178976059
6.439968109130859,0.1006346344947815,0.010909795761108398,0.1971689611673355,-0.9338142012845613,-1.299871573764313,-1.0899991628503358,-0.5730773210525513,0.8038943409919739,-0.15917450189590454,-0.0037083816714584827,0.09690626710653305,-0.039675045758485794
6.459958076477051,0.11151784658432007,-0.01955389976501465,0.17482896149158478,-0.9322371916575342,-1.2997996964438097,-1.0899924724694081,-0.5742864608764648,0.8029553890228271,-0.15955480933189392,0.030720312148332596,-0.09294986724853516,-0.09691958129405975
6.479996919631958,0.13334757089614868,-0.0007180571556091309,0.1827598363161087,-0.9304620891926321,-1.3035148798917244,-1.090775392146334,-0.5762491822242737,0.8018960952758789,-0.15779636800289154,-0.010761070996522903,-0.2106282114982605,-0.08677005767822266
6.499959230422974,0.1441078782081604,0.014933228492736816,0.17749524116516113,-0.9284033780008945,-1.309651257233387,-1.0919697784436906,-0.57880038022995,0.8006644248962402,-0.15468324720859528,0.032505523413419724,-0.2648729979991913,-0.15310005843639374
6.519957065582275,0.1554155945777893,0.003504335880279541,0.16444922983646393,-0.9250235455868772,-1.3141025708716045,-1.0907967804590886,-0.5820971131324768,0.798634946346283,-0.15279142558574677,0.15940873324871063,-0.2540835440158844,-0.171487957239151
6.5399580001831055,0.16230684518814087,0.003545045852661133,0.16288411617279053,-0.9205575804465795,-1.3150879683678791,-1.086132358331864,-0.5856925249099731,0.7959392666816711,-0.15311841666698456,0.2653736174106598,-0.1932087391614914,-0.21782325208187103
6.559929132461548,0.17742812633514404,-0.01622873544692993,0.14071659743785858,-0.9145046050235228,-1.3132380978229912,-1.0789399015722252,-0.5900564193725586,0.7922604084014893,-0.15542598068714142,0.31898218393325806,-0.18306653201580048,-0.2774621248245239
6.5799880027771,0.19036364555358887,-0.031025290489196777,0.12604528665542603,-0.9072542286086683,-1.3113704705392173,-1.0719801719759716,-0.5953014492988586,0.7878155708312988,-0.15799708664417267,0.2681916654109955,-0.18661201000213623,-0.3105805814266205
6.599957227706909,0.17042416334152222,-0.027974605560302734,0.12442393600940704,-0.9000057682956852,-1.311903348323428,-1.0675762882294009,-0.6008898615837097,0.783330500125885,-0.15913759171962738,0.16670437157154083,-0.18145371973514557,-0.332472026348114
6.619963884353638,0.14816462993621826,-0.029786646366119385,0.1249922662973404,-0.8924747972993382,-1.3131970581727954,-1.065997233006404,-0.6067827939987183,0.7786270380020142,-0.15985848009586334,0.14094026386737823,-0.06872930377721786,-0.3751457929611206
6.640016078948975,0.17577135562896729,-0.04281961917877197,0.13861876726150513,-0.8844205284185018,-1.31188561769564,-1.0643991420787278,-0.6126152276992798,0.773547887802124,-0.16225452721118927,0.18725629150867462,0.07888039201498032,-0.3741503357887268
6.659958124160767,0.2271856665611267,-0.06108492612838745,0.15637798607349396,-0.8757271619448637,-1.3061770270387922,-1.0603716587549563,-0.6181463599205017,0.7680094242095947,-0.1675015091896057,0.27962398529052734,0.1715669184923172,-0.3979540765285492
6.67995810508728,0.2796555161476135,-0.07785654067993164,0.16540922224521637,-0.8665131939816886,-1.2978159462156966,-1.0544002100765297,-0.623512327671051,0.7620759010314941,-0.1745644062757492,0.34213733673095703,0.18276426196098328,-0.39334625005722046
6.69999623298645,0.30591505765914917,-0.08380043506622314,0.15869300067424774,-0.8569413828139311,-1.2897604081781004,-1.0466651930074253,-0.6290658116340637,0.755843460559845,-0.18159635365009308,0.40716293454170227,0.013384915888309479,-0.3889344334602356
6.719998121261597,0.26195377111434937,-0.08419382572174072,0.1694486141204834,-0.8470184584820906,-1.2839002341744294,-1.0375194644590313,-0.6351532936096191,0.7493093013763428,-0.18739283084869385,0.4259832203388214,-0.08078321814537048,-0.42921000719070435
6.7399680614471436,0.1900128722190857,-0.08475983142852783,0.21633240580558777,-0.8354826263407603,-1.2803624221254624,-1.0323118117474512,-0.6427260041236877,0.7416203618049622,-0.1921014040708542,0.2676626741886139,0.06248028948903084,-0.5727267265319824
6.759958982467651,0.21555036306381226,-0.12564629316329956,0.17927902936935425,-0.8223959706161547,-1.2764607547650029,-1.0298227826209667,-0.6512041091918945,0.7327783107757568,-0.19740639626979828,0.27719318866729736,0.1347188949584961,-0.603233814239502
6.779994010925293,0.2792755365371704,-0.13361281156539917,0.1577051430940628,-0.809525797590042,-1.2717213411148156,-1.0268350508758035,-0.6592193841934204,0.7239601016044617,-0.20325250923633575,0.28917595744132996,0.1123298704624176,-0.5830286145210266
6.799965143203735,0.2808525562286377,-0.17027992010116577,0.17660468816757202,-0.7967164240420452,-1.2684159601538412,-1.0250765777569353,-0.667342483997345,0.715064525604248,-0.20817501842975616,0.20056886970996857,0.11841759085655212,-0.6213632225990295
6.819966077804565,0.23749399185180664,-0.21804380416870117,0.18875300884246826,-0.782591965113095,-1.2664676220786444,-1.0266730831110888,-0.6765047311782837,0.7051197290420532,-0.2124803513288498,0.13138580322265625,0.19707883894443512,-0.7705569863319397
6.839996099472046,0.22237133979797363,-0.22234004735946655,0.13299793004989624,-0.7654903902090235,-1.2641094262095693,-1.0287263386314187,-0.6873982548713684,0.6928907036781311,-0.21768411993980408,0.2706560790538788,0.15615032613277435,-0.8954951763153076
6.860034227371216,0.24198490381240845,-0.17034810781478882,0.09896740317344666,-0.7457554809224949,-1.2619074496301743,-1.0277631445064015,-0.699809730052948,0.6785269379615784,-0.22331124544143677,0.4007990062236786,0.014353240840137005,-0.968881368637085
6.879967927932739,0.2552812099456787,-0.17598295211791992,0.07935923337936401,-0.7243678598645688,-1.2603628889276892,-1.024480578106525,-0.7131212949752808,0.662662148475647,-0.22877322137355804,0.46306902170181274,-0.09686604887247086,-1.0102498531341553
6.900014162063599,0.25289541482925415,-0.16916275024414062,0.12739837169647217,-0.7020927579010763,-1.2618834508227033,-1.0225843375741843,-0.7273522615432739,0.6458169221878052,-0.2321193814277649,0.3977331817150116,-0.16057045757770538,-1.0761263370513916
6.919969081878662,0.21961718797683716,-0.11062455177307129,0.06981320679187775,-0.677751455742835,-1.262388780626465,-1.0167744887010397,-0.7422307133674622,0.6270430088043213,-0.2364543378353119,0.7882893681526184,-0.27101805806159973,-1.0978169441223145
6.9399590492248535,0.22660404443740845,-0.05641728639602661,0.0505237877368927,-0.6514359754960037,-1.259648740837833,-1.000973450049206,-0.7570302486419678,0.6063289642333984,-0.24345585703849792,1.1953901052474976,-0.42917120456695557,-1.017870545387268
6.959958076477051,0.23523128032684326,-0.1341787576675415,0.050468653440475464,-0.6257453410992223,-1.2568957884597876,-0.9793785779447014,-0.7709215879440308,0.5857015252113342,-0.2502671182155609,1.178131341934204,-0.5891746282577515,-0.9042037129402161
6.979979038238525,0.2077786922454834,-0.20674681663513184,0.0774502158164978,-0.6026823790026427,-1.25799960010401,-0.9598301418431039,-0.7838438749313354,0.5668542981147766,-0.253506064414978,1.0493361949920654,-0.6044894456863403,-0.796360433101654
7.000011205673218,0.1699475646018982,-0.21505588293075562,0.07193005084991455,-0.5815077609039583,-1.2589990969961282,-0.9408877309646134,-0.795344352722168,0.5492845177650452,-0.2563476860523224,1.1767723560333252,-0.5652357339859009,-0.7560697197914124
7.019956111907959,0.1618620753288269,-0.1442950963973999,0.038793981075286865,-0.5588965666079659,-1.2568235185383885,-0.9157928392075617,-0.8063934445381165,0.5302509665489197,-0.2618468701839447,1.548401951789856,-0.5733840465545654,-0.7561445832252502
7.039966106414795,0.14140909910202026,-0.09839200973510742,0.046224117279052734,-0.5339410296935571,-1.2523382734933475,-0.883935110020438,-0.81752610206604,0.5089297294616699,-0.26952120661735535,1.7679721117019653,-0.6360974907875061,-0.7720368504524231
7.059959173202515,0.096241295337677,-0.11541256308555603,0.060970038175582886,-0.5083834045302867,-1.2488916049495997,-0.8511445683489232,-0.828663170337677,0.4867657423019409,-0.2763630151748657,1.7468607425689697,-0.6828336715698242,-0.7576915621757507
7.079970121383667,0.05067485570907593,-0.12724032998085022,0.09562358260154724,-0.48255913417701407,-1.2477748964155535,-0.8206370361295809,-0.8399967551231384,0.4640476107597351,-0.2811855673789978,1.6014527082443237,-0.655512273311615,-0.8716148138046265
7.099967002868652,-0.013169348239898682,-0.08075982332229614,0.0851702094078064,-0.454338915549481,-1.2492810384606299,-0.7935420418314786,-0.8525076508522034,0.4388684034347534,-0.2839463949203491,1.6394240856170654,-0.7224909067153931,-1.0616233348846436
7.119965076446533,-0.061584532260894775,-0.021532118320465088,0.024686336517333984,-0.42227628423730423,-1.2532221384545985,-0.7635470632743527,-0.8665466904640198,0.40983784198760986,-0.2848333418369293,1.919311285018921,-0.9456461071968079,-1.1175638437271118
7.139959096908569,-0.19403904676437378,0.05056983232498169,0.024922192096710205,-0.3877545631443922,-1.2622464691775144,-0.7319405229868707,-0.8820413947105408,0.3781106472015381,-0.28113242983818054,1.8585851192474365,-1.249699354171753,-1.321265459060669
7.159968137741089,-0.3167262077331543,-0.027745991945266724,0.1335735321044922,-0.3513520209582643,-1.2789883616084017,-0.709225513883191,-0.8992162942886353,0.3441675305366516,-0.2701091170310974,1.1356972455978394,-1.2140531539916992,-1.4834294319152832
7.180030107498169,-0.4373636841773987,-0.04061412811279297,0.186997652053833,-0.3181881964410378,-1.2974273563187513,-0.6994350968885035,-0.9145346283912659,0.31284621357917786,-0.25642505288124084,0.8312600255012512,-0.9279100894927979,-1.445788860321045
7.200000047683716,-0.5624555349349976,0.12983369827270508,0.040966227650642395,-0.28320828393878433,-1.311324394859123,-0.6834342396982976,-0.9280230402946472,0.2794375717639923,-0.24634945392608643,1.698980450630188,-1.0139873027801514,-1.5591737031936646
7.219956159591675,-0.5564792156219482,0.2133086621761322,0.010648563504219055,-0.24146945790306004,-1.3245833694088958,-0.6486239355618504,-0.9417049884796143,0.2391297072172165,-0.2366616129875183,2.4280240535736084,-1.180359959602356,-1.6289738416671753
7.239958047866821,-0.5987989902496338,-0.04931230843067169,0.13197417557239532,-0.2001672052877876,-1.3381468836501371,-0.6113486980187679,-0.953630268573761,0.19883319735527039,-0.22595296800136566,1.9524134397506714,-0.9043763279914856,-1.4722256660461426
7.259967088699341,-0.7537435293197632,-0.15765589475631714,0.1918005496263504,-0.16678994852058188,-1.3491564507909901,-0.5904995346972516,-0.9620005488395691,0.16601771116256714,-0.21677906811237335,0.7669806480407715,-0.5748955607414246,-1.3634874820709229
7.279956102371216,-0.713146448135376,-0.10411201417446136,0.2698720097541809,-0.14137140060647993,-1.3560033600610966,-0.5931151766495715,-0.9672735333442688,0.14090096950531006,-0.21101877093315125,-0.3576655089855194,-0.08196264505386353,-1.1243131160736084
7.299957036972046,-0.6491396427154541,-0.07458227872848511,0.2934669852256775,-0.12741699842841378,-1.3552128304726887,-0.6105756121826047,-0.9689329862594604,0.1270725131034851,-0.21218335628509521,-0.9442384243011475,0.28227823972702026,-0.6099094748497009
7.3193981647491455,-0.6487828493118286,0.014723159372806549,0.26065605878829956,-0.12380699298107396,-1.3512544445779249,-0.6299502836673877,-0.9685267806053162,0.12349094450473785,-0.2161155641078949,-0.7191689014434814,0.3181212246417999,-0.11864469200372696
7.339956045150757,-0.6941571235656738,0.10005532205104828,0.20503512024879456,-0.12564733060363384,-1.3476113541223798,-0.6374855772913345,-0.9675097465515137,0.12531699240207672,-0.2195918709039688,0.008623971603810787,0.13218168914318085,0.09192702174186707
7.360056161880493,-0.7374645471572876,-0.04164533317089081,0.23641538619995117,-0.13087053657442432,-1.3416065586131138,-0.6305892062517156,-0.9655232429504395,0.1304972916841507,-0.22524583339691162,0.3023940920829773,0.4867730736732483,0.6042289137840271
7.379970073699951,-0.7343652844429016,-0.22437408566474915,0.2639039158821106,-0.14876559399372363,-1.3316511036451029,-0.6238533770263242,-0.9608100056648254,0.14821746945381165,-0.23425598442554474,0.1640285849571228,0.402548223733902,1.2146575450897217
7.399956941604614,-0.6589514017105103,-0.1189049482345581,0.08230331540107727,-0.1738876034159561,-1.3289351356482568,-0.619075517537785,-0.9562524557113647,0.1730126291513443,-0.23589815199375153,-0.03750798478722572,-0.11695675551891327,1.4053095579147339
7.42000412940979,-0.7350686192512512,-0.20112445950508118,-0.049138665199279785,-0.2074461867579915,-1.3329540081686564,-0.6154112917435661,-0.9510124325752258,0.20596151053905487,-0.23055490851402283,-0.5800763368606567,-0.20486539602279663,1.899514079093933
7.439958095550537,-0.9903197288513184,-0.14991138875484467,-0.03491237759590149,-0.25124002962670927,-1.3319481547975378,-0.6223385920575003,-0.9411072731018066,0.24860525131225586,-0.22915609180927277,-1.1238489151000977,0.4652286171913147,2.1490976810455322
7.459920167922974,-1.079380750656128,-0.06320449709892273,0.009134024381637573,-0.2999035381639432,-1.321398941394461,-0.6373115766703245,-0.9258074760437012,0.2954280376434326,-0.2358032763004303,-1.3895478248596191,0.9128370881080627,2.290623903274536
7.479924917221069,-0.9628558158874512,-0.06376960873603821,0.012560755014419556,-0.35429263803360717,-1.3079916034442949,-0.6535675055338699,-0.9056899547576904,0.3469270169734955,-0.2436550408601761,-1.4538084268569946,0.8788678646087646,2.5369720458984375
7.499957084655762,-0.9149145483970642,-0.004878908395767212,0.03655947744846344,-0.40844466154322007,-1.2989430993863522,-0.6678772674922843,-0.8840356469154358,0.3971824049949646,-0.24642877280712128,-1.2351093292236328,0.5840151906013489,2.3447811603546143
7.519958019256592,-0.8285681009292603,-0.017796427011489868,0.04807668924331665,-0.4580209248941602,-1.2931455300788521,-0.6788888351718908,-0.862578809261322,0.44217389822006226,-0.24584582448005676,-1.1146464347839355,0.47971275448799133,2.1496341228485107
7.539956092834473,-0.7395595908164978,-0.04490882158279419,0.009318679571151733,-0.5037685758183927,-1.2904804106357493,-0.6919549171146104,-0.8415868878364563,0.48272937536239624,-0.24228982627391815,-1.2870827913284302,0.4166366159915924,1.9322024583816528
7.5599281787872314,-0.6425402760505676,-0.01755237579345703,-0.05611139535903931,-0.5461650488508464,-1.2928357476393202,-0.7113182228449721,-0.8217237591743469,0.5194140076637268,-0.23447686433792114,-1.4779807329177856,0.3174743950366974,1.6781736612319946
7.580003976821899,-0.5207986235618591,0.013594508171081543,-0.0980803370475769,-0.5839230445650282,-1.3009842414883601,-0.7359219239144251,-0.8041221499443054,0.5513011813163757,-0.22238467633724213,-1.5182019472122192,0.20553916692733765,1.3992974758148193
7.599959135055542,-0.3857719302177429,0.03206676244735718,-0.12027981877326965,-0.6160826333769849,-1.312888245397857,-0.7623419937830617,-0.7891550064086914,0.5778424739837646,-0.20816554129123688,-1.4293320178985596,0.10251948982477188,1.1579471826553345
7.6199791431427,-0.2585964798927307,0.04137134552001953,-0.1240297257900238,-0.6438653937412094,-1.3276421725626149,-0.7901467404280867,-0.7762547731399536,0.60029137134552,-0.19255957007408142,-1.4379167556762695,0.04938969761133194,0.9898225665092468
7.6399571895599365,-0.1658739447593689,0.055158913135528564,-0.11055617034435272,-0.6691470067500531,-1.3448144010814134,-0.8190873337829608,-0.7644087076187134,0.6203171610832214,-0.1757444143295288,-1.3634591102600098,0.014087367802858353,0.9294954538345337
7.659959077835083,-0.12008380889892578,0.07782161235809326,-0.08396238088607788,-0.6906290580384126,-1.3624065469779443,-0.8456914906311411,-0.7541686296463013,0.6370221972465515,-0.15947623550891876,-1.122484803199768,-0.0770057886838913,0.7042286396026611
7.67995810508728,-0.034652769565582275,0.030443549156188965,-0.05052880942821503,-0.7071317906671613,-1.3799756937707983,-0.8701776803949303,-0.7464293837547302,0.6496559381484985,-0.14418847858905792,-1.105170726776123,-0.10212685912847519,0.5342127680778503
7.6999571323394775,0.08469676971435547,-0.018602073192596436,-0.03298817574977875,-0.720643030946084,-1.4007940785525206,-0.8987279639682653,-0.7405501008033752,0.6598679423332214,-0.1271221935749054,-1.2594634294509888,-0.08167235553264618,0.45322510600090027
7.719956159591675,0.13095003366470337,0.012690961360931396,-0.05291873216629028,-0.7334109602468254,-1.4238843782496315,-0.9316176320278654,-0.7348929643630981,0.6694074869155884,-0.10874806344509125,-1.3165435791015625,-0.057744741439819336,0.41347187757492065
7.739988088607788,0.12479829788208008,0.06763714551925659,-0.06323779374361038,-0.7437713846415948,-1.4465973436830406,-0.9635933992373202,-0.7302519083023071,0.6770681738853455,-0.09116578847169876,-1.146339774131775,-0.03754040598869324,0.28013503551483154
7.759959936141968,0.19640886783599854,0.03184783458709717,-0.031575679779052734,-0.7502701205742858,-1.4657920829747242,-0.9913413602385032,-0.7274758815765381,0.6818363666534424,-0.07667004317045212,-0.9774086475372314,0.03279607743024826,0.16511045396327972
7.779957056045532,0.2649485468864441,-0.02570939064025879,-0.01721782237291336,-0.7538235630509932,-1.4813188072012633,-1.016480047560178,-0.7261608242988586,0.6844314336776733,-0.06514903157949448,-0.8949141502380371,0.13592369854450226,0.020015450194478035
7.799957036972046,0.3911501169204712,-0.07730025053024292,-0.01602434366941452,-0.756318125040305,-1.496826770577288,-1.0437781642735646,-0.725378692150116,0.6862480044364929,-0.053754013031721115,-1.1507030725479126,0.1806286722421646,0.09384248405694962
7.819994211196899,0.4375106692314148,-0.08803820610046387,-0.0213470496237278,-0.760411124168971,-1.5166468755055622,-1.0774975158143245,-0.7234910130500793,0.6892193555831909,-0.039214976131916046,-1.2491083145141602,0.18280963599681854,0.1347009837627411
7.839966058731079,0.42770808935165405,-0.05198264122009277,-0.0008783340454101562,-0.7622883097305034,-1.5339641689308392,-1.1093565296984267,-0.7227674126625061,0.690578281879425,-0.0266331285238266,-1.0559810400009155,0.2736283242702484,-0.10574540495872498
7.859960079193115,0.5794540047645569,-0.10279041528701782,0.003216266632080078,-0.761586841280822,-1.5464475720631432,-1.1341354579710106,-0.7235276103019714,0.6900707483291626,-0.017620477825403214,-0.8024638891220093,0.20097282528877258,0.07804194837808609
7.879957914352417,0.6016675233840942,-0.11786103248596191,-0.007633805274963379,-0.7655932861020357,-1.55668558551906,-1.1546356267271582,-0.720899760723114,0.6929648518562317,-0.010173105634748936,-0.6883026361465454,0.2043181210756302,0.2710442841053009
7.899998903274536,0.5684259533882141,-0.07274109125137329,-0.05098319053649902,-0.7720689418108224,-1.5638159531629128,-1.1715331443037202,-0.7164515256881714,0.6976190805435181,-0.005001180339604616,-0.48587849736213684,0.22359301149845123,0.4103640019893646
7.919956922531128,0.5875986814498901,-0.026367127895355225,-0.08918803930282593,-0.7818449918744641,-1.5663674649141865,-1.1805273372508749,-0.7096080183982849,0.70458984375,-0.0031427766662091017,-0.12994179129600525,0.1530972719192505,0.5863438844680786
7.939956903457642,0.6124506592750549,-0.09096604585647583,-0.08366948366165161,-0.7959112837535153,-1.5622985848516304,-1.179317357754525,-0.6996091604232788,0.7145014405250549,-0.005945241078734398,0.17993193864822388,0.16222472488880157,0.8238927125930786
7.959971189498901,0.5910782217979431,-0.194585382938385,-0.054526329040527344,-0.8129139988622903,-1.555066942255174,-1.1738943489929632,-0.6873002648353577,0.7262932658195496,-0.010811702348291874,0.13365742564201355,0.20340846478939056,0.8416039347648621
7.9799559116363525,0.5679569840431213,-0.2944888472557068,-0.03794151544570923,-0.8293119469383924,-1.547219549451464,-1.1706519188217817,-0.6751958131790161,0.7374668717384338,-0.01592189259827137,0.05389384552836418,0.3070831298828125,0.7734862565994263
7.999990224838257,0.5900709629058838,-0.3199388384819031,-0.022807538509368896,-0.8437934280108458,-1.5393549434951574,-1.1690668477462915,-0.6643050312995911,0.7471697330474854,-0.020893555134534836,0.04330591857433319,0.3861634433269501,0.7233743667602539
8.019965887069702,0.6129640936851501,-0.2994866371154785,-0.06942850351333618,-0.8573892486050956,-1.5284421747585157,-1.1648589307582908,-0.6538272500038147,0.7561366558074951,-0.02770886942744255,0.1555490791797638,0.3639664649963379,0.6399290561676025
8.039957046508789,0.6496604084968567,-0.2317546010017395,-0.14898401498794556,-0.8698157440144022,-1.515569397195122,-1.1564044199473782,-0.6439841985702515,0.7642101049423218,-0.03560147434473038,0.37407949566841125,0.2847360074520111,0.5910474061965942
8.059998035430908,0.7161280512809753,-0.1400383710861206,-0.2172635793685913,-0.879603127326925,-1.4958656231059875,-1.1345188597634013,-0.6356686353683472,0.7704859375953674,-0.047720443457365036,0.9680208563804626,-0.016253137961030006,0.5451657772064209
8.080045938491821,0.7649518251419067,-0.10353434085845947,-0.13349664211273193,-0.8906076414943322,-1.475423041232099,-1.1026444428263813,-0.6260815858840942,0.7774540781974792,-0.0598931647837162,0.8330138325691223,-0.3550415635108948,0.7275033593177795
8.099948167800903,0.6158196330070496,-0.20063811540603638,0.028909921646118164,-0.9082891048457865,-1.4601381800703261,-1.080324981151676,-0.6113336086273193,0.7884525060653687,-0.06792652606964111,0.3758971691131592,0.13341118395328522,1.0791345834732056
8.120171070098877,0.4665827751159668,0.15459591150283813,-0.12832331657409668,-0.9251520714876208,-1.4437312593350267,-1.0592502598893434,-0.5968623757362366,0.7987122535705566,-0.07625117152929306,0.8608794808387756,-0.24172355234622955,0.8529155850410461
8.139957189559937,0.5423418879508972,0.22038590908050537,-0.07890634983778,-0.9385438755312115,-1.4154372409669964,-1.012884543319961,-0.5838457942008972,0.8066984415054321,-0.09144263714551926,1.6936895847320557,-0.6314330697059631,0.8655738234519958
8.159958124160767,0.4386866092681885,0.08431220054626465,0.11899352073669434,-0.9473168128779733,-1.3721707263464522,-0.9416360625898037,-0.5723841786384583,0.8118517994880676,-0.11520922929048538,2.232708215713501,-0.8120567202568054,0.6766454577445984
8.17999005317688,0.2751675844192505,-0.055426716804504395,0.26467907428741455,-0.9456443271189837,-1.3266232051362536,-0.8642977260694835,-0.5678617358207703,0.8108741641044617,-0.1414795070886612,2.0201051235198975,-0.9542112350463867,0.12967711687088013
8.199957132339478,0.1319696307182312,-0.1945369839668274,0.40728652477264404,-0.938166583864355,-1.3105765816257027,-0.8207086917326961,-0.5713617205619812,0.8064754009246826,-0.15212896466255188,0.4945608675479889,-0.9357039332389832,-0.21050584316253662
8.219969987869263,-0.058190226554870605,-0.1258631944656372,0.3562465310096741,-0.9301175578290874,-1.3465264635533813,-0.8376380876057801,-0.5827704668045044,0.8016902208328247,-0.1329340934753418,-1.1273618936538696,-1.3318043947219849,-0.8415551781654358
8.239959955215454,-0.046659648418426514,0.1573391556739807,0.27783167362213135,-0.9132813848002255,-1.401687910860595,-0.8683858369629308,-0.602433979511261,0.7915134429931641,-0.10285903513431549,0.3611588180065155,-1.634358286857605,-1.1669869422912598
8.259996175765991,-0.01378929615020752,0.5252614617347717,0.15514487028121948,-0.8810142610288972,-1.3948619209432445,-0.8116769955016165,-0.6265458464622498,0.7713847160339355,-0.11138255894184113,3.4217941761016846,-2.256978988647461,-1.544534683227539
8.279957056045532,0.049494147300720215,-0.04935663938522339,0.45294350385665894,-0.8373682275055497,-1.3472652342706957,-0.6994658839794273,-0.652765691280365,0.7428839206695557,-0.14839324355125427,4.601947784423828,-0.316324383020401,-0.5467931628227234
8.299957990646362,-1.2169076204299927,0.28661733865737915,-0.5029916167259216,-0.8091895379090609,-1.2621071631501424,-0.5974112505585021,-0.6574667692184448,0.7237281203269958,-0.2096548229455948,2.638343334197998,-1.6748017072677612,-2.7900567054748535
8.319995164871216,-0.22369825839996338,-0.5540440678596497,-0.2938082814216614,-0.7385277888871925,-1.2907013259113782,-0.5741530433424668,-0.7106432318687439,0.6732000112533569,-0.20442163944244385,0.4153958857059479,-1.5117549896240234,-1.1049898862838745
8.339967966079712,-0.6296841502189636,0.26845109462738037,0.06152708828449249,-0.745399175006933,-1.32537995160587,-0.595708319742424,-0.7127993702888489,0.6782652139663696,-0.17853137850761414,-1.0834370851516724,-0.7748723030090332,-0.5303763747215271
