timestamp,acceleration_x,acceleration_y,acceleration_z,attitude_pitch,attitude_roll,attitude_yaw,gravity_x,gravity_y,gravity_z,rotation_x,rotation_y,rotation_z
0.0,0.06000685691833496,0.03229701519012451,-0.09532719850540161,-0.5723045345061117,-0.696412749845668,0.12596725507347312,-0.5392549633979797,0.541570782661438,-0.6449071168899536,-0.007407207041978836,0.08649268001317978,0.286334365606308
0.020054101943969727,-0.006146073341369629,0.00018388032913208008,-0.02889949083328247,-0.5754036575350927,-0.6909800531946632,0.12980308664721965,-0.5346712470054626,0.5441734790802002,-0.6465307474136353,-0.04569753631949425,0.23145511746406555,0.1289362758398056
0.03999209403991699,-0.06854844093322754,-0.021865785121917725,0.012681663036346436,-0.5770239756644442,-0.6864351390240424,0.12907705081378554,-0.5311678051948547,0.5455321669578552,-0.6482711434364319,-0.10143537074327469,0.24263612926006317,-0.08840616047382355
0.06003403663635254,-0.15266847610473633,0.003140091896057129,-0.028289735317230225,-0.5760633178258904,-0.6861378888161004,0.12280683822713531,-0.5313068628311157,0.5447267889976501,-0.648834228515625,-0.15976589918136597,0.12909163534641266,-0.3695160746574402
0.08012509346008301,-0.19896239042282104,0.06555402278900146,-0.06086170673370361,-0.5734569972957878,-0.689670524409215,0.11209131108979116,-0.5344971418380737,0.5425392389297485,-0.6480462551116943,-0.2073969542980194,0.12914498150348663,-0.461570143699646
0.10006403923034668,-0.19990772008895874,0.09621459245681763,-0.034853339195251465,-0.5709274811643322,-0.692139791262804,0.10094929867365329,-0.5369698405265808,0.5404126644134521,-0.6477790474891663,-0.1863766312599182,0.24187596142292023,-0.42389434576034546
0.12015604972839355,-0.24345815181732178,0.0756387710571289,-0.0178450345993042,-0.5683988590669157,-0.6915481474327115,0.09025210099836838,-0.5374562740325928,0.5382833480834961,-0.649147093296051,-0.22643090784549713,0.3861657679080963,-0.44397491216659546
0.1401221752166748,-0.26510024070739746,0.01672828197479248,0.014117836952209473,-0.5668020000029721,-0.6899473942813191,0.07693427462337896,-0.5369628071784973,0.53693687915802,-0.6506686806678772,-0.3615303635597229,0.4842875599861145,-0.5306664705276489
0.1600630283355713,-0.24083727598190308,-0.06610709428787231,0.04431825876235962,-0.5665795527146756,-0.6885205969609413,0.0598050281714821,-0.5361098647117615,0.5367492437362671,-0.6515264511108398,-0.5626611113548279,0.5743829607963562,-0.6117276549339294
0.1800251007080078,-0.19066643714904785,-0.12651091814041138,0.08531045913696289,-0.568545286356504,-0.6887786072895554,0.03734937605920337,-0.5356062650680542,0.5384067296981812,-0.6505722403526306,-0.7783632278442383,0.5975559949874878,-0.7238191962242126
0.1999800205230713,-0.13191962242126465,-0.1629360318183899,0.09105026721954346,-0.571556772778337,-0.6912186107382189,0.011727246243687851,-0.5361559987068176,0.5409420132637024,-0.6480112075805664,-0.7963992357254028,0.5234678387641907,-0.7517455220222473
0.21999907493591309,-0.09376394748687744,-0.13051432371139526,0.0664975643157959,-0.5728492942100016,-0.6952744521140323,-0.013062516071924398,-0.5383314490318298,0.5420286655426025,-0.6452939510345459,-0.6212226152420044,0.41476643085479736,-0.7576985359191895
0.24015498161315918,-0.07073187828063965,-0.08954006433486938,0.038984715938568115,-0.5718093853990676,-0.7003132759715669,-0.03561731978428335,-0.5419390797615051,0.5411545038223267,-0.6430038213729858,-0.5401203036308289,0.3138129413127899,-0.7808360457420349
0.25995707511901855,-0.05387037992477417,-0.08708924055099487,0.036496102809906006,-0.5697853216740646,-0.7068927041886525,-0.05820271209345961,-0.5468681454658508,0.5394513010978699,-0.6402558088302612,-0.5449709892272949,0.24174804985523224,-0.788893461227417
0.28000617027282715,-0.019551515579223633,-0.10350525379180908,0.02113187313079834,-0.5682247609747375,-0.7147123385853907,-0.08036918004958941,-0.5524090528488159,0.5381366014480591,-0.6365950703620911,-0.5620461106300354,0.17780740559101105,-0.7252617478370667
0.3000020980834961,0.019962549209594727,-0.0984429121017456,0.008953332901000977,-0.56755934568915,-0.7230617294693493,-0.10202899822364478,-0.5579417943954468,0.5375756621360779,-0.6322290301322937,-0.5772939920425415,0.14999423921108246,-0.7169951796531677
0.3199920654296875,0.05793100595474243,-0.1015133261680603,-0.0036883950233459473,-0.5664960524664325,-0.7323745315525143,-0.12393513043199195,-0.5641871690750122,0.5366787910461426,-0.6274303197860718,-0.5638896226882935,0.08287753164768219,-0.7169874906539917
0.340015172958374,0.1067705750465393,-0.13029199838638306,-0.0014036297798156738,-0.5655928063913663,-0.7421035614339299,-0.1440798850809786,-0.5705920457839966,0.5359163880348206,-0.6222687363624573,-0.5241261124610901,0.022661592811346054,-0.5910006761550903
0.36009812355041504,0.1582801342010498,-0.15561431646347046,0.014134764671325684,-0.5661626725194098,-0.7514966382802309,-0.16150681525762053,-0.5762032270431519,0.5363974571228027,-0.6166585087776184,-0.4900246858596802,-0.006055006291717291,-0.4447506368160248
0.3801848888397217,0.19542068243026733,-0.15948450565338135,0.010889410972595215,-0.5682548032566638,-0.7609123396365991,-0.1773082870974389,-0.5812087059020996,0.5381619334220886,-0.6103919148445129,-0.5483024716377258,-0.09499020874500275,-0.44441622495651245
0.39999890327453613,0.19824433326721191,-0.13279080390930176,-0.019229412078857422,-0.5674149737928751,-0.7719297579884349,-0.1922777541991136,-0.588213324546814,0.5374538898468018,-0.6042751669883728,-0.2500498294830322,-0.19830434024333954,-0.4821043014526367
0.41998887062072754,0.21495389938354492,-0.15335702896118164,-0.04810917377471924,-0.5637791291583129,-0.7827954477988004,-0.20319007117953142,-0.5961185097694397,0.5343843102455139,-0.5992296934127808,-0.19715069234371185,-0.32393956184387207,-0.4616756737232208
0.43999505043029785,0.21756160259246826,-0.17521649599075317,-0.059326887130737305,-0.5604354314044465,-0.7974510889127933,-0.21540537549326666,-0.6061115264892578,0.5315550565719604,-0.5916739702224731,-0.2947319746017456,-0.470034122467041,-0.4863815903663635
0.45932793617248535,0.18964946269989014,-0.13621991872787476,-0.04943382740020752,-0.5579210627388601,-0.8126639293916836,-0.2275449837413876,-0.6160106062889099,0.5294236540794373,-0.5833023190498352,-0.2512126564979553,-0.3852800726890564,-0.38155266642570496
0.47998905181884766,0.19525247812271118,-0.09858196973800659,-0.028654634952545166,-0.5565790794344581,-0.824458321433579,-0.2363439875734781,-0.6233683228492737,0.5282847285270691,-0.5764783024787903,-0.20053568482398987,-0.352396696805954,-0.2460215538740158
0.4998891353607178,0.19819068908691406,-0.06930899620056152,-0.06087946891784668,-0.5552420560089633,-0.8352220182428234,-0.24187225116251193,-0.6300603151321411,0.5271490216255188,-0.570208728313446,-0.037071384489536285,-0.4489372670650482,-0.17986948788166046
0.5199759006500244,0.22258532047271729,-0.054391324520111084,-0.09539473056793213,-0.5525931290872718,-0.8464868918404361,-0.24337778822449113,-0.6374871730804443,0.5248962044715881,-0.5639985203742981,0.09395939856767654,-0.5977301597595215,-0.08680308610200882
0.5417790412902832,0.23753058910369873,-0.0766228437423706,-0.07819199562072754,-0.5507111765377335,-0.8596658760255844,-0.24368126201166498,-0.6456117033958435,0.5232933759689331,-0.5561920404434204,-0.02568201720714569,-0.714467465877533,-0.11492564529180527
0.560021162033081,0.24453765153884888,-0.09511959552764893,-0.059860825538635254,-0.5494261227507308,-0.877417392797015,-0.24738065923484764,-0.6558994054794312,0.5221979022026062,-0.5450738072395325,-0.11778116226196289,-0.8593893647193909,-0.13702823221683502
0.7238399982452393,0.3031327724456787,-0.11213117837905884,-0.028801798820495605,-0.5504260122975451,-0.8976777784112491,-0.2511971631869785,-0.666398823261261,0.5230503678321838,-0.5313482880592346,-0.16283150017261505,-0.9765634536743164,0.007618841715157032
0.7641730308532715,0.33309584856033325,-0.11489629745483398,-0.014821648597717285,-0.5529741486304596,-0.9189920975227293,-0.25206845344116824,-0.676510214805603,0.5252204537391663,-0.5162146687507629,-0.039482343941926956,-1.115181803703308,0.14301030337810516
0.7819080352783203,0.32391220331192017,-0.04313236474990845,0.0048792362213134766,-0.5553764908666804,-0.9614529532937998,-0.24079184888637775,-0.6967760920524597,0.5272632241249084,-0.4863092303276062,0.3247060477733612,-1.2761019468307495,0.2171679437160492
0.8034710884094238,0.2701566219329834,-0.0426064133644104,0.05236661434173584,-0.5513685386348537,-1.0313246108010006,-0.21396474251801287,-0.7308348417282104,0.5238534808158875,-0.4375593960285187,0.529281735420227,-1.6523820161819458,0.05003507435321808
0.8234879970550537,0.026230216026306152,0.10231241583824158,0.12407806515693665,-0.5117784584096052,-1.138177966768268,-0.15754957360744323,-0.7915500998497009,0.4897285997867584,-0.3655330240726471,0.5046106576919556,-0.9593208432197571,-0.19463784992694855
0.8399360179901123,0.2462412714958191,0.14532777667045593,-0.020512402057647705,-0.4791682648767235,-1.1815818790179962,-0.13842530787484014,-0.8210094571113586,0.46104127168655396,-0.33672627806663513,0.5641382336616516,-0.8828126192092896,-0.5036585330963135
0.8599920272827148,0.26351386308670044,0.12035930156707764,0.056197285652160645,-0.4660125803550536,-1.194611723768147,-0.1320547997195256,-0.83089679479599,0.44932764768600464,-0.32820039987564087,0.44992825388908386,-0.7102428078651428,-0.49082112312316895
0.8798830509185791,0.26542502641677856,0.13996559381484985,0.07257920503616333,-0.4536179596333876,-1.2048637646873144,-0.12674416800966687,-0.8393539786338806,0.43822047114372253,-0.3216330409049988,0.4884054958820343,-0.5620566010475159,-0.4974408447742462
0.8999490737915039,0.2670287489891052,0.200036883354187,0.057113438844680786,-0.44064121996266636,-1.2105510152697072,-0.11715610871603574,-0.8464202284812927,0.426519513130188,-0.31883206963539124,0.794948160648346,-0.4259590804576874,-0.400406152009964
0.9199512004852295,0.2876608371734619,0.21733233332633972,0.08604958653450012,-0.42749789352955697,-1.2107004540785835,-0.10078609760427053,-0.8516409993171692,0.4145951569080353,-0.3206533193588257,1.0357143878936768,-0.29189369082450867,-0.2988302409648895
0.9399549961090088,0.2550544738769531,0.1825316846370697,0.12891411781311035,-0.41435232778496206,-1.2069192385836476,-0.08071740001245258,-0.8554421067237854,0.4025971591472626,-0.3257829248905182,1.1010921001434326,-0.15242812037467957,-0.31051698327064514
0.9600751399993896,0.2033078670501709,0.14975962042808533,0.15500754117965698,-0.399974046405322,-1.2020175070964443,-0.06240068488468058,-0.859145998954773,0.3893944323062897,-0.3320246636867523,0.994336724281311,-0.10014457255601883,-0.43653345108032227
0.9801170825958252,0.1885911226272583,0.13540655374526978,0.16016781330108643,-0.38454490052132095,-1.1984706557441096,-0.04717777627076576,-0.8634569644927979,0.3751372992992401,-0.33721545338630676,0.8701636791229248,-0.13654544949531555,-0.4960206151008606
0.9999990463256836,0.1418771743774414,0.12607064843177795,0.1715375781059265,-0.36910012255164987,-1.1971067075537267,-0.035841130685467716,-0.868287205696106,0.36077630519866943,-0.34046751260757446,0.6665582656860352,-0.1405480057001114,-0.5432841777801514
1.0200409889221191,0.08416908979415894,0.11196720600128174,0.18073076009750366,-0.3549582905608678,-1.197706898382869,-0.029002928369610784,-0.873155415058136,0.34755125641822815,-0.3417719304561615,0.45158541202545166,-0.1569230705499649,-0.5464396476745605
1.0399360656738281,0.019907057285308838,0.10249468684196472,0.20039021968841553,-0.3426637577144258,-1.200297326186905,-0.026726939028905685,-0.8779546618461609,0.33599716424942017,-0.34103038907051086,0.19435249269008636,-0.1654454618692398,-0.5173190236091614
1.0599360466003418,0.012127220630645752,0.06675580143928528,0.2519988715648651,-0.33226873950103875,-1.202572465309057,-0.028029806645313193,-0.8819392323493958,0.32618850469589233,-0.34027087688446045,0.024384837597608566,0.0038766313809901476,-0.46837520599365234
1.0793530941009521,0.07506036758422852,0.04012897610664368,0.3061874508857727,-0.32459567018260843,-1.2041437701253406,-0.03599312524191169,-0.8847833871841431,0.3189255893230438,-0.33977195620536804,-0.38884562253952026,0.048353906720876694,-0.5709103345870972
1.0999481678009033,0.107352614402771,0.002242475748062134,0.2814887762069702,-0.31694096799064136,-1.2075021446044332,-0.047311144069749206,-0.8881755471229553,0.31166136264801025,-0.33765628933906555,-0.29643478989601135,-0.020791342481970787,-0.4680679142475128
1.1191508769989014,-0.0002308487892150879,0.01607796549797058,0.2680186629295349,-0.3101120539508184,-1.2103260714979431,-0.05413745686556754,-0.8910961747169495,0.3051653504371643,-0.33588963747024536,-0.041923411190509796,-0.07765275985002518,-0.4850274622440338
1.1399180889129639,-0.19726932048797607,0.09674641489982605,0.2082410752773285,-0.2975957286943519,-1.21498094556277,-0.05498848169885023,-0.8961603045463562,0.29322245717048645,-0.33304259181022644,0.3838006854057312,-0.37400656938552856,-0.6697271466255188
1.1599218845367432,-0.22637993097305298,0.12462314963340759,0.18714624643325806,-0.2822942531096797,-1.2232116101826676,-0.05066200319223341,-0.9029842019081116,0.2785598337650299,-0.3271455764770508,0.45145145058631897,-0.563980221748352,-0.6185794472694397
1.1799819469451904,-0.32768625020980835,0.051679134368896484,0.16093429923057556,-0.26682926132586826,-1.2353231856052485,-0.047008438492852266,-0.9108392000198364,0.26367422938346863,-0.3175656199455261,0.4750359356403351,-0.7018284201622009,-0.7350916266441345
1.199941873550415,-0.402738094329834,0.03711101412773132,0.12069663405418396,-0.24932329033264025,-1.2466969064966327,-0.03893890359582035,-0.9186273217201233,0.24674822390079498,-0.3086084723472595,0.8391719460487366,-0.6310752630233765,-0.6411338448524475
1.219959020614624,-0.41350555419921875,0.06009179353713989,0.10589385032653809,-0.23073802567334137,-1.254760504320018,-0.02281577523910985,-0.9252853989601135,0.2286960482597351,-0.3025642931461334,1.195990800857544,-0.523594319820404,-0.6558698415756226
1.2400181293487549,-0.4906695485115051,0.03629900515079498,0.14590010046958923,-0.21099048503309178,-1.2594896275859846,-0.00498757587631849,-0.9308240413665771,0.20942851901054382,-0.2995102107524872,0.9605847001075745,-0.3364461362361908,-0.6713362336158752
1.2600700855255127,-0.4572640061378479,-0.03997930884361267,0.21036288142204285,-0.19542617962989553,-1.262566989441467,0.002880322095280799,-0.9347344040870667,0.19418461620807648,-0.2975972294807434,0.23305967450141907,-0.11584986001253128,-0.5563772320747375
1.2799570560455322,-0.3424336910247803,-0.1783343106508255,0.24454796314239502,-0.1865090930915752,-1.2628651232848929,-0.0012235999942111634,-0.9364360570907593,0.1854296624660492,-0.29783156514167786,-0.27137455344200134,0.14275160431861877,-0.4331405460834503
1.3000071048736572,-0.2867351174354553,-0.2357959896326065,0.15786531567573547,-0.18050008806310736,-1.262956472115156,-0.009905440116517191,-0.9375081062316895,0.1795215606689453,-0.2980782389640808,-0.3251354992389679,-0.060757845640182495,-0.42572152614593506
1.3199820518493652,-0.2802765965461731,-0.16932490468025208,0.08575055003166199,-0.1736756990424275,-1.268640813360522,-0.019237873087803083,-0.9403350949287415,0.17280390858650208,-0.29310208559036255,-0.33019116520881653,-0.31451863050460815,-0.5065436363220215
1.3399920463562012,-0.2986704707145691,-0.11988535523414612,0.10034841299057007,-0.16638256379759528,-1.2766107706181333,-0.02857431637716504,-0.9438223242759705,0.1656159609556198,-0.2859562635421753,-0.37146681547164917,-0.33846038579940796,-0.4992164373397827
1.3599820137023926,-0.3614739179611206,-0.12653346359729767,0.12286332249641418,-0.15768845882087754,-1.2833540810489867,-0.03429730281818501,-0.9470741152763367,0.15703576803207397,-0.27998292446136475,0.11804260313510895,-0.18240278959274292,-0.32347866892814636
1.380075216293335,-0.430147647857666,-0.11670760810375214,0.08280032873153687,-0.15302495918021858,-1.2862021471868255,-0.03336761980388704,-0.948560357093811,0.15242843329906464,-0.2774870991706848,0.03295004367828369,-0.13450530171394348,-0.2387559711933136
1.3997318744659424,-0.5701132416725159,-0.11495652794837952,0.16546428203582764,-0.14887686403655856,-1.2886289752450877,-0.03662475860811533,-0.9498301148414612,0.1483275145292282,-0.2753579914569855,-0.14420688152313232,0.068559929728508,-0.12885797023773193
1.4199860095977783,-0.6993047595024109,-0.25066789984703064,0.3034939169883728,-0.15498944861513836,-1.2813726211759862,-0.03763804523095817,-0.9469203352928162,0.15436966717243195,-0.28197893500328064,-0.1372898370027542,0.6402379870414734,0.6476345062255859
1.4399850368499756,-0.6660124063491821,-0.3173958957195282,0.2839265465736389,-0.17005145525510765,-1.2685179566693017,-0.03489670470860529,-0.9408907890319824,0.1692330688238144,-0.2934021055698395,0.009595745243132114,0.5486854314804077,0.959943413734436
1.4599831104278564,-0.6715288758277893,-0.20243382453918457,0.24209153652191162,-0.189699305943463,-1.2587232637436119,-0.025365028360180678,-0.9346266388893127,0.18856360018253326,-0.30152440071105957,0.2547754943370819,0.19103053212165833,1.152154564857483
1.4799859523773193,-0.6903578639030457,-0.22119154036045074,0.23487260937690735,-0.2133458342570802,-1.2541898440022023,-0.012050287882736824,-0.9287522435188293,0.21173106133937836,-0.3042847216129303,0.23922079801559448,0.13075034320354462,1.5909873247146606
1.499981164932251,-0.8107249736785889,-0.28626924753189087,0.19068565964698792,-0.2468999631191436,-1.246657373219237,0.0022398088897819094,-0.9191792607307434,0.24439911544322968,-0.3088343143463135,-0.007215005811303854,0.3218822181224823,1.931074857711792
1.520056962966919,-0.9079667329788208,-0.22848659753799438,0.14302563667297363,-0.284954906853566,-1.2359651884273792,0.010273167286958257,-0.9063796997070312,0.2811141908168793,-0.31535831093788147,-0.4748302698135376,0.5322887897491455,1.9165606498718262
1.5399949550628662,-0.8757456541061401,-0.1823194921016693,0.1366722583770752,-0.32551965063508936,-1.224070111913088,0.011770053667032819,-0.8911001682281494,0.3198011815547943,-0.32197490334510803,-0.7132256627082825,0.5891873836517334,1.997403860092163
1.559985876083374,-0.7768481373786926,-0.1753842532634735,0.14346835017204285,-0.3697243466747941,-1.2127587956932395,0.00840628175729691,-0.8732985258102417,0.3613584339618683,-0.32675686478614807,-1.1590180397033691,0.6371374130249023,2.0233874320983887
1.5799920558929443,-0.760388195514679,-0.13274991512298584,0.12285542488098145,-0.4160080998137276,-1.205088730798804,-0.002502584761489978,-0.8542206883430481,0.4041122496128082,-0.3271094560623169,-1.4066859483718872,0.5431802272796631,1.9859085083007812
1.5999820232391357,-0.690192461013794,-0.04089266061782837,-0.0041870176792144775,-0.46251093026673573,-1.2044023370867347,-0.01764302939004898,-0.8355339169502258,0.44619661569595337,-0.32061144709587097,-1.4786102771759033,0.1819823682308197,1.8490238189697266
1.6200129985809326,-0.6308987140655518,0.07561314105987549,-0.06421241164207458,-0.5063397460318815,-1.2075148614822226,-0.032199090352854974,-0.8174503445625305,0.484979510307312,-0.3107569217681885,-1.2744436264038086,0.2715117931365967,1.8272545337677002
1.6399829387664795,-0.6259850859642029,0.12064999341964722,-0.07750463485717773,-0.5485912308694881,-1.2059435094736346,-0.04271970940314469,-0.7970954775810242,0.5214856863021851,-0.3044533133506775,-1.155125379562378,0.3553951680660248,1.7744343280792236
1.6599829196929932,-0.5200474262237549,0.17400532960891724,-0.18020913004875183,-0.588838235813782,-1.2075738350112901,-0.054190966330789306,-0.7773311138153076,0.5553953051567078,-0.2954529821872711,-1.1794612407684326,0.08688558638095856,1.661299467086792
1.6801021099090576,-0.43091917037963867,0.1693059802055359,-0.19788900017738342,-0.6276070311949832,-1.2130312097068934,-0.06615944263181496,-0.7581830024719238,0.5872094631195068,-0.28344935178756714,-1.0829037427902222,0.09393719583749771,1.6333503723144531
1.7000739574432373,-0.4016926884651184,0.1717734932899475,-0.1283881962299347,-0.6630637198641572,-1.215774823873516,-0.07508482235624325,-0.7389628887176514,0.6155343055725098,-0.27395540475845337,-0.8463848829269409,0.16698867082595825,1.4362084865570068
1.7200238704681396,-0.2856445908546448,0.1490374207496643,-0.10175168514251709,-0.6925665194779533,-1.2186467548451616,-0.08199207255717209,-0.7223816514015198,0.638514518737793,-0.26545098423957825,-0.6900925636291504,-0.06211445853114128,1.1533024311065674
1.7400071620941162,-0.15903371572494507,0.04869794845581055,-0.08543205261230469,-0.7174070800538068,-1.227727702136675,-0.09029445185680574,-0.7096034288406372,0.6574330925941467,-0.25346553325653076,-0.8003605008125305,-0.230762779712677,0.9834456443786621
1.7600572109222412,-0.098976731300354,-0.02897399663925171,0.002469658851623535,-0.7398287786645196,-1.242610166396614,-0.1064648929530125,-0.699164867401123,0.674161434173584,-0.23806527256965637,-1.0502402782440186,-0.2185686081647873,0.7151963710784912
1.7790920734405518,-0.04448467493057251,-0.02954089641571045,-0.027226433157920837,-0.7576625004716188,-1.2626403346499813,-0.12835566254379968,-0.69222491979599,0.6872252821922302,-0.220332071185112,-1.0469266176223755,-0.28907036781311035,0.49569129943847656
1.7999842166900635,0.0323561429977417,0.02582263946533203,-0.032137662172317505,-0.7707605984069943,-1.2834371717669104,-0.1517236242329844,-0.6879652738571167,0.6966810822486877,-0.20332059264183044,-0.9568998217582703,-0.20569302141666412,0.29363325238227844
1.8199830055236816,0.1007767915725708,0.018669426441192627,-0.07063096761703491,-0.7802010556807786,-1.303947805956392,-0.17483788770766295,-0.6856157779693604,0.7034223675727844,-0.18742555379867554,-0.9298107624053955,-0.20458035171031952,0.18754202127456665
1.840034008026123,0.1321353316307068,0.03795492649078369,-0.06324505805969238,-0.7878967227889978,-1.3257965281942925,-0.20057727380613324,-0.6842746734619141,0.7088713049888611,-0.17108403146266937,-1.0166033506393433,-0.12179740518331528,0.1410018503665924
1.859985113143921,0.1795717477798462,0.03660225868225098,-0.06912921369075775,-0.7954678665818475,-1.3473344069340407,-0.22844855060958397,-0.6825472116470337,0.7141911387443542,-0.1551138311624527,-1.0344038009643555,-0.03210143372416496,0.14866025745868683
1.879986047744751,0.22475957870483398,0.050040602684020996,-0.09332497417926788,-0.803926000780111,-1.368249721185276,-0.25827834678771844,-0.679700493812561,0.7200857996940613,-0.13958510756492615,-1.1762727499008179,0.04860974848270416,0.17733748257160187
1.8999860286712646,0.17380696535110474,0.09438467025756836,-0.06940731406211853,-0.8105648915640583,-1.3878626388183049,-0.2907311165483057,-0.6775911450386047,0.7246765494346619,-0.12535570561885834,-1.225704312324524,0.3007256090641022,0.08115378022193909
1.9199960231781006,0.2904653549194336,0.08870774507522583,-0.047764286398887634,-0.8172993117364875,-1.4088985382587735,-0.32708765269430096,-0.6752462983131409,0.7293006777763367,-0.11028613895177841,-1.4401788711547852,0.23576374351978302,0.21413876116275787
1.9400060176849365,0.3977805972099304,0.036674678325653076,-0.00708877295255661,-0.8268495949871928,-1.4362921365484809,-0.3726156292644166,-0.6710808277130127,0.7358015775680542,-0.09081147611141205,-1.7014929056167603,0.3831113874912262,0.2553865313529968
1.960064172744751,0.4384520649909973,-0.057236313819885254,0.009625740349292755,-0.8351462716360974,-1.4612112968411037,-0.41811447277248,-0.6670440435409546,0.7413946986198425,-0.07339206337928772,-1.298346757888794,0.47420766949653625,0.2208411991596222
1.9799978733062744,0.5581842660903931,-0.05679476261138916,-0.01306045800447464,-0.8439218628848337,-1.4746908763945057,-0.4487437063421473,-0.6614711284637451,0.7472550868988037,-0.06376742571592331,-0.8846849799156189,0.5325518250465393,0.35281217098236084
2.000009059906006,0.6480811238288879,-0.24552345275878906,0.007357358932495117,-0.8524707717345976,-1.4851109932472981,-0.47633917776439,-0.6557106375694275,0.7529087662696838,-0.05632269009947777,-0.9411637187004089,0.48908719420433044,0.33881494402885437
2.0200741291046143,0.7399817705154419,-0.40490663051605225,-0.029111504554748535,-0.8627874675972051,-1.4966511062786167,-0.5029048863102501,-0.6485359072685242,0.7596582770347595,-0.04817415028810501,-0.857571542263031,0.3973982632160187,0.534538209438324
2.039983034133911,0.7385914325714111,-0.40168511867523193,-0.047263141721487045,-0.8756930336250877,-1.5070808568340945,-0.5276199464358801,-0.6391652226448059,0.7679875493049622,-0.04077991098165512,-0.8630391955375671,0.4101899564266205,0.6009473204612732
2.0595362186431885,0.683456301689148,-0.36791568994522095,-0.09586203098297119,-0.8890925490833993,-1.5153967238506532,-0.5496889635594183,-0.6291502714157104,0.7765002846717834,-0.03489037603139877,-0.5681113600730896,0.5174962282180786,0.7019007205963135
2.0799880027770996,0.7066748142242432,-0.3752390146255493,-0.08476036787033081,-0.9048889992050534,-1.5138046425559908,-0.5628224289826067,-0.6167701482772827,0.7863565683364868,-0.03518887609243393,-0.3615265488624573,0.6057813763618469,0.7832790613174438
2.1000020503997803,0.6717119812965393,-0.3482203483581543,-0.1034156084060669,-0.9208422512527268,-1.5077539594203224,-0.5697503667787162,-0.6039476990699768,0.7961115837097168,-0.03812481462955475,-0.19850292801856995,0.5357483625411987,0.8081815242767334
2.1199870109558105,0.7168437242507935,-0.3895125985145569,-0.07570099830627441,-0.9374940843562777,-1.5031190451908794,-0.574694555091769,-0.5904552936553955,0.8060775995254517,-0.04002153128385544,-0.17706403136253357,0.30590900778770447,0.8234555125236511
2.1399850845336914,0.6904751658439636,-0.35751181840896606,-0.05665653571486473,-0.9548932532304172,-1.5014868142582638,-0.5784636513666146,-0.5763089060783386,0.8162520527839661,-0.04000777378678322,-0.1978021264076233,0.2138461023569107,0.9518592357635498
2.15998911857605,0.5871198177337646,-0.22201675176620483,-0.08164268732070923,-0.9751312484914926,-1.50274043910811,-0.585406527756962,-0.5597609281539917,0.8277755379676819,-0.03815394639968872,-0.3273962140083313,0.25113657116889954,0.9982357025146484
2.180043935775757,0.4587312340736389,-0.03082174062728882,-0.14892613887786865,-0.994412710002377,-1.5028498343911043,-0.5922209468916387,-0.543738067150116,0.8384390473365784,-0.03700205311179161,-0.03943880274891853,0.3743501901626587,0.970424234867096
2.200021982192993,0.39283132553100586,0.12478554248809814,-0.18764513731002808,-1.0141188485764676,-1.4859495807504475,-0.5819829585947001,-0.5264679193496704,0.8490152955055237,-0.044776592403650284,0.40575847029685974,0.3667908310890198,0.9627723693847656
2.220094919204712,0.3913528323173523,0.06536132097244263,-0.15850383043289185,-1.0316486190761356,-1.4642454835917689,-0.5624205836839921,-0.5104935765266418,0.8581465482711792,-0.0546003021299839,0.34264078736305237,0.07505226880311966,0.8559574484825134
2.2400481700897217,0.3652087450027466,-0.07902568578720093,-0.07884329557418823,-1.0479668328116634,-1.4545071508543317,-0.5519075996143811,-0.49596136808395386,0.8664097785949707,-0.05793633684515953,0.014406505972146988,-0.0037812883965671062,0.8063423037528992
2.2600371837615967,0.2710261344909668,-0.0640375018119812,-0.0627947449684143,-1.0608457917413054,-1.4538802057954419,-0.5493202971988754,-0.4848018288612366,0.8727686405181885,-0.05694083496928215,0.05832955613732338,-0.16004998981952667,0.5490503907203674
2.2799909114837646,0.20995208621025085,0.015642404556274414,-0.12005961686372757,-1.0683708954664897,-1.4474840651026186,-0.5372685633299518,-0.4778965711593628,0.8764171600341797,-0.05923103168606758,0.4573379158973694,-0.18389850854873657,0.25736987590789795
2.299968957901001,0.11309123039245605,0.0191919207572937,-0.0633859634399414,-1.0677809177911277,-1.4258286634611874,-0.5099696249237174,-0.4770134687423706,0.8761329054832458,-0.06964005529880524,0.8450361490249634,-0.0681825578212738,-0.1623133420944214
2.3200221061706543,0.07376119494438171,-0.0866129994392395,-0.008500508964061737,-1.0605803706396615,-1.3931787824234547,-0.47384102880201323,-0.4806826114654541,0.8726390600204468,-0.08628697693347931,0.9482195973396301,0.13706442713737488,-0.28490695357322693
2.339919090270996,0.10358491539955139,-0.13422513008117676,-0.03451228141784668,-1.0486257404006847,-1.3694442894449037,-0.4462186474613382,-0.48868632316589355,0.8667386174201965,-0.09974968433380127,0.6841470003128052,-0.2273208051919937,-0.6323341131210327
2.3599600791931152,0.10761517286300659,-0.09285783767700195,-0.05088096857070923,-1.0297211270666458,-1.3490915616887247,-0.4139212415018158,-0.5024517178535461,0.8571553826332092,-0.11325769871473312,1.467031717300415,-0.5387639403343201,-0.8991868495941162
2.379956007003784,0.1773633360862732,0.016764044761657715,0.0004976540803909302,-0.9995400908771874,-1.3113494852578231,-0.3531599180430149,-0.5225934982299805,0.8412224054336548,-0.13871163129806519,2.2460105419158936,-0.6878108382225037,-1.2790571451187134
2.4000298976898193,0.20211899280548096,-0.21592408418655396,0.2223861664533615,-0.9593424793495933,-1.2740395688917747,-0.2928835133373278,-0.5489667057991028,0.8188142776489258,-0.16786645352840424,2.1677489280700684,-0.7273434400558472,-1.7065099477767944
2.419403076171875,0.3272249698638916,-0.3878220319747925,0.2328016757965088,-0.9138230500150296,-1.2507552273735718,-0.2458364978619113,-0.5797122120857239,0.791844367980957,-0.19213692843914032,1.8372188806533813,-0.8233981132507324,-1.8994486331939697
2.439521074295044,0.11286556720733643,-0.3102354407310486,0.15587788820266724,-0.8619344949619204,-1.25060940358694,-0.21943774317408152,-0.6178857684135437,0.7591032981872559,-0.2048889845609665,1.359076976776123,-1.2484465837478638,-2.491856575012207
2.459991216659546,-0.07815593481063843,-0.1483437418937683,0.12152154743671417,-0.8014073206159466,-1.2674122213369767,-0.20292268887228254,-0.6639247536659241,0.7183358669281006,-0.20784036815166473,1.75691819190979,-1.6612403392791748,-2.861656427383423
2.4801251888275146,-0.22326397895812988,0.020772933959960938,0.18007299304008484,-0.7328019396079821,-1.2815967660281011,-0.17071035408755467,-0.7124356627464294,0.6689549684524536,-0.2119790017604828,2.4207887649536133,-1.9417036771774292,-2.9952592849731445
2.499948024749756,-0.4103448987007141,-0.03835737705230713,0.27518340945243835,-0.6620019326486384,-1.2926491877837405,-0.12422136194382358,-0.7584477663040161,0.6146971583366394,-0.21657425165176392,2.947350263595581,-2.2681944370269775,-2.8152546882629395
2.5199530124664307,-0.6965384483337402,-0.06481975317001343,0.07610565423965454,-0.5932787732665594,-1.3116010046547668,-0.0717527722396912,-0.8014169931411743,0.5590825080871582,-0.2125038206577301,2.8023555278778076,-2.533771514892578,-2.695204257965088
2.5399820804595947,-0.9756162762641907,-0.02784121036529541,0.04923859238624573,-0.5282319896086631,-1.3371188548422632,-0.03360592620142674,-0.8402256369590759,0.50400710105896,-0.19999538362026215,2.019867420196533,-1.934883713722229,-2.7111637592315674
2.5597360134124756,-0.9334012269973755,-0.05816525220870972,-0.05139830708503723,-0.47559707753660724,-1.357107889300168,-0.01247890561199107,-0.8687993288040161,0.45786935091018677,-0.18853075802326202,0.922161340713501,-1.1245290040969849,-2.0206191539764404
2.579922914505005,-0.6839690804481506,-0.016626954078674316,0.030673563480377197,-0.44447901762727554,-1.370256396111751,-0.012077260534004155,-0.8847413659095764,0.4299875795841217,-0.17984333634376526,-0.22242940962314606,-0.21742646396160126,-0.9816184639930725
2.5999629497528076,-0.48540210723876953,-0.015903830528259277,0.14047594368457794,-0.43730162273254697,-1.3753582650138625,-0.0258934937054574,-0.8886518478393555,0.4234965443611145,-0.1759219616651535,-0.7639020681381226,0.20938771963119507,-0.02681768871843815
2.6199350357055664,-0.3135058283805847,-0.01182323694229126,0.11628718674182892,-0.445192046347514,-1.3768462288457635,-0.042894569542822135,-0.8856061697006226,0.43063122034072876,-0.17395003139972687,-0.8000302314758301,0.3519248068332672,0.4300169348716736
2.639986038208008,-0.23494410514831543,-0.08581367135047913,0.048556849360466,-0.4572314324320754,-1.3725024209522483,-0.05513516032781746,-0.8796954154968262,0.4414656162261963,-0.17676110565662384,-0.5036705136299133,0.6230148077011108,0.48204222321510315
2.66001296043396,-0.21188265085220337,-0.18766766786575317,-0.03895033895969391,-0.4658393637981964,-1.3639833609881555,-0.062145991205022635,-0.8744060397148132,0.44917288422584534,-0.18346165120601654,-0.385111927986145,0.5062506794929504,0.22544533014297485
2.679992914199829,-0.06826269626617432,-0.23438388109207153,-0.022967934608459473,-0.4722814812761772,-1.3601019072509077,-0.07496284652226383,-0.8708395957946777,0.4549191892147064,-0.1862451732158661,-0.9090105891227722,0.49146732687950134,0.1548459231853485
2.7000110149383545,-0.03186047077178955,-0.294607013463974,-0.009211719036102295,-0.4781809336913216,-1.3608132066484508,-0.09735173175871921,-0.8683319091796875,0.4601649045944214,-0.18506306409835815,-1.1107107400894165,0.4848477840423584,0.04340400919318199
2.720189094543457,-0.00284498929977417,-0.16563543677330017,-0.020222976803779602,-0.48370094730065016,-1.3614960024424272,-0.12001318514254994,-0.8659601807594299,0.46505871415138245,-0.18393954634666443,-0.9056040644645691,0.5026576519012451,0.10942351073026657
2.7400550842285156,-0.022012412548065186,-0.10874882340431213,-0.042379796504974365,-0.4900523408420983,-1.3587124293264086,-0.13653314721547224,-0.8625397086143494,0.470672070980072,-0.18572376668453217,-0.7063127756118774,0.5635478496551514,0.17916269600391388
2.760003089904785,-0.1291458010673523,-0.18614402413368225,0.00280192494392395,-0.49684705585323724,-1.353748418573952,-0.1527670284160026,-0.8584643006324768,0.4766561985015869,-0.18931004405021667,-0.8743943572044373,0.7192192077636719,0.19206367433071136
2.7801430225372314,-0.18463236093521118,-0.2712506353855133,0.05947759747505188,-0.5052419125951991,-1.3487600554033887,-0.17571467860160955,-0.8535756468772888,0.48401913046836853,-0.19270195066928864,-1.2668468952178955,0.8640040755271912,0.19408075511455536
2.8001549243927,-0.19075483083724976,-0.2684405446052551,0.06243725121021271,-0.5150658943414314,-1.3460235536700909,-0.20574267477973177,-0.848368763923645,0.4925921857357025,-0.19396784901618958,-1.4555736780166626,0.8704220652580261,0.2019842118024826
2.8201770782470703,-0.18433767557144165,-0.20998817682266235,0.03876659274101257,-0.5260988530305912,-1.3441429042079098,-0.23734513869058638,-0.8426553606987,0.5021635890007019,-0.1943298578262329,-1.4782179594039917,0.8995490074157715,0.24506057798862457
2.8401660919189453,-0.18823742866516113,-0.2059023380279541,0.016905128955841064,-0.5377706508059896,-1.34283961489343,-0.27057391802373554,-0.8366345167160034,0.5122225880622864,-0.1940900683403015,-1.5978738069534302,0.94112628698349,0.30209216475486755
2.860132932662964,-0.1839112639427185,-0.2757173180580139,-0.00890253484249115,-0.5527869691604383,-1.3423423580886096,-0.30803871120677945,-0.8289519548416138,0.5250611305236816,-0.1927422434091568,-1.8923418521881104,1.050242304801941,0.40347298979759216
2.8800461292266846,-0.20256644487380981,-0.27155494689941406,-0.012813717126846313,-0.569570480149044,-1.3439931355749393,-0.3513281057078991,-0.8205658793449402,0.5392704010009766,-0.18936511874198914,-2.0391480922698975,1.1190332174301147,0.4464525580406189
2.900022029876709,-0.19599413871765137,-0.2917342782020569,0.02239847183227539,-0.5898792792089073,-1.345149875845151,-0.39624263274326554,-0.8099417090415955,0.5562607049942017,-0.18592679500579834,-2.113762378692627,1.2215303182601929,0.7420657873153687
2.920038938522339,-0.1431317925453186,-0.344254732131958,0.02274876832962036,-0.616392939119313,-1.351333788943885,-0.4488485144727828,-0.7963976860046387,0.5780956745147705,-0.17764060199260712,-2.7131009101867676,1.1199620962142944,0.7860117554664612
2.949084997177124,-0.07632428407669067,-0.20838981866836548,-0.07644762098789215,-0.6631292797501372,-1.4064481669130608,-0.5952488194961346,-0.7774509191513062,0.6155859231948853,-0.12893559038639069,-3.3550033569335938,0.6159332990646362,0.47504281997680664
2.96753191947937,-0.04649466276168823,-0.21436411142349243,-0.05986058712005615,-0.6828878528451713,-1.4414232810534213,-0.6750515520022012,-0.7692708373069763,0.6310359239578247,-0.1000819057226181,-2.9836294651031494,0.8934299349784851,0.5531442165374756
2.9886062145233154,-0.0788722038269043,-0.07658267021179199,-0.07550907880067825,-0.6979364926037983,-1.4584262402825734,-0.7342177178448313,-0.7613379955291748,0.642638087272644,-0.0859135314822197,-1.6594221591949463,1.1386058330535889,0.3816257119178772
3.0089850425720215,-0.05798441171646118,0.14274811744689941,-0.09781324863433838,-0.7040050026674763,-1.4529845947835378,-0.7602101805784044,-0.7569723725318909,0.6472756862640381,-0.08959512412548065,-0.5165453553199768,1.0485360622406006,-0.037468262016773224
3.0283701419830322,-0.03008812665939331,0.07342338562011719,-0.049775123596191406,-0.6998339255217726,-1.4391837989540512,-0.7700340861844669,-0.7583336234092712,0.6440906524658203,-0.10038650780916214,-0.38308998942375183,0.9786473512649536,-0.40653446316719055
3.0481832027435303,0.026335835456848145,-0.2073027491569519,0.040871307253837585,-0.6935605237756636,-1.4322954073592422,-0.79033226154463,-0.76161128282547,0.6392791867256165,-0.10616356134414673,-1.1578174829483032,1.0407432317733765,-0.35081130266189575
3.0682621002197266,0.06563389301300049,-0.28182291984558105,0.1124768927693367,-0.6920682041703299,-1.4355739162539465,-0.8319871548262965,-0.7628995776176453,0.6381309032440186,-0.10379452258348465,-1.9091746807098389,1.2743051052093506,-0.29647281765937805
3.0881059169769287,0.024973154067993164,-0.11073559522628784,0.0837676078081131,-0.689803471058198,-1.4415055536539585,-0.8830649118105961,-0.7649328708648682,0.6363856196403503,-0.09945354610681534,-1.8863404989242554,1.3983761072158813,-0.4346308410167694
3.1082231998443604,0.08339250087738037,0.028168141841888428,0.05273378640413284,-0.6848643118044556,-1.4425646430759314,-0.9286292418838139,-0.7681459784507751,0.6325679421424866,-0.09904412180185318,-1.5547631978988647,1.345618724822998,-0.4993654787540436
3.1279571056365967,0.1556127667427063,0.011946499347686768,0.07078039646148682,-0.6789308792099782,-1.4414899491347133,-0.9682609661254085,-0.7717475891113281,0.6279613375663757,-0.10035180300474167,-1.5041698217391968,1.3058972358703613,-0.4562419056892395
3.1469130516052246,0.1578826904296875,-0.048754751682281494,0.16189925372600555,-0.6755263759109259,-1.4436479957499755,-1.0125014206400906,-0.7740786075592041,0.6253081560134888,-0.0989566519856453,-1.9404405355453491,1.2697499990463257,-0.3472522497177124
3.1678621768951416,0.11478233337402344,-0.0636407732963562,0.3341168761253357,-0.6751074712941967,-1.4524854881420721,-1.0713942672996641,-0.7751829028129578,0.6249812245368958,-0.09214286506175995,-2.6750364303588867,1.5037015676498413,-0.2929651439189911
3.1882669925689697,0.16348856687545776,0.04149574041366577,0.3602643609046936,-0.6742822335062736,-1.4732416496739817,-1.1504605054414196,-0.7774412631988525,0.6243367791175842,-0.07608454674482346,-3.4663984775543213,1.2114543914794922,-0.4344733655452728
3.2079179286956787,0.35193294286727905,0.09290236234664917,0.26264941692352295,-0.6714338190415353,-1.5171362235875845,-1.2484298070362683,-0.7818034887313843,0.6221092343330383,-0.04199196770787239,-4.0458879470825195,0.46587860584259033,-0.39397430419921875
3.227864980697632,0.27957820892333984,0.2471320629119873,0.12303590774536133,-0.6641735748448317,-1.5780191224193847,-1.3505814619635188,-0.7874059677124023,0.6164085865020752,0.005687371362000704,-3.793519973754883,-0.19030801951885223,-0.6480789184570312
3.2491509914398193,-0.05282562971115112,0.5929553508758545,0.01562749594449997,-0.6439108337160607,-1.6315411066884817,-1.4253182189095477,-0.7982791066169739,0.600327730178833,0.04855101928114891,-2.0179224014282227,-0.6028270125389099,-1.1257811784744263
3.2662861347198486,-0.08239883184432983,0.7415293455123901,-0.07253766059875488,-0.6230107512803883,-1.6552171653027332,-1.4405565639614355,-0.8092333674430847,0.5834829211235046,0.06847891956567764,0.5380638241767883,-0.7715490460395813,-0.6390191912651062
3.2878611087799072,0.03634434938430786,0.5456783771514893,0.015637755393981934,-0.6219831818207049,-1.652542425182444,-1.4151498231984916,-0.8100108504295349,0.5826480984687805,0.06636311113834381,1.1740097999572754,-0.3633921146392822,0.2116682380437851
3.307729959487915,-0.07507401704788208,0.29402995109558105,0.17935943603515625,-0.6275711411077326,-1.6433503730019836,-1.3966051756762812,-0.8073267340660095,0.5871804356575012,0.05867781862616539,0.2678535282611847,0.15332621335983276,0.14016452431678772
3.3276422023773193,-0.05779141187667847,0.12988024950027466,0.15743136405944824,-0.6281502213611697,-1.6399225703612725,-1.4006645194772767,-0.8071836829185486,0.5876491069793701,0.05588662251830101,-0.47455865144729614,0.3658207058906555,0.0033438452519476414
3.347377061843872,0.13306528329849243,0.037334322929382324,0.03061079978942871,-0.6273223484635364,-1.642286414537061,-1.4144549470857868,-0.807534396648407,0.5869790315628052,0.05782925710082054,-0.5665514469146729,0.21129284799098969,-0.03568000718951225
3.3678090572357178,0.21092897653579712,0.06332749128341675,-0.05335259810090065,-0.624978026979318,-1.6463652315130928,-1.4248539774927278,-0.8086615800857544,0.5850794315338135,0.061226263642311096,-0.26948246359825134,-0.02888379991054535,-0.12794621288776398
3.3873698711395264,0.2563629150390625,0.05279529094696045,-0.08609390258789062,-0.6208493122080966,-1.6490146366247074,-1.426447571572844,-0.8108978867530823,0.5817261934280396,0.0635567307472229,0.08175542205572128,-0.14390447735786438,-0.27601364254951477
3.407259225845337,0.2857966423034668,0.022388160228729248,-0.059521667659282684,-0.6145371688184073,-1.648505928750164,-1.4206324832893058,-0.8145749568939209,0.5765804052352905,0.06342802196741104,0.3289797306060791,-0.13444583117961884,-0.3785691559314728
3.427342176437378,0.3422357439994812,-0.06100642681121826,-0.053279273211956024,-0.6068513891625376,-1.6451242658621765,-1.4100047486276925,-0.8191799521446228,0.5702838897705078,0.06100033223628998,0.4600081443786621,-0.15472890436649323,-0.4675281345844269
3.4461090564727783,0.3830885887145996,-0.11333870887756348,-0.08428215980529785,-0.5971252788330854,-1.6427561387703684,-1.3977321840899206,-0.8248153924942017,0.562267541885376,0.059456221759319305,0.46346133947372437,-0.31866368651390076,-0.5750331282615662
3.468553066253662,0.354032039642334,-0.08756041526794434,-0.10481559485197067,-0.5844954174998952,-1.6445453463970217,-1.3868489342623964,-0.8317239284515381,0.5517786145210266,0.06145027279853821,0.34400492906570435,-0.4275403618812561,-0.7731777429580688
3.488312005996704,0.2749289870262146,-0.030221283435821533,-0.0896526575088501,-0.5673607788119621,-1.647670279448659,-1.3780815973066418,-0.8408318161964417,0.5374082326889038,0.06476569175720215,0.2865375578403473,-0.325052946805954,-0.9812896847724915
3.507042169570923,0.2602565288543701,-0.016153573989868164,-0.05938970297574997,-0.5480648634585394,-1.6459900725957617,-1.3676933931935564,-0.8511228561401367,0.5210365056991577,0.06412000954151154,0.48100969195365906,-0.059334028512239456,-0.9859532117843628
3.525952100753784,0.3260813355445862,-0.012051403522491455,-0.05516088381409645,-0.5295608073151226,-1.6365981806097802,-1.3512243580658152,-0.8611613512039185,0.5051543712615967,0.05674794316291809,0.8119845390319824,0.1301283985376358,-0.9793128967285156
3.546954870223999,0.3844805359840393,0.019543349742889404,-0.06697523593902588,-0.5110672294497741,-1.6219241560740771,-1.327634366992276,-0.8710834383964539,0.4891083836555481,0.04457545280456543,1.098991870880127,0.15863408148288727,-0.9923131465911865
3.5697929859161377,0.42692434787750244,-0.010069549083709717,-0.05587649345397949,-0.4920933711920224,-1.6060864268188662,-1.3014482010016635,-0.8807971477508545,0.4724718928337097,0.031096329912543297,1.0685935020446777,0.14936742186546326,-1.0273420810699463
3.5844781398773193,0.41781526803970337,-0.06289556622505188,-0.036386847496032715,-0.4715506185051958,-1.591722457674891,-1.2780296187211768,-0.8906699419021606,0.454268217086792,0.018640996888279915,0.9613729119300842,0.21756814420223236,-1.057218313217163
3.604950189590454,0.41581958532333374,-0.06815537810325623,-0.017813801765441895,-0.45082590629281594,-1.5765848115421095,-1.257768570739618,-0.9000725746154785,0.43570905923843384,0.0052101146429777145,0.8523285984992981,0.41039422154426575,-1.0644673109054565
3.626816987991333,0.4135609269142151,-0.08145067095756531,0.0030498504638671875,-0.4296626972621694,-1.5591163904786245,-1.240342573657173,-0.9090444445610046,0.4165641963481903,-0.010618063621222973,0.7328453063964844,0.5914003252983093,-1.0420838594436646
3.646461009979248,0.41850656270980835,-0.10635334253311157,0.02404772862792015,-0.40952947202646384,-1.5400182562112945,-1.2259808273104411,-0.9168741106987,0.39817774295806885,-0.028228530660271645,0.6585549116134644,0.7179494500160217,-0.9468938708305359
3.6655051708221436,0.47420066595077515,-0.1102028489112854,0.014559749513864517,-0.3911258215119031,-1.518910532897182,-1.2103292397645309,-0.9232363104820251,0.3812294602394104,-0.04794588312506676,0.914090633392334,0.7596825361251831,-0.818447470664978
3.685225009918213,0.5781858563423157,-0.06377199292182922,-0.04093099385499954,-0.3748577635867523,-1.4978526064447422,-1.186355946882304,-0.9280853867530823,0.3661401867866516,-0.06781832128763199,1.4187612533569336,0.3655056655406952,-0.6898240447044373
3.7052829265594482,0.4929230213165283,-0.03861650824546814,-0.08210336416959763,-0.35633619803994604,-1.482381821424061,-1.153491812068958,-0.9335206151008606,0.34884294867515564,-0.08275250345468521,1.754691481590271,0.09571263194084167,-1.0032435655593872
3.7265610694885254,0.2019677758216858,-0.07418972253799438,-0.04663962125778198,-0.3286069817740374,-1.4678824783758913,-1.1192738627214418,-0.9414851665496826,0.322724848985672,-0.09723538160324097,1.6241158246994019,0.24489909410476685,-1.3933409452438354
3.7463760375976562,0.2114192247390747,-0.1693027913570404,0.0653652623295784,-0.29749677152332166,-1.45540971705103,-1.0958320247566022,-0.9497157335281372,0.2931278645992279,-0.11007342487573624,0.9653472900390625,0.24707268178462982,-1.468234658241272
3.766249895095825,0.09453177452087402,-0.18926221132278442,0.08292776346206665,-0.2658538871315423,-1.4471970399034044,-1.0849362603236454,-0.9575079679489136,0.26273325085639954,-0.11895366758108139,0.4393782913684845,0.2692212164402008,-1.5877095460891724
3.7861850261688232,-0.15364450216293335,-0.10302554070949554,0.08580632507801056,-0.23025300280256972,-1.4404026664188543,-1.0830413155687764,-0.9653435349464417,0.22822386026382446,-0.1265929639339447,0.2238941341638565,0.3573291301727295,-1.9377591609954834
3.806180000305176,-0.11781585216522217,-0.010549500584602356,0.060193538665771484,-0.18989611441245305,-1.4350454594251156,-1.0841350615325376,-0.9729893803596497,0.18875688314437866,-0.13290153443813324,0.32573023438453674,0.18014007806777954,-2.0707473754882812
3.826519012451172,-0.013687312602996826,0.012710988521575928,0.03792963922023773,-0.14812365042182296,-1.4313292308216206,-1.0773911372934397,-0.9794464111328125,0.14758259057998657,-0.13749317824840546,0.8934275507926941,0.05503799766302109,-1.9331859350204468
3.8460960388183594,-0.17635458707809448,0.06017962843179703,-0.013899087905883789,-0.10749246137605968,-1.430706653421103,-1.0587671283146975,-0.9844884276390076,0.10728557407855988,-0.13882601261138916,1.4837599992752075,-0.22959382832050323,-1.855733036994934
3.866180181503296,-0.3015768527984619,0.12638641893863678,0.007231160998344421,-0.06688544753730653,-1.4352699461585394,-1.0349430781622326,-0.9886150360107422,0.06683558970689774,-0.13480980694293976,1.3508810997009277,-0.34019455313682556,-1.878799319267273
3.885776996612549,-0.358609139919281,0.07055144757032394,0.1694260984659195,-0.02762708771218412,-1.4374235419149954,-1.019627217825473,-0.9907408952713013,0.027623573318123817,-0.13292698562145233,0.5996850728988647,0.012562176212668419,-1.8165571689605713
3.9073212146759033,-0.43056243658065796,-0.032726697623729706,0.21875905990600586,0.007022531563623543,-1.4339436360902478,-1.019403514556196,-0.9906259775161743,-0.007022473961114883,-0.13642257452011108,-0.12277614325284958,0.28894537687301636,-1.5200824737548828
3.9263341426849365,-0.33924782276153564,0.015478027984499931,0.14007128775119781,0.03118441325476869,-1.4295774561718164,-1.0328453661628108,-0.9895638823509216,-0.031179359182715416,-0.14068153500556946,-0.8150267004966736,0.14993920922279358,-1.1345018148422241
3.9434549808502197,-0.35799700021743774,0.12753477692604065,0.17089037597179413,0.04778006321359217,-1.4226644899243215,-1.0597140856626692,-0.9879199862480164,-0.047761887311935425,-0.14742228388786316,-1.5799044370651245,0.4927712082862854,-0.9197853803634644
3.966275930404663,-0.41304659843444824,0.14601096510887146,0.20882640779018402,0.05729725515813696,-1.408493855502374,-1.0915592555357179,-0.9852385520935059,-0.057265911251306534,-0.16132569313049316,-1.2722959518432617,0.6309083700180054,-0.47923246026039124
3.9876370429992676,-0.3669074773788452,0.287236750125885,0.13200920820236206,0.06272959726822715,-1.3971401032867545,-1.1077267172297185,-0.9830224514007568,-0.06268846243619919,-0.1724449098110199,-0.19701910018920898,0.3886820077896118,-0.4219677150249481
4.007329225540161,-0.3134559392929077,0.33559876680374146,0.2539851665496826,0.07270813375856298,-1.3895633300987933,-1.1074447434004648,-0.9810235500335693,-0.07264409214258194,-0.17976632714271545,0.18591243028640747,0.4117734134197235,-0.43443727493286133
4.022917985916138,-0.40670520067214966,0.03219754993915558,0.3070980906486511,0.07624728572428636,-1.380595657298143,-1.1142211974126464,-0.9791133999824524,-0.07617342472076416,-0.18850667774677277,-0.8172057271003723,0.47811177372932434,-0.10601090639829636
4.047543048858643,-0.5518673658370972,-0.25212520360946655,0.3707549571990967,0.07139127827900495,-1.3677991047209666,-1.1355503794189317,-0.9769718647003174,-0.07133065164089203,-0.20109239220619202,-1.2474254369735718,0.5340525507926941,0.2317529320716858
4.065792083740234,-0.5339949727058411,-0.04773766174912453,0.30674564838409424,0.06014776503539358,-1.3568567125459976,-1.1565409820953387,-0.9754350185394287,-0.060111504048109055,-0.2119274139404297,-0.960809051990509,0.4259236454963684,0.3593756854534149
4.085467100143433,-0.5601584315299988,0.014760684221982956,0.2678592801094055,0.04964744548146499,-1.3498077093700074,-1.170837417387565,-0.9744791388511658,-0.04962705075740814,-0.21892423927783966,-0.6432797908782959,0.28205686807632446,0.39356493949890137
4.105332136154175,-0.6087102293968201,-0.16452345252037048,0.30420899391174316,0.03622912490323142,-1.344797982269967,-1.177652165775505,-0.9739314913749695,-0.03622119873762131,-0.2239324301481247,-0.41834354400634766,0.1377798467874527,0.6870225071907043
4.124160051345825,-0.5780514478683472,-0.26519110798835754,0.37060117721557617,0.021111159551217416,-1.342061039265437,-1.1791638748351319,-0.9737370014190674,-0.02110959216952324,-0.22669543325901031,-0.009081215597689152,0.13808122277259827,0.743899405002594
4.143211126327515,-0.581332266330719,-0.2741134762763977,0.35700953006744385,0.008525227673740048,-1.3385267534880685,-1.168375882779053,-0.9731112122535706,-0.008525124751031399,-0.23017840087413788,0.7447959780693054,0.1731499880552292,0.7470174431800842
4.165649175643921,-0.544776976108551,-0.29407593607902527,0.24670538306236267,-0.001671701502946548,-1.3350038717079626,-1.1447899047472974,-0.9723283648490906,0.0016717007383704185,-0.23361331224441528,1.2371463775634766,0.15747959911823273,0.8219154477119446
4.185558080673218,-0.525566577911377,-0.24742797017097473,0.13843169808387756,-0.013648440657979937,-1.3327812650042399,-1.119082084527793,-0.9717175364494324,0.013648017309606075,-0.2357521951198578,0.9036649465560913,0.07287007570266724,0.9453762769699097
4.2069761753082275,-0.5751990675926208,-0.1816471964120865,0.11799871921539307,-0.03228449106155456,-1.330431720734102,-1.1023169333869345,-0.9707452058792114,0.0322788842022419,-0.2379327416419983,0.2833121418952942,0.13362158834934235,1.2930169105529785
4.221365213394165,-0.6339126825332642,-0.14993485808372498,0.014513105154037476,-0.0602189905262543,-1.3289816638537433,-1.0915948222912428,-0.9691451787948608,0.0601826012134552,-0.2390308380126953,0.16212593019008636,-0.03380168229341507,1.6850059032440186
4.24167799949646,-0.5805575847625732,-0.054855771362781525,-0.02436777949333191,-0.09519108092828575,-1.3269681455038949,-1.0803853913336394,-0.9660276770591736,0.09504738450050354,-0.2403264045715332,0.07991652190685272,0.16435223817825317,1.9190839529037476
4.2658469676971436,-0.6715043187141418,-0.03291110694408417,0.029440999031066895,-0.1318493004405114,-1.320410243637584,-1.0698972249554095,-0.9604080319404602,0.13146761059761047,-0.24562744796276093,-0.0013756523840129375,0.3825453817844391,1.9571794271469116
4.284250974655151,-0.6492058038711548,-0.10358966886997223,0.05879905819892883,-0.1710732767273848,-1.3112072689653376,-1.0626539173759013,-0.952387273311615,0.17024005949497223,-0.2529365122318268,-0.25386562943458557,0.41830816864967346,1.961639165878296
4.304490089416504,-0.6335585713386536,-0.08695866167545319,0.10310301184654236,-0.20945855983650832,-1.3023741591990634,-1.0582313394004477,-0.9431168437004089,0.207930326461792,-0.2594138979911804,-0.3422689735889435,0.335481196641922,1.8602123260498047
4.325861215591431,-0.5352694988250732,-0.03141354024410248,0.08637237548828125,-0.2455119577042201,-1.298442428544719,-1.0568153843870134,-0.9342588186264038,0.24305295944213867,-0.2609328627586365,-0.5002456307411194,0.017199892550706863,1.6711137294769287
4.344610929489136,-0.43016088008880615,-0.04475897550582886,0.07076138257980347,-0.27950910433738163,-1.3007090132964338,-1.0606449520027987,-0.9263455867767334,0.27588382363319397,-0.2564607560634613,-0.757533073425293,-0.10581613332033157,1.5124053955078125
4.36366605758667,-0.4003261923789978,-0.038535505533218384,0.06346490979194641,-0.3110278262552107,-1.3046120038384619,-1.068553647101152,-0.918491005897522,0.3060373067855835,-0.250430703163147,-0.8011221885681152,-0.045506544411182404,1.3514668941497803
4.38421893119812,-0.31562966108322144,0.017298340797424316,0.013508573174476624,-0.34048441151456876,-1.3085601691554256,-1.0779131089883789,-0.9103683233261108,0.3339437246322632,-0.24435867369174957,-0.8214189410209656,-0.038903944194316864,1.2935686111450195
4.404401063919067,-0.24259740114212036,0.06218019127845764,-0.023057878017425537,-0.36952752512967735,-1.3130287895411876,-1.0892231475529082,-0.9016898274421692,0.36117488145828247,-0.2377147525548935,-0.9397952556610107,-0.012036910280585289,1.1932519674301147
4.424704074859619,-0.20569932460784912,0.09028863906860352,-0.05471932888031006,-0.39604262672398854,-1.318319125892417,-1.1028119413563144,-0.8933455944061279,0.385770320892334,-0.23046736419200897,-0.990053117275238,-0.03947918862104416,1.0835758447647095
4.444084882736206,-0.12663555145263672,0.13294240832328796,-0.0924365371465683,-0.4216131643402544,-1.3265904175832746,-1.1184721403076594,-0.8853579163551331,0.40923288464546204,-0.22061268985271454,-1.0282237529754639,-0.12457863986492157,1.0871052742004395
4.463134050369263,-0.16429352760314941,0.1328832507133484,-0.0409432053565979,-0.44738289125232894,-1.33490948124353,-1.1370601807694554,-0.8766154050827026,0.4326074719429016,-0.21070466935634613,-1.2533905506134033,0.10511714220046997,0.9830085039138794
4.484163045883179,-0.20153439044952393,0.048123329877853394,-0.02451789379119873,-0.470305258660335,-1.3420694857894615,-1.1621053399092969,-0.8682136535644531,0.4531584084033966,-0.202120840549469,-1.4053784608840942,0.3246244788169861,0.7791812419891357
4.504139184951782,-0.03320568799972534,0.058008432388305664,-0.07469761371612549,-0.49106249924824763,-1.348743758981229,-1.1902793748146407,-0.8601812720298767,0.47156310081481934,-0.19420795142650604,-1.4698511362075806,0.2652871906757355,0.6770568490028381
4.5229198932647705,0.04939848184585571,0.09068760275840759,-0.07478971779346466,-0.5106560981751852,-1.35815175860807,-1.2208282343065748,-0.8527739644050598,0.48874974250793457,-0.18412132561206818,-1.583794355392456,0.3098037838935852,0.6412068009376526
4.542861223220825,0.06582194566726685,0.08256149291992188,-0.03361217677593231,-0.5298163168724563,-1.3681390684592571,-1.2543613456624179,-0.8452408909797668,0.5053748488426208,-0.17367839813232422,-1.6400483846664429,0.31551939249038696,0.6376233100891113
4.562887907028198,0.1836290955543518,0.12836849689483643,-0.07230454683303833,-0.5475928639041785,-1.3788093578382463,-1.2874302157070239,-0.8380939364433289,0.5206335783004761,-0.1629096120595932,-1.486755609512329,0.3180679678916931,0.592479407787323
4.584017038345337,0.35151875019073486,0.1043926477432251,-0.11148178577423096,-0.5639437230073678,-1.3881929307661907,-1.3155144831539582,-0.8311026096343994,0.5345234274864197,-0.15347175300121307,-1.182668685913086,0.2080848067998886,0.598141074180603
4.603655099868774,0.46815693378448486,0.03318285942077637,-0.14363360404968262,-0.5793440300542451,-1.3978812043904125,-1.3397789796814668,-0.8243429660797119,0.5474750995635986,-0.14397920668125153,-1.1532714366912842,0.158944234251976,0.5758669972419739
4.6225950717926025,0.5735334753990173,-0.08458304405212402,-0.13085733354091644,-0.5952345916945515,-1.4091023439902484,-1.365890326434187,-0.8172163963317871,0.5607030391693115,-0.1333027333021164,-1.256014108657837,0.15537765622138977,0.6480947136878967
4.643595933914185,0.6551513075828552,-0.09322386980056763,-0.14038944244384766,-0.6124795144579488,-1.420662800563881,-1.3930571395028197,-0.8090209364891052,0.5748980045318604,-0.12238205224275589,-1.2292945384979248,0.18862003087997437,0.6695958375930786
4.661555051803589,0.7183441519737244,-0.1389995813369751,-0.14208769798278809,-0.6286652555445867,-1.4319687394077865,-1.4194679362476703,-0.8010315895080566,0.5880657434463501,-0.11192525178194046,-1.1217217445373535,0.20462322235107422,0.6729525327682495
4.683604001998901,0.8327986598014832,-0.21320563554763794,-0.12157284468412399,-0.6472456049090183,-1.4393654672116194,-1.4382420265444624,-0.7908675074577332,0.6029914021492004,-0.10454707592725754,-0.38513240218162537,0.22112417221069336,1.131049633026123
4.703509092330933,0.8622393608093262,-0.18156665563583374,-0.16821056604385376,-0.6731423089523443,-1.4337145609151196,-1.434395994988381,-0.7745318412780762,0.6234459280967712,-0.10684428364038467,0.28415781259536743,0.07738636434078217,1.4057430028915405
4.723764181137085,0.7493330240249634,-0.16620922088623047,-0.16384249925613403,-0.7008229725744771,-1.422652291991708,-1.4169520812696463,-0.7559401392936707,0.6448469161987305,-0.1128145307302475,0.6084954142570496,-0.08039706200361252,1.4916908740997314
4.743537187576294,0.6500994563102722,-0.28267228603363037,-0.1327306628227234,-0.7270806472800696,-1.4103072494191307,-1.3938406164173573,-0.7375171780586243,0.6646913886070251,-0.11939024925231934,0.6605706810951233,-0.20481382310390472,1.3707729578018188
4.763260126113892,0.63181072473526,-0.40970009565353394,-0.11280643194913864,-0.7501089510521157,-1.4023343896462783,-1.37359553844888,-0.7212578058242798,0.6817184686660767,-0.122667096555233,0.42211419343948364,-0.3631739914417267,1.1034096479415894
4.783433198928833,0.6045119762420654,-0.44083088636398315,-0.0883815735578537,-0.7683726158071741,-1.400722930492561,-1.3594999619837105,-0.7086685299873352,0.6949660181999207,-0.12170133739709854,0.3004550039768219,-0.4099467396736145,0.9123506546020508
4.803091049194336,0.5846220254898071,-0.3783959746360779,-0.022242069244384766,-0.783406519004208,-1.3954038051026851,-1.3441369090254796,-0.6976439952850342,0.7056970596313477,-0.12363189458847046,0.6099751591682434,-0.04149670898914337,0.8021681904792786
4.822145223617554,0.5572282671928406,-0.28805071115493774,-0.022596776485443115,-0.796066671982768,-1.3753945533186525,-1.318468257786959,-0.6862108707427979,0.7146101593971252,-0.13581986725330353,0.915363073348999,0.1241648718714714,0.7542946338653564
4.843230962753296,0.5403313636779785,-0.04792052507400513,-0.12070830166339874,-0.8061270994486925,-1.3512237853284985,-1.289079021838947,-0.6756770014762878,0.7216113805770874,-0.1507912576198578,0.8421467542648315,0.14636942744255066,0.5711222887039185
4.862847089767456,0.4652976989746094,0.05303037166595459,-0.09888003766536713,-0.8091089423468297,-1.3293921469016003,-1.2607707228618665,-0.6701316833496094,0.7236725091934204,-0.16499009728431702,1.0279254913330078,-0.038911402225494385,0.2225121259689331
4.88263201713562,0.5077491402626038,-0.04617244005203247,0.008372113108634949,-0.8077692349645439,-1.3076700357382358,-1.2289810450679552,-0.6673257350921631,0.722747266292572,-0.17975877225399017,1.1378881931304932,0.033720724284648895,0.24893397092819214
4.9027321338653564,0.43223845958709717,-0.20012778043746948,0.23965588212013245,-0.8045867969272781,-1.2709879651073783,-1.1874434765132056,-0.6624784469604492,0.720544159412384,-0.20478950440883636,1.833318829536438,0.6207386255264282,0.1902979612350464
4.922887086868286,0.2716052532196045,-0.16128504276275635,0.22735640406608582,-0.7909167985833758,-1.2070924431791172,-1.121375927874644,-0.6571950316429138,0.7109982371330261,-0.2501530051231384,2.9456279277801514,0.99941486120224,-0.05532233789563179
4.942660093307495,0.2257080078125,-0.04407435655593872,0.10875102877616882,-0.760869818280231,-1.1341354404195345,-1.0394313505445094,-0.6562805771827698,0.6895516514778137,-0.30629122257232666,3.660729169845581,0.3946376442909241,-0.3691171705722809
4.962584018707275,0.23842626810073853,-0.19643568992614746,-0.004853278398513794,-0.7198005975859236,-1.078518654746817,-0.9581378067547481,-0.6626511812210083,0.6592347621917725,-0.35539135336875916,3.4078452587127686,-0.3284953832626343,-0.689425528049469
4.98313307762146,0.11021757125854492,-0.3204275369644165,0.0631374716758728,-0.6723889693999765,-1.0569180580682411,-0.9006273522272884,-0.6812930703163147,0.6228567361831665,-0.38456371426582336,2.727102041244507,-1.2175884246826172,-1.330120325088501
5.002630949020386,0.004128575325012207,-0.273149311542511,0.07779240608215332,-0.6219211061557895,-1.0707203598491999,-0.8691951973987392,-0.7132351398468018,0.5825976133346558,-0.38971248269081116,1.9695707559585571,-2.071812629699707,-1.809151291847229
5.0225489139556885,-0.2616087794303894,-0.19882309436798096,0.07210683822631836,-0.5703760490014875,-1.1140159713066335,-0.8540933350029625,-0.7554048299789429,0.539948582649231,-0.3712400496006012,1.5689679384231567,-3.108872175216675,-2.2969040870666504
5.042600870132446,-0.5089139342308044,-0.09522518515586853,0.06463032960891724,-0.5138942862662709,-1.180989278021411,-0.8472840220658766,-0.8055087327957153,0.4915722608566284,-0.33092665672302246,1.3644964694976807,-3.9192700386047363,-2.5832698345184326
5.062316179275513,-0.704426109790802,-0.024687260389328003,0.048352599143981934,-0.4549881897693543,-1.2541288026310915,-0.8349505956850651,-0.8536031246185303,0.4394516944885254,-0.2797214984893799,1.4986042976379395,-2.9575629234313965,-2.2782952785491943
5.082153081893921,-1.2855905294418335,0.07651779055595398,-0.061520785093307495,-0.4238860820978477,-1.2667810329753986,-0.8425151114883564,-0.8696982264518738,0.411305695772171,-0.27286019921302795,-0.6974644660949707,0.2790210247039795,-1.1873620748519897
5.104768991470337,-1.7715494632720947,0.026844173669815063,-1.0713582038879395,-0.4072810074350883,-1.2914586770341245,-0.8312733959612938,-0.8826103210449219,0.39611420035362244,-0.253165602684021,2.1908321380615234,-2.0169787406921387,0.06732705980539322
5.119935989379883,-0.34581929445266724,1.2996280193328857,-0.5098514556884766,-0.39618700753525304,-1.3102760491904004,-0.7821448979792149,-0.891409158706665,0.3859035074710846,-0.2376307100057602,2.223029136657715,-1.9572832584381104,-0.7519463300704956
5.139941930770874,-1.040209412574768,0.4697779715061188,0.4129049777984619,-0.3593150755930699,-1.3208851812566118,-0.7376875955159945,-0.9070562720298767,0.35163313150405884,-0.23152364790439606,2.643605947494507,-0.36377862095832825,-0.8946689963340759
5.15998387336731,-0.34592998027801514,-0.5308886766433716,0.7654780149459839,-0.35083131044273386,-1.2975135256253718,-0.6920516055167083,-0.9042379856109619,0.3436785936355591,-0.25345394015312195,1.5780820846557617,0.8116245269775391,0.686489999294281
5.181605100631714,-0.3751993775367737,-0.8971858024597168,0.6742849946022034,-0.3556556742921062,-1.269761041656286,-0.6695620653334309,-0.8952627778053284,0.3482050895690918,-0.2779530882835388,0.3229635953903198,1.1143954992294312,0.5075680017471313
5.201826095581055,-0.19375044107437134,-0.588395357131958,0.528106689453125,-0.3682371222502418,-1.248339308779978,-0.6671605228859292,-0.8848781585693359,0.359971284866333,-0.29565414786338806,-0.3710840344429016,0.9390331506729126,0.6670668125152588
5.222199201583862,-0.18380826711654663,-0.38824495673179626,0.40370821952819824,-0.3808279108413312,-1.232821697613761,-0.6730347428393795,-0.8758384585380554,0.37168920040130615,-0.30782192945480347,-0.4292859137058258,0.8195719718933105,0.3390524387359619
5.239948034286499,-0.18504059314727783,-0.2155645191669464,0.31964099407196045,-0.3888324189974239,-1.220650174223073,-0.6799390136896983,-0.8692045211791992,0.3791082501411438,-0.3174283802509308,-0.536105215549469,0.6803904175758362,0.22911137342453003
5.263932943344116,-0.12975281476974487,-0.19310227036476135,0.38464540243148804,-0.3968748280005319,-1.211169085100667,-0.6895232790579048,-0.8632740378379822,0.38653796911239624,-0.3245714604854584,-0.507943868637085,0.6556752920150757,0.2734968662261963
5.279989957809448,-0.14503085613250732,-0.23760119080543518,0.4371720850467682,-0.40700995014646146,-1.2008736410318523,-0.6988425202217226,-0.8561899065971375,0.3958653211593628,-0.33200836181640625,-0.6985114216804504,0.7493861317634583,0.2845662534236908
5.3016510009765625,-0.1643936038017273,-0.19381827116012573,0.45708855986595154,-0.4170454530676681,-1.1910550020266533,-0.7126603995189316,-0.8491562008857727,0.40506091713905334,-0.3389091193675995,-0.8902381658554077,0.7689768075942993,0.24687460064888
5.321645021438599,-0.12060290575027466,-0.18391454219818115,0.3743930160999298,-0.4302515119918291,-1.1837531368331256,-0.7299405863530729,-0.8416318297386169,0.4170994162559509,-0.34305140376091003,-1.049646019935608,0.7051999568939209,0.3879755437374115
5.3404700756073,-0.11817944049835205,-0.1895136535167694,0.29214900732040405,-0.4470207744605626,-1.1779677269658133,-0.74964912958785,-0.8330535292625427,0.4322809875011444,-0.3451884984970093,-1.2671761512756348,0.7464017271995544,0.46726128458976746
5.360351085662842,-0.11689311265945435,-0.2208406925201416,0.28433603048324585,-0.46619847184919305,-1.1730982081708463,-0.7737526814261964,-0.8235672116279602,0.4494937062263489,-0.3459661602973938,-1.4747464656829834,0.7967429161071777,0.48598384857177734
5.381408929824829,-0.08122998476028442,-0.22196215391159058,0.28925496339797974,-0.48707228212369136,-1.1697164619449851,-0.8014531813809848,-0.8135760426521301,0.4680406451225281,-0.3450104892253876,-1.6027439832687378,0.8405286073684692,0.4637601673603058
5.403373956680298,-0.0307808518409729,-0.1749797761440277,0.31503826379776,-0.507576541865022,-1.1666608110254113,-0.8305758683886193,-0.8035240769386292,0.48606076836586,-0.34364840388298035,-1.4994298219680786,0.8634781837463379,0.442976713180542
5.421809911727905,-0.012418389320373535,-0.08336502313613892,0.2563881278038025,-0.525598186016728,-1.1598845478151547,-0.8530030570182218,-0.7930169105529785,0.5017305612564087,-0.3455298840999603,-0.9742111563682556,0.9670396447181702,0.45914435386657715
5.441286087036133,0.017464756965637207,0.027953267097473145,0.22481068968772888,-0.5400114852253185,-1.1464315844758872,-0.8651961429944387,-0.7816250920295715,0.5141458511352539,-0.3531522750854492,-0.6186447739601135,1.013862133026123,0.45335516333580017
5.461381196975708,0.0830184817314148,-0.030780792236328125,0.20113450288772583,-0.5530710599218882,-1.1310781783898494,-0.8737656492222242,-0.7699692845344543,0.5253028869628906,-0.36222144961357117,-0.6598147749900818,0.9892128705978394,0.4762186110019684
5.481244087219238,0.10339140892028809,-0.1382022500038147,0.1627294421195984,-0.5684764524036786,-1.118984300401463,-0.8859208147949049,-0.7581614255905151,0.5383487343788147,-0.3679295778274536,-0.9450578093528748,0.8854621052742004,0.492266446352005
5.501508951187134,0.07671284675598145,-0.1265152096748352,0.07701602578163147,-0.5863432954188937,-1.113668430866796,-0.9049613815407611,-0.7474434971809387,0.5533187985420227,-0.3676500618457794,-1.2412946224212646,0.6920939683914185,0.40556925535202026
5.520986080169678,0.0639154314994812,-0.05220752954483032,0.026907771825790405,-0.60409276433266,-1.1147845010630002,-0.9280687021044917,-0.7389185428619385,0.5680156350135803,-0.36243319511413574,-1.1728700399398804,0.5309005379676819,0.36809051036834717
5.540786027908325,0.054357290267944336,0.05674248933792114,0.06678634881973267,-0.6199738967821703,-1.1139530791699532,-0.9460318233997742,-0.7304285168647766,0.5810139179229736,-0.3590226173400879,-0.8767215013504028,0.5947946906089783,0.4221838712692261
5.560973882675171,0.0072997212409973145,0.17453956604003906,0.05648142099380493,-0.6338613269698407,-1.1115634982968778,-0.9598263551627192,-0.7222656011581421,0.5922604203224182,-0.35715577006340027,-0.7647112607955933,0.46612781286239624,0.2895171642303467
5.581115007400513,-0.07073044776916504,0.2176632285118103,-0.017370283603668213,-0.6449443580290029,-1.1101321192192126,-0.9723506374936077,-0.7158296704292297,0.6011539697647095,-0.355249285697937,-0.6985023021697998,0.4483278691768646,0.3139496445655823
5.600844144821167,-0.1016889214515686,0.25191301107406616,-0.07419705390930176,-0.6570559825494009,-1.1112155913963973,-0.9867240866380352,-0.7096362113952637,0.6107884645462036,-0.35121792554855347,-0.8231040835380554,0.28632235527038574,0.23811869323253632
5.619983911514282,-0.10017269849777222,0.2684893012046814,-0.13350450992584229,-0.6674980122503426,-1.117408645252722,-1.0015905746878875,-0.7060254812240601,0.6190229058265686,-0.34400394558906555,-0.6527552008628845,0.06552375108003616,0.24131371080875397
5.639981985092163,-0.07888853549957275,0.20663541555404663,-0.12170466780662537,-0.6771648976760524,-1.123733576668925,-1.012682945564753,-0.7027581930160522,0.6265860199928284,-0.33692866563796997,-0.5693589448928833,0.020636701956391335,0.24199619889259338
5.660578966140747,-0.08506172895431519,0.11089092493057251,-0.07420051097869873,-0.6860012577343616,-1.1288892266512984,-1.0227891330437946,-0.6994537711143494,0.63344806432724,-0.3309202492237091,-0.5316949486732483,0.08366218209266663,0.25553256273269653
5.679982900619507,-0.06389045715332031,0.09059017896652222,-0.05624592304229736,-0.6951148974747137,-1.1332944083336913,-1.0318154427624018,-0.6956464052200317,0.6404736638069153,-0.32537633180618286,-0.4793752431869507,0.08104429394006729,0.26311078667640686
5.6999828815460205,-0.03288459777832031,0.08751988410949707,-0.015440702438354492,-0.7038936743918276,-1.13706649624321,-1.0419550691995134,-0.691740095615387,0.6471908688545227,-0.32037466764450073,-0.6359225511550903,0.16558696329593658,0.19206112623214722
5.719994068145752,0.010143041610717773,0.08436769247055054,-0.02024570107460022,-0.7110729609266666,-1.145205233643498,-1.0584450853773688,-0.6900747418403625,0.652647078037262,-0.31280776858329773,-0.7509911060333252,0.09127545356750488,-0.06692400574684143
5.740465879440308,0.055248260498046875,0.10050857067108154,-0.061617761850357056,-0.7149096038813142,-1.1574501953296088,-1.0779840687957052,-0.6915550827980042,0.655549168586731,-0.3033265769481659,-0.7849140763282776,-0.03893386200070381,-0.18093426525592804
5.759984016418457,0.1306706666946411,0.10213536024093628,-0.07684430480003357,-0.7174257888397068,-1.1752576321964605,-1.1018392676230215,-0.6953222155570984,0.6574471592903137,-0.2903278172016144,-0.9838733673095703,-0.15707239508628845,-0.27683964371681213
5.779964208602905,0.1765701174736023,0.061407387256622314,-0.06709077954292297,-0.7203484946167494,-1.1985379903411115,-1.1310634209790267,-0.7000991702079773,0.6596466302871704,-0.2733632028102875,-1.1655915975570679,-0.20839789509773254,-0.27587032318115234
5.8005759716033936,0.18814843893051147,0.06575429439544678,-0.013073831796646118,-0.7246225813313791,-1.2213566142895722,-1.1636890671580347,-0.7034988403320312,0.6628528833389282,-0.2563505172729492,-1.252457857131958,0.1205735057592392,-0.17569848895072937
5.820029020309448,0.20063263177871704,0.1022484302520752,0.010650455951690674,-0.7294898605819031,-1.2362088787384304,-1.1950107275729416,-0.7041727900505066,0.6664894223213196,-0.2448117583990097,-1.0879602432250977,0.47444814443588257,-0.17508342862129211
5.8401100635528564,0.24076759815216064,0.1380801796913147,-0.014581561088562012,-0.7322303242301847,-1.2435035677164248,-1.2224497573605604,-0.7042075991630554,0.6685299277305603,-0.23908045887947083,-0.9571712613105774,0.5913066864013672,-0.21695129573345184
5.860079050064087,0.2896813750267029,0.0690804123878479,-0.016737401485443115,-0.7345711985965403,-1.2499514429698075,-1.2494023492140325,-0.7042475342750549,0.6702690124511719,-0.23404070734977722,-1.0882484912872314,0.5557222366333008,-0.19855794310569763
5.880093097686768,0.27280890941619873,-0.009678840637207031,-0.003625437617301941,-0.7376713214034291,-1.262390684274699,-1.2829396327325022,-0.7051209807395935,0.6725664138793945,-0.2246306985616684,-1.3637244701385498,0.48382169008255005,-0.2661456763744354
5.899984121322632,0.26907652616500854,-0.018131732940673828,0.022077754139900208,-0.7409539371689083,-1.2792222497811525,-1.322815369056799,-0.7066833972930908,0.6749920845031738,-0.21209535002708435,-1.471973180770874,0.5189027786254883,-0.29568082094192505
5.9200451374053955,0.2518571615219116,0.03991979360580444,0.03521159291267395,-0.7416271483766969,-1.2932302638238409,-1.3600766544544924,-0.7091479301452637,0.6754885911941528,-0.20205111801624298,-1.1618778705596924,0.620286226272583,-0.38304656744003296
5.939983129501343,0.249911367893219,0.05189460515975952,0.05736440420150757,-0.7403287284234072,-1.2993485935747102,-1.3897076151795131,-0.7112151980400085,0.6745306253433228,-0.1979435533285141,-0.9476014971733093,0.7833081483840942,-0.33306553959846497
5.961730003356934,0.22402626276016235,-0.02322298288345337,0.06747716665267944,-0.7381999633403417,-1.3022906293395151,-1.4186900246664749,-0.7131773233413696,0.6729575395584106,-0.19623076915740967,-1.0979084968566895,0.8729265332221985,-0.4655582010746002
5.980931997299194,0.21717995405197144,-0.06505322456359863,0.07079970836639404,-0.734295319640468,-1.3077411014482683,-1.453447653401685,-0.7167680859565735,0.6700642108917236,-0.19302251935005188,-1.273392915725708,0.912614107131958,-0.5737378001213074
5.999962091445923,0.24672621488571167,-0.05746978521347046,0.05952054262161255,-0.7295982472409549,-1.3170080091189307,-1.4942108749847498,-0.7215645909309387,0.6665701866149902,-0.18716025352478027,-1.5664470195770264,0.8840232491493225,-0.6754991412162781
6.020047903060913,0.22019582986831665,-0.013419389724731445,0.05387228727340698,-0.7230693126389236,-1.3316246378676682,-1.542778091967461,-0.7284356355667114,0.6616891026496887,-0.177620992064476,-1.7513947486877441,0.9057161211967468,-0.8267539143562317
6.039944887161255,0.20660525560379028,0.00440824031829834,0.044673457741737366,-0.7142436259295896,-1.3443485839891611,-1.5909286504124949,-0.7362989187240601,0.6550461053848267,-0.1696428656578064,-1.521744728088379,1.006121277809143,-0.8446633815765381
6.059937000274658,0.19518208503723145,0.052151501178741455,0.024274170398712158,-0.7045924828562184,-1.349389099539444,-1.6310508783826345,-0.743277907371521,0.647723376750946,-0.1673099845647812,-1.278847575187683,1.1185849905014038,-0.7906760573387146
6.079922914505005,0.13494527339935303,0.03246784210205078,0.008050426840782166,-0.694282884109334,-1.3505644672090704,-1.6682226225631125,-0.7499508857727051,0.639834463596344,-0.1678861826658249,-1.3025171756744385,1.140956997871399,-0.8608061671257019
6.100163221359253,0.06082308292388916,-0.017515718936920166,-0.008459150791168213,-0.6826979257559718,-1.3524253049140798,-1.7073485192628275,-0.7574478983879089,0.6308885812759399,-0.16808496415615082,-1.3988513946533203,1.1690820455551147,-0.8995984792709351
6.1200079917907715,0.04069793224334717,-0.02889496088027954,-0.009880051016807556,-0.6719622800632467,-1.3548340893800315,-1.7476582028114285,-0.7644222974777222,0.6225228905677795,-0.16770167648792267,-1.4219920635223389,1.1213109493255615,-0.8297735452651978
6.140009164810181,0.004578590393066406,-0.03680366277694702,-0.008322179317474365,-0.6621601498330977,-1.3566178376763343,-1.785845807104823,-0.7706462144851685,0.6148219108581543,-0.16762685775756836,-1.2977452278137207,1.0681856870651245,-0.7752243876457214
6.159991979598999,-0.005533456802368164,-0.07297438383102417,0.01590031385421753,-0.6528389636838714,-1.3567535558851076,-1.8201065762679416,-0.7762354612350464,0.6074439883232117,-0.16873227059841156,-1.1457526683807373,1.0037076473236084,-0.7053098082542419
6.179957151412964,0.011547684669494629,-0.13720929622650146,0.017003417015075684,-0.6440457767784419,-1.3558871371066799,-1.8495071091056312,-0.7812774181365967,0.6004356741905212,-0.1705372929573059,-0.9862901568412781,0.8469900488853455,-0.6743172407150269
6.200092077255249,-0.05908423662185669,-0.10602110624313354,-0.041973263025283813,-0.6342556133282264,-1.3576843931139382,-1.8745970426038847,-0.7872902750968933,0.5925780534744263,-0.17036797106266022,-0.743629515171051,0.4577881097793579,-0.7518278360366821
6.220057010650635,-0.1704012155532837,-0.0005949735641479492,-0.0891427993774414,-0.6202488577412872,-1.362540657241719,-1.8934005113993828,-0.7961516380310059,0.5812376737594604,-0.16824239492416382,-0.5001288056373596,0.17131729423999786,-0.9076246619224548
6.240048170089722,-0.15041214227676392,0.06518691778182983,-0.06850552558898926,-0.6047685804054732,-1.3690410084708864,-1.9087081811011495,-0.8059477806091309,0.5685717463493347,-0.16484706103801727,-0.43713539838790894,0.10976915061473846,-0.8397464752197266
6.2600181102752686,-0.0924416184425354,0.03875511884689331,-0.0660163015127182,-0.5914416057235985,-1.3749364454395958,-1.9226079931421056,-0.8142662048339844,0.5575583577156067,-0.16155315935611725,-0.40988993644714355,0.05929204076528549,-0.73263019323349
6.280003070831299,-0.01670682430267334,0.03781813383102417,-0.1018555760383606,-0.5776532600480745,-1.379888312917839,-1.9333354555164088,-0.8225266933441162,0.5460594892501831,-0.15896283090114594,-0.17534181475639343,0.04135991632938385,-0.8089781403541565
6.2999889850616455,0.08751589059829712,0.011736512184143066,-0.15983454883098602,-0.5595141301265946,-1.380734700060665,-1.93712129876629,-0.8322516083717346,0.5307744741439819,-0.1601116806268692,0.16726884245872498,0.11184526979923248,-1.1131142377853394
6.3199851512908936,0.22666597366333008,-0.03617978096008301,-0.16013610363006592,-0.5322376616290015,-1.3756484272170373,-1.9363517398066423,-0.8453184366226196,0.507462739944458,-0.167088583111763,0.3912838399410248,0.39471369981765747,-1.5518524646759033
6.339985132217407,0.4323282241821289,-0.03608924150466919,-0.14341473579406738,-0.4957019586952957,-1.365318352846861,-1.934973720615989,-0.8611307740211487,0.47564923763275146,-0.17947645485401154,0.518974781036377,0.516228973865509,-1.9363654851913452
6.360016107559204,0.6655060052871704,-0.05723127722740173,-0.2328988015651703,-0.456208216428371,-1.352598536681624,-1.9266860635799419,-0.8764435052871704,0.44054728746414185,-0.19433192908763885,1.0583972930908203,0.3218151926994324,-1.72324800491333
6.379987955093384,0.8489856719970703,-0.0407944917678833,-0.3291891813278198,-0.42084441804267536,-1.342321019308231,-1.9081084332627547,-0.8890248537063599,0.4085313379764557,-0.2067299783229828,1.248716950416565,-0.0705222338438034,-1.3494141101837158
6.400001049041748,0.86128169298172,-0.05548962950706482,-0.2917546331882477,-0.39063600785042113,-1.3412139309938262,-1.892866983345249,-0.9004054069519043,0.380776584148407,-0.21042737364768982,0.851685106754303,-0.41973963379859924,-1.3679711818695068
6.419987916946411,0.7606803774833679,-0.016308724880218506,-0.2935881018638611,-0.3592691216449453,-1.3464244805229613,-1.8801570860361023,-0.9126885533332825,0.3515901267528534,-0.20828866958618164,1.131576418876648,-0.5374090671539307,-1.3760433197021484
6.439986944198608,0.7334497570991516,0.06923973560333252,-0.3065100908279419,-0.3276432237804023,-1.350590459870825,-1.858379296731335,-0.9239405989646912,0.3218125104904175,-0.20681078732013702,1.5246824026107788,-0.5910553932189941,-1.288103461265564
6.460047960281372,0.6731981635093689,0.05765485763549805,-0.18952956795692444,-0.29633357456179094,-1.3529953156474177,-1.8330420186753758,-0.9338182806968689,0.29201555252075195,-0.2066648155450821,1.439792275428772,-0.39203307032585144,-1.2396461963653564
6.479988098144531,0.5793845057487488,-0.02018958330154419,-0.12052243947982788,-0.26877531102819335,-1.3529362307938346,-1.8124445685779007,-0.9413078427314758,0.2655509114265442,-0.20838068425655365,1.024714469909668,-0.2181423157453537,-1.0047986507415771
6.499989032745361,0.5499687194824219,0.03733372688293457,-0.16621701419353485,-0.24736194795236846,-1.3544358289062248,-1.8005028471142854,-0.9469566941261292,0.24484705924987793,-0.20814204216003418,0.6424949169158936,-0.24335810542106628,-0.8544602990150452
6.519968032836914,0.5219640135765076,0.17640066146850586,-0.1887659877538681,-0.2299321734925994,-1.3559716728824505,-1.7914133819928093,-0.9513006210327148,0.22791148722171783,-0.20756572484970093,0.6198788285255432,-0.07329022884368896,-0.6824535727500916
6.539987087249756,0.49387139081954956,0.18554376065731049,-0.07409016788005829,-0.2153477522932143,-1.352318696337847,-1.78095506758297,-0.9536798000335693,0.21368716657161713,-0.21173737943172455,0.7078887224197388,0.21272705495357513,-0.48812317848205566
6.559985876083374,0.4755828380584717,0.11724136769771576,-0.021452471613883972,-0.20435314612577213,-1.3430167210813577,-1.7656869183343022,-0.953900158405304,0.20293380320072174,-0.22111639380455017,0.9871270060539246,0.34632033109664917,-0.28488579392433167
6.579886198043823,0.3645281195640564,0.20561791956424713,-0.11662501096725464,-0.19353724045274795,-1.3341946920309404,-1.7459363110537462,-0.9539905190467834,0.19233128428459167,-0.23002409934997559,1.0971097946166992,0.13622614741325378,-0.3467273414134979
6.599682092666626,0.25503331422805786,0.25884366035461426,-0.10585032403469086,-0.1825369387505429,-1.3288355102253937,-1.7277057855453244,-0.9547403454780579,0.18152494728565216,-0.23562605679035187,0.894591212272644,0.08628300577402115,-0.2887074649333954
6.6199939250946045,0.21073263883590698,0.22146667540073395,-0.02682366967201233,-0.1739248492321423,-1.3233086347596166,-1.7126695888743455,-0.9549039602279663,0.17304930090904236,-0.24127322435379028,0.8123783469200134,0.19876649975776672,-0.17145468294620514
6.639937162399292,0.14140725135803223,0.28523409366607666,0.019791096448898315,-0.1668171844999903,-1.3152949818637596,-1.6948808913245448,-0.9541056156158447,0.16604456305503845,-0.24922217428684235,1.0952333211898804,0.2691481411457062,-0.11210430413484573
6.65998911857605,0.03522789478302002,0.31686174869537354,-0.026554256677627563,-0.15706508440503544,-1.3072122018617942,-1.6721865986743378,-0.9535781741142273,0.15642009675502777,-0.25733545422554016,1.3151518106460571,0.14263859391212463,-0.29941561818122864
6.679991960525513,-0.043985188007354736,0.30119913816452026,-0.07000601291656494,-0.14211936521401364,-1.302622212605733,-1.6478390431959178,-0.9545348286628723,0.14164142310619354,-0.26229986548423767,1.3656260967254639,-0.0062256259843707085,-0.49835532903671265
6.70002007484436,-0.08933335542678833,0.2539450526237488,-0.013961642980575562,-0.12544248204756342,-1.3005115193662258,-1.624952395881764,-0.956122636795044,0.12511375546455383,-0.2649078965187073,1.2804391384124756,-0.11119278520345688,-0.5335173010826111
6.720039129257202,-0.33699899911880493,0.26527103781700134,-0.06137782335281372,-0.10706470464666878,-1.3026092999512104,-1.6040360656025925,-0.9587317109107971,0.10686028003692627,-0.2634664475917816,1.1715619564056396,-0.37774723768234253,-0.6883344054222107
6.739987134933472,-0.6117048859596252,0.2628929913043976,-0.15826407074928284,-0.08875546091987276,-1.3130262923384803,-1.5903467525980255,-0.9631547927856445,0.08863897621631622,-0.2539214789867401,0.5652617812156677,-0.7421060800552368,-0.7200467586517334
6.75999903678894,-0.7562922239303589,0.23162776231765747,-0.029813379049301147,-0.07148788821772899,-1.3256768726857238,-1.5945496550777105,-0.9676305055618286,0.07142701745033264,-0.2420523762702942,-0.4722599983215332,-0.31984880566596985,-1.0290920734405518
6.7800071239471436,-0.8847084045410156,0.32321426272392273,0.19733178615570068,-0.055659655371397616,-1.3251224283496414,-1.6086529137733339,-0.9684716463088989,0.05563092231750488,-0.2428334355354309,-0.36107128858566284,0.4122113883495331,-0.9437122344970703
6.7999889850616455,-0.840939998626709,0.3671165108680725,0.26439759135246277,-0.03770807551675297,-1.3137735709128444,-1.6114273398164456,-0.966463565826416,0.0376991406083107,-0.2540215253829956,0.6301334500312805,0.714906632900238,-0.7549918293952942
6.819988012313843,-0.8103718757629395,0.28282874822616577,0.254451721906662,-0.020929448371253843,-1.2979279703186901,-1.5947929920707438,-0.9627909660339355,0.020927920937538147,-0.2694357633590698,1.2523458003997803,0.7069277167320251,-0.42235276103019714
6.8400208950042725,-0.8558351397514343,0.048649054020643234,0.27065110206604004,-0.010951951615042586,-1.2838151920857206,-1.5740546635082402,-0.9590452909469604,0.010951732285320759,-0.28304117918014526,0.8428158164024353,0.7175285220146179,0.040450502187013626
6.859983205795288,-0.8972364664077759,-0.16314812004566193,0.4159928858280182,-0.013734449145423338,-1.2681577184400519,-1.5622384914576428,-0.9544634222984314,0.013734017498791218,-0.298011839389801,0.2929461598396301,0.8004565238952637,0.5834589600563049
6.879984140396118,-0.9029972553253174,-0.25791987776756287,0.4068758189678192,-0.0273934953183402,-1.2531543467019206,-1.5508296906918277,-0.9496181011199951,0.027390070259571075,-0.31221020221710205,0.4679119288921356,0.6488931775093079,1.0843842029571533
6.899986982345581,-0.9253936409950256,-0.25284457206726074,0.31932345032691956,-0.04786096504450182,-1.243378630087748,-1.5329551002003834,-0.9457916617393494,0.04784269630908966,-0.3212307095527649,0.552659273147583,0.3577446937561035,1.3834065198898315
6.920076131820679,-0.9308218359947205,-0.35261157155036926,0.4789504110813141,-0.07466577060810328,-1.231689321151343,-1.5117648264084251,-0.9404247403144836,0.07459641247987747,-0.3317183256149292,0.588665246963501,0.6986290216445923,1.8566558361053467
6.939983129501343,-0.9419012665748596,-0.5063400268554688,0.4719011187553406,-0.10949441050597991,-1.215088322514708,-1.48824994745339,-0.9317865967750549,0.10927575081586838,-0.3461686372756958,0.3969219923019409,0.5979212522506714,2.1849136352539062
6.9600419998168945,-0.7969101667404175,-0.3745883107185364,0.14770138263702393,-0.1484174726535647,-1.2069208959465345,-1.465565334378299,-0.9242507815361023,0.147873193025589,-0.35198599100112915,0.32725682854652405,-0.01612912304699421,2.249717950820923
6.979988098144531,-0.7157688736915588,-0.19772440195083618,0.022935032844543457,-0.1871107957797337,-1.2058904173119762,-1.444765314694732,-0.9178524613380432,0.1860208958387375,-0.3506326973438263,0.2166678011417389,-0.09226827323436737,2.086078643798828
6.999984979629517,-0.820514440536499,-0.23524437844753265,0.09891235828399658,-0.22420921502637864,-1.1999793812839532,-1.4287648897953389,-0.9087032079696655,0.22233544290065765,-0.3533068001270294,-0.048653047531843185,0.37856119871139526,2.0098485946655273
7.020018100738525,-0.8101510405540466,-0.29523295164108276,0.09556862711906433,-0.262769783061857,-1.1850054192880473,-1.414657481286941,-0.8946982622146606,0.25975626707077026,-0.3633755147457123,-0.11084172129631042,0.6572533249855042,2.0795087814331055
7.039987087249756,-0.6583383083343506,-0.147971510887146,-0.03427049517631531,-0.2971621647971735,-1.172031875923665,-1.4018905789995406,-0.8811514973640442,0.292807936668396,-0.37126222252845764,-0.027629027143120766,0.26812630891799927,1.6114827394485474
7.059985876083374,-0.5215142369270325,-0.11233443021774292,-0.08161100745201111,-0.3261229844192895,-1.1681579185835718,-1.3942392647456685,-0.8715370893478394,0.3203727900981903,-0.371193528175354,-0.5676770806312561,-0.09161855280399323,1.3103138208389282
7.079986095428467,-0.481203556060791,-0.2066633403301239,-0.014503836631774902,-0.35456398432961334,-1.1750322053655577,-1.4040425444864384,-0.8653083443641663,0.347181499004364,-0.36153367161750793,-1.3604463338851929,-0.20386165380477905,0.9712634682655334
7.100022077560425,-0.4526241421699524,-0.11049988865852356,0.014569014310836792,-0.3802312512842389,-1.186505258706379,-1.4237553595423467,-0.8608524203300476,0.3711352050304413,-0.348126083612442,-1.0580273866653442,-0.2346506416797638,0.7643529772758484
7.119994878768921,-0.3508428931236267,0.1365894079208374,-0.09849876165390015,-0.3993963350589912,-1.1954766451958427,-1.4293416594686588,-0.8571650385856628,0.3888622522354126,-0.3377194404602051,-0.23651541769504547,-0.4728972911834717,0.8298925161361694
7.139985084533691,-0.2898746132850647,0.20489194989204407,-0.08176314830780029,-0.4166137429201174,-1.204322791546268,-1.4264854113774308,-0.8537411689758301,0.40466615557670593,-0.32767587900161743,-0.259511262178421,-0.43413081765174866,0.8674321174621582
7.159993886947632,-0.36436450481414795,0.03333306312561035,0.0350460410118103,-0.43600864524189076,-1.2117672946660174,-1.429383016831443,-0.8486482501029968,0.42232489585876465,-0.31849321722984314,-0.6862973570823669,-0.23599544167518616,0.8411467671394348
7.180155038833618,-0.2718679904937744,0.029492586851119995,-0.010724425315856934,-0.45711721486821055,-1.222330003732733,-1.4408286627088571,-0.8433970212936401,0.441363126039505,-0.3063988983631134,-0.9715179204940796,-0.35878846049308777,0.7494345307350159
7.200002908706665,-0.1825198531150818,0.05393493175506592,-0.02877587080001831,-0.4760845609213009,-1.2378508185706896,-1.4566953209457199,-0.8399869799613953,0.45830267667770386,-0.2904837131500244,-0.945719838142395,-0.46209755539894104,0.6186724901199341
7.2199928760528564,-0.14113980531692505,0.03639531135559082,-0.017785996198654175,-0.49274924718856833,-1.2541072205126227,-1.4718080949704118,-0.8372232913970947,0.4730498492717743,-0.2743739187717438,-0.8792331218719482,-0.4462259113788605,0.5365210175514221
7.239988088607788,-0.08190196752548218,0.041549891233444214,0.004852265119552612,-0.5077252009508179,-1.2707067717701712,-1.4874976223225704,-0.8348005414009094,0.48619067668914795,-0.2583159804344177,-0.9017112255096436,-0.5061339735984802,0.45924583077430725
7.260026216506958,-0.009446501731872559,0.034045010805130005,-0.02583944797515869,-0.5213947326338055,-1.2894070378661924,-1.5043293762909773,-0.8330218195915222,0.4980900287628174,-0.24079254269599915,-0.8486011624336243,-0.5201002359390259,0.44290757179260254
7.279999017715454,-0.005186915397644043,0.0371052622795105,-0.04705542325973511,-0.5321171064458287,-1.3069348837227064,-1.5160971091983249,-0.8319103717803955,0.5073588490486145,-0.2247493416070938,-0.42272305488586426,-0.6339285969734192,0.3296433985233307
7.2999889850616455,0.02650660276412964,0.0905461311340332,-0.07947224378585815,-0.5385516983012557,-1.3232195823234407,-1.5203145829154032,-0.8322775959968567,0.5128932595252991,-0.21036836504936218,-0.11550132930278778,-0.7558838129043579,0.21544891595840454
7.31998610496521,0.08211594820022583,0.06110948324203491,-0.07516813278198242,-0.5428615997144547,-1.3401005837604891,-1.5233752808398051,-0.8335503935813904,0.5165883302688599,-0.1957821249961853,-0.3064344525337219,-0.8063410520553589,0.08489706367254257
7.340029001235962,0.1742611527442932,-0.002444624900817871,-0.12405632436275482,-0.5450742766440869,-1.3632418162005924,-1.5341432274989328,-0.836736798286438,0.5184816122055054,-0.1762060523033142,-0.6303743720054626,-0.9285492300987244,-0.06009626388549805
7.359987020492554,0.23932617902755737,0.029787421226501465,-0.18239448964595795,-0.5460852594576947,-1.389959838518922,-1.5508713229364262,-0.8406292796134949,0.5193458199501038,-0.1536954939365387,-0.775007426738739,-0.8525199294090271,-0.11554096639156342
7.379987001419067,0.2447493076324463,0.10607433319091797,-0.21486389636993408,-0.5452724331637453,-1.4166382265771538,-1.5726005036828212,-0.8448470234870911,0.518651008605957,-0.13128162920475006,-1.0343046188354492,-0.6725974082946777,-0.24458347260951996
7.399983167648315,0.2940998077392578,0.11260813474655151,-0.199151873588562,-0.5424515522035248,-1.4411688267848939,-1.599938588431437,-0.8492603898048401,0.5162371397018433,-0.11070828884840012,-1.2924017906188965,-0.38012605905532837,-0.43133583664894104
7.420022010803223,0.3232201933860779,0.18372833728790283,-0.1721835732460022,-0.5365304110153856,-1.4636849807778956,-1.6308683856035362,-0.8545619249343872,0.5111570358276367,-0.09188494086265564,-1.2662756443023682,-0.2995792031288147,-0.43192270398139954
7.439984083175659,0.39434975385665894,0.15043044090270996,-0.20836472511291504,-0.531269496021508,-1.4833867124508064,-1.661358747475416,-0.8588731288909912,0.5066282749176025,-0.0752655565738678,-1.3356438875198364,-0.11643388867378235,-0.32418128848075867
7.459985017776489,0.44528108835220337,0.16891294717788696,-0.19984829425811768,-0.5279936564191688,-1.5003680808872413,-1.693452062198895,-0.8616782426834106,0.5038012266159058,-0.06078702583909035,-1.4209959506988525,0.04153009131550789,-0.2573738396167755
7.480024099349976,0.47738713026046753,0.11458951234817505,-0.1669749617576599,-0.5249605696669692,-1.5147264618270762,-1.7280238277174407,-0.8639838099479675,0.5011788606643677,-0.048494286835193634,-1.4605646133422852,0.2443910539150238,-0.19461208581924438
7.500033140182495,0.6024239659309387,0.06679868698120117,-0.17347955703735352,-0.5242028188721951,-1.5216219063138587,-1.7558273457018236,-0.864676833152771,0.500523030757904,-0.04255428537726402,-0.8864687085151672,0.4536607265472412,-0.004035622347146273
7.519987106323242,0.7168470621109009,0.060839176177978516,-0.20157086849212646,-0.5259586076213849,-1.5183034374808448,-1.7679015301582832,-0.8636519312858582,0.502042293548584,-0.04537727311253548,-0.1998623162508011,0.4537889361381531,0.14682361483573914
7.540014028549194,0.7953646779060364,-0.009494364261627197,-0.2046542763710022,-0.530293416252569,-1.508923302733924,-1.767015566286136,-0.8610081076622009,0.5057864785194397,-0.05334126204252243,0.24518558382987976,0.40538614988327026,0.32793018221855164
7.5600221157073975,0.8199843168258667,-0.0770113468170166,-0.21092355251312256,-0.5373086841108708,-1.4966286103381135,-1.7576547618478358,-0.8567275404930115,0.5118257403373718,-0.06365829706192017,0.4895257353782654,0.37611234188079834,0.43382540345191956
7.579613924026489,0.8205804824829102,-0.09638762474060059,-0.14763659238815308,-0.5475324971407012,-1.480127127460387,-1.7432720125153978,-0.8503047227859497,0.5205820202827454,-0.07730841636657715,0.6233749389648438,0.5646814107894897,0.7079939246177673
7.599992036819458,0.8384459018707275,-0.12235105037689209,-0.0763338953256607,-0.5623535914835363,-1.4576951877829267,-1.7263740516480224,-0.8405975699424744,0.5331788063049316,-0.09548001736402512,0.674928605556488,0.7574723958969116,0.8649634718894958
7.619983911514282,0.8599492311477661,-0.12909960746765137,-0.026125386357307434,-0.5784206991653686,-1.4312489631420333,-1.7050732531786432,-0.8291877508163452,0.5467022061347961,-0.11646795272827148,0.9105277061462402,0.7088291645050049,0.9886927604675293
7.639981985092163,0.8884598612785339,-0.09452706575393677,0.009571865200996399,-0.5967591672892347,-1.4038441675438225,-1.6773654828719966,-0.8156601786613464,0.561964750289917,-0.13745571672916412,1.1032787561416626,0.47630080580711365,1.1672065258026123
7.659982919692993,0.8326205611228943,-0.028956592082977295,-0.01841425895690918,-0.6159184303102181,-1.3789207415878721,-1.6428226974674225,-0.8012638688087463,0.5777084231376648,-0.15565791726112366,1.3345918655395508,0.049643054604530334,1.1976772546768188
7.68001389503479,0.726516604423523,0.07328760623931885,0.04255057871341705,-0.6362617487152756,-1.3552215199556201,-1.6040199338444499,-0.7857055068016052,0.5941928625106812,-0.1720518320798874,1.2768961191177368,0.12634794414043427,1.474920630455017
7.699987173080444,0.6391286253929138,0.028610408306121826,0.10370977222919464,-0.6598988656515041,-1.3316076796467788,-1.5683766691412346,-0.7675618529319763,0.6130369305610657,-0.18717527389526367,0.9748204946517944,0.04089377075433731,1.4490455389022827
7.719986200332642,0.6285374164581299,0.0063710808753967285,0.12211813032627106,-0.6823548084538982,-1.3133682824161033,-1.5372991707511834,-0.7505162358283997,0.6306223273277283,-0.1975879967212677,0.9476723670959473,-0.20281094312667847,1.320299506187439
7.739983081817627,0.6228196024894714,-0.010870099067687988,0.10968674719333649,-0.699380318387799,-1.2972439018366861,-1.4979102927447936,-0.7367874979972839,0.643743634223938,-0.2067325860261917,1.587723970413208,-0.7369884848594666,1.171617031097412
7.759991884231567,0.622800350189209,0.10492336750030518,0.03981500864028931,-0.7115738449514816,-1.278172832771428,-1.4370865239434083,-0.7251411080360413,0.6530265212059021,-0.21846482157707214,2.575287342071533,-1.1999859809875488,1.3878207206726074
7.780055999755859,0.2608030438423157,0.398459255695343,0.012394443154335022,-0.7238657430813229,-1.2411447000681932,-1.3530955407217249,-0.708907961845398,0.6622860431671143,-0.24254269897937775,2.748530864715576,-0.5937626361846924,1.537701964378357
7.79998517036438,-0.06199681758880615,0.29609906673431396,0.11445379257202148,-0.7320677171823047,-1.207920346866542,-1.2841225132335128,-0.6953580379486084,0.668408989906311,-0.2640203833580017,1.924619436264038,-0.7528011202812195,1.132735013961792
7.819984197616577,0.22362005710601807,0.09024173021316528,0.031027913093566895,-0.7415671173690489,-1.1874969966636308,-1.2272364859817857,-0.6839014887809753,0.6754443645477295,-0.27577880024909973,1.8392115831375122,-1.052880048751831,1.1886327266693115
7.84001898765564,0.16681909561157227,0.09673601388931274,-0.01362311840057373,-0.7388058888889543,-1.1609547204143034,-1.1515502253717367,-0.678049623966217,0.673405647277832,-0.2945738732814789,3.750060558319092,-1.3987464904785156,0.7129510641098022
7.859983205795288,-0.10425972938537598,0.36968445777893066,-0.06081804633140564,-0.7057579637588829,-1.1146243169660794,-1.0330178032458148,-0.6832923293113708,0.6486108899116516,-0.3352847993373871,5.5274248123168945,-1.7457574605941772,0.05356905981898308
7.879986047744751,-0.34369760751724243,0.2678450345993042,0.09181979298591614,-0.6548585799464499,-1.0667468445632053,-0.9063363945617261,-0.6944951415061951,0.6090470552444458,-0.38306424021720886,5.24717378616333,-1.3968276977539062,-0.024046640843153
7.899986982345581,-0.38779133558273315,0.031032085418701172,0.1838725507259369,-0.6079692122931144,-1.0377919178136585,-0.8138311839450134,-0.7069505453109741,0.571201741695404,-0.41707250475883484,3.6069447994232178,-1.1950777769088745,-0.3505896031856537
7.919977903366089,-0.25711071491241455,-0.1544317603111267,0.16293641924858093,-0.5685056668504531,-1.0279081329290432,-0.7535330031556567,-0.721542239189148,0.5383733510971069,-0.43535149097442627,2.8836395740509033,-1.2479993104934692,-0.4828360378742218
7.940011024475098,-0.2030026912689209,-0.07078021764755249,0.23637694120407104,-0.5289926252625244,-1.032150313582483,-0.7054897221968355,-0.7410739660263062,0.5046639442443848,-0.44285884499549866,2.6801764965057373,-1.7314610481262207,-0.769849956035614
7.9599549770355225,-0.39690566062927246,-0.06773349642753601,0.22624999284744263,-0.48649345768412605,-1.0570691748864847,-0.6610829239194544,-0.7698730230331421,0.4675290584564209,-0.43441030383110046,2.9064531326293945,-2.9830687046051025,-1.0154852867126465
7.979940176010132,-0.8360857367515564,0.07371348142623901,0.15053975582122803,-0.4375179556762372,-1.1056250730469819,-0.6131499806131482,-0.8095594644546509,0.423692524433136,-0.40632277727127075,3.215484857559204,-3.9016032218933105,-1.2408654689788818
8.00002121925354,-0.9401129484176636,0.119479238986969,0.21700549125671387,-0.3892540810811887,-1.1608211700602655,-0.557929538527355,-0.8485224843025208,0.3794983923435211,-0.3687692880630493,3.363431453704834,-3.694979190826416,-0.8844988942146301
8.019999027252197,-0.9719501733779907,0.03363749384880066,0.15132853388786316,-0.3515822521590059,-1.2080502351184343,-0.49490513981211515,-0.8777356147766113,0.34438371658325195,-0.3331368565559387,3.4700891971588135,-3.219723701477051,-0.4541013240814209
8.039984941482544,-0.9733003973960876,0.08602255582809448,0.08947211503982544,-0.32247642798851084,-1.2441305919143202,-0.43953368095475526,-0.8982970118522644,0.3169163167476654,-0.3043462932109833,2.2366654872894287,-2.2372543811798096,-0.7544341683387756
8.059985876083374,-0.8860673904418945,0.047877103090286255,0.23596447706222534,-0.29288603316665834,-1.2684313891730232,-0.4208594093407199,-0.913981556892395,0.28871655464172363,-0.2850976884365082,0.32411080598831177,-0.6558710932731628,-1.3074160814285278
8.079523086547852,-0.6080560088157654,-0.08037027716636658,0.45920050144195557,-0.27379599744957295,-1.2702929045749478,-0.4388813515229671,-0.9196082353591919,0.2703879773616791,-0.28497549891471863,-1.1985652446746826,0.878208577632904,-0.8241269588470459
8.099987030029297,-0.3109000325202942,-0.28276804089546204,0.49296510219573975,-0.2806389788685103,-1.2552928536076606,-0.4693298670888628,-0.9134500622749329,0.27696970105171204,-0.2981560230255127,-1.8294181823730469,1.2283912897109985,0.46721595525741577
8.119986057281494,-0.14412397146224976,-0.2701001465320587,0.37086591124534607,-0.3042685431934292,-1.2440564965308785,-0.5019656329104919,-0.9035902619361877,0.2995953857898712,-0.3062143325805664,-1.6056767702102661,0.8375077843666077,0.6911991238594055
8.139983892440796,-0.17864906787872314,-0.041655272245407104,0.26808983087539673,-0.32330493999780896,-1.2327171579660217,-0.5169668274034649,-0.8945170044898987,0.3177019953727722,-0.31449174880981445,-0.3818607032299042,0.799390971660614,0.5979802012443542
8.159982919692993,-0.1864050030708313,-0.005622148513793945,0.24866139888763428,-0.33209701619131216,-1.216480582865229,-0.5135105098659121,-0.8866389393806458,0.32602617144584656,-0.3279917240142822,0.26822197437286377,0.7418435215950012,0.38969650864601135
8.179984092712402,-0.14738130569458008,-0.18296149373054504,0.2412613332271576,-0.33877266889933033,-1.1978545863319803,-0.5040942699026567,-0.8783298134803772,0.33232977986335754,-0.34364768862724304,0.22756427526474,0.8344727754592896,0.5810654163360596
8.200063943862915,-0.14761972427368164,-0.29965120553970337,0.2834372818470001,-0.3467011011825377,-1.1757242927936165,-0.49968763822704404,-0.8680511116981506,0.3397970497608185,-0.36197417974472046,-0.13671687245368958,1.2145127058029175,0.0798674151301384
8.219985008239746,-0.1925802230834961,-0.3620605766773224,0.24993938207626343,-0.34616680710651704,-1.150898781475632,-0.5003599908087568,-0.8589640259742737,0.3392944931983948,-0.38348421454429626,0.03174155578017235,1.2543593645095825,0.09029393643140793
8.239983081817627,0.002879321575164795,-0.4371253252029419,0.23709186911582947,-0.3525074328090447,-1.1305243963119662,-0.5022430785289934,-0.8490097522735596,0.345252126455307,-0.3999793529510498,-0.5326071977615356,0.7932579517364502,0.31461045145988464
8.260020971298218,0.05253857374191284,-0.3702433407306671,0.2526993751525879,-0.3659514876756059,-1.122527742065526,-0.5146454071301887,-0.8415248990058899,0.3578379452228546,-0.4047073423862457,-1.036525845527649,0.5315302610397339,0.438912957906723
8.279988050460815,0.019648849964141846,-0.1802692413330078,0.24783354997634888,-0.385254931618202,-1.115990307004154,-0.5320475822184231,-0.8324999213218689,0.3757953941822052,-0.4070894420146942,-1.2463332414627075,0.751017153263092,0.5301586389541626
8.300015211105347,-0.019861936569213867,-0.044956982135772705,0.13666000962257385,-0.4045166917046352,-1.1061840875184794,-0.549454137428661,-0.8218435049057007,0.3935745060443878,-0.4119131863117218,-0.9921563267707825,0.870793879032135,0.4844711422920227
8.319993019104004,0.01301431655883789,0.03669649362564087,-0.016806364059448242,-0.4205360179902748,-1.0935790103259624,-0.5576226836603406,-0.8108812570571899,0.4082498252391815,-0.4192897379398346,-0.4345567226409912,0.6672465205192566,0.6300362944602966
8.339997053146362,0.09271973371505737,0.0481753945350647,-0.031029939651489258,-0.4358116954109888,-1.083914002572924,-0.5593109775164059,-0.8011855483055115,0.42214635014533997,-0.42413970828056335,-0.5186405181884766,0.38235923647880554,0.6126819849014282
8.360061883926392,0.17428159713745117,0.052328258752822876,0.07357504963874817,-0.4527930762726832,-1.081489508031923,-0.5651870142585022,-0.7937121987342834,0.43747884035110474,-0.42265021800994873,-0.7102608680725098,0.11789747327566147,0.684048056602478
