timestamp,acceleration_x,acceleration_y,acceleration_z,attitude_pitch,attitude_roll,attitude_yaw,gravity_x,gravity_y,gravity_z,rotation_x,rotation_y,rotation_z
0.0,-0.027963772416114807,-0.12571930885314941,0.048800110816955566,-0.6728882901715527,-0.2994432012455626,-0.09148108118616408,-0.23068812489509583,0.6232473254203796,-0.7472254633903503,-0.44564560055732727,0.19365733861923218,0.4023626744747162
0.01742386817932129,-0.06809267401695251,-0.02778458595275879,-0.029777050018310547,-0.6910843865010557,-0.28106694332039783,-0.07240595877991055,-0.21373730897903442,0.637373149394989,-0.740318775177002,-0.30079641938209534,0.295335590839386,0.71117103099823
0.03490877151489258,-0.06365658342838287,-0.019809842109680176,-0.07168924808502197,-0.7091285991149061,-0.2550878533735767,-0.0459670773531025,-0.19150103628635406,0.6511726975440979,-0.734371542930603,-0.24818505346775055,0.18819093704223633,0.656333863735199
0.050256967544555664,-0.035848215222358704,-0.043453872203826904,0.007683992385864258,-0.7318612656869362,-0.22239715493276538,-0.012233376807562948,-0.16408784687519073,0.6682554483413696,-0.7256100177764893,-0.543991208076477,0.23438523709774017,0.7549253702163696
0.07266592979431152,-0.02980683743953705,0.010967254638671875,0.0003279447555541992,-0.7425054700614596,-0.1661464245334487,0.049028980234469735,-0.12185043096542358,0.6761360168457031,-0.7266310453414917,0.42322197556495667,0.2900565564632416,0.806271493434906
0.09030675888061523,-0.05329878628253937,-0.0025030970573425293,0.001963376998901367,-0.7207026134174698,-0.12981238948661997,0.09084276479067632,-0.09725984185934067,0.6599127650260925,-0.7450206279754639,0.99173504114151,0.14579766988754272,0.6851197481155396
0.11793184280395508,0.02663707733154297,-0.10500413179397583,-0.0724642276763916,-0.6768635788158938,-0.0853623568371091,0.1425948649577979,-0.0664626806974411,0.6263511180877686,-0.7767026424407959,1.2634265422821045,0.18230748176574707,0.7789874076843262
0.13521385192871094,-0.01617351919412613,0.11186951398849487,0.07038521766662598,-0.5999280222330948,-0.054083713141256276,0.17705775631118398,-0.044617652893066406,0.5645830631256104,-0.8241694569587708,2.364032030105591,0.3401467204093933,0.7063902616500854
0.15150094032287598,0.09325243532657623,0.04053276777267456,0.06090807914733887,-0.4956238067777943,-0.02465812695589406,0.22260552189296406,-0.02168887108564377,0.47558048367500305,-0.8794047832489014,2.8859517574310303,-0.04184670373797417,0.8037179112434387
0.17179203033447266,-0.02967902086675167,0.1580316424369812,-0.08707571029663086,-0.3335788492504167,-0.0009038000389903382,0.2692123958819455,-0.0008539793780073524,0.3274267017841339,-0.9448761940002441,2.8934452533721924,0.4334457814693451,0.6021119952201843
0.20070505142211914,-0.007885223254561424,-0.026753634214401245,0.11773508787155151,-0.18065828336022197,0.024630519051729634,0.3198071296263084,0.024227222427725792,0.17967718839645386,-0.9834272265434265,1.6846696138381958,-0.02753887139260769,0.4760647714138031
0.21767187118530273,-0.035319071263074875,-0.03734411299228668,0.023172855377197266,-0.11084362599080474,0.02227383570677451,0.3399574413815256,0.022135313600301743,0.1106167882680893,-0.9936165809631348,1.6873371601104736,-0.22101929783821106,0.5070472359657288
0.23508501052856445,-0.07143602520227432,-0.011336248368024826,0.07498598098754883,-0.05968096759097797,0.009639819559588893,0.3517422560567794,0.009622507728636265,0.05964554473757744,-0.9981732368469238,0.8650696277618408,-0.3568557798862457,0.21697355806827545
0.25194287300109863,-0.04488470032811165,-0.1518467366695404,0.20531922578811646,-0.04211795689734306,-0.0015646075677205064,0.36987704920076203,-0.001563219353556633,0.04210550710558891,-0.9991119503974915,0.032399024814367294,-0.18243710696697235,0.7545056939125061
0.2755889892578125,-0.08774466067552567,0.162711039185524,0.08234888315200806,-0.03445456689513315,-0.002970772809723749,0.4098874070726432,-0.0029690053779631853,0.03444775193929672,-0.9994021058082581,0.47010138630867004,0.01325489766895771,0.5789960622787476
0.28972387313842773,-0.0038878023624420166,0.016087772324681282,0.07003206014633179,-0.025647812069759086,-0.007467429696321474,0.4345288563034731,-0.007464904338121414,0.025645000860095024,-0.9996432662010193,0.1266700029373169,-0.17305363714694977,0.584423840045929
0.3098759651184082,-0.0905982106924057,0.1595802903175354,-0.02804434299468994,-0.01443143081264692,-0.00971439740030625,0.4607655603993521,-0.009713233448565006,0.014430929906666279,-0.9998486638069153,0.4087294340133667,0.06369845569133759,0.7168861627578735
0.3349118232727051,-0.087903693318367,0.056854259222745895,-0.00707012414932251,0.0065003062462804136,-0.005419368811087335,0.5002762710397293,-0.005419227760285139,-0.006500260438770056,-0.99996417760849,0.44207513332366943,0.08059123903512955,0.5433958172798157
0.4433469772338867,-0.08293432742357254,0.00039091333746910095,-0.011213302612304688,0.024899104259056275,-0.004133785689234563,0.5185111551982482,-0.00413249246776104,-0.0248965322971344,-0.9996814727783203,0.4590657949447632,-0.007901164703071117,0.3358854353427887
0.5239200592041016,-0.06465809047222137,-0.030390966683626175,0.02356809377670288,0.0436127286933022,-0.005858548607333773,0.5270235995347798,-0.00585294421762228,-0.043598905205726624,-0.9990319609642029,0.5026367902755737,-0.08090604096651077,0.13051089644432068
0.5348219871520996,-0.02118794247508049,-0.26126861572265625,0.000460207462310791,0.05114688430950644,-0.013696899436087298,0.5539374950776877,-0.01367856003344059,-0.051124587655067444,-0.998598575592041,-0.3831862807273865,-0.24328012764453888,0.6382984519004822
0.5538010597229004,-0.08559172600507736,0.15286576747894287,-0.027716219425201416,0.07868238693885272,-0.02324709789704775,0.5675142603710409,-0.02317308634519577,-0.07860122621059418,-0.9966367483139038,1.0934187173843384,0.17348851263523102,-0.24674180150032043
0.570504903793335,0.039596349000930786,0.0471215695142746,0.007288753986358643,0.13981604645839474,-0.02206766389980378,0.5386014341318073,-0.021850546821951866,-0.1393609642982483,-0.9900005459785461,0.7695587873458862,-0.13314412534236908,-0.6524822115898132
0.592155933380127,0.05728678032755852,0.005213484168052673,0.005029559135437012,0.1491835960689274,-0.027474685268074357,0.5190068812040339,-0.027166098356246948,-0.14863084256649017,-0.988519549369812,-0.21497058868408203,-0.06172693148255348,0.2019536942243576
0.6099357604980469,0.07062206417322159,-0.0014859884977340698,0.007234036922454834,0.13523256950364343,-0.01186240238329777,0.5288821619350522,-0.011753822676837444,-0.13482075929641724,-0.9908002614974976,0.00010256422683596611,0.02272900380194187,-0.16845236718654633
0.6316800117492676,0.03462091088294983,0.026619575917720795,-0.005114316940307617,0.12132312590029237,-0.0036881151320837125,0.5013015756505228,-0.003660996910184622,-0.12102571129798889,-0.9926426410675049,0.08927371352910995,0.06356848776340485,0.08642578125
0.6508607864379883,0.020269621163606644,0.015149645507335663,0.020737826824188232,0.1181311205932767,0.011334101934833645,0.5002792105368642,0.011254869401454926,-0.11785656213760376,-0.9929668307304382,-0.04382519796490669,0.02367495931684971,0.22837141156196594
0.6696939468383789,-0.05923512578010559,0.016925275325775146,0.0032005906105041504,0.12070326649390561,0.017016444024335244,0.5447386149196836,0.01689182035624981,-0.12041039019823074,-0.9925804734230042,0.059459950774908066,0.11894333362579346,0.4685487449169159
0.6903009414672852,-0.01428990624845028,-0.024708785116672516,0.010747194290161133,0.09906461399078925,0.008502670531196983,0.5856686360366141,0.008460881188511848,-0.09890265762805939,-0.9950611591339111,-0.11086224764585495,0.02388765662908554,0.22965094447135925
0.710752010345459,0.018066639080643654,-0.016780167818069458,0.061303794384002686,0.07289923995857106,-0.008445784861027863,0.6119972449227349,-0.00842325296252966,-0.07283468544483185,-0.9973084330558777,-0.2642095983028412,-0.13991813361644745,0.17780433595180511
0.7306838035583496,0.052379075437784195,-0.08879341930150986,0.34236598014831543,-0.09428891684148735,-0.03395134006007781,0.6085534616788371,-0.033794037997722626,0.09414926916360855,-0.9949843883514404,-2.653585195541382,-0.1290774792432785,-0.7190260887145996
0.7493820190429688,-0.12020902335643768,-0.10540077090263367,0.15615713596343994,-0.4340746629117234,-0.23950881034741037,0.4247602513459999,-0.21522510051727295,0.42057105898857117,-0.8813615441322327,-3.662998914718628,-1.6054555177688599,-0.6983492374420166
0.7704119682312012,0.034387439489364624,-0.09322541952133179,-0.20414334535598755,-0.6439019722990762,-0.6323575666238722,0.12955598779867702,-0.4726962745189667,0.6003206372261047,-0.6451149582862854,-1.3230334520339966,-1.5294116735458374,-1.1462604999542236
0.7893328666687012,0.14164865016937256,-0.131811261177063,-0.14968210458755493,-0.5682439335269901,-1.060961124724462,-0.23405502406628467,-0.7356582880020142,0.5381527543067932,-0.4113377034664154,-1.1617804765701294,-1.8363072872161865,-2.7703914642333984
0.8113589286804199,-0.47089582681655884,0.5181050896644592,-0.07363671064376831,-0.12971917066292266,-1.3569668998899167,-0.6120564634023606,-0.9690151810646057,0.12935568392276764,-0.21042080223560333,-3.8374974727630615,1.2059805393218994,-1.634014368057251
0.8295938968658447,0.06286853551864624,0.03928688168525696,-0.04346358776092529,-0.29420840914638796,-1.2340882355597576,-0.7447138797578032,-0.903292179107666,0.2899823486804962,-0.31618601083755493,-0.2117394208908081,0.7754009962081909,1.7528579235076904
0.8496718406677246,0.0406607985496521,-0.3033221662044525,-0.0933237075805664,-0.47921491428221696,-1.122590339936635,-0.6407823837109862,-0.7997093796730042,0.46108266711235046,-0.3845357298851013,0.4182790219783783,0.10044616460800171,0.684240460395813
0.8707718849182129,0.4220479726791382,-0.113666832447052,-0.018121272325515747,-0.5459140368433322,-1.1379219537403185,-0.6627890215772924,-0.7758230566978455,0.5191994905471802,-0.35851138830184937,-1.0853592157363892,-0.443779319524765,-0.035858381539583206
0.8892779350280762,-0.12330126762390137,0.173078715801239,-0.06601950526237488,-0.5401545335298709,-1.289488849283843,-0.9204641271918903,-0.8239185810089111,0.5142685174942017,-0.23808813095092773,-1.60324227809906,0.5394695997238159,-0.6135165095329285
0.9106540679931641,-0.2209804654121399,-0.0677717924118042,-0.05742388963699341,-0.5157140733367631,-1.317399408770642,-1.066425264551662,-0.8421605229377747,0.49315616488456726,-0.2180888056755066,0.17490024864673615,0.38544419407844543,-0.30270397663116455
0.9316830635070801,0.050843656063079834,-0.22016796469688416,0.09165790677070618,-0.4869066234496996,-1.2714567541523127,-1.1208460212229585,-0.8444838523864746,0.4678942561149597,-0.26061850786209106,0.07864086329936981,0.46785295009613037,-0.3959141969680786
0.9492199420928955,0.25015848875045776,-0.2244425117969513,-0.13356035947799683,-0.4186479028515872,-1.2036286388263735,-1.1040754734147835,-0.8527434468269348,0.40652549266815186,-0.3279722332954407,1.058510422706604,0.5351550579071045,-1.1448982954025269
0.9691798686981201,0.23115050792694092,-0.13330501317977905,-0.13590332865715027,-0.3844669820545421,-1.190027605884074,-1.0892819596749894,-0.8606061339378357,0.3750650882720947,-0.34450435638427734,1.348985195159912,0.2750224173069,-1.523728609085083
0.9891788959503174,0.2587856650352478,-0.20727857947349548,0.00940367579460144,-0.34449967904125695,-1.1815813679822238,-1.0769904865126074,-0.8708462119102478,0.33772578835487366,-0.35716670751571655,1.2840828895568848,0.10353454947471619,-1.7216218709945679
1.009192943572998,0.28506213426589966,-0.3618113398551941,0.05166524648666382,-0.303363009368047,-1.1765635660311038,-1.0641703064506935,-0.8811315298080444,0.29873132705688477,-0.3665608763694763,1.4466378688812256,-0.03858335316181183,-1.6153852939605713
1.0291929244995117,0.24876272678375244,-0.24746233224868774,-0.05657005310058594,-0.26042083952175976,-1.1760842552810644,-1.0491272537160008,-0.8919817805290222,0.2574872374534607,-0.37157633900642395,1.519307017326355,-0.32074055075645447,-1.8580421209335327
1.0489139556884766,0.08639347553253174,-0.09098373353481293,-0.11170446872711182,-0.21276341348008498,-1.180051272501896,-1.0398962948558568,-0.9037763476371765,0.211161807179451,-0.37228909134864807,1.0097001791000366,-0.2905908226966858,-2.177689790725708
1.0687999725341797,0.08969056606292725,-0.14084957540035248,-0.04516461491584778,-0.16678327641107807,-1.1869151283854253,-1.0460104220685145,-0.9143518209457397,0.16601112484931946,-0.36932507157325745,0.26976874470710754,-0.3313727080821991,-2.23844313621521
1.0892109870910645,0.20457226037979126,-0.2305944561958313,-0.06548759341239929,-0.1253005928504695,-1.19689759669836,-1.057696766470188,-0.9236123561859131,0.12497297674417496,-0.3623841404914856,0.3424220085144043,-0.44947394728660583,-2.09993577003479
1.1092529296875,0.12859481573104858,-0.007425181567668915,-0.13276636600494385,-0.08185722302648363,-1.2060041263282348,-1.0622711786022625,-0.9310698509216309,0.08176583796739578,-0.35556063055992126,0.8416453003883362,-0.45167797803878784,-2.1538350582122803
1.1292858123779297,-0.029780328273773193,0.11164994537830353,-0.089028000831604,-0.034932930436135684,-1.2130483430041572,-1.0607255188709197,-0.9361163377761841,0.03492582589387894,-0.3499520719051361,0.7759721875190735,-0.1400129497051239,-2.149061918258667
1.1496539115905762,-0.015689969062805176,-0.05417013168334961,0.11585399508476257,0.005202003513505737,-1.2096992631048518,-1.06401122287433,-0.9354971051216125,-0.005201980005949736,-0.3532959818840027,0.28870436549186707,0.38403651118278503,-1.6472145318984985
1.1699190139770508,0.07865220308303833,-0.13134869933128357,0.0783659815788269,0.030903107610339733,-1.201544923616794,-1.0714186961316838,-0.9321525692939758,-0.030898189172148705,-0.3607451021671295,0.04305168241262436,0.40339088439941406,-1.0738680362701416
1.1935739517211914,0.13503003120422363,0.0025732852518558502,0.030622422695159912,0.049208913671362146,-1.194106463700215,-1.07736316347343,-0.9287617206573486,-0.04918905720114708,-0.3673991560935974,0.12747865915298462,0.25779107213020325,-0.9586884379386902
1.2124199867248535,0.1732931137084961,0.1073041558265686,0.05439490079879761,0.06965616449255496,-1.1903659576731185,-1.0746349499205479,-0.9262533187866211,-0.06959985196590424,-0.3704196810722351,0.8279822468757629,0.1320032924413681,-0.7829338908195496
1.231658935546875,0.2415771484375,0.09688949584960938,0.07148268818855286,0.09091130785882268,-1.1917625691080895,-1.0624689892855905,-0.9251861572265625,-0.09078612923622131,-0.3684949576854706,1.023305058479309,-0.15177763998508453,-0.7596092224121094
1.2515320777893066,0.15277987718582153,-0.04574678838253021,0.14277052879333496,0.1105913687913565,-1.1950997786745372,-1.0470145869738028,-0.9245694279670715,-0.11036607623100281,-0.3646790683269501,1.116744875907898,-0.02591247856616974,-0.44262582063674927
1.2715420722961426,-0.024480164051055908,-0.018182307481765747,0.12528055906295776,0.12398094246039515,-1.1944971392590273,-1.0279093371741514,-0.9228922724723816,-0.12366355955600739,-0.36466044187545776,1.1468900442123413,0.2797180116176605,-0.22727252542972565
1.2916569709777832,-0.027699291706085205,0.13368506729602814,0.13522669672966003,0.13627334586078346,-1.1939631555373702,-1.0085134864126428,-0.9212142825126648,-0.13585196435451508,-0.36456623673439026,1.067437767982483,-0.01166003942489624,-0.13521316647529602
1.3118999004364014,-0.041473388671875,0.13585610687732697,0.16671380400657654,0.14376677945710234,-1.198473268329199,-0.9887977632687383,-0.9218749403953552,-0.1432720422744751,-0.3600273132324219,1.040528655052185,-0.089944988489151,0.1644076257944107
1.3315019607543945,-0.2447209358215332,0.0890704095363617,0.21808481216430664,0.1451368541199275,-1.2014951951573287,-0.9681702202485448,-0.9227747917175293,-0.14462783932685852,-0.35716864466667175,0.9034448862075806,0.07729939371347427,0.3915594518184662
1.3514728546142578,-0.31688863039016724,0.10069568455219269,0.3240644037723541,0.14604476648744605,-1.2034857189598727,-0.9435839710874968,-0.9233609437942505,-0.14552615582942963,-0.35528379678726196,1.5277948379516602,0.05701746791601181,0.4665379822254181
1.3713529109954834,-0.27494877576828003,0.07111106812953949,0.30596837401390076,0.15098413399360341,-1.2086030605710123,-0.9042457516117755,-0.9244835376739502,-0.15041114389896393,-0.3502950668334961,2.2581679821014404,-0.014895512722432613,0.4056408703327179
1.391244888305664,-0.1932407021522522,0.040938764810562134,0.2814832031726837,0.16202348446318346,-1.221578908783788,-0.856231684593433,-0.927334189414978,-0.16131551563739777,-0.33768123388290405,2.508936882019043,-0.5249572992324829,0.2444501519203186
1.411482810974121,-0.2741161584854126,-0.09620502591133118,0.2627386748790741,0.1737569016665367,-1.2391398816869343,-0.8096321847931892,-0.9312671422958374,-0.17288389801979065,-0.32070669531822205,1.9565857648849487,-0.40706613659858704,0.21263065934181213
1.4311637878417969,-0.3526839017868042,-0.152984619140625,0.40793201327323914,0.17298067900212036,-1.2510336687430645,-0.7737490737808836,-0.9351427555084229,-0.17211930453777313,-0.30965009331703186,1.5386817455291748,-0.1477898210287094,0.9985657334327698
1.4511590003967285,-0.4440611004829407,-0.018635675311088562,0.34303051233291626,0.16265322239787008,-1.2593119819963807,-0.7421078878792604,-0.9393159747123718,-0.16193698346614838,-0.302426815032959,1.26764976978302,-0.2522914707660675,0.8587153553962708
1.4708988666534424,-0.44920486211776733,0.025627166032791138,0.41616296768188477,0.15515536045683354,-1.270956578175785,-0.7128472607588364,-0.9439073204994202,-0.15453359484672546,-0.2918190360069275,1.2642453908920288,-0.46134835481643677,0.7890281677246094
1.4911189079284668,-0.5569440126419067,-0.00889413058757782,0.4822542369365692,0.1456580603193118,-1.2839767982827814,-0.6829183176252449,-0.9489918351173401,-0.1451435536146164,-0.27990737557411194,1.0909711122512817,-0.3207222819328308,1.0060102939605713
1.5119447708129883,-0.7297430038452148,-0.2129976600408554,0.5511341094970703,0.12592757899653068,-1.2916078355592426,-0.6643365095513925,-0.9536677002906799,-0.12559501826763153,-0.27339357137680054,0.16535329818725586,-0.16762416064739227,1.4023720026016235
1.5328269004821777,-0.6962484121322632,-0.2216351330280304,0.4081474244594574,0.09922175050046235,-1.2993989358803424,-0.6537284617195283,-0.9586589336395264,-0.09905902296304703,-0.26675945520401,0.31825920939445496,-0.5785807967185974,1.4386461973190308
1.552621841430664,-0.661895751953125,-0.015718013048171997,0.2439597249031067,0.07411744060197203,-1.3143038496759212,-0.6359031231396014,-0.964630126953125,-0.07404959946870804,-0.2529928684234619,0.6789571642875671,-0.6466190814971924,1.5117943286895752
1.5709290504455566,-0.7952747344970703,-0.07173120975494385,0.24880731105804443,0.043394875448256424,-1.3247788016210447,-0.6186188406089888,-0.9689769744873047,-0.043381258845329285,-0.24331407248973846,0.11891573667526245,-0.30192452669143677,1.9366307258605957
1.5909500122070312,-0.8933906555175781,-0.15931157767772675,0.23697108030319214,-0.0008031127446896364,-1.3302298949845317,-0.6144542195497166,-0.9712028503417969,0.0008031126344576478,-0.23825271427631378,-0.847866952419281,-0.25141021609306335,2.4753711223602295
1.61090087890625,-0.9736143350601196,-0.17267769575119019,0.270852267742157,-0.05756650063505455,-1.3339060487274443,-0.6254599617624069,-0.9704622030258179,0.05753470957279205,-0.234292134642601,-1.4670425653457642,-0.07472200691699982,2.778308153152466
1.6306920051574707,-1.0063750743865967,-0.05455992370843887,0.1262243390083313,-0.11590000354157358,-1.3402640757225572,-0.6379748548718539,-0.9670135974884033,0.11564069986343384,-0.22696278989315033,-1.0573978424072266,-0.3418937921524048,2.7708168029785156
1.651026964187622,-0.8885347247123718,0.06911994516849518,0.06997168064117432,-0.17081457406062886,-1.3487029870485514,-0.6425179927207609,-0.9612425565719604,0.16998513042926788,-0.21706633269786835,-0.6609607338905334,-0.4455433189868927,2.5187437534332275
1.6705079078674316,-0.8404449820518494,0.0301029235124588,0.04342013597488403,-0.2209424356911106,-1.3576284480440144,-0.6435507832620451,-0.9536072015762329,0.21914924681186676,-0.20641446113586426,-0.5807017683982849,-0.36954352259635925,2.4019689559936523
1.689687967300415,-0.8410308361053467,-0.010239332914352417,-0.0332174152135849,-0.26935917812220855,-1.3669742607863136,-0.6467582983731379,-0.9439881443977356,0.2661137878894806,-0.19511502981185913,-0.6688536405563354,-0.49512362480163574,2.286041498184204
1.711958885192871,-0.7938641905784607,0.10813531279563904,-0.13468106091022491,-0.31354161161342126,-1.379295006286767,-0.6529232224271796,-0.9338581562042236,0.3084295094013214,-0.1810537427663803,-0.736357569694519,-0.5537155866622925,1.9204496145248413
1.7292158603668213,-0.6595937013626099,0.07318973541259766,-0.1772904247045517,-0.35286485347811514,-1.392562680118369,-0.6615152135573795,-0.9235209226608276,0.3455875515937805,-0.16636793315410614,-0.850147545337677,-0.4546380043029785,1.8377692699432373
1.7492868900299072,-0.551518440246582,0.001177459955215454,-0.2443913072347641,-0.3914158499293568,-1.4057922676125716,-0.6770468480360545,-0.9118147492408752,0.3814975619316101,-0.15183359384536743,-1.2649682760238647,-0.30581292510032654,1.712031364440918
1.7692937850952148,-0.4775437116622925,0.042054206132888794,-0.3053298592567444,-0.42707910780138825,-1.4204575454773785,-0.7015401331296679,-0.8999131321907043,0.41421404480934143,-0.13632042706012726,-1.454197645187378,-0.1430439054965973,1.4382908344268799
1.7905330657958984,-0.3209603428840637,0.09133139252662659,-0.33687883615493774,-0.45584775481274686,-1.434158742434684,-0.7284075401325509,-0.8895195126533508,0.44022366404533386,-0.12230387330055237,-1.359173059463501,-0.14864932000637054,1.116162657737732
1.8116178512573242,-0.1145218014717102,0.04055866599082947,-0.33111339807510376,-0.4802714370140709,-1.4504800729501912,-0.757446468935316,-0.8804581165313721,0.4620199203491211,-0.10644756257534027,-1.5225131511688232,-0.16934801638126373,0.9980788826942444
1.8299319744110107,0.06550145149230957,-0.0544930100440979,-0.20820403099060059,-0.5029862876709468,-1.4677715483758964,-0.7913648088669487,-0.8715012073516846,0.4820441007614136,-0.09010524302721024,-1.6933257579803467,0.023986639454960823,0.905815601348877
1.8498499393463135,0.18083876371383667,-0.04216092824935913,-0.27141624689102173,-0.5216625696075727,-1.4862971298511873,-0.8248436913713694,-0.863898515701294,0.4983222484588623,-0.07317297160625458,-1.4337074756622314,-0.16128334403038025,0.6911596655845642
1.869292974472046,0.349439799785614,-0.044374167919158936,-0.18851274251937866,-0.5339741966147811,-1.5053099972495843,-0.8555909997167376,-0.8589460253715515,0.5089582800865173,-0.056329768151044846,-1.1029372215270996,-0.30497777462005615,0.38501185178756714
1.8899309635162354,0.4565318822860718,-0.15631335973739624,-0.13669228553771973,-0.5428795630809881,-1.5229334585823688,-0.8762896307427666,-0.8552441000938416,0.5166037082672119,-0.040965721011161804,-0.9085913300514221,-0.38686081767082214,0.38314148783683777
1.9092397689819336,0.44312596321105957,-0.11819571256637573,-0.14315944910049438,-0.5489484878714269,-1.5419068736614328,-0.8937561611578797,-0.8527176380157471,0.5217905044555664,-0.024641402065753937,-0.5364344120025635,-0.546299397945404,0.201312854886055
1.9292397499084473,0.38468796014785767,-0.12044394016265869,-0.20520979166030884,-0.5531276049544239,-1.5577700871524036,-0.902058811506341,-0.8508135676383972,0.5253510475158691,-0.011083528399467468,-0.10772065818309784,-0.662202000617981,0.21759045124053955
1.949258804321289,0.3526562452316284,-0.04819619655609131,-0.2392624020576477,-0.5585916008629661,-1.5707298393837388,-0.901787612152563,-0.848002552986145,0.529992401599884,-5.638149377773516e-05,0.06131339073181152,-0.6565463542938232,0.34555184841156006
1.9705300331115723,0.40459954738616943,-0.0950998067855835,-0.26657772064208984,-0.5675935174339891,-1.5854448231093898,-0.9021969348963037,-0.8431065678596497,0.5376044511795044,0.012351127341389656,-0.06656990945339203,-0.7789964079856873,0.5848182439804077
1.9897260665893555,0.4506288766860962,-0.07988810539245605,-0.25174999237060547,-0.5804970349664272,-1.5979105225988404,-0.8998546061444397,-0.8358829021453857,0.548439621925354,0.022669848054647446,0.46928784251213074,-0.5629017353057861,0.6728151440620422
2.0093119144439697,0.45642220973968506,-0.06415969133377075,-0.4241509437561035,-0.5954839248609687,-1.5997034438558357,-0.8812101066967215,-0.8275313377380371,0.5609094500541687,0.023928212001919746,0.988903820514679,-0.6378577351570129,0.738728404045105
2.029242992401123,0.5462681651115417,-0.058275043964385986,-0.45285582542419434,-0.6074641246524719,-1.596116395763291,-0.852389794685829,-0.8208348155021667,0.5707870721817017,0.020788036286830902,1.3884533643722534,-0.766748309135437,0.5477344393730164
2.049232006072998,0.6478396058082581,-0.16674143075942993,-0.43091797828674316,-0.6226428603668185,-1.5942903003548585,-0.817887271618466,-0.8121157884597778,0.5831841230392456,0.019083337858319283,1.4415088891983032,-0.9467777609825134,0.8639174699783325
2.070100784301758,0.6203823089599609,-0.21444445848464966,-0.4225093126296997,-0.6408376877071067,-1.5882065593790227,-0.7792724147571903,-0.8014736175537109,0.5978671312332153,0.01395525224506855,1.717958927154541,-0.7591381072998047,0.8919850587844849
2.0909459590911865,0.6054977774620056,-0.10720217227935791,-0.535680890083313,-0.6603548422716863,-1.5762328909251244,-0.7335553930304255,-0.7897630333900452,0.6133971214294434,0.004293639678508043,1.9253774881362915,-0.7914977669715881,1.0601061582565308
2.109261989593506,0.670912504196167,-0.10556250810623169,-0.5325337052345276,-0.6809138712958808,-1.561097526917594,-0.684659252338794,-0.776961088180542,0.6295033693313599,-0.007535826414823532,1.8897790908813477,-0.7099478840827942,0.9554458260536194
2.129368782043457,0.7195216417312622,-0.06982851028442383,-0.46661376953125,-0.6950989271227336,-1.5409296914625683,-0.6341289324120933,-0.7676481008529663,0.6404614448547363,-0.02293388545513153,1.9846715927124023,-0.5622882843017578,0.7017860412597656
2.1492369174957275,0.8099590539932251,-0.05469405651092529,-0.421139121055603,-0.7054584291672216,-1.5155862904510573,-0.577667961816621,-0.7601544857025146,0.6483829021453857,-0.042010851204395294,2.2944812774658203,-0.5457581281661987,0.5677845478057861
2.1693058013916016,0.8371984362602234,-0.09755992889404297,-0.3443410396575928,-0.7127014988208161,-1.4863294991277947,-0.5166731875759918,-0.753900945186615,0.6538801193237305,-0.06383149325847626,2.2457447052001953,-0.49399977922439575,0.5032014846801758
2.189455986022949,0.8099575042724609,-0.12835055589675903,-0.2515278458595276,-0.7189682439306592,-1.4558342456198796,-0.4577426602571629,-0.7475186586380005,0.658608615398407,-0.08631689846515656,2.133286714553833,-0.34582096338272095,0.5708490014076233
2.209242820739746,0.7485325336456299,-0.09852463006973267,-0.2467828392982483,-0.7239131505235522,-1.4248468560803333,-0.4013926747350658,-0.7412542104721069,0.6623215675354004,-0.10896042734384537,2.002577781677246,-0.2705361545085907,0.4294324219226837
2.2292418479919434,0.6925482153892517,0.016538798809051514,-0.20434534549713135,-0.7228994429051798,-1.3934298410819694,-0.3465198650092704,-0.7381263375282288,0.6615617275238037,-0.132309228181839,2.165858507156372,-0.2693938612937927,0.1375856101512909
2.2492458820343018,0.6167994737625122,0.12000501155853271,-0.21752886474132538,-0.7147938604856958,-1.358701739732274,-0.284554156204388,-0.7383053302764893,0.6554617285728455,-0.15898162126541138,2.5332889556884766,-0.32051393389701843,0.008047430776059628
2.26924991607666,0.5400691032409668,0.13011443614959717,-0.09441238641738892,-0.7033637297347118,-1.3242486335139094,-0.2235957501112361,-0.7396084070205688,0.6467867493629456,-0.18613559007644653,2.1388134956359863,-0.17614787817001343,-0.0874253585934639
2.2892398834228516,0.4568219780921936,0.057780444622039795,0.008651256561279297,-0.6918849137878217,-1.2943308217393446,-0.17663797920652838,-0.7408034801483154,0.6379897594451904,-0.21018923819065094,1.7181192636489868,0.14574511349201202,-0.0502685122191906
2.309213876724243,0.41406863927841187,0.02752000093460083,-0.0012277215719223022,-0.6823543353683196,-1.2654032824184416,-0.13757594264501227,-0.7401795387268066,0.6306219696998596,-0.23334552347660065,1.4338182210922241,0.21958915889263153,-0.042343951761722565
2.329312801361084,0.35719746351242065,-0.0024472475051879883,0.03153759241104126,-0.6721907911308804,-1.2447276589100835,-0.11092186579330979,-0.7412307858467102,0.6227017045021057,-0.2506384253501892,0.817445695400238,0.166688933968544,-0.3263010084629059
2.3492419719696045,0.287250816822052,-0.07316678762435913,0.07035353779792786,-0.6587225842156911,-1.2333951132796501,-0.09623583658980822,-0.7461895942687988,0.6121072173118591,-0.2617749571800232,0.8421589732170105,0.10977619886398315,-0.4702071249485016
2.3692569732666016,0.21792304515838623,0.07311278581619263,0.03966519236564636,-0.6428504937786439,-1.218502099352198,-0.07466933036431113,-0.7512332201004028,0.5994793772697449,-0.2761763036251068,1.2914460897445679,0.030426781624555588,-0.5281683802604675
2.389241933822632,0.00020819902420043945,0.1642976999282837,0.019646793603897095,-0.6200723525787731,-1.202533432694935,-0.050082556175203324,-0.7592719793319702,0.5810940265655518,-0.29297730326652527,1.2559477090835571,0.17971490323543549,-0.8610261082649231
2.409332752227783,-0.06544274091720581,0.05042135715484619,0.13096550107002258,-0.5964761531873883,-1.1901823146950548,-0.03525973782849508,-0.768114447593689,0.5617306232452393,-0.30734169483184814,0.7571138739585876,0.07503028959035873,-0.8643351197242737
2.4295198917388916,-0.0043672919273376465,-0.009903490543365479,0.13533395528793335,-0.5766605307502335,-1.190784793175761,-0.032301477449473634,-0.7784850001335144,0.5452275276184082,-0.3109472095966339,0.19857445359230042,-0.21555519104003906,-0.9286400675773621
2.44931697845459,-0.09680545330047607,-0.047550857067108154,0.2189030945301056,-0.5579927239226405,-1.199583651880607,-0.03993682867340982,-0.7905391454696655,0.5294844508171082,-0.3077244162559509,0.07688875496387482,-0.2797517776489258,-1.0266046524047852
2.4694199562072754,-0.17572414875030518,-0.05509895086288452,0.17967844009399414,-0.5352664350068881,-1.2057718888682196,-0.041588381739972966,-0.8034629821777344,0.5100702047348022,-0.3070434331893921,0.6603283286094666,-0.26209768652915955,-1.1901623010635376
2.489299774169922,-0.2414073944091797,0.007154941558837891,0.1542103886604309,-0.5035758613609768,-1.2073579281085614,-0.031033175384543695,-0.8186513185501099,0.48256057500839233,-0.31136050820350647,1.2845498323440552,-0.41435706615448,-1.4449959993362427
2.5092718601226807,-0.32712292671203613,0.022761046886444092,0.18284311890602112,-0.4644621382086854,-1.2088829028361707,-0.014742662268741361,-0.8361461758613586,0.44794198870658875,-0.3165556788444519,1.359683871269226,-0.4812818765640259,-1.6741671562194824
2.529390811920166,-0.37556028366088867,-0.04320627450942993,0.2521987557411194,-0.42568184567935713,-1.2138064903729289,-0.0037899100696968113,-0.853336751461029,0.4129418730735779,-0.31826910376548767,0.8431764245033264,-0.4672151505947113,-1.5791350603103638
2.5492658615112305,-0.34820735454559326,-0.10596257448196411,0.3032725155353546,-0.39281163539712277,-1.2236491339190638,-0.003239061565740268,-0.868726909160614,0.38278740644454956,-0.3143044412136078,0.4051663875579834,-0.5479546785354614,-1.4953489303588867
2.569328784942627,-0.33805662393569946,-0.10559782385826111,0.3129905164241791,-0.36283527032833957,-1.2366827428044183,-0.008159023532550708,-0.8831958770751953,0.35492634773254395,-0.30658164620399475,0.26290804147720337,-0.538616418838501,-1.5028337240219116
2.589287757873535,-0.3494582176208496,-0.10528743267059326,0.2548576593399048,-0.33202699657442275,-1.249999658075507,-0.009455883453780144,-0.8971543908119202,0.3259599804878235,-0.29810088872909546,0.602829098701477,-0.7848896384239197,-1.4560242891311646
2.6092278957366943,-0.40339916944503784,-0.06749516725540161,0.22067290544509888,-0.29928365665979195,-1.262952194381786,-0.00554907224708614,-0.9106267690658569,0.29483577609062195,-0.28953567147254944,0.713676393032074,-0.5713280439376831,-1.6030969619750977
2.6292378902435303,-0.3983722925186157,-0.13307291269302368,0.22263839840888977,-0.2551562343155701,-1.2712974117874813,-0.004182361346967934,-0.9245496988296509,0.2523965835571289,-0.28548920154571533,0.548944354057312,-0.5156723856925964,-1.9223557710647583
2.649251937866211,-0.2360553741455078,-0.07343409955501556,0.3086174726486206,-0.22653544469296896,-1.2775235226842703,-0.0028659363975819478,-0.9328442215919495,0.2246028482913971,-0.2817007899284363,0.3561154305934906,-0.10666093975305557,-1.0688433647155762
2.66923189163208,-0.24331849813461304,-0.17859207093715668,0.334400475025177,-0.20486327545091004,-1.2780633220267477,-0.004302503217151545,-0.9374371767044067,0.20343329012393951,-0.28253570199012756,0.21754330396652222,0.0319056361913681,-0.9259488582611084
2.689818859100342,-0.08783870935440063,-0.10243493318557739,0.29179155826568604,-0.19020377007303488,-1.2790341444826436,-0.0036218777232644656,-0.9404664039611816,0.18905898928642273,-0.2824530005455017,0.27582013607025146,-0.12104609608650208,-0.5704010128974915
2.7092368602752686,-0.0656653642654419,-0.10547460615634918,0.2951437532901764,-0.176131702784295,-1.2799665452490996,0.0004925552996250137,-0.9431847929954529,0.17522244155406952,-0.28231093287467957,0.5351158976554871,-0.018620388582348824,-0.5937235951423645
2.729238986968994,-0.07296895980834961,-0.1138138473033905,0.30762478709220886,-0.16373876446936136,-1.2764684730816522,0.006887348537059538,-0.9441972374916077,0.16300809383392334,-0.2862165570259094,0.4252336919307709,0.20483072102069855,-0.519620954990387
2.7492880821228027,-0.022250235080718994,-0.11839735507965088,0.3032391667366028,-0.15036585870600747,-1.2738579175284945,0.013237453880066469,-0.9454469680786133,0.1497998684644699,-0.28929245471954346,0.5852205157279968,-0.04016243293881416,-0.498305082321167
2.769237995147705,0.021836280822753906,-0.07664193212985992,0.29870691895484924,-0.13896305107143636,-1.2753487260974667,0.02349590700149181,-0.9474496841430664,0.13851623237133026,-0.28836125135421753,0.6709399223327637,-0.21240484714508057,-0.3402993083000183
2.789289951324463,-0.0421292781829834,-0.0735478401184082,0.3440481424331665,-0.12955872475057792,-1.277045831826942,0.033129215613862485,-0.9491428136825562,0.12919658422470093,-0.28711745142936707,0.49578583240509033,-0.06744661182165146,-0.22954970598220825
2.8086209297180176,-0.012548267841339111,-0.11944139748811722,0.2960854768753052,-0.12373938819981847,-1.2783505001636466,0.039003059657523854,-0.9502204060554504,0.12342385947704315,-0.28609079122543335,0.3312026262283325,-0.16709960997104645,-0.1956251859664917
2.829253911972046,0.005320847034454346,-0.0914221927523613,0.18289947509765625,-0.11721831611471258,-1.2832338251890676,0.04769256704770634,-0.9523577094078064,0.11695006489753723,-0.2816694676876068,0.7828388810157776,-0.4558698832988739,-0.15119165182113647
2.8492379188537598,-0.049518704414367676,0.010237574577331543,0.1133778989315033,-0.10853610290359504,-1.2924465504441849,0.06507338148932487,-0.9558523893356323,0.10832313448190689,-0.27315250039100647,1.0622105598449707,-0.6468659043312073,-0.2502211332321167
2.8692450523376465,-0.12168067693710327,-0.055780939757823944,0.20537161827087402,-0.09895681837000109,-1.3021129861724938,0.08476187669926054,-0.9594045877456665,0.09879539161920547,-0.2641635537147522,0.9306879043579102,-0.5192696452140808,-0.10069484263658524
2.8892388343811035,-0.20591449737548828,-0.14916712045669556,0.186760812997818,-0.09373171177913002,-1.3118037173885035,0.09785449638330046,-0.9624052047729492,0.0935945212841034,-0.25498268008232117,0.48380687832832336,-0.5975813865661621,-0.038337524980306625
2.9092397689819336,-0.2773953080177307,-0.17751440405845642,0.17705416679382324,-0.0930385282430024,-1.3243271614682728,0.10428808547299184,-0.9655857086181641,0.09290435910224915,-0.24292616546154022,0.22880278527736664,-0.6669458150863647,0.12298912554979324
2.929271936416626,-0.37181633710861206,-0.1290774792432785,0.14894437789916992,-0.09375326780635351,-1.3365113403135038,0.11372069542043738,-0.96840900182724,0.09361598640680313,-0.23112806677818298,0.7891700267791748,-0.6829692125320435,0.1400507092475891
2.9492478370666504,-0.48447221517562866,-0.17537428438663483,0.12530601024627686,-0.09315722275006062,-1.3465203815754774,0.12974001420507011,-0.9707280397415161,0.09302254021167755,-0.22143618762493134,0.574286937713623,-0.47417816519737244,0.13364100456237793
2.9692420959472656,-0.4337274432182312,-0.27200642228126526,0.13067513704299927,-0.09617494611815512,-1.3552221826692326,0.13806598270118128,-0.9723395705223083,0.09602674841880798,-0.21291981637477875,0.15674327313899994,-0.49138936400413513,0.43928518891334534
2.9892818927764893,-0.35488641262054443,-0.32540374994277954,0.17253896594047546,-0.10845307450369092,-1.3643239036459816,0.14145896794721327,-0.9730096459388733,0.10824059695005417,-0.20380404591560364,-0.0716114416718483,-0.5020415782928467,0.7655877470970154
3.009239912033081,-0.41318458318710327,-0.23967266082763672,0.13819566369056702,-0.12345459408434592,-1.375236108112493,0.14459185075624634,-0.973473310470581,0.12314123660326004,-0.19283722341060638,0.17742247879505157,-0.5770156383514404,0.8286944031715393
3.02911376953125,-0.49964821338653564,-0.19259490072727203,0.17471112310886383,-0.14300238112789448,-1.3844506700965278,0.15260486050520478,-0.9726570844650269,0.14251548051834106,-0.1833779364824295,0.12217678129673004,-0.4628243148326874,1.2616112232208252
3.0492420196533203,-0.5809720158576965,-0.12964943051338196,0.2549739480018616,-0.17223241002092968,-1.3920292618398893,0.15761762028124862,-0.9695040583610535,0.17138215899467468,-0.17518556118011475,-0.16768807172775269,-0.3400427997112274,1.7593518495559692
3.069242000579834,-0.6224978566169739,-0.12300409376621246,0.25063395500183105,-0.2120062404414152,-1.3984006725964921,0.16174828616475645,-0.9631192684173584,0.21042165160179138,-0.16770227253437042,-0.06387998163700104,-0.31821608543395996,2.237440824508667
3.089237928390503,-0.6780904531478882,-0.0267333984375,0.22908373177051544,-0.2548398024449953,-1.4023356470768216,0.16866657507093993,-0.9540048241615295,0.2520903944969177,-0.16225004196166992,0.1850866824388504,-0.10705553740262985,2.1510965824127197
3.1092488765716553,-0.7122703790664673,-0.03256100416183472,0.19813169538974762,-0.29613225901810747,-1.3990021507673125,0.1850489956245342,-0.9423926472663879,0.29182299971580505,-0.1635093092918396,0.5100298523902893,-0.04097682610154152,2.2756199836730957
3.1292638778686523,-0.6338173151016235,-0.04852578043937683,0.25856447219848633,-0.3390901133982567,-1.395785694166754,0.19918953995525449,-0.9286523461341858,0.33262914419174194,-0.16420391201972961,0.09248731285333633,-0.029480405151844025,2.1360580921173096
3.1493020057678223,-0.6373165845870972,-0.006633549928665161,0.24973732233047485,-0.37939359765625713,-1.3940975453357871,0.20811872756325697,-0.9144260287284851,0.3703572452068329,-0.16328085958957672,0.033917758613824844,-0.1277393251657486,2.0190539360046387
3.1693289279937744,-0.5687808394432068,0.0494312047958374,0.21614021062850952,-0.41850458763957576,-1.395400469471154,0.21280415882628775,-0.8996793627738953,0.4063945412635803,-0.1594383716583252,-0.3168446719646454,-0.2216499298810959,1.9332904815673828
3.189243793487549,-0.5145699977874756,0.10053518414497375,0.13641341030597687,-0.4567456258352938,-1.4019002538679248,0.2109966913463793,-0.8847219347953796,0.4410296678543091,-0.15086330473423004,-0.39161360263824463,-0.3666490912437439,1.7810324430465698
3.209268093109131,-0.4649786949157715,0.18870601058006287,0.02055896818637848,-0.49183436145352105,-1.4110266467658152,0.21138325706249422,-0.8702415823936462,0.47224360704421997,-0.14023347198963165,-0.30461928248405457,-0.5361507534980774,1.7774220705032349
3.229238986968994,-0.34252142906188965,0.13665127754211426,-0.014568023383617401,-0.5298193361367067,-1.42740310428574,0.20309429504955911,-0.8540423512458801,0.505377471446991,-0.12331019341945648,-0.9295960068702698,-0.742392897605896,1.8439176082611084
3.2492427825927734,-0.24821048974990845,0.15884917974472046,-0.03277509659528732,-0.567941124927542,-1.454492176986547,0.18238217332507325,-0.8373150825500488,0.537897527217865,-0.09782469272613525,-1.2642536163330078,-0.8297169804573059,1.658390760421753
3.2692389488220215,-0.18601691722869873,0.22213095426559448,-0.06967305392026901,-0.5992793673721954,-1.4842275150493014,0.16094758914861365,-0.8226500749588013,0.5640475749969482,-0.07139427959918976,-0.8012551069259644,-0.9309098720550537,1.337052345275879
3.2892379760742188,-0.034958720207214355,0.13851279020309448,-0.06707942485809326,-0.6253102230821884,-1.5121224382289622,0.1444610437893261,-0.8093864321708679,0.5853488445281982,-0.04754441976547241,-0.7745581865310669,-0.9462182521820068,1.1417814493179321
3.309283971786499,0.04901325702667236,-0.020887672901153564,-0.08567726612091064,-0.6476521161690881,-1.5417854739516237,0.126160171681951,-0.7971670031547546,0.6033156514167786,-0.023132985457777977,-0.8774213790893555,-0.9084905385971069,1.0661431550979614
3.329239845275879,0.12195032835006714,-0.11248761415481567,-0.10791456699371338,-0.6698061996137092,-1.5741305127740362,0.1015271243634483,-0.7839376330375671,0.6208340525627136,0.002613803604617715,-1.1056840419769287,-0.8327947854995728,1.146894097328186
3.3492379188537598,0.20617562532424927,-0.04497385025024414,-0.2752399444580078,-0.6916689706577552,-1.6119599303089736,0.07278706224224654,-0.7695300579071045,0.6378234624862671,0.03169453516602516,-1.0500425100326538,-1.159121036529541,0.936739444732666
3.3692398071289062,0.2776942253112793,0.07610428333282471,-0.33005213737487793,-0.7015965873130933,-1.6503353489057238,0.0534799588170309,-0.7613978385925293,0.645438015460968,0.06068887561559677,-0.27788814902305603,-1.4165103435516357,0.23044584691524506
3.389237880706787,0.23113280534744263,-0.08833533525466919,-0.3506357669830322,-0.7066960523725239,-1.67822971027622,0.05106576592613844,-0.7561267018318176,0.6493246555328369,0.08154723048210144,-0.034791767597198486,-1.112452507019043,0.36041662096977234
3.40927791595459,0.14821970462799072,-0.2037590742111206,-0.3324774503707886,-0.7140306626556637,-1.7013829410733434,0.04342351521168613,-0.7492940425872803,0.6548851728439331,0.09840778261423111,-0.5222172737121582,-0.7755517363548279,0.3887264132499695
3.4293179512023926,0.1508668065071106,-0.25475311279296875,-0.36869192123413086,-0.7173860512503704,-1.7301804332710116,0.019770538415254533,-0.7439759969711304,0.6574172377586365,0.11959235370159149,-1.1157197952270508,-0.5766867399215698,0.22025921940803528
3.4492387771606445,0.13979947566986084,-0.21231114864349365,-0.4354649782180786,-0.7175990942098622,-1.7604238107850665,-0.009855836130407688,-0.7398818135261536,0.6575777530670166,0.14200817048549652,-1.0039069652557373,-0.46489763259887695,0.2469051331281662
3.4692420959472656,0.0520479679107666,-0.07648974657058716,-0.4819931983947754,-0.7173928102734937,-1.780497678981374,-0.03193210812643113,-0.7370150685310364,0.6574223041534424,0.15685909986495972,-0.6049745082855225,-0.08563981205224991,-0.01563168503344059
3.4892420768737793,-0.012085020542144775,-0.10021549463272095,-0.46175992488861084,-0.7127224042647479,-1.7854121410949302,-0.04340857262925189,-0.7392273545265198,0.653895914554596,0.16113141179084778,-0.4497944116592407,0.35887542366981506,-0.15993185341358185
3.509237766265869,0.03383666276931763,-0.23373621702194214,-0.3715705871582031,-0.7091261584814986,-1.7851981450555774,-0.059819561063915117,-0.7415546178817749,0.6511708498001099,0.16147246956825256,-0.908397376537323,0.700088381767273,0.10931035876274109
3.529237747192383,0.025534749031066895,-0.288455069065094,-0.3312380313873291,-0.7074396726333606,-1.7884142970323862,-0.09075240847976393,-0.7421028017997742,0.6498900055885315,0.164093479514122,-1.3201072216033936,1.0230659246444702,0.1634700894355774
3.5492429733276367,-0.012245118618011475,-0.2541971206665039,-0.3035193681716919,-0.7041691101830406,-1.786803156734145,-0.12598613149395888,-0.7444382905960083,0.6474007964134216,0.16335231065750122,-1.3202481269836426,1.3916316032409668,0.14180883765220642
3.5692389011383057,0.006183981895446777,-0.22095000743865967,-0.2876547574996948,-0.7013120594690482,-1.7786794856306525,-0.1584655245490134,-0.7475476264953613,0.6452206373214722,0.15768054127693176,-1.1981033086776733,1.5609604120254517,0.060091301798820496
3.5892388820648193,-0.016019046306610107,-0.24297451972961426,-0.2051072120666504,-0.6975312177258646,-1.7645232361304555,-0.18851694698556867,-0.7520931959152222,0.6423274874687195,0.14755119383335114,-1.106534719467163,1.8065851926803589,0.09840425103902817
3.6092379093170166,-0.028822004795074463,-0.2364988923072815,-0.14127671718597412,-0.696250018029538,-1.7427495196736171,-0.21563672740949466,-0.7559376358985901,0.6413450241088867,0.13128235936164856,-1.0151617527008057,2.101116895675659,0.12430839985609055
3.6292319297790527,-0.0069356560707092285,-0.26349079608917236,-0.062567338347435,-0.6945993928045585,-1.719208059126215,-0.2449538945655919,-0.7598644495010376,0.6400777101516724,0.11360813677310944,-1.2608811855316162,2.1341588497161865,0.11143139004707336
3.649268865585327,0.012957751750946045,-0.3286743760108948,-0.010393038392066956,-0.6939216489261993,-1.69957751278137,-0.28111060453711834,-0.762377917766571,0.6395568251609802,0.0987263098359108,-1.4995763301849365,2.1923351287841797,0.24689438939094543
3.669239044189453,-0.014591336250305176,-0.3056696653366089,-0.014768846333026886,-0.696770601689462,-1.6821047123094073,-0.32261305458743506,-0.762172520160675,0.6417443752288818,0.08518829941749573,-1.549297571182251,2.2015483379364014,0.42052707076072693
3.6892738342285156,-0.05356031656265259,-0.20578360557556152,-0.054565541446208954,-0.7021922021923771,-1.6607203512758286,-0.3587921885054666,-0.7603436708450317,0.6458927989006042,0.06855805963277817,-1.1596769094467163,2.289217472076416,0.36480528116226196
3.709238052368164,-0.1054345965385437,-0.19078069925308228,-0.03909707069396973,-0.7055501916706403,-1.633601681477995,-0.3878732181763109,-0.7597541213035583,0.6484527587890625,0.04777946695685387,-1.072365403175354,2.3168327808380127,0.2130632847547531
3.729235887527466,-0.08894109725952148,-0.26411545276641846,-0.015363812446594238,-0.7086825749001298,-1.6055706574921378,-0.41660924986464193,-0.7587610483169556,0.6508341431617737,0.026396047323942184,-1.1205517053604126,2.3501698970794678,0.23271940648555756
3.7492470741271973,-0.027369141578674316,-0.2998308539390564,0.019539952278137207,-0.7131456096868755,-1.579863999558205,-0.4478382074360296,-0.7562764883041382,0.6542160511016846,0.006857855711132288,-1.2570621967315674,2.24613881111145,0.2963998019695282
3.769237995147705,-0.03112351894378662,-0.29043978452682495,0.002155303955078125,-0.7186373633761635,-1.5582427403729673,-0.48286113626301486,-0.7526443004608154,0.6583596467971802,-0.009448881261050701,-1.3823344707489014,2.2727670669555664,0.26977771520614624
3.7893290519714355,-0.04715663194656372,-0.26023513078689575,-0.020632684230804443,-0.7241343243761055,-1.536000828502518,-0.5189804349361062,-0.7486198544502258,0.6624872088432312,-0.026059117168188095,-1.3608572483062744,2.2907869815826416,0.29857581853866577
3.8092398643493652,0.045866549015045166,-0.27201002836227417,-0.029265161603689194,-0.731054483197023,-1.5158169618853687,-0.5549765472975042,-0.7433458566665649,0.6676550507545471,-0.040909912437200546,-1.373325228691101,2.0915510654449463,0.34382370114326477
3.8292760848999023,0.12283998727798462,-0.29149872064590454,-0.036531686782836914,-0.7375752362657259,-1.4996100654512525,-0.5896656227941173,-0.7382270693778992,0.6724953055381775,-0.05264057591557503,-1.2855730056762695,1.7909889221191406,0.3230193555355072
3.8492579460144043,0.1402055025100708,-0.28287631273269653,-0.07050997018814087,-0.7448135309789543,-1.48789098211125,-0.6205682868051937,-0.7326891422271729,0.6778347492218018,-0.060883402824401855,-1.0456684827804565,1.4708309173583984,0.24950312077999115
3.869328022003174,0.11089694499969482,-0.24029666185379028,-0.06340651959180832,-0.7497955631662566,-1.4775527194380589,-0.6462561637323351,-0.7286490797996521,0.6814891695976257,-0.0681394636631012,-0.9015715718269348,1.3202931880950928,0.10132645070552826
3.889277935028076,0.06981974840164185,-0.2071663737297058,-0.10712838917970657,-0.7531531155353017,-1.4682502327598517,-0.668984781991724,-0.7257037162780762,0.6839424967765808,-0.07468003779649734,-0.8342468738555908,1.1506597995758057,0.1563706398010254
3.9092397689819336,0.03327310085296631,-0.13365787267684937,-0.17104321718215942,-0.7615851209679992,-1.4655127419843423,-0.6952943171844146,-0.7197356224060059,0.6900695562362671,-0.07605757564306259,-1.2234140634536743,0.9658611416816711,0.45444685220718384
3.9292378425598145,-0.13033175468444824,0.012193441390991211,-0.2366565465927124,-0.7735548404034387,-1.4723688612102652,-0.7333852947187629,-0.711968719959259,0.6986829042434692,-0.07030446082353592,-1.566167950630188,1.0015466213226318,0.4608319103717804
3.9492058753967285,-0.22210264205932617,0.08342105150222778,-0.3070659041404724,-0.7853326241615729,-1.4783956282524187,-0.7706760287382922,-0.7041364908218384,0.7070604562759399,-0.065248504281044,-1.044946312904358,0.9761180281639099,0.46559399366378784
3.9693219661712646,-0.15078604221343994,0.2174171805381775,-0.36320704221725464,-0.7936843541601397,-1.4706437201714946,-0.7844208101086729,-0.6977096199989319,0.7129416465759277,-0.07011201232671738,0.028643809258937836,0.7697837352752686,0.22368867695331573
3.989245891571045,-0.1170874834060669,0.27961117029190063,-0.27745336294174194,-0.7933374286643621,-1.444868560671591,-0.7708683618432054,-0.6959162354469299,0.7126983404159546,-0.08810137212276459,0.7469895482063293,0.8904353380203247,-0.07352597266435623
4.009247779846191,-0.059791386127471924,0.09315407276153564,-0.09311753511428833,-0.7893354184955724,-1.4098391661701797,-0.7505261481939821,-0.6952136158943176,0.7098853588104248,-0.11287606507539749,0.5812577605247498,1.1375457048416138,-0.030811956152319908
4.02923583984375,0.08348685503005981,-0.10159331560134888,0.10384786128997803,-0.7877977270107062,-1.376236904744684,-0.7395235584941541,-0.6920990943908691,0.7088015079498291,-0.13637956976890564,0.14812472462654114,1.351751446723938,0.09609407186508179
4.0492448806762695,0.23591208457946777,-0.20894354581832886,0.23090894520282745,-0.7889296485499311,-1.34800711354478,-0.7376729537487846,-0.68719083070755,0.709599494934082,-0.15568304061889648,-0.08030790835618973,1.2662591934204102,0.03569412976503372
4.068475961685181,0.31247562170028687,-0.24607598781585693,0.3318129777908325,-0.7883347169694132,-1.3326293087094974,-0.7478198760073885,-0.6851259469985962,0.7091801762580872,-0.16633133590221405,-0.6272009611129761,1.005534291267395,-0.279691606760025
4.089247941970825,0.26840126514434814,-0.21938306093215942,0.4163539409637451,-0.7831678497092163,-1.329526821773296,-0.7721581083281955,-0.688155472278595,0.7055279612541199,-0.16932936012744904,-0.8911276459693909,1.040259599685669,-0.6102733016014099
4.109237909317017,0.21320348978042603,-0.09274572134017944,0.3659133315086365,-0.7732199676770296,-1.3300762776491455,-0.8030669172890352,-0.6950303912162781,0.6984432935714722,-0.17061607539653778,-0.9288111925125122,1.0613505840301514,-0.8790664672851562
4.129273891448975,0.2715931534767151,-0.02098923921585083,0.23008115589618683,-0.7581782412461748,-1.3302660325766353,-0.8304842527924197,-0.7051869630813599,0.6875998377799988,-0.17296743392944336,-0.6649052500724792,0.7548413276672363,-1.0198842287063599
4.149259090423584,0.398650586605072,-0.10903704166412354,0.1704658418893814,-0.7416068284504674,-1.3349991649185113,-0.8545789213734939,-0.7169795632362366,0.6754736304283142,-0.17226633429527283,-0.6693643927574158,0.46819961071014404,-0.9838404059410095
4.169280052185059,0.45028388500213623,-0.2059183120727539,0.1673930287361145,-0.7273020955444782,-1.3418248113754752,-0.8789027920277594,-0.7274751663208008,0.6648567914962769,-0.16954445838928223,-0.7543593645095825,0.5342779755592346,-0.915580153465271
4.189242839813232,0.4364352226257324,-0.25943732261657715,0.07056009769439697,-0.7108433107255266,-1.3476161956200288,-0.9058692909025843,-0.739017128944397,0.6524730920791626,-0.16772803664207458,-0.887056827545166,0.6641367077827454,-1.1310532093048096
4.209263801574707,0.451347291469574,-0.27341270446777344,0.016757488250732422,-0.6931551449180757,-1.3545608626872572,-0.9388534689173503,-0.751319944858551,0.6389673948287964,-0.16504241526126862,-1.258785605430603,0.7812104225158691,-1.1299997568130493
4.229241847991943,0.4345242977142334,-0.2691258192062378,-0.01271730661392212,-0.6772134790987401,-1.3651034638927597,-0.9827416504988198,-0.762893557548523,0.6266238689422607,-0.15917295217514038,-1.6923236846923828,0.9365723729133606,-1.1544995307922363
4.2492570877075195,0.4050107002258301,-0.25357210636138916,-0.04671657085418701,-0.6610601972127989,-1.3767858360858347,-1.0334357023219658,-0.7745329141616821,0.6139540672302246,-0.1521816998720169,-1.816942572593689,1.0356591939926147,-1.2389612197875977
4.269247055053711,0.3797142505645752,-0.13549482822418213,-0.07550029456615448,-0.6412176158486217,-1.3849356638752686,-1.08086823189099,-0.7875665426254272,0.5981716513633728,-0.1480867564678192,-1.4658424854278564,1.0404505729675293,-1.4547903537750244
4.289237022399902,0.30814212560653687,-0.04116863012313843,-0.08083939552307129,-0.6141122678842965,-1.3850623938784763,-1.1170734942564624,-0.8032289147377014,0.5762332081794739,-0.1509263664484024,-0.9557827115058899,1.064240574836731,-1.7554091215133667
4.309273958206177,0.22853690385818481,-0.005617797374725342,-0.05949521064758301,-0.5806908446736946,-1.3821404943301256,-1.1479991629903272,-0.8212494254112244,0.5486016869544983,-0.1567981243133545,-0.993504524230957,0.9505914449691772,-1.9907642602920532
4.329246997833252,0.16652625799179077,-0.05850452184677124,-0.016837716102600098,-0.546483424135158,-1.3833583780495062,-1.1819174307021298,-0.8393931984901428,0.5196860432624817,-0.1592029482126236,-1.2287182807922363,0.725850522518158,-1.8437432050704956
4.349272966384888,0.05922430753707886,0.0018130838871002197,0.036328092217445374,-0.5175511804322256,-1.3882162592874432,-1.2179227809147615,-0.8545887470245361,0.49475350975990295,-0.15778809785842896,-1.2370412349700928,0.6931808590888977,-1.6287386417388916
4.36926794052124,-0.16504007577896118,0.17989158630371094,0.040702417492866516,-0.48831767810919907,-1.3873198793667054,-1.2495446491831839,-0.8683004379272461,0.4691408574581146,-0.16112476587295532,-0.9747370481491089,0.9154024720191956,-1.8073062896728516
4.38923192024231,-0.263003945350647,0.29944929480552673,0.018950417637825012,-0.45346628055989474,-1.3820964523085364,-1.2769940066185368,-0.8829769492149353,0.43808412551879883,-0.16862384974956512,-0.7645710706710815,0.7702054381370544,-2.048919677734375
4.409238815307617,-0.19615888595581055,0.2777920663356781,0.020386144518852234,-0.4169543623478412,-1.3786485011096936,-1.3004354477691422,-0.8974997401237488,0.40497761964797974,-0.1746068149805069,-0.698573112487793,0.6190195083618164,-1.8964043855667114
4.4293107986450195,-0.17200148105621338,0.21192848682403564,0.1722583770751953,-0.38550059693955735,-1.3741276748101339,-1.3254398248317616,-0.9087481498718262,0.3760230541229248,-0.1810627281665802,-0.9699416756629944,0.8859923481941223,-1.66680908203125
4.449260950088501,-0.15657508373260498,0.18018212914466858,0.2508671283721924,-0.35944461670452305,-1.3626579164459722,-1.3523131210875958,-0.9158889651298523,0.35175439715385437,-0.19343304634094238,-0.8855487108230591,1.1720895767211914,-1.3451956510543823
4.469237804412842,-0.04043811559677124,0.22323399782180786,0.1649669110774994,-0.33984977511951225,-1.3484676931643986,-1.3735542038405018,-0.9195992946624756,0.3333454728126526,-0.20788992941379547,-0.6730658411979675,0.9402155876159668,-1.0565636157989502
4.489245891571045,0.0215146541595459,0.2206776738166809,0.14280354976654053,-0.3231237499037399,-1.335566475483334,-1.3885359592175879,-0.922134280204773,0.31753018498420715,-0.221004918217659,-0.29562628269195557,0.8399771451950073,-0.8913106918334961
4.509237766265869,0.08317863941192627,0.17230618000030518,0.21072018146514893,-0.30797236791203186,-1.323212443447661,-1.3947264789595177,-0.9238921999931335,0.3031270205974579,-0.2335321009159088,0.07353044301271439,0.5613453984260559,-0.7466269135475159
4.529246807098389,0.06727427244186401,0.14349263906478882,0.22905053198337555,-0.2930410494442434,-1.3127541500043904,-1.3924686439339515,-0.925672709941864,0.28886497020721436,-0.24430933594703674,0.5092851519584656,0.4780997037887573,-0.6557477116584778
4.549243927001953,0.038375020027160645,0.13972538709640503,0.2796253263950348,-0.2770275264718415,-1.2996356986396813,-1.3844944499395264,-0.9267264604568481,0.27349773049354553,-0.2576374411582947,0.6187893748283386,0.6138031482696533,-0.7305750846862793
4.5683159828186035,0.10393553972244263,0.09414073824882507,0.30359119176864624,-0.25777989739443263,-1.284743074733868,-1.3740417354417593,-0.9276660680770874,0.2549344301223755,-0.2728447914123535,0.9809169173240662,0.49039226770401,-0.8249300718307495
4.589241981506348,0.1973724365234375,0.047017380595207214,0.1502130925655365,-0.23396553790643915,-1.275819743323161,-1.3533039779271574,-0.9307403564453125,0.23183682560920715,-0.2827967405319214,1.638780117034912,-0.08757602423429489,-0.9089826345443726
4.609237909317017,0.11955350637435913,0.1431698203086853,0.06948205828666687,-0.20145154623522024,-1.2751618381244907,-1.322930379659025,-0.9372719526290894,0.20009173452854156,-0.28545498847961426,2.1127548217773438,-0.42047062516212463,-1.3724557161331177
4.629271984100342,-0.12725722789764404,0.16960817575454712,0.08475932478904724,-0.15935813729096598,-1.2746608404195505,-1.2883726161048685,-0.9443522691726685,0.15868450701236725,-0.28812846541404724,2.302367925643921,-0.11643669754266739,-1.6140235662460327
4.649281978607178,-0.2649933695793152,0.14494460821151733,0.11932635307312012,-0.11576588793875671,-1.2703043743314115,-1.2576699881345195,-0.9487975239753723,0.11550748348236084,-0.2940089702606201,1.7701334953308105,0.077696293592453,-1.6734545230865479
4.6692399978637695,-0.23397457599639893,0.124566450715065,0.1618345081806183,-0.07510419657390946,-1.2666713278654427,-1.2392816282315264,-0.9514198303222656,0.07503361254930496,-0.2986143231391907,1.2739713191986084,0.09773418307304382,-1.610991358757019
4.6892359256744385,-0.14935588836669922,0.033665888011455536,0.14369213581085205,-0.04204517507122378,-1.264717208653199,-1.2282206307115657,-0.9526796340942383,0.042032789438962936,-0.30105599761009216,0.7844836711883545,0.03167829290032387,-1.2322248220443726
4.709238052368164,-0.1818763017654419,0.11773265898227692,0.19156959652900696,-0.015843275842490036,-1.262464146193211,-1.2243534006650074,-0.952721357345581,0.015842612832784653,-0.30343177914619446,0.36350217461586,0.2303534895181656,-1.183624029159546
4.72927188873291,-0.2624850869178772,0.17166152596473694,0.25029587745666504,0.005691884235263252,-1.255225166405846,-1.2282010557906193,-0.9506039619445801,-0.005691853351891041,-0.31035447120666504,-0.0026860451325774193,0.4394785761833191,-0.9062231779098511
4.749251842498779,-0.21055150032043457,0.06107250601053238,0.240381121635437,0.017311341708808842,-1.246914845394666,-1.2334368550732822,-0.9478652477264404,-0.017310477793216705,-0.318200945854187,-0.11775598675012589,0.3691462576389313,-0.4156116843223572
4.769250869750977,-0.1645289659500122,0.1237403005361557,0.23980990052223206,0.0234771167237236,-1.2411585127524578,-1.235551064479007,-0.9458990097045898,-0.023474959656596184,-0.32361119985580444,0.28821879625320435,0.1851504147052765,-0.26220738887786865
4.789263963699341,-0.17626184225082397,0.1675475388765335,0.14475136995315552,0.030635377344652447,-1.2397972194033258,-1.2247223526161288,-0.9452744126319885,-0.030630584806203842,-0.3248355984687805,0.8855747580528259,-0.021547557786107063,-0.05935428664088249
4.809247016906738,-0.17424392700195312,0.13474079966545105,0.1323675513267517,0.03622289459496373,-1.2436631746831484,-1.2094441897274155,-0.9463462829589844,-0.03621497377753258,-0.3211187720298767,0.6444518566131592,-0.19397737085819244,0.04663535952568054
4.82923698425293,-0.24559491872787476,0.0004242807626724243,0.18968504667282104,0.03572561283276511,-1.2468058823658295,-1.2031927459965623,-0.9473677277565002,-0.03571801260113716,-0.31814879179000854,0.0037628263235092163,-0.06580787897109985,0.18815399706363678
4.849236965179443,-0.2770152688026428,-0.180062934756279,0.23708456754684448,0.0293988554177332,-1.2454677762213195,-1.2033004480025016,-0.9471363425254822,-0.029394621029496193,-0.3194820284843445,-0.14113135635852814,0.04620299115777016,0.343848317861557
4.86923885345459,-0.17379438877105713,-0.08149754256010056,0.1416681706905365,0.02562213826380825,-1.2487905244785003,-1.1992040357641247,-0.9482913017272949,-0.02561933547258377,-0.3163660764694214,0.5109013915061951,-0.33159390091896057,0.12029223144054413
4.889272928237915,-0.061598241329193115,0.02951180562376976,0.11895310878753662,0.031455016523494514,-1.2595893557728497,-1.1824989200804688,-0.9514937996864319,-0.031449828296899796,-0.3060563802719116,1.2347055673599243,-0.6896416544914246,-0.1264226883649826
4.909237861633301,-0.05547600984573364,-0.08749797940254211,0.15279269218444824,0.042397702057678455,-1.2756747294217456,-1.1602012891159477,-0.9559070467948914,-0.042385000735521317,-0.29059484601020813,1.1581655740737915,-0.7712552547454834,-0.21482445299625397
4.929235935211182,-0.15419721603393555,-0.20502141118049622,0.24204647541046143,0.05015723431397141,-1.2895833054514725,-1.1407475932176028,-0.9595112800598145,-0.050136204808950424,-0.2771722078323364,0.945618212223053,-0.5061779022216797,0.056962743401527405
4.949213981628418,-0.22926592826843262,-0.2100234478712082,0.28944772481918335,0.049610119852195156,-1.2993021248495618,-1.121363660171283,-0.9621860980987549,-0.049589771777391434,-0.26784130930900574,0.814177393913269,-0.29825559258461,0.4954373836517334
4.969273090362549,-0.2875353693962097,-0.11667953431606293,0.31497451663017273,0.04222296124019593,-1.3048153820209951,-1.105879669975797,-0.9639752507209778,-0.0422104150056839,-0.26262158155441284,0.6418281197547913,-0.23532108962535858,0.600659966468811
4.9892377853393555,-0.24358415603637695,-0.06968609243631363,0.30220189690589905,0.03380562304100319,-1.3135016612378199,-1.0857585236240994,-0.9665294885635376,-0.0337991826236248,-0.25431984663009644,1.1365958452224731,-0.5700121521949768,0.7735025882720947
5.009237766265869,-0.24694466590881348,-0.12884654104709625,0.4363188147544861,0.02392691493393497,-1.3257025031973035,-1.0549346279632152,-0.9698370099067688,-0.023924631997942924,-0.24257792532444,1.5828496217727661,-0.46796154975891113,0.9286938309669495
5.029252052307129,-0.3537008762359619,-0.21837587654590607,0.45531654357910156,0.012841064572086093,-1.333280521856014,-1.016955716705749,-0.9718453288078308,-0.012840711511671543,-0.23526950180530548,1.90603768825531,-0.31508782505989075,1.0347386598587036
5.04927396774292,-0.3467915654182434,0.07346667349338531,0.23955565690994263,0.004161437940364595,-1.3428815387782296,-0.967435946412738,-0.9741313457489014,-0.004161425866186619,-0.22594480216503143,2.702415704727173,-0.5224581360816956,0.9115490913391113
5.068814754486084,-0.3641762137413025,0.25439637899398804,0.1742074191570282,0.00021564808431632682,-1.3529698228707054,-0.903519443104556,-0.9763695597648621,-0.0002156480768462643,-0.2161080241203308,3.448183059692383,-0.4315190017223358,0.9795459508895874
5.089250087738037,-0.33785104751586914,0.03498869761824608,0.21523582935333252,-0.008895524138050824,-1.361301749380619,-0.8335082187599369,-0.9780974984169006,0.008895406499505043,-0.20795732736587524,3.015697956085205,-0.48119255900382996,1.347196102142334
5.109262943267822,-0.324013888835907,0.014130853116512299,0.3306505084037781,-0.026338341462946835,-1.3711852013031982,-0.7677934554463555,-0.9798039197921753,0.026335297152400017,-0.198219433426857,3.166897773742676,-0.5947176814079285,1.761135458946228
5.129245758056641,-0.42918580770492554,0.16159985959529877,0.2621400058269501,-0.050335298850865795,-1.3811818065853099,-0.6997617796789144,-0.9808330535888672,0.0503140464425087,-0.1882416009902954,3.1168880462646484,-0.578511655330658,1.8256487846374512
5.149231910705566,-0.5511733293533325,0.015908747911453247,0.2636606693267822,-0.07773625319433498,-1.3862237698062099,-0.6338645470541626,-0.9800462126731873,0.07765798270702362,-0.18297214806079865,2.7223961353302,-0.3764994144439697,2.0949103832244873
5.169235944747925,-0.5521531701087952,-0.07991069555282593,0.30317217111587524,-0.11331020705273544,-1.3895467702584774,-0.5823344265088952,-0.9773115515708923,0.11306789517402649,-0.1791028529405594,1.6205049753189087,-0.35123562812805176,2.2796618938446045
5.18923807144165,-0.6166308522224426,-0.18733766674995422,0.18310250341892242,-0.15682105853720804,-1.393011524323616,-0.5524099556278304,-0.9721600413322449,0.15617907047271729,-0.17467956244945526,0.45623543858528137,-0.3162370026111603,2.529331922531128
5.20927095413208,-0.6167966723442078,-0.16690821945667267,0.16162890195846558,-0.20645757891329503,-1.3958046481848578,-0.5450826652746151,-0.9638155698776245,0.20499400794506073,-0.1704026311635971,-0.4323931634426117,-0.11651019752025604,2.4776864051818848
5.229235887527466,-0.5770999193191528,-0.12040206789970398,-0.018489599227905273,-0.2581945738514587,-1.398934590009883,-0.5504177410796662,-0.9526090025901794,0.25533539056777954,-0.16534818708896637,-1.0572398900985718,-0.034254830330610275,2.533859968185425
5.2492358684539795,-0.5468173623085022,-0.09366333484649658,-0.02992890775203705,-0.3117787948608008,-1.403323985754192,-0.5703626164801605,-0.9384731650352478,0.30675214529037476,-0.1586543321609497,-1.6349377632141113,0.18521086871623993,2.467320203781128
5.269272804260254,-0.5363913178443909,-0.0510612428188324,-0.11898230016231537,-0.3673583670706393,-1.4075340724534202,-0.5999034724526974,-0.9208688139915466,0.35915130376815796,-0.15169328451156616,-2.0369327068328857,0.3954441547393799,2.4962332248687744
5.289238929748535,-0.4890035390853882,0.023525118827819824,-0.1666892021894455,-0.42057257233195033,-1.4117333139607513,-0.6338809654264885,-0.9013316035270691,0.40828320384025574,-0.14459000527858734,-1.9134678840637207,0.5115295648574829,2.289506673812866
5.309246063232422,-0.39601796865463257,0.06148684024810791,-0.15015415847301483,-0.47056540304317035,-1.4153339465030272,-0.6680548879084167,-0.8805628418922424,0.45339030027389526,-0.1380080133676529,-1.9568471908569336,0.5447553396224976,2.1346611976623535
5.329239845275879,-0.33876579999923706,0.04892164468765259,-0.19062316417694092,-0.5169314186296535,-1.4201329486010383,-0.7021592089630078,-0.859491765499115,0.49421483278274536,-0.1304827183485031,-1.6930253505706787,0.5857939720153809,2.062352180480957
5.3492350578308105,-0.3061232566833496,0.08524340391159058,-0.2765890955924988,-0.559561763526916,-1.4265204608777755,-0.7341081315506438,-0.8386827707290649,0.5308148264884949,-0.12184830009937286,-1.589546799659729,0.48186197876930237,1.7563543319702148
5.369266986846924,-0.2708550691604614,0.059107422828674316,-0.23325181007385254,-0.5978369928760864,-1.4313430018590396,-0.7628496894569814,-0.8185310363769531,0.5628559589385986,-0.1148926243185997,-1.3909388780593872,0.5519095659255981,1.7041500806808472
5.389235973358154,-0.21439826488494873,0.01442486047744751,-0.2558479905128479,-0.6336959796061432,-1.4371953922523035,-0.7897375576070976,-0.7986634969711304,0.5921272039413452,-0.10734160244464874,-1.306791067123413,0.4747602939605713,1.577439546585083
5.409230947494507,-0.1653655767440796,-0.002759397029876709,-0.23617418110370636,-0.6675669350604091,-1.443751655626328,-0.8166974132475786,-0.7790011167526245,0.6190770864486694,-0.09950385987758636,-1.2301313877105713,0.47039440274238586,1.4747390747070312
5.429318904876709,-0.1162453293800354,0.020550191402435303,-0.25195544958114624,-0.6972851545575957,-1.4502829506450396,-0.8402169618714017,-0.7610284090042114,0.6421388983726501,-0.09216069430112839,-0.9621487855911255,0.4228329062461853,1.2656985521316528
5.4493727684021,-0.07066607475280762,0.008230507373809814,-0.23910003900527954,-0.7232757633772727,-1.4538289966982338,-0.8587075504512697,-0.7445195913314819,0.6618438959121704,-0.08748380094766617,-0.7366210222244263,0.3662278652191162,1.1432644128799438
5.469270944595337,-0.015012085437774658,-0.05824857950210571,-0.21954625844955444,-0.7465747733929909,-1.4552948888381163,-0.8732128877911212,-0.7291285991668701,0.6791285872459412,-0.08459191024303436,-0.6816949248313904,0.4606308043003082,1.0624620914459229
5.4893059730529785,0.05174463987350464,-0.11006045341491699,-0.2555077075958252,-0.768810295876441,-1.4584223906510612,-0.8886091909685057,-0.7142050266265869,0.6952806711196899,-0.08059757202863693,-0.6154147386550903,0.32414209842681885,0.9952085018157959
5.509291887283325,0.040010929107666016,-0.16280019283294678,-0.20971250534057617,-0.7887986527249268,-1.4604395348595969,-0.9033691785641301,-0.7004114389419556,0.7095072269439697,-0.07761047780513763,-0.689254105091095,0.5179166197776794,0.8564764261245728
5.529181003570557,0.0070326924324035645,-0.18872708082199097,-0.20533138513565063,-0.8046489426630387,-1.4606404187696265,-0.9192953043817045,-0.6891617178916931,0.7205872535705566,-0.07622379064559937,-0.5139521956443787,0.5757776498794556,0.646586000919342
5.549245834350586,0.1123964786529541,-0.2554934024810791,-0.1827213168144226,-0.816464597064427,-1.4564369072671315,-0.9293901693518285,-0.6803286671638489,0.7287293672561646,-0.07814294844865799,-0.3251793682575226,0.6093697547912598,0.4577878415584564
5.569190979003906,0.20539569854736328,-0.276889443397522,-0.15199494361877441,-0.8247278230349487,-1.4488783020033078,-0.9349766591826804,-0.6737185120582581,0.7343630790710449,-0.08254783600568771,-0.28057774901390076,0.4923878610134125,0.2621323764324188
5.589176893234253,0.20311349630355835,-0.26192063093185425,-0.12981627881526947,-0.825559973744532,-1.444017131160674,-0.9428155203717973,-0.6727027893066406,0.7349276542663574,-0.08574459701776505,-0.23214571177959442,0.5698531866073608,-0.11673705279827118
5.609173774719238,0.17023515701293945,-0.2760211229324341,-0.10825854539871216,-0.8286273805019478,-1.436058661688456,-0.9483055812724746,-0.6697623133659363,0.7370043396949768,-0.09079229831695557,-0.17138400673866272,0.6834725141525269,0.3227015733718872
5.629173755645752,0.13553059101104736,-0.2613216042518616,-0.17103183269500732,-0.8328054982101364,-1.4226972809726977,-0.9491552579732552,-0.6654379367828369,0.7398218512535095,-0.09927761554718018,0.03654990717768669,0.7098736763000488,0.07092560827732086
5.6491968631744385,0.18639129400253296,-0.20996630191802979,-0.1362570971250534,-0.8329501555785771,-1.4051510041318769,-0.9436407530818472,-0.6634879112243652,0.739919126033783,-0.1109200194478035,0.3727114498615265,0.6143717765808105,0.07570559531450272
5.669236898422241,0.1333954930305481,-0.13473045825958252,-0.10271024703979492,-0.8340702031205757,-1.3803326922441472,-0.9302268627695048,-0.6597170829772949,0.7406721115112305,-0.127193883061409,0.3748893737792969,0.8930742144584656,0.15266533195972443
5.68923807144165,0.08411258459091187,-0.12011361122131348,-0.08271346986293793,-0.8334814057996374,-1.355350370490228,-0.9215098838605177,-0.6567597389221191,0.7402763962745667,-0.14372693002223969,0.3079221844673157,0.9218995571136475,-0.07701745629310608
5.709187030792236,0.16792011260986328,-0.1651415228843689,-0.0554693341255188,-0.8308966894746521,-1.3310804746513718,-0.9124192405596292,-0.6549350619316101,0.7385362386703491,-0.160076305270195,0.38719943165779114,0.8198001384735107,-0.0040990994311869144
5.729212760925293,0.17806226015090942,-0.20599365234375,-0.023288413882255554,-0.8289135586614107,-1.305629773520436,-0.8989706852298514,-0.6520613431930542,0.7371976971626282,-0.17707468569278717,0.5427395701408386,0.7716369032859802,0.0310082845389843
5.749238967895508,0.15174061059951782,-0.139859139919281,-0.015118539333343506,-0.8252806536054619,-1.2751393397298008,-0.8774776997059142,-0.6489178538322449,0.7347381711006165,-0.1976500153541565,0.9875007271766663,0.7051512598991394,0.05905267223715782
5.769268989562988,0.14517545700073242,-0.09049743413925171,-0.04147607088088989,-0.8195630494223255,-1.239613128891853,-0.8458930971889086,-0.645450234413147,0.7308476567268372,-0.2219364047050476,1.206108808517456,0.5703476071357727,0.04154673218727112
5.788506031036377,0.12573307752609253,-0.13164246082305908,0.02096879482269287,-0.8135347961688825,-1.2039231339738259,-0.8139438577982676,-0.6412209272384644,0.726719856262207,-0.24640215933322906,0.9914854168891907,0.6504107713699341,0.15161828696727753
5.809351921081543,0.10400277376174927,-0.1831364631652832,-0.00031071901321411133,-0.8096048513541217,-1.1723162175022441,-0.7879801674981275,-0.6357411742210388,0.7240146398544312,-0.2676488161087036,0.9324911832809448,0.6511924266815186,0.1651371270418167
5.829319953918457,0.15519851446151733,-0.16531705856323242,-0.004250913858413696,-0.8039406489857815,-1.1393750330811174,-0.7591936443939302,-0.6302962899208069,0.7200959920883179,-0.29015210270881653,1.1981711387634277,0.5324921607971191,0.06744995713233948
5.848465919494629,0.19733911752700806,-0.15272700786590576,0.019399166107177734,-0.7905941440699603,-1.103434616466771,-0.7217032495303126,-0.6279881000518799,0.7107713222503662,-0.31691500544548035,1.715445637702942,0.4098002016544342,-0.09759653359651566
5.869372844696045,0.20515459775924683,-0.1831640601158142,0.07280528545379639,-0.7749624462425854,-1.0659544795902456,-0.6825527117263865,-0.6253207921981812,0.6996892690658569,-0.3455560803413391,1.2945549488067627,0.5461639761924744,0.12181263417005539
5.889400959014893,0.15357720851898193,-0.2775843143463135,-0.05161094665527344,-0.7704218057501807,-1.0351553894844323,-0.6524219997225986,-0.6171088814735413,0.6964380145072937,-0.36626625061035156,0.9706183671951294,0.4817476272583008,0.5125179886817932
5.9093217849731445,0.1624857783317566,-0.10892808437347412,-0.10719475150108337,-0.7656262230815882,-1.0040785374757657,-0.6174078839115194,-0.6082408428192139,0.6929886341094971,-0.38705259561538696,1.9350008964538574,-0.2276933491230011,0.16585226356983185
5.9293670654296875,0.07040780782699585,-0.1355268359184265,0.12633132934570312,-0.7456503220556084,-0.9745142289734495,-0.5750708777858815,-0.6078682541847229,0.6784496903419495,-0.4125556945800781,1.4593702554702759,0.21479183435440063,0.1816735416650772
5.9494500160217285,0.168806791305542,-0.21577239036560059,0.10313761234283447,-0.7295472533490879,-0.9477893128285346,-0.5342504555939962,-0.6054219007492065,0.6665322184562683,-0.4349704384803772,1.710862398147583,-0.14026355743408203,0.2668255865573883
5.969244956970215,0.3340798020362854,-0.09104251861572266,0.24962103366851807,-0.7197183589733508,-0.9277097364593697,-0.49339866228482,-0.6017801761627197,0.6591728925704956,-0.4509454667568207,1.3129572868347168,-0.6949502825737,0.67152339220047
5.99790096282959,0.21335679292678833,0.19482356309890747,-0.05180022120475769,-0.721433845036414,-0.9248232771929836,-0.4279961494669557,-0.5995721220970154,0.660461962223053,-0.45199915766716003,0.7070998549461365,-1.215150237083435,0.8068448901176453
6.017427921295166,0.06390392780303955,0.31644994020462036,-0.1281699538230896,-0.721659387269399,-0.9272669963068862,-0.40013435451534396,-0.6005557179450989,0.6606312990188599,-0.4504432678222656,1.0622855424880981,-0.8233828544616699,0.48734694719314575
6.039148807525635,0.05013835430145264,0.28691786527633667,-0.16755646467208862,-0.7136267070954451,-0.9191674116641274,-0.3666008239789083,-0.6010876297950745,0.6545798182487488,-0.4584963321685791,1.3716715574264526,-0.6287170648574829,0.4160125255584717
6.058201789855957,0.2166110873222351,0.14512991905212402,-0.04114812612533569,-0.7047038098425589,-0.9088397187934373,-0.3310102317204977,-0.6009038686752319,0.6478081941604614,-0.46825122833251953,1.2879918813705444,-0.6923152208328247,0.5406252145767212
6.077431917190552,0.3341572880744934,0.07343423366546631,0.025229990482330322,-0.700318385823838,-0.9016341397017507,-0.29654370399669083,-0.5997366309165955,0.6444611549377441,-0.47432655096054077,1.037549376487732,-0.8215569853782654,0.7336724996566772
6.096735954284668,0.36213767528533936,0.09520977735519409,0.035835325717926025,-0.7010353729218533,-0.8973799551315672,-0.26464064116724023,-0.5973520278930664,0.6450092196464539,-0.47658538818359375,0.8615317344665527,-0.8188182711601257,0.8157699704170227
6.1163458824157715,0.3717464804649353,0.1381702423095703,0.031811654567718506,-0.7035848814311659,-0.8945962881963867,-0.23434532060419783,-0.5947385430335999,0.6469554305076599,-0.4772156774997711,0.8638899326324463,-0.8703032732009888,0.8411492705345154
6.137561798095703,0.3961024880409241,0.1672421097755432,0.06135493516921997,-0.7052619120338532,-0.8898936250543326,-0.19963170459559923,-0.5916439890861511,0.6482332944869995,-0.4793236255645752,1.0935207605361938,-0.9171420931816101,0.9634068608283997
6.1562700271606445,0.4133249521255493,0.16546255350112915,0.023301303386688232,-0.7062768264760343,-0.8830788539327594,-0.15894713381750553,-0.5878551006317139,0.6490057706832886,-0.48292648792266846,1.276983618736267,-1.0751044750213623,1.041264533996582
6.177206993103027,0.4026338458061218,0.16142511367797852,0.0378800630569458,-0.7039445717735034,-0.875476489895998,-0.11330749060580218,-0.5853274464607239,0.6472296714782715,-0.488349974155426,1.5168036222457886,-1.0957896709442139,0.997471809387207
6.196088790893555,0.3507446050643921,0.10568058490753174,0.026576638221740723,-0.6997338914863177,-0.8664523614375051,-0.06570991620832485,-0.5829682350158691,0.6440141201019287,-0.49537229537963867,1.522961139678955,-1.1017611026763916,1.0200912952423096
6.21699595451355,0.33999693393707275,0.05595064163208008,0.01808685064315796,-0.6965886789505189,-0.8594663433087663,-0.019069195162161105,-0.5810248255729675,0.6416048407554626,-0.5007526874542236,1.3565843105316162,-1.2201669216156006,1.0685821771621704
6.236931800842285,0.305189311504364,0.07351648807525635,-0.01721668243408203,-0.6985160008060407,-0.8587739831045612,0.021993859240466564,-0.5797408819198608,0.6430819630622864,-0.5003460645675659,0.941938579082489,-1.3116811513900757,1.112727403640747
6.256913900375366,0.22300976514816284,0.12719660997390747,-0.06283026933670044,-0.7039685876060685,-0.8612226144921054,0.056591752015478544,-0.5782955288887024,0.6472479701042175,-0.4966331124305725,0.7536778450012207,-1.1674777269363403,1.060012936592102
6.276964902877808,0.15661799907684326,0.18194341659545898,-0.17155355215072632,-0.7097098015614955,-0.8608005990749115,0.09240906192652575,-0.5752583146095276,0.6516136527061462,-0.494446724653244,1.0373896360397339,-1.1072440147399902,1.1302263736724854
6.295928955078125,0.14190298318862915,0.2697065472602844,-0.17283302545547485,-0.7091740096089217,-0.8535601813009054,0.1354655857429996,-0.5719262957572937,0.6512071490287781,-0.498828262090683,1.3528623580932617,-1.0181409120559692,0.9811765551567078
6.315838813781738,0.08981621265411377,0.24192774295806885,-0.11026155948638916,-0.7073759626424527,-0.8460689788141493,0.17786808217327904,-0.5690491199493408,0.6498415470123291,-0.5038740038871765,1.2146177291870117,-1.0227187871932983,1.0406094789505005
6.337162017822266,0.05356866121292114,0.18437182903289795,-0.12336432933807373,-0.7082393513761639,-0.8391867450065142,0.22019768124432462,-0.5651502013206482,0.650497555732727,-0.5074033737182617,1.1329503059387207,-1.0475786924362183,1.1689623594284058
6.357039928436279,0.018348217010498047,0.15728598833084106,-0.14473432302474976,-0.7120848381338216,-0.8332039575004507,0.2622372154348594,-0.5602489113807678,0.6534134149551392,-0.5090894103050232,1.0424004793167114,-1.0992969274520874,1.2277921438217163
6.376734972000122,-0.013238489627838135,0.12451928853988647,-0.07368344068527222,-0.7127784857396897,-0.8230911063213185,0.30760548406215005,-0.5547395944595337,0.653938353061676,-0.5144206881523132,1.5177209377288818,-0.8358471393585205,1.1241298913955688
6.396611928939819,-0.05805915594100952,0.09947556257247925,-0.036956965923309326,-0.7067688770132554,-0.802439921543044,0.3600437582836847,-0.5468146800994873,0.6493800282478333,-0.5284878611564636,1.6988837718963623,-0.5899845957756042,1.1397727727890015
6.416506767272949,-0.05030781030654907,0.030145883560180664,0.026681602001190186,-0.699419679517664,-0.7800039881676701,0.4110411877780294,-0.5381627678871155,0.6437737345695496,-0.5440001487731934,1.5627175569534302,-0.4762634038925171,1.0711435079574585
6.436673879623413,-0.017883360385894775,-0.026552557945251465,0.06178468465805054,-0.6936269415032007,-0.7589153604741641,0.45855209053857154,-0.529129147529602,0.639330267906189,-0.5579240918159485,1.3877259492874146,-0.4292716681957245,1.1464653015136719
6.456178903579712,-0.03471320867538452,0.01112598180770874,0.08950817584991455,-0.6904105615284039,-0.7371128096795365,0.5037199700148148,-0.5182196497917175,0.6368537545204163,-0.5708464980125427,1.2191728353500366,-0.31279289722442627,1.1638182401657104
6.476115942001343,-0.07115864753723145,0.05267953872680664,0.10244280099868774,-0.6883292005742444,-0.7155006199125375,0.5457286687362701,-0.5066307783126831,0.6352477073669434,-0.5829113125801086,1.0755658149719238,-0.22598636150360107,1.0971534252166748
6.497082948684692,-0.06341803073883057,0.025426924228668213,0.09278976917266846,-0.6862176047558628,-0.6980635149465778,0.5827462169306458,-0.49725106358528137,0.6336154937744141,-0.5926828384399414,0.9968094825744629,-0.3621533215045929,0.9390194416046143
6.515607833862305,-0.047172337770462036,0.008481025695800781,0.12540996074676514,-0.6819758643310777,-0.6834961205965422,0.618516315456188,-0.4902575612068176,0.6303281784057617,-0.6019417643547058,1.1306588649749756,-0.4388889670372009,0.9361013770103455
6.535934925079346,-0.1042686402797699,0.028773069381713867,0.1034235954284668,-0.6739461886487679,-0.6678466300060197,0.6562289970574362,-0.48389676213264465,0.6240742802619934,-0.6134942770004272,1.3004239797592163,-0.3390129506587982,0.8219765424728394
6.554894924163818,-0.19815784692764282,0.028552591800689697,0.12638157606124878,-0.6645578416486317,-0.6500588848494556,0.6920875740199136,-0.4764333665370941,0.6167111396789551,-0.6266408562660217,1.1022534370422363,-0.16880697011947632,0.8101680278778076
6.575469017028809,-0.23044416308403015,0.04335808753967285,0.07691788673400879,-0.656513685093031,-0.6342386574874036,0.7232321237298777,-0.4693850874900818,0.6103589534759521,-0.6380749344825745,1.0276110172271729,-0.16973534226417542,0.6906276345252991
6.595089912414551,-0.1971663236618042,0.05759149789810181,0.07579439878463745,-0.6487773954628375,-0.6212831596934479,0.7511853329061516,-0.46381402015686035,0.6042126417160034,-0.6479225158691406,0.9127131104469299,-0.21799279749393463,0.6472171545028687
6.614800930023193,-0.19828876852989197,0.007043600082397461,0.11067765951156616,-0.6418769454711226,-0.6095040063887981,0.7765096800244002,-0.45852595567703247,0.5986998677253723,-0.6567438244819641,0.8393226861953735,-0.06499889492988586,0.5885838866233826
6.634816884994507,-0.112150639295578,0.006281793117523193,0.12784266471862793,-0.6347126797548771,-0.5979029052635868,0.8003233756291428,-0.45327916741371155,0.5929461717605591,-0.6655470132827759,0.8967899680137634,-0.3486891984939575,0.4859304130077362
6.655666828155518,-0.1565193235874176,-0.0770224928855896,0.1796199083328247,-0.6234920792062775,-0.589076164544879,0.8225872072940976,-0.45105525851249695,0.5838737487792969,-0.6750116348266602,0.9205098748207092,-0.04068227857351303,0.4719139039516449
6.67471981048584,-0.16058585047721863,-0.14205843210220337,0.2134150266647339,-0.6175690363037482,-0.5765921108578426,0.8442592749014712,-0.4444710314273834,0.5790549516677856,-0.6834771037101746,0.6150660514831543,-0.03091815672814846,0.5796113014221191
6.695666790008545,-0.13422459363937378,-0.1767129898071289,0.18043357133865356,-0.6136650817862581,-0.5663196982687271,0.8619500867995373,-0.43863624334335327,0.5758677124977112,-0.6899091601371765,0.4432882070541382,0.01211479865014553,0.4499204754829407
6.71553897857666,-0.08856159448623657,-0.14839065074920654,0.18503707647323608,-0.6134759622069889,-0.5588789939560412,0.8745081258915499,-0.4335484802722931,0.575713038444519,-0.693246066570282,0.12971018254756927,-0.005014387425035238,0.3797202706336975
6.735343933105469,-0.06026798486709595,-0.17044967412948608,0.15542960166931152,-0.6169824305456888,-0.554946824846315,0.8820896373946212,-0.429752916097641,0.5785765647888184,-0.6932255625724792,-0.10952498763799667,-0.04698633775115013,0.3498311936855316
6.755411863327026,-0.025576651096343994,-0.1267213225364685,0.13291430473327637,-0.6227041337648364,-0.5536059239065148,0.8866946615974175,-0.42707544565200806,0.5832338929176331,-0.6909738183021545,-0.18672993779182434,-0.09626059234142303,0.27087274193763733
6.77534294128418,0.01832723617553711,-0.10583484172821045,0.113919198513031,-0.6310164471720798,-0.5565476952661169,0.8872462430758579,-0.42653051018714905,0.5899657607078552,-0.6855743527412415,-0.5354140996932983,-0.25750789046287537,0.18770620226860046
6.795371055603027,0.0578252375125885,-0.1014752984046936,0.13511091470718384,-0.6450219008298368,-0.5672282275731664,0.8803079710295952,-0.42934635281562805,0.6012159585952759,-0.6739444136619568,-0.9401475191116333,-0.36492615938186646,0.10424568504095078
6.8143630027771,0.058320969343185425,-0.09118324518203735,0.13347959518432617,-0.6643835224730802,-0.5826001425943572,0.8670593504288544,-0.43316850066185,0.6165738701820374,-0.6574205160140991,-1.252243995666504,-0.35273125767707825,0.03594786301255226
6.835087776184082,0.04417482018470764,-0.0671684741973877,0.08953201770782471,-0.685652308663386,-0.6002725272965673,0.850294739170001,-0.4372108578681946,0.6331780552864075,-0.6386957168579102,-1.1457117795944214,-0.33499523997306824,0.0892162024974823
6.855062007904053,0.008288204669952393,-0.08397233486175537,-0.036969661712646484,-0.7026716778437144,-0.6133728094547489,0.839048171409635,-0.43927282094955444,0.6462587714195251,-0.6240103840827942,-0.8137733340263367,-0.28090375661849976,0.18798404932022095
6.874983787536621,-0.013124734163284302,-0.040517330169677734,-0.06202423572540283,-0.7193489631334151,-0.6239615218559946,0.8289260678546967,-0.43949684500694275,0.6588950753211975,-0.6104915142059326,-1.0401767492294312,-0.08478280901908875,0.10642977058887482
6.894067764282227,-0.006660133600234985,-0.12168174982070923,-0.09160572290420532,-0.7382327822174934,-0.6345047245316315,0.8140525435097771,-0.4384540915489197,0.6729817986488342,-0.5956957340240479,-1.1517480611801147,-0.03283438831567764,0.19475306570529938
6.914906978607178,0.09680432081222534,-0.1485854983329773,-0.10135787725448608,-0.7619077981910344,-0.6440599829773328,0.8019498395616437,-0.43443563580513,0.6903030276298523,-0.5785735845565796,-1.226515531539917,-0.1221991553902626,0.45444899797439575
6.935118913650513,0.11373177170753479,-0.08916395902633667,-0.15537405014038086,-0.7844168431831733,-0.6540170600857732,0.7933115929602061,-0.43061116337776184,0.7064125537872314,-0.5617431402206421,-0.864688515663147,-0.26872512698173523,0.4195290207862854
6.956681966781616,0.07530713081359863,-0.002740919589996338,-0.24434006214141846,-0.7979649836088498,-0.6605037618286391,0.793846232118052,-0.4283345937728882,0.7159367799758911,-0.5513293147087097,-0.1878124177455902,-0.39665913581848145,0.427176833152771
6.975020885467529,0.03202751278877258,0.07090115547180176,-0.25499606132507324,-0.8011785236377047,-0.6609002393751074,0.8043528935680869,-0.42713871598243713,0.7181766629219055,-0.5493403077125549,0.3157610297203064,-0.41492629051208496,0.32384732365608215
6.995420932769775,-0.014783531427383423,0.08924412727355957,-0.23418229818344116,-0.8015485317656524,-0.6647930221895383,0.8121025780086893,-0.42910999059677124,0.7184340953826904,-0.5474642515182495,-0.19837316870689392,-0.5102704167366028,0.10004928708076477
7.014750003814697,-0.0744485855102539,-0.014900803565979004,-0.2814393639564514,-0.8114984807282781,-0.6832095807583078,0.7989487670614625,-0.43458473682403564,0.7253195643424988,-0.5338985919952393,-1.1721004247665405,-0.4144386649131775,-0.1447732150554657
7.034855842590332,-0.09645575284957886,0.027496635913848877,-0.29463887214660645,-0.8323977719206993,-0.7087038422681574,0.7718543593044399,-0.4380902647972107,0.7395474314689636,-0.511025071144104,-1.4106652736663818,-0.02019529417157173,0.14485305547714233
7.0545430183410645,-0.14499443769454956,0.2341153621673584,-0.37062710523605347,-0.849493850986997,-0.7103007624095097,0.7604597736139551,-0.4305976927280426,0.7509462833404541,-0.5006648302078247,-0.24404817819595337,0.6662858128547668,0.3439941108226776
7.074504852294922,-0.08288794755935669,0.3221755027770996,-0.26712584495544434,-0.848060003893977,-0.6798778090904656,0.7785267708970716,-0.41584569215774536,0.7499986290931702,-0.5143681168556213,0.9091517329216003,0.8531389832496643,0.4806996285915375
7.095175743103027,0.07844948768615723,0.1537037491798401,-0.04661059379577637,-0.8364622167301149,-0.6430781879710691,0.8107573088843568,-0.4018291234970093,0.7422771453857422,-0.5362445116043091,1.2225242853164673,0.35102537274360657,0.525363564491272
7.114099025726318,0.18225136399269104,-0.03167968988418579,0.059163570404052734,-0.8255362638692942,-0.6156788707920622,0.844162623103007,-0.3916478455066681,0.7349115610122681,-0.5536397695541382,0.8332422971725464,-0.06281466037034988,0.6260289549827576
7.134276866912842,0.20106369256973267,-0.11615532636642456,0.13677865266799927,-0.8226426311241123,-0.6036546253330798,0.8663176680991908,-0.38616815209388733,0.7329461574554443,-0.5600572824478149,0.35175690054893494,-0.3375719487667084,0.39784419536590576
7.154085874557495,0.1927846372127533,-0.12724322080612183,0.20558881759643555,-0.8228144088870426,-0.6039573779505591,0.8793969732846773,-0.38626620173454285,0.7330629825592041,-0.559836745262146,0.1575421541929245,-0.6456429362297058,0.4369519352912903
7.174823760986328,0.1726149022579193,-0.046284615993499756,0.25013935565948486,-0.8268455350287038,-0.6051717837501632,0.8963315120056166,-0.38526150584220886,0.7357988357543945,-0.5569324493408203,0.20328141748905182,-0.7422440648078918,0.7043423652648926
7.194406986236572,0.12844809889793396,0.013711512088775635,0.24202781915664673,-0.8298492468363242,-0.6051443646095219,0.918924274444884,-0.3839871287345886,0.7378296256065369,-0.5551227331161499,0.4323060214519501,-0.9333406686782837,0.697994589805603
7.214099884033203,0.1003844141960144,0.09062206745147705,0.21551090478897095,-0.8280109340182211,-0.6068816490465507,0.9445641734241453,-0.38572394847869873,0.7365875244140625,-0.5555681586265564,0.7080976963043213,-1.1546440124511719,0.6264892816543579
7.233839988708496,0.08148884773254395,0.15929359197616577,0.1779506802558899,-0.821055574412485,-0.611517400705083,0.9730428436824891,-0.391227126121521,0.7318655848503113,-0.5579553842544556,0.9475553631782532,-1.367209553718567,0.565642774105072
7.253872871398926,0.037379294633865356,0.2137623429298401,0.19245225191116333,-0.8109296926873528,-0.6170670992656891,1.002676174940092,-0.3985854387283325,0.7249279022216797,-0.5617910623550415,1.0211533308029175,-1.319976806640625,0.5053586363792419
7.27386474609375,0.004889726638793945,0.21687692403793335,0.21842217445373535,-0.8010762197936294,-0.6218646218577288,1.0300448148851433,-0.4054177701473236,0.7181054949760437,-0.5656510591506958,0.85642009973526,-1.1393884420394897,0.49501267075538635
7.293001890182495,0.03638136386871338,0.13994485139846802,0.2233811616897583,-0.7972865258718381,-0.6265245563959921,1.0539265929959392,-0.40964195132255554,0.7154629826545715,-0.5659561157226562,0.3774147927761078,-1.0651214122772217,0.6337258815765381
7.3138039112091064,0.10760679841041565,0.0715826153755188,0.1996050477027893,-0.8027880659995248,-0.6362245771940229,1.0712009875975255,-0.4127674102783203,0.7192957401275635,-0.5587815642356873,-0.04407341778278351,-1.1880106925964355,0.6436808705329895
7.333686828613281,0.15851429104804993,0.040454745292663574,0.20580756664276123,-0.8110823297762588,-0.6516420790425608,1.0846764570503284,-0.4177001714706421,0.7250329852104187,-0.5475890040397644,0.01368713565170765,-1.3133621215820312,0.6177843809127808
7.352809906005859,0.17212209105491638,0.036293745040893555,0.1555345058441162,-0.8170764416116711,-0.6661942717593796,1.101825823003914,-0.42293083667755127,0.7291482090950012,-0.5380263328552246,0.23500056564807892,-1.3852182626724243,0.6708881855010986
7.37415075302124,0.13544943928718567,0.032990455627441406,0.12639611959457397,-0.8194538016965782,-0.678333744583823,1.1230509275272442,-0.4283420443534851,0.7307730913162231,-0.5315015912055969,0.479930579662323,-1.3982816934585571,0.5945125818252563
7.39377498626709,0.10808020830154419,0.053279340267181396,0.07645964622497559,-0.8166492430552145,-0.6900433011922971,1.1460501972675163,-0.43583908677101135,0.7288557887077332,-0.5280280709266663,0.7382824420928955,-1.461816430091858,0.4481222331523895
7.413347959518433,0.08153194189071655,0.07386797666549683,0.04015225172042847,-0.8094493350064157,-0.7017999880251579,1.170717414968061,-0.44539308547973633,0.7239074110984802,-0.5268616676330566,0.8297520279884338,-1.497251272201538,0.4421032965183258
7.433456897735596,0.028062790632247925,0.04519021511077881,0.021581709384918213,-0.8022095182397462,-0.7150065303028368,1.1938666334214758,-0.4557362198829651,0.7188937067985535,-0.5248774290084839,0.8545800447463989,-1.4392116069793701,0.2844313085079193
7.453375816345215,-0.003455251455307007,0.0585857629776001,0.0027794241905212402,-0.7907333432375331,-0.7232802303542012,1.2194251551664343,-0.4654931426048279,0.7108692526817322,-0.5272390246391296,1.0883182287216187,-1.2693790197372437,0.34624963998794556
7.473162889480591,0.0008418560028076172,0.05186527967453003,0.02472531795501709,-0.7817582098667488,-0.7290055025317849,1.2449616009851614,-0.4727352261543274,0.704528272151947,-0.5293027758598328,0.757587194442749,-1.1091299057006836,0.3632975220680237
7.493454933166504,-0.009768694639205933,-0.024936258792877197,0.006927073001861572,-0.7768948234023337,-0.7370798053140228,1.2629011818061695,-0.47929075360298157,0.7010685205459595,-0.5279992818832397,0.49400073289871216,-0.9719928503036499,0.28863292932510376
7.511420965194702,-0.014468908309936523,-0.024542927742004395,-0.027558326721191406,-0.7748474917387087,-0.7457319562859229,1.2762973662522406,-0.48481398820877075,0.6996071338653564,-0.5248859524726868,0.3239796459674835,-0.8185710906982422,0.24853016436100006
7.531300067901611,-0.042634546756744385,-0.02398902177810669,-0.033574044704437256,-0.7725585600569277,-0.753650943870661,1.2854490391946292,-0.490049809217453,0.6979697942733765,-0.5221966505050659,0.28829294443130493,-0.6174700260162354,0.07602183520793915
7.552171945571899,-0.059575796127319336,-0.013825595378875732,-0.034912168979644775,-0.7689412789692018,-0.760302399740665,1.2907174709466342,-0.49524906277656555,0.6953747868537903,-0.5207517147064209,0.23293663561344147,-0.4143262803554535,-0.05009854957461357
7.572185039520264,-0.0714845061302185,-0.021357834339141846,-0.03201901912689209,-0.7654148599657631,-0.7659243734934295,1.2916245824553223,-0.49986565113067627,0.6928362250328064,-0.5197234153747559,0.026480335742235184,-0.21747063100337982,-0.14456546306610107
7.592433929443359,-0.06794655323028564,-0.041791439056396484,-0.01307600736618042,-0.7646984842938394,-0.7727632251238671,1.285711588335312,-0.5037545561790466,0.6923194527626038,-0.5166479349136353,-0.21924296021461487,-0.06694202870130539,-0.1922682374715805
7.6129539012908936,-0.06058090925216675,-0.022715210914611816,-0.05608093738555908,-0.7655620706631616,-0.7785756662972292,1.2783939677465335,-0.5063289403915405,0.6929423809051514,-0.5132853984832764,-0.19558501243591309,-0.02743127942085266,-0.13761207461357117
7.6329240798950195,-0.07691425085067749,0.07904249429702759,-0.11553347110748291,-0.7643186046062158,-0.7839029368248422,1.271884268947649,-0.5096641778945923,0.692045271396637,-0.5111905932426453,-0.014217531308531761,-0.039303652942180634,-0.32697612047195435
7.652610778808594,-0.15161818265914917,0.1475556492805481,-0.1587023138999939,-0.7560631934906229,-0.7878492811165698,1.2657509279575299,-0.5157096982002258,0.6860625743865967,-0.5131877660751343,0.3015426993370056,0.08589092642068863,-0.5640918612480164
7.6727070808410645,-0.2274882197380066,0.20944112539291382,-0.16892552375793457,-0.7399368225821507,-0.7855157300065042,1.2626756347271173,-0.5222676992416382,0.6742412447929382,-0.5221449136734009,0.6466013193130493,0.38597655296325684,-0.7371006011962891
7.692663908004761,-0.274894118309021,0.2006678581237793,-0.14663928747177124,-0.7206416886421962,-0.7758446401652515,1.2597160117242499,-0.526207685470581,0.659866988658905,-0.5363592505455017,0.46798521280288696,0.7748780250549316,-0.7519323229789734
7.713237762451172,-0.248135507106781,0.12423622608184814,-0.10336172580718994,-0.7096073914548203,-0.764149566236339,1.2485831615812513,-0.5249053239822388,0.6515359878540039,-0.5477001070976257,-0.3317348062992096,1.1243236064910889,-0.6290807723999023
7.734346866607666,-0.16582059860229492,0.01853024959564209,-0.04155290126800537,-0.7132041997291367,-0.7547482430486878,1.223275271127711,-0.5181241631507874,0.6542603373527527,-0.5508999824523926,-1.2045871019363403,1.4612354040145874,-0.537234902381897
7.754522800445557,-0.04554516077041626,-0.1070660948753357,0.03172338008880615,-0.7290936934438917,-0.7458645807211539,1.188263223201904,-0.5060906410217285,0.6661940217018127,-0.5477754473686218,-1.7184009552001953,1.7037672996520996,-0.30828312039375305
7.7754998207092285,0.04665836691856384,-0.2250688076019287,0.08897256851196289,-0.7539327143409457,-0.7377656446138436,1.1493319067316001,-0.4903534948825836,0.6845110058784485,-0.5394424200057983,-2.040759325027466,1.7180695533752441,-0.18300308287143707
7.792762756347656,0.04509618878364563,-0.3333285450935364,0.11414480209350586,-0.7818670604906561,-0.7342536292046753,1.1058136297057246,-0.4754551649093628,0.7046055197715759,-0.5267575979232788,-2.0509746074676514,1.6445999145507812,-0.3035227656364441
7.813684940338135,-0.07194358110427856,-0.3481466770172119,0.10221093893051147,-0.8025108301547453,-0.7336030133954577,1.0622208535171798,-0.4652726650238037,0.7191031575202942,-0.5161511301994324,-1.4647574424743652,1.5695621967315674,-0.6176113486289978
7.832447052001953,-0.3218875825405121,-0.262489378452301,0.10917872190475464,-0.8072294736134891,-0.7295670310568181,1.0219358429023426,-0.4609189033508301,0.7223741412162781,-0.5154895782470703,-0.8258203268051147,1.7940281629562378,-1.2079271078109741
7.852258920669556,-0.5897648334503174,-0.179865300655365,0.18243348598480225,-0.7979216649652628,-0.7270779451781434,0.9714179474999858,-0.4640834927558899,0.71590656042099,-0.5216361284255981,-0.9954402446746826,2.059983253479004,-2.0282793045043945
7.872331857681274,-0.672642171382904,-0.1997198462486267,0.3132452964782715,-0.7892443591286119,-0.736543927409656,0.8970653659078563,-0.4731556475162506,0.7098212242126465,-0.5218022465705872,-1.875133752822876,2.2815091609954834,-2.3187389373779297
7.893622875213623,-0.5848289728164673,-0.22134476900100708,0.34396326541900635,-0.7933733480723739,-0.7522854286658694,0.8099490382463167,-0.47930383682250977,0.7127235531806946,-0.512145459651947,-2.5065228939056396,2.3396754264831543,-1.8363842964172363
7.912765979766846,-0.4306355118751526,-0.09993636608123779,0.28471535444259644,-0.808486352529284,-0.7663639974527129,0.7255232659692012,-0.47894102334976196,0.7232427000999451,-0.4975295662879944,-2.575472593307495,2.313748836517334,-1.5011093616485596
7.932119846343994,-0.29308581352233887,0.033218443393707275,0.2439713478088379,-0.8212673779116154,-0.7818418397040774,0.6433778288522812,-0.4800313711166382,0.7320098876953125,-0.48345786333084106,-2.243053913116455,2.0648674964904785,-1.6719497442245483
7.9534828662872314,-0.08007892966270447,0.01854783296585083,0.2272087037563324,-0.8278856362238086,-0.8032098478697198,0.5635665370714051,-0.4867546856403351,0.7365027666091919,-0.46971651911735535,-2.1139485836029053,1.657017469406128,-1.6331069469451904
7.970247745513916,0.12104865908622742,-0.06818664073944092,0.22752463817596436,-0.8301042099098989,-0.8297672897472681,0.48904472762094947,-0.49784931540489197,0.7380017042160034,-0.4555213153362274,-1.596118688583374,1.2020022869110107,-1.6582585573196411
7.991902828216553,0.2722077965736389,-0.042997658252716064,0.17459306120872498,-0.8225424491805615,-0.8535843823351533,0.4300427216745799,-0.5127474069595337,0.7328779697418213,-0.44719117879867554,-0.9060078263282776,0.7813814282417297,-1.59062659740448
8.011635780334473,0.3311930298805237,0.06894063949584961,0.10959529876708984,-0.8058710182931427,-0.8730076970431929,0.387332940403021,-0.5306254625320435,0.7214340567588806,-0.444937527179718,-0.35159435868263245,0.43781203031539917,-1.5537903308868408
8.031858921051025,0.36594271659851074,0.06883257627487183,0.06020596623420715,-0.7866944548755459,-0.8921965734686803,0.3521193312539673,-0.5497349500656128,0.7080228328704834,-0.4432777166366577,-0.2985243499279022,0.09822314232587814,-1.5325171947479248
8.05187702178955,0.41225945949554443,0.13755089044570923,-0.03707590699195862,-0.7658116535540258,-0.9158842113145633,0.32215523380696914,-0.571683406829834,0.6931222677230835,-0.43904390931129456,-0.0894283726811409,-0.3333952724933624,-1.4194868803024292
8.071523904800415,0.4264093041419983,0.2731512188911438,-0.10235488414764404,-0.7426610980559557,-0.9383324968928748,0.3023626815666787,-0.5941798686981201,0.6762506365776062,-0.4354715347290039,0.31893783807754517,-0.5227702856063843,-1.3086862564086914
8.090654850006104,0.3899696469306946,0.36858534812927246,-0.18403959274291992,-0.7192078153904343,-0.954651426590742,0.29349709620679565,-0.6139840483665466,0.6587889194488525,-0.4347652196884155,0.458159476518631,-0.5227648615837097,-0.9595097303390503
8.110463857650757,0.3921523690223694,0.34749287366867065,-0.20461535453796387,-0.7008233781495112,-0.9679774279163192,0.2900048563017204,-0.6295945048332214,0.6448472142219543,-0.4333392381668091,0.36643263697624207,-0.5671455264091492,-0.6962868571281433
8.131313800811768,0.4487723708152771,0.28940898180007935,-0.22208285331726074,-0.6902016789021461,-0.9801692823533056,0.28976852951193593,-0.6404839754104614,0.6366927027702332,-0.4294215440750122,0.21239721775054932,-0.6479091048240662,-0.1497032195329666
8.151336908340454,0.4399881958961487,0.22664088010787964,-0.26802700757980347,-0.6895205426044315,-0.9894934363854795,0.29624945919566653,-0.6448222994804382,0.6361673474311829,-0.4236690104007721,0.2847210168838501,-0.6409760117530823,0.38805434107780457
8.171491861343384,0.3827851414680481,0.21100562810897827,-0.2963579595088959,-0.69790868550434,-0.9920335650363905,0.31036602360811333,-0.6414064168930054,0.6426167488098145,-0.4190959632396698,0.1377677619457245,-0.5313494205474854,0.8161433935165405
8.189521789550781,0.31944793462753296,0.20814001560211182,-0.30255529284477234,-0.7100352583678191,-0.9916197185604927,0.3255675480498161,-0.6346640586853027,0.6518605351448059,-0.41506537795066833,0.2176695466041565,-0.4301713705062866,0.864472508430481
8.212374925613403,0.30112844705581665,0.11477398872375488,-0.31239333748817444,-0.7235112536554914,-0.986653601090516,0.3465861724435474,-0.6252099275588989,0.6620203852653503,-0.4133297801017761,0.37814921140670776,-0.49264776706695557,1.132084608078003
8.230065822601318,0.24385279417037964,0.11004126071929932,-0.3642640709877014,-0.73818740076593,-0.9791008530477368,0.37389828982132617,-0.6139395833015442,0.6729482412338257,-0.41257598996162415,0.4837658405303955,-0.5762950778007507,1.172463059425354
8.251116752624512,0.04004698991775513,0.08559304475784302,-0.4670063257217407,-0.7533773990866434,-0.9709004283064262,0.4033166162589378,-0.6020283102989197,0.6841060519218445,-0.4117777347564697,0.4110235571861267,-0.6778667569160461,1.4840140342712402
8.271286010742188,-0.15338575839996338,0.04454529285430908,-0.5570565462112427,-0.7739559020647125,-0.9557243812073987,0.43996889472617123,-0.5840869545936584,0.6989697813987732,-0.41265466809272766,0.6281688213348389,-0.1651713103055954,1.4318995475769043
8.289179801940918,-0.22820061445236206,0.14710474014282227,-0.47550350427627563,-0.7798331526320934,-0.9299879813754053,0.4728913917145124,-0.56997150182724,0.70316082239151,-0.4250853359699249,0.9258759617805481,0.27912911772727966,0.5488331317901611
8.308566093444824,-0.10697489976882935,0.37407898902893066,-0.34299635887145996,-0.7749950395643445,-0.8993652801738089,0.5065534111449654,-0.5593460202217102,0.6997125148773193,-0.4444485604763031,1.2356284856796265,0.46438735723495483,0.5470294952392578
