timestamp,acceleration_x,acceleration_y,acceleration_z,attitude_pitch,attitude_roll,attitude_yaw,gravity_x,gravity_y,gravity_z,rotation_x,rotation_y,rotation_z
0.0,-0.5483970046043396,-0.10781978070735931,-0.17522603273391724,-0.02553185451203358,-0.8796304421296194,0.27677634704008636,-0.7702522277832031,0.025529081001877785,-0.6372281312942505,-0.35795366764068604,-3.4230430126190186,-0.4996938109397888
0.01909184455871582,-0.54971843957901,-0.31197261810302734,-0.25539708137512207,-0.02478943144928449,-0.9430806735593863,0.2643801354979937,-0.8091225028038025,0.024786893278360367,-0.5871169567108154,-0.6498599648475647,-2.9893264770507812,-0.3371005058288574
0.040003061294555664,-0.4739477038383484,-0.3104146420955658,-0.18040239810943604,-0.02745906123279164,-1.0007210273385223,0.2483030631095332,-0.8415430188179016,0.027455611154437065,-0.5394920110702515,-0.8107389211654663,-2.7604236602783203,-0.36607563495635986
0.06026911735534668,-0.3787001371383667,-0.20385466516017914,-0.08323687314987183,-0.028031275392524375,-1.0560259683972213,0.22967606645710784,-0.8700639009475708,0.028027605265378952,-0.49214157462120056,-0.7734295725822449,-2.753058433532715,-0.5811234712600708
0.08006787300109863,-0.3624421954154968,-0.20857323706150055,-0.1452386975288391,-0.022341524643631587,-1.1103820978243382,0.21162754411497967,-0.8956449031829834,0.02233966626226902,-0.4442083239555359,-0.5639451146125793,-2.6125011444091797,-0.7273241281509399
0.10000205039978027,-0.3095112442970276,-0.11184979230165482,-0.26820817589759827,-0.013415688481548274,-1.1589186643581364,0.19694332097910283,-0.9162881970405579,0.01341528631746769,-0.40029460191726685,-0.36675605177879333,-2.1760385036468506,-0.7221531867980957
0.12015509605407715,-0.13123303651809692,-0.04065814986824989,-0.48312056064605713,0.0004795969562040794,-1.1989235830185603,0.18955135355023522,-0.9316483736038208,-0.0004795969289261848,-0.36336076259613037,0.22940465807914734,-1.9376060962677002,-0.870934247970581
0.14004778861999512,0.045401692390441895,-0.01406613178551197,-0.48511600494384766,0.021992196078018608,-1.2427140500403395,0.19119816123214606,-0.9464331269264221,-0.021990424022078514,-0.3221502900123596,0.5343800783157349,-2.569016456604004,-1.1419219970703125
0.16035890579223633,-0.08901059627532959,-0.17417402565479279,-0.5589561462402344,0.05065542381817639,-1.298510232988889,0.19008067294781375,-0.9619232416152954,-0.050633762031793594,-0.268589049577713,0.12879006564617157,-2.886737585067749,-1.598942756652832
0.18008780479431152,-0.3837825059890747,-0.20930421352386475,-0.48805752396583557,0.08103722216767528,-1.3539687031579908,0.1762877698021155,-0.9733800888061523,-0.08094855397939682,-0.21442663669586182,-0.765023946762085,-2.7430591583251953,-1.6107583045959473
0.20003700256347656,-0.5095454454421997,0.17145486176013947,-0.4100363850593567,0.11061467645436689,-1.4023369797649767,0.15023945091787952,-0.9798192977905273,-0.11038924008607864,-0.1666390299797058,-0.9291075468063354,-2.335540771484375,-1.891003131866455
0.22001910209655762,-0.5196396112442017,0.627190351486206,-0.6638855934143066,0.15035458139238647,-1.4408003865812957,0.13635806550195495,-0.9803757071495056,-0.1497887223958969,-0.12816764414310455,0.28864622116088867,-1.6680468320846558,-2.2159440517425537
0.2400379180908203,-0.5435118079185486,0.9246326684951782,-0.8741709589958191,0.19587171823144575,-1.467532014059502,0.1514652756035544,-0.9756531715393066,-0.19462165236473083,-0.10110980272293091,1.620898723602295,-0.6999510526657104,-2.040273904800415
0.26032090187072754,-0.4490591287612915,0.920043408870697,-0.6615562438964844,0.23273134085453065,-1.4805164919305371,0.18880883855716257,-0.9690775275230408,-0.2306360900402069,-0.08772663027048111,2.2809064388275146,0.12894587218761444,-1.2387642860412598
0.28005480766296387,-0.247361421585083,0.6089515089988708,-0.4070577025413513,0.2535667800432443,-1.4864588203114069,0.23833964132003654,-0.964583158493042,-0.25085827708244324,-0.08154395967721939,2.6741816997528076,0.4039783179759979,-0.465279757976532
0.3000369071960449,-0.08369326591491699,0.4113791286945343,-0.26652348041534424,0.2613757709821743,-1.4920843510976414,0.29361121466494156,-0.9630444049835205,-0.2584098279476166,-0.07596006244421005,2.6641430854797363,0.44129684567451477,0.08581426739692688
0.32004380226135254,-0.016764342784881592,0.35632753372192383,-0.19715969264507294,0.25881989951210355,-1.4956395131468676,0.34606807462701245,-0.9639636278152466,-0.25593993067741394,-0.07258515059947968,2.353623867034912,0.5663132071495056,0.5484318137168884
0.3400390148162842,0.021949470043182373,0.3918619751930237,-0.17397058010101318,0.24732685555166425,-1.493184128878925,0.3914567873855501,-0.9666514992713928,-0.24481303989887238,-0.07517495006322861,1.9918984174728394,0.8452414870262146,0.9106468558311462
0.36028289794921875,0.13453060388565063,0.4185171127319336,-0.1266235113143921,0.22939207306806425,-1.484829235062656,0.431795036416881,-0.9702085256576538,-0.22738556563854218,-0.08361208438873291,1.7991055250167847,0.8650486469268799,1.1830905675888062
0.3800981044769287,0.2236473560333252,0.39218655228614807,-0.10120654106140137,0.20793657121842793,-1.4794507482167958,0.47001040921053067,-0.9743797183036804,-0.20644135773181915,-0.08925366401672363,1.7322781085968018,0.484883189201355,1.2630751132965088
0.39988088607788086,0.19022971391677856,0.44183146953582764,-0.09942316263914108,0.18608282601653348,-1.4809582938088124,0.5091682930604031,-0.978773295879364,-0.18501077592372894,-0.08816839754581451,1.9569542407989502,0.19513456523418427,1.2596427202224731
0.4200398921966553,0.08278089761734009,0.5340458154678345,-0.07599693536758423,0.16464094505411225,-1.4835940749531922,0.5537756634037929,-0.9827290177345276,-0.16389814019203186,-0.08591406047344208,2.168199300765991,0.3670564293861389,1.2793577909469604
0.4401228427886963,0.03731030225753784,0.4426036477088928,0.016640014946460724,0.14156232572522726,-1.4811961924318884,0.5956404598282392,-0.9860253930091858,-0.14108999073505402,-0.08858519792556763,1.6348352432250977,0.46194663643836975,1.3992668390274048
0.46008801460266113,0.09293931722640991,0.36734578013420105,0.08947151899337769,0.11479013291734307,-1.4773860945746167,0.6227742433945626,-0.9890879988670349,-0.11453820765018463,-0.09266059845685959,0.8458174467086792,0.23915217816829681,1.5007145404815674
0.48004984855651855,0.12101888656616211,0.40768125653266907,0.06348513811826706,0.08544330033785091,-1.4770319006467902,0.6394095990191531,-0.9919754266738892,-0.08533937484025955,-0.09328554570674896,0.7079930305480957,-0.060995131731033325,1.5742449760437012
0.5003321170806885,0.05968272686004639,0.5771854519844055,-0.003924310207366943,0.05597449730897072,-1.4809380700187442,0.6619801590669423,-0.9944055676460266,-0.055945273488759995,-0.08959683030843735,1.3191720247268677,-0.07126312702894211,1.5834285020828247
0.5201148986816406,-0.05104285478591919,0.6092711091041565,0.022900283336639404,0.027090625061788356,-1.4801269469022436,0.6971594355771734,-0.995526909828186,-0.027087312191724777,-0.0905119776725769,1.8585745096206665,0.2816976010799408,1.6323908567428589
0.5397729873657227,-0.07055264711380005,0.46207544207572937,0.04265713691711426,-0.001623855365240217,-1.4724538883453513,0.7394412577720906,-0.9951668977737427,0.0016238546231761575,-0.09818386286497116,2.192368268966675,0.5502662658691406,1.5210340023040771
0.563856840133667,-0.08690810203552246,0.33135244250297546,0.03909195959568024,-0.0254770711722201,-1.4407350155340162,0.90115783453871,-0.9912320375442505,0.025474315509200096,-0.12965282797813416,5.654612064361572,0.9307214617729187,0.7477701306343079
0.5800960063934326,-0.08690810203552246,0.33135244250297546,0.03909195959568024,-0.0254770711722201,-1.4407350155340162,0.90115783453871,-0.9912320375442505,0.025474315509200096,-0.12965282797813416,5.654612064361572,0.9307214617729187,0.7477701306343079
0.6002099514007568,-0.1875619888305664,-0.0009044725447893143,0.1159016489982605,-0.01727797348424264,-1.4154288981795953,1.0179176870864466,-0.9878072738647461,0.01727711409330368,-0.1547200083732605,5.827645301818848,1.287488341331482,0.06246614456176758
0.6201679706573486,-0.052354276180267334,-0.13089199364185333,0.2575725317001343,0.00013526631678654078,-1.387563347819641,1.1217711309395244,-0.9832597374916077,-0.00013526630937121809,-0.18220937252044678,4.463046550750732,1.3353501558303833,0.048532940447330475
0.6402881145477295,0.09145957231521606,-0.2283819019794464,0.2955060601234436,0.011410234625637426,-1.3633615780578394,1.1923301435017404,-0.9784987568855286,-0.011409986764192581,-0.20593690872192383,2.7558257579803467,1.1164270639419556,0.23922529816627502
0.6600830554962158,0.10794538259506226,-0.19990602135658264,0.2515644431114197,0.012527187931213296,-1.3444470816391367,1.2312573743495228,-0.9744157195091248,-0.012526860460639,-0.22440378367900848,1.0787891149520874,0.8163573741912842,0.4808942377567291
0.6801929473876953,0.009364485740661621,-0.17617996037006378,0.25902116298675537,0.003309200519241287,-1.3349694157502743,1.2406323266467796,-0.9723160862922668,-0.003309194464236498,-0.23364579677581787,-0.3079755902290344,0.06388306617736816,0.6321000456809998
0.7001919746398926,-0.22466391324996948,-0.03942292928695679,0.25964605808258057,-0.015818218914651946,-1.3397414533351408,1.227863063217774,-0.9733036160469055,0.015817558392882347,-0.22897584736347198,-1.2865053415298462,-0.323773592710495,1.0226681232452393
0.72011399269104,-0.44628679752349854,0.17183569073677063,0.08785870671272278,-0.04665655795128176,-1.3405542095240985,1.2050800402535524,-0.9725515842437744,0.04663963243365288,-0.22796489298343658,-1.4760395288467407,0.33867397904396057,1.3550962209701538
0.7401740550994873,-0.38235610723495483,0.3071301281452179,0.004031062126159668,-0.07604553533356471,-1.330621142309808,1.1884963950133447,-0.9684891700744629,0.07597225904464722,-0.2371853142976761,-0.7583304643630981,0.6536607146263123,1.0756378173828125
0.7600138187408447,-0.16573768854141235,0.39208322763442993,0.07572492957115173,-0.09453822304439898,-1.3193210247194112,1.1858968036652124,-0.9642212986946106,0.09439746290445328,-0.24772195518016815,0.025944678112864494,0.42852041125297546,0.6667600274085999
0.7884879112243652,-0.27340465784072876,0.24832803010940552,0.22919699549674988,-0.1096797852687421,-1.3096864857868968,1.2103741895286115,-0.9602988362312317,0.1094600185751915,-0.2566017210483551,0.8249731659889221,0.1088506281375885,0.46076157689094543
0.8086698055267334,-0.32863157987594604,0.21922005712985992,0.2526211440563202,-0.11269863601542025,-1.3043770891943258,1.2303909321883797,-0.9585998058319092,0.11246022582054138,-0.2616085112094879,0.98610919713974,0.18647316098213196,0.361907422542572
0.8284060955047607,-0.21969735622406006,0.254323810338974,0.2708475589752197,-0.11410291563433415,-1.2974733775887293,1.2513628372232974,-0.9566179513931274,0.11385548114776611,-0.26817724108695984,0.9633500576019287,0.24343036115169525,0.33324599266052246
0.8463470935821533,-0.07602006196975708,0.25267770886421204,0.28964900970458984,-0.11723479310708028,-1.289716856962719,1.2708654932558066,-0.9541618227958679,0.11696643382310867,-0.27548885345458984,0.8207195997238159,0.24498599767684937,0.49097901582717896
0.8680219650268555,0.02484840154647827,0.1867673248052597,0.3200269937515259,-0.12523577908909386,-1.2831084232786982,1.289144877270573,-0.9513925313949585,0.12490867078304291,-0.2815137505531311,0.7329868674278259,0.13834744691848755,0.7517557144165039
0.8882119655609131,0.06695115566253662,0.10749222338199615,0.2967337667942047,-0.1373853053112157,-1.2780599251708633,1.3096075289442735,-0.9484360814094543,0.13695353269577026,-0.28585419058799744,0.92302006483078,0.09516473859548569,0.9633796215057373
0.9082639217376709,0.0762529969215393,0.0452515184879303,0.26952046155929565,-0.15135535679980852,-1.2719030337141624,1.3365193775413033,-0.9447374939918518,0.150778129696846,-0.29109635949134827,1.2117371559143066,0.13219119608402252,1.1502892971038818
0.9191920757293701,0.0762529969215393,0.0452515184879303,0.26952046155929565,-0.15135535679980852,-1.2719030337141624,1.3365193775413033,-0.9447374939918518,0.150778129696846,-0.29109635949134827,1.2117371559143066,0.13219119608402252,1.1502892971038818
0.9479968547821045,0.10774081945419312,-0.009170934557914734,0.3252428472042084,-0.18330669405639866,-1.2523807206782185,1.4021288773158025,-0.9338210225105286,0.18228185176849365,-0.3078172504901886,1.228910207748413,0.2493124008178711,1.2568038702011108
0.9677779674530029,0.1459701657295227,-0.0462125688791275,0.35884666442871094,-0.19954217267566304,-1.2423711324043019,1.4312928608479019,-0.9277694821357727,0.1982206106185913,-0.31615251302719116,0.9776798486709595,0.175560861825943,1.1983286142349243
0.986853837966919,0.16788876056671143,-0.08127541840076447,0.3597203493118286,-0.21528937881189952,-1.2354023847093754,1.4562932687442691,-0.9224816560745239,0.21363013982772827,-0.3215428292751312,0.8681073784828186,-0.0010853701969608665,1.080891728401184
1.0087549686431885,0.17571419477462769,-0.08850555121898651,0.25462308526039124,-0.2278780807380905,-1.2305375829595353,1.4816073367420386,-0.9182985424995422,0.2259109765291214,-0.32510340213775635,1.105465292930603,-0.06315051764249802,0.9233822226524353
1.027695894241333,0.17088359594345093,-0.09888973832130432,0.1667698621749878,-0.234015402086366,-1.225321366767934,1.512965214932391,-0.9152683615684509,0.23188534379005432,-0.3294132649898529,1.5898898839950562,-0.13082322478294373,0.6772447824478149
1.0476160049438477,0.12520205974578857,-0.11408422887325287,0.17750033736228943,-0.2320203339969256,-1.2179794887752398,1.552869508137511,-0.9132574200630188,0.22994418442249298,-0.33628326654434204,2.0931191444396973,-0.022099042311310768,0.5019572377204895
1.066498041152954,0.13003498315811157,-0.04526244103908539,0.24630683660507202,-0.22604608200519544,-1.2071863095733673,1.5977903533219158,-0.9108424186706543,0.2241259515285492,-0.34660282731056213,2.188699960708618,0.04324774071574211,0.4389396607875824
1.0884830951690674,0.22952359914779663,0.10025770962238312,0.21884039044380188,-0.21411881888997264,-1.19651710356774,1.6450346436010224,-0.9095163941383362,0.21248644590377808,-0.35725289583206177,2.635270118713379,-0.022138724103569984,0.08824634552001953
1.1080889701843262,0.24107640981674194,0.08976495265960693,0.18157893419265747,-0.19177335107269056,-1.1886204477790854,1.6982957373108063,-0.9108456969261169,0.19060003757476807,-0.3661034107208252,2.948117971420288,-0.3204774558544159,-0.19475767016410828
1.120177984237671,0.030279338359832764,-0.07205124199390411,0.3487647771835327,-0.16814889517068282,-1.1887481707163592,1.7476347549700368,-0.9148160815238953,0.1673576384782791,-0.36756354570388794,2.3106377124786377,-0.45391926169395447,-0.13521473109722137
1.1435730457305908,-0.1361560821533203,-0.06407105922698975,0.3585745394229889,-0.1522285099966683,-1.1866036182215196,1.7834530256789654,-0.9163798689842224,0.15164124965667725,-0.37047630548477173,1.6854286193847656,0.12867431342601776,-0.0117271039634943
1.163383960723877,0.13739681243896484,-0.00689677894115448,0.19245827198028564,-0.14297297930572683,-1.178292561429327,1.8137167084768515,-0.9145269393920898,0.14248637855052948,-0.37860020995140076,1.4593676328659058,0.13689957559108734,0.275094211101532
1.1863620281219482,0.28629326820373535,-0.025354579091072083,0.1667095422744751,-0.13745079801311214,-1.1776224803659179,1.8409356261109926,-0.9149858355522156,0.13701839745044708,-0.3795085847377777,1.2259368896484375,-0.51018887758255,0.19458414614200592
1.2094910144805908,0.10271614789962769,-0.09676682949066162,0.3027501404285431,-0.13321702705130037,-1.1895896844551817,1.8589259724281133,-0.9199920892715454,0.13282334804534912,-0.3687443733215332,0.5330586433410645,-0.7774843573570251,0.12746772170066833
1.228132963180542,-0.09752649068832397,-0.13650166988372803,0.33220359683036804,-0.13537362393036684,-1.1992880911404389,1.8646186780326413,-0.9232559204101562,0.13496053218841553,-0.35969987511634827,-0.053409721702337265,-0.21004106104373932,0.29077208042144775
1.2475240230560303,0.05151331424713135,-0.14116154611110687,0.2478896975517273,-0.14245156050531407,-1.2007480929299807,1.8619401825196005,-0.9228664636611938,0.14197026193141937,-0.3579971194267273,-0.412050724029541,-0.006069565191864967,0.23531903326511383
1.2692909240722656,0.2836875915527344,-0.1526731550693512,0.190760999917984,-0.14927488223605484,-1.204493800681227,1.854085888736245,-0.9232749342918396,0.1487211138010025,-0.3541826009750366,-0.5049365758895874,-0.2741108536720276,0.14437642693519592
1.2874810695648193,0.3449285626411438,-0.05005164444446564,0.1241486668586731,-0.15396117872646006,-1.2122372474229386,1.8488145773750142,-0.9253271222114563,0.15335364639759064,-0.3467743694782257,-0.06301012635231018,-0.3712770938873291,0.10165345668792725
1.3088629245758057,0.2865276336669922,0.07078792154788971,0.15696609020233154,-0.1529831705453442,-1.216861604631389,1.8560015570932349,-0.9270610809326172,0.15238714218139648,-0.34254345297813416,0.7381588816642761,-0.14705659449100494,0.059675708413124084
1.327331781387329,0.2605358362197876,-0.01994667947292328,0.23502999544143677,-0.14805042452481595,-1.2146041806013974,1.8745123836127942,-0.9269787073135376,0.14751017093658447,-0.34489327669143677,1.080198049545288,0.03869248926639557,0.11044628918170929
1.346985101699829,0.29157835245132446,-0.13146410882472992,0.2301403284072876,-0.14142606493469767,-1.2101979700672205,1.8982778791088768,-0.9263439774513245,0.1409550905227661,-0.3493114709854126,1.327540397644043,0.034302715212106705,0.07160965353250504
1.3667259216308594,0.3103465437889099,-0.13836853206157684,0.23128721117973328,-0.13177631127625805,-1.207650650099813,1.9254362776512406,-0.9266794323921204,0.13139526546001434,-0.3521367609500885,1.5157326459884644,-0.19546328485012054,-0.02677067741751671
1.3882877826690674,0.24842333793640137,-0.18567940592765808,0.2364579141139984,-0.11983442548306258,-1.21095351033779,1.952071133518698,-0.9292399287223816,0.11954782158136368,-0.3496018052101135,1.3214163780212402,-0.46143192052841187,-0.16636775434017181
1.4067180156707764,0.08148360252380371,-0.27650678157806396,0.2783726751804352,-0.10809226410933409,-1.219040442928892,1.9708292966263492,-0.9332901835441589,0.10788189619779587,-0.3425357937812805,0.8052037954330444,-0.47121232748031616,-0.23102110624313354
1.4268159866333008,-0.02256542444229126,-0.22056110203266144,0.338452011346817,-0.10141110703995716,-1.2239279225744462,1.9800788111690366,-0.9356101751327515,0.10123737156391144,-0.33820781111717224,0.36339953541755676,-0.11838865280151367,-0.09254132211208344
1.4443738460540771,0.04724067449569702,-0.0993131622672081,0.2920176386833191,-0.09680928960256008,-1.2257248108432008,1.9864588011772246,-0.936644971370697,0.0966581404209137,-0.3366801142692566,0.43548470735549927,-0.18486018478870392,-0.17815150320529938
1.4666929244995117,-0.06366544961929321,-0.016799435019493103,0.3053438067436218,-0.08973477389800247,-1.2302838189280227,1.9943676531394785,-0.9387912154197693,0.0896143913269043,-0.3326265215873718,0.45320379734039307,-0.24806025624275208,-0.1416199803352356
1.4866178035736084,-0.17252051830291748,-0.05790068954229355,0.3711470663547516,-0.08631288487880344,-1.2341338326328772,1.9983761243910403,-0.9403486847877502,0.08620575070381165,-0.3291090428829193,0.02770855650305748,-0.17280352115631104,-0.07061510533094406
1.5065548419952393,-0.035321950912475586,-0.09457998722791672,0.22955170273780823,-0.0846407351064105,-1.2392996480555891,1.9974793250859926,-0.9421712160110474,0.08453971147537231,-0.32429346442222595,0.09556452184915543,-0.4002832770347595,-0.16239704191684723
1.5263729095458984,-0.08510303497314453,-0.03515908867120743,0.1583474576473236,-0.07709028664312513,-1.2488730661186458,2.002663174762328,-0.9458112120628357,0.07701395452022552,-0.3154519200325012,0.6507983803749084,-0.5087705254554749,-0.37841373682022095
1.5454978942871094,-0.3370368480682373,-0.034825921058654785,0.16353219747543335,-0.06370813242930047,-1.2556467524817605,2.0171187398912034,-0.9488212466239929,0.06366504728794098,-0.3093298673629761,1.029096007347107,-0.2763790786266327,-0.3706331253051758
1.5665059089660645,-0.332131028175354,-0.09771066904067993,0.23713520169258118,-0.05284390988238515,-1.2612699925986341,2.0317763495411145,-0.951148271560669,0.05281931906938553,-0.3041822910308838,0.6105453968048096,-0.4551593065261841,-0.2608696222305298
1.5863919258117676,-0.34293079376220703,-0.030568774789571762,0.1605653464794159,-0.043613619114973634,-1.2729377061557305,2.0373224204143363,-0.9550579786300659,0.043599795550107956,-0.2931946814060211,0.28356578946113586,-0.5942961573600769,-0.4501953721046448
1.606564998626709,-0.49699485301971436,-0.010759800672531128,0.10910966992378235,-0.03388336316962628,-1.2809842842544665,2.039636617947446,-0.9577474594116211,0.03387688100337982,-0.28560805320739746,0.2375258207321167,-0.23748157918453217,-0.3913854956626892
1.6261179447174072,-0.36583995819091797,-0.06252036243677139,0.08786988258361816,-0.026237988340859105,-1.285827394087214,2.0417762103247927,-0.9593400955200195,0.026234978809952736,-0.2810308635234833,0.2028145045042038,-0.3163723051548004,-0.3260532319545746
1.6460669040679932,-0.3169563412666321,0.043602924793958664,0.05585476756095886,-0.015327135135023442,-1.294107452961316,2.0475567629565465,-0.9618521332740784,0.01532653532922268,-0.2731398642063141,0.7870621085166931,-0.39864516258239746,-0.5916125774383545
1.665677785873413,-0.4672761559486389,0.038185685873031616,-0.05753585696220398,0.00042016486376390496,-1.3002766505341643,2.062112929048349,-0.9636321663856506,-0.0004201648407615721,-0.2672322392463684,0.8341233730316162,-0.27058520913124084,-0.48173075914382935
1.6862609386444092,-0.4405083656311035,-0.1523957997560501,-0.206576406955719,0.010812398857487533,-1.3062180719789511,2.066982271120205,-0.965146541595459,-0.010812188498675823,-0.2614869475364685,-0.239394411444664,-0.31341174244880676,-0.38111284375190735
1.706223964691162,-0.38336873054504395,-0.37029412388801575,-0.14948061108589172,0.00981769613782133,-1.3163911004432636,2.0442486603296537,-0.9677664041519165,-0.009817538782954216,-0.2516576647758484,-2.0453803539276123,-0.7375293970108032,-0.06595107167959213
1.7256848812103271,-0.3900876045227051,-0.1637377142906189,-0.05711732804775238,-0.00030084289579997863,-1.3336123187331919,1.9971036832011388,-0.9720034003257751,0.00030084289028309286,-0.23496638238430023,-2.394104242324829,-0.8822368383407593,-0.16144254803657532
1.7470910549163818,-0.5024891495704651,0.19256553053855896,-0.1400553286075592,-0.004379692456360721,-1.348159777023845,1.9606307508571155,-0.9753091931343079,0.004379678517580032,-0.22079971432685852,-1.1614751815795898,-0.5109824538230896,-0.24282018840312958
1.76727294921875,-0.6338012218475342,0.10301227122545242,-0.19278571009635925,-0.003890826508373429,-1.353347245239051,1.9489735653143243,-0.9764436483383179,0.0038908165879547596,-0.21573786437511444,-0.14985080063343048,-0.03928877040743828,-0.014924376271665096
1.785944938659668,-0.7392997741699219,-0.036552585661411285,-0.3648180365562439,-0.004173461600542121,-1.3522265824547506,1.9502024224614505,-0.9762000441551208,0.004173449706286192,-0.21683171391487122,0.08945157378911972,0.11407335847616196,0.14893610775470734
1.8062009811401367,-0.6513160467147827,0.010709896683692932,-0.34654170274734497,-0.01025587421564281,-1.3516578732985094,1.9524607328314063,-0.9760338068008423,0.010255694389343262,-0.21737733483314514,0.1674182415008545,-0.0018569768872112036,0.42028433084487915
1.8256218433380127,-0.49975407123565674,0.08886341005563736,-0.39448750019073486,-0.017033423002089834,-1.3478078152405946,1.9669637557119601,-0.9750994443893433,0.017032599076628685,-0.22111304104328156,1.0816799402236938,0.4350975453853607,0.5669751763343811
1.8460538387298584,-0.6198984980583191,-0.021989207714796066,-0.4971546530723572,-0.020571605244354772,-1.336657756491578,1.9951278081448225,-0.9725086688995361,0.02057015523314476,-0.23195603489875793,1.3843737840652466,0.48405706882476807,0.4838189482688904
1.8662309646606445,-0.597688615322113,-0.10255293548107147,-0.5812751650810242,-0.028566969650306327,-1.3309405180699645,2.0197558417442476,-0.970975935459137,0.028563084080815315,-0.23746564984321594,0.8135337233543396,-0.04427003860473633,0.9063390493392944
1.8852617740631104,-0.5906004905700684,-0.031449999660253525,-0.5237234234809875,-0.04747431775407865,-1.3332846000936602,2.033959614998451,-0.9708313941955566,0.04745648801326752,-0.23501984775066376,0.10788817703723907,-0.046351294964551926,1.0024017095565796
1.9056448936462402,-0.7232344150543213,-0.023898065090179443,-0.5387328863143921,-0.0678190740334197,-1.3316884901415338,2.0404633147906157,-0.9693162441253662,0.06776709854602814,-0.23629149794578552,0.16666124761104584,0.11150296032428741,1.2679835557937622
1.9254701137542725,-0.7736522555351257,0.1393059939146042,-0.3763599395751953,-0.08958884259155753,-1.323656692675694,2.0543136061226877,-0.9657276272773743,0.0894690454006195,-0.24365045130252838,0.7355371713638306,0.6598108410835266,1.1428698301315308
1.9455888271331787,-0.8623397946357727,0.19522251188755035,-0.29102224111557007,-0.10836468981180744,-1.3044162392000913,2.080546729219469,-0.959071159362793,0.10815272480249405,-0.26169681549072266,1.2519546747207642,0.9790074229240417,1.4104982614517212
1.9653279781341553,-0.8077266216278076,0.129491925239563,-0.12202513217926025,-0.12978325115410533,-1.2780909662286084,2.1119290451257355,-0.9494144320487976,0.1294192224740982,-0.28611692786216736,0.9960392117500305,1.2209365367889404,1.4340245723724365
1.9850969314575195,-0.5674007534980774,-0.06697960197925568,0.02186492085456848,-0.15351941747312275,-1.2525369516346005,2.1319723587500237,-0.9386111497879028,0.15291710197925568,-0.3092336356639862,0.12372136116027832,1.0193490982055664,1.4885344505310059
2.0051989555358887,-0.3468663692474365,-0.17709128558635712,0.09443497657775879,-0.18583424502943932,-1.2351609096653762,2.1341506917314774,-0.9279443621635437,0.184766486287117,-0.3236982822418213,-0.9301737546920776,0.6976675391197205,1.6557813882827759
2.0249619483947754,-0.336026132106781,-0.02213957905769348,0.17775946855545044,-0.22546088026343447,-1.2247226620998217,2.1247379509718223,-0.916903555393219,0.22355559468269348,-0.33062195777893066,-1.11519193649292,0.6658411622047424,1.7295000553131104
2.0454769134521484,-0.39937305450439453,0.29550856351852417,0.16594764590263367,-0.2602608380574073,-1.2063993359784368,2.122836310270743,-0.9028729796409607,0.25733262300491333,-0.3443838655948639,-0.11428596079349518,1.2338601350784302,1.4761792421340942
2.0652029514312744,-0.17386513948440552,0.18419349193572998,0.18627041578292847,-0.28545734756589725,-1.1749665084494618,2.137808545958126,-0.8853389024734497,0.2815963327884674,-0.3699709475040436,0.3216349184513092,1.386892318725586,1.5114550590515137
2.0849359035491943,0.03753894567489624,0.023459315299987793,0.20209631323814392,-0.3145416655505128,-1.1449249401675834,2.1551276447988656,-0.8659995794296265,0.3093806505203247,-0.39284637570381165,0.01022221427410841,1.1030761003494263,1.770341157913208
2.104641914367676,0.07538950443267822,-0.007684588432312012,0.15218275785446167,-0.347085290642336,-1.1225902572788573,2.169439333382371,-0.8474842309951782,0.3401583433151245,-0.40750807523727417,-0.1308189183473587,0.6762135624885559,1.7214165925979614
2.124974012374878,-0.09906315803527832,0.010816425085067749,0.1604587435722351,-0.3730182129856937,-1.1065122738344104,2.1849578632529623,-0.8326537013053894,0.36442774534225464,-0.4169895052909851,0.579635500907898,0.5283650159835815,1.1444170475006104
2.144747018814087,-0.19348376989364624,0.07914382219314575,0.22919315099716187,-0.37784168486348746,-1.077425066148462,2.2173658431231904,-0.8186164498329163,0.36891525983810425,-0.4401916265487671,1.7361639738082886,1.2011538743972778,0.8112814426422119
2.1648550033569336,0.08253538608551025,-0.19687798619270325,0.3839993476867676,-0.37440253290578984,-1.0349294634140969,2.2611392417848504,-0.800262987613678,0.36571651697158813,-0.4752163887023926,1.8928020000457764,1.3323813676834106,0.8933495283126831
2.1844918727874756,0.3068193197250366,-0.3619621694087982,0.31720173358917236,-0.373418330715356,-0.9962936648149939,2.3037293566304187,-0.7816118001937866,0.3648003041744232,-0.5059682130813599,1.3620409965515137,0.9114454388618469,1.1566178798675537
2.20455002784729,0.2671208381652832,-0.24259847402572632,0.31006288528442383,-0.3829641212646989,-0.9715250888203236,2.333170406407634,-0.7659306526184082,0.3736715018749237,-0.5231823325157166,0.46987026929855347,0.6003924608230591,1.027029037475586
2.22509503364563,0.15169787406921387,-0.21731531620025635,0.34510695934295654,-0.39113777719794124,-0.9502472694833077,2.3508948047201046,-0.7521159648895264,0.38124051690101624,-0.537566065788269,0.582690954208374,0.913960337638855,0.6603302955627441
2.244546890258789,0.35834449529647827,-0.11140057444572449,0.4070678949356079,-0.39065538858534066,-0.9216415860834885,2.369871472696693,-0.7365793585777283,0.380794495344162,-0.5589690804481506,0.8856565356254578,1.1973633766174316,0.26983994245529175
2.2645609378814697,0.6593471169471741,-0.16617703437805176,0.19453299045562744,-0.3770759488220316,-0.8908505266379032,2.3890780864159162,-0.7229762673377991,0.36820343136787415,-0.5845781564712524,1.4768024682998657,1.0098971128463745,-0.1792205572128296
2.2845938205718994,0.8963550329208374,0.03093409538269043,0.050151050090789795,-0.3504800842289625,-0.8713515686817298,2.416836379858312,-0.7186816930770874,0.34334874153137207,-0.6046554446220398,1.9693868160247803,-0.12147348374128342,-0.17144300043582916
2.30338191986084,0.8624592423439026,-0.07715687155723572,0.1177675724029541,-0.32639043607598317,-0.8732685497831446,2.4418565322334893,-0.7259693741798401,0.3206261098384857,-0.6084138751029968,1.3779853582382202,-0.7421410083770752,-0.16662542521953583
2.3247759342193604,0.6860359311103821,-0.1740480661392212,0.0993427038192749,-0.30987332304464205,-0.8796892187914087,2.457141177840773,-0.7338416576385498,0.3049379885196686,-0.6070331335067749,0.9444554448127747,-0.2149631232023239,-0.2655888497829437
2.3447139263153076,0.6414528489112854,0.013770341873168945,0.22589129209518433,-0.29132800606287285,-0.8768927078692031,2.4692502735074346,-0.7363624572753906,0.28722453117370605,-0.612594723701477,0.9960590600967407,-0.02497268095612526,-0.3139480948448181
2.363976001739502,0.7112246155738831,0.08784705400466919,0.1751425862312317,-0.27504367096072535,-0.8754393259084344,2.479313864266047,-0.7389650344848633,0.2715889811515808,-0.6165792942047119,0.948657751083374,-0.06144236400723457,-0.3552430272102356
2.384874105453491,0.6999016404151917,0.08499488234519958,0.025886833667755127,-0.2607223351090393,-0.8720982068445573,2.487802435647509,-0.7398033142089844,0.2577785551548004,-0.6214830875396729,0.4037056267261505,0.19840261340141296,-0.08693422377109528
2.4038829803466797,0.6875371932983398,0.06409308314323425,-0.15030521154403687,-0.2596299700120026,-0.8642942465258084,2.4939500863102153,-0.7351444959640503,0.25672292709350586,-0.6274199485778809,0.26835477352142334,0.42907097935676575,0.34049585461616516
2.4240379333496094,0.6972615718841553,0.09475117921829224,0.001207113265991211,-0.2640657395962595,-0.8528425485211699,2.50398905816412,-0.7270466685295105,0.26100751757621765,-0.6350419521331787,0.12781651318073273,0.38538670539855957,0.6015065908432007
2.4441521167755127,0.5917710661888123,-0.012590140104293823,0.10351014137268066,-0.27293964465298376,-0.845306353647876,2.5153845164080946,-0.7204789519309998,0.2695634365081787,-0.6389409899711609,0.10182779282331467,0.07692340761423111,0.7586818337440491
2.463686943054199,0.32846903800964355,0.254973828792572,-0.06691348552703857,-0.2774731727339417,-0.838485171981531,2.5304570509257083,-0.7151877880096436,0.27392634749412537,-0.6430169343948364,0.7697227597236633,0.36266231536865234,0.5605722665786743
2.483711004257202,0.17711138725280762,0.27563798427581787,-0.2555035948753357,-0.26761450100659795,-0.8189663550612938,2.554603750264975,-0.7044398188591003,0.26443159580230713,-0.658665657043457,1.5590089559555054,0.7990178465843201,0.32162344455718994
2.5036959648132324,0.27393782138824463,0.007400929927825928,-0.1296483278274536,-0.2555806509550013,-0.7996665759281757,2.5814206860959503,-0.6938291788101196,0.25280722975730896,-0.6743067502975464,0.9995858669281006,0.3115181624889374,0.5809593796730042
2.5237038135528564,0.19329231977462769,-0.07082048058509827,-0.05982321500778198,-0.2570368836251688,-0.7970027880435254,2.597601577468909,-0.6917664408683777,0.25421589612960815,-0.675894558429718,-0.03173746168613434,-0.40435007214546204,0.6438927054405212
2.543447971343994,-0.039850711822509766,0.047365933656692505,0.06610554456710815,-0.27379090366137104,-0.807668920116548,2.599341270028781,-0.695760190486908,0.2703830599784851,-0.6654402017593384,-0.9042341709136963,-0.6208831071853638,0.6266880035400391
2.5633490085601807,-0.18086755275726318,0.18233540654182434,-0.0033996105194091797,-0.29441864484933045,-0.8196514242436106,2.592232167894023,-0.6994577646255493,0.29018357396125793,-0.6531097888946533,-0.8578352928161621,-0.34297630190849304,0.4274406433105469
2.583361864089966,-0.10041159391403198,0.15578404068946838,-0.12571024894714355,-0.30820943621973856,-0.8254132517766389,2.5901098997929943,-0.7002018094062805,0.3033529222011566,-0.6462929248809814,-0.2039506584405899,-0.2728123068809509,0.4511513411998749
2.603576898574829,0.018440544605255127,0.20668849349021912,-0.14563870429992676,-0.312326411324148,-0.8303587345934076,2.598735832960634,-0.7024615406990051,0.30727332830429077,-0.6419742107391357,0.5314319133758545,-0.45997846126556396,0.3896695077419281
2.6229639053344727,0.00025385618209838867,0.19857484102249146,-0.02611517906188965,-0.3069232383360481,-0.832864614486431,2.6172797051220322,-0.7052862048149109,0.30212709307670593,-0.6413195133209229,1.0967540740966797,-0.3296154737472534,0.44102853536605835
2.642775774002075,0.007699549198150635,0.1807580292224884,0.07512742280960083,-0.2992115790884526,-0.8299349131284693,2.6431458653427895,-0.7051025032997131,0.294766902923584,-0.6449363827705383,1.1654129028320312,-0.16627050936222076,0.6432663798332214
2.663400888442993,0.06161832809448242,0.14559677243232727,0.13829541206359863,-0.29543451713447694,-0.8239780289476183,2.6693380673308518,-0.7020602226257324,0.2911555767059326,-0.6498767733573914,0.936506450176239,-0.008649369701743126,0.7751900553703308
2.681791067123413,0.1500052809715271,0.05818304419517517,0.11665034294128418,-0.2959090180494631,-0.8162415985476782,2.6947096392623995,-0.6969107985496521,0.2916094660758972,-0.6551940441131592,0.8234459161758423,-0.010125825181603432,0.9134508371353149
2.7029519081115723,0.21410948038101196,0.02953895926475525,0.10268765687942505,-0.2981784740414706,-0.8107771932092604,2.720936776590216,-0.692838728427887,0.29377955198287964,-0.658534824848175,0.8873084187507629,-0.22484877705574036,0.9476799964904785
2.7227189540863037,0.1997184157371521,0.04629257321357727,0.12029516696929932,-0.2976363199854155,-0.8084242017053856,2.748984158559013,-0.6914023756980896,0.29326125979423523,-0.6602731347084045,1.0814307928085327,-0.3291718065738678,0.8692174553871155
2.7426819801330566,0.1793498396873474,-0.021683603525161743,0.2107364535331726,-0.2952253782172536,-0.8058123598677279,2.7780717873221175,-0.6901835799217224,0.29095548391342163,-0.6625644564628601,1.0528247356414795,-0.25361359119415283,0.9127885699272156
2.761747121810913,0.21373039484024048,-0.06782281398773193,0.2859182357788086,-0.2966416154932757,-0.8024703322952242,2.805948159031238,-0.6876683831214905,0.2923101484775543,-0.6645802855491638,0.750499963760376,-0.25402289628982544,1.032364010810852
2.782439947128296,0.2717648148536682,-0.036958515644073486,0.29519712924957275,-0.30383407380936345,-0.802092643498711,2.830234175752102,-0.6858882904052734,0.29918086528778076,-0.6633611917495728,0.4790472090244293,-0.48367270827293396,1.0837830305099487
2.8024849891662598,0.2548132538795471,0.055250734090805054,0.20772182941436768,-0.3122722935145589,-0.8091667589331981,2.85356931847378,-0.6887121200561523,0.30722182989120483,-0.6567268967628479,0.5766902565956116,-0.8968943953514099,1.072426676750183
2.822693109512329,0.12100851535797119,0.08444738388061523,0.18540537357330322,-0.31892679131073387,-0.8187840764881695,2.8793013903428126,-0.6934877634048462,0.31354764103889465,-0.6486622095108032,0.7515531778335571,-0.7999516725540161,1.1030590534210205
2.8423478603363037,0.10443425178527832,-0.0022149980068206787,0.23662590980529785,-0.32648081843052135,-0.8243057877898701,2.907614994604876,-0.695300281047821,0.32071173191070557,-0.6431962847709656,0.6495900750160217,-0.7174897193908691,1.3282374143600464
2.862452983856201,0.162794828414917,0.07010549306869507,0.21258068084716797,-0.33835211467339477,-0.831650097384289,2.937382156436352,-0.6971423625946045,0.33193308115005493,-0.635462760925293,0.6934853196144104,-1.0124670267105103,1.3800112009048462
2.8821349143981934,0.0678892731666565,0.2172558307647705,0.14950937032699585,-0.3460195282124835,-0.8413054847611664,2.970234600556022,-0.701327383518219,0.3391559422016144,-0.6269873976707458,1.1217408180236816,-1.0030173063278198,1.293824315071106
2.901378870010376,-0.04100155830383301,0.22124692797660828,0.13894528150558472,-0.3493537732598164,-0.8472519468448857,3.0083043808801113,-0.7041918635368347,0.3422906994819641,-0.6220538020133972,1.2501801252365112,-0.9734742045402527,1.339177131652832
2.9220550060272217,-0.09808802604675293,0.11593520641326904,0.29689598083496094,-0.3552992898287346,-0.861141928670639,3.041716741414623,-0.7112075686454773,0.34787097573280334,-0.6108760237693787,0.5792441964149475,-1.6734755039215088,1.1357665061950684
2.9422359466552734,-0.24415242671966553,0.06022489070892334,0.3519822359085083,-0.3683683574891618,-0.897187877070681,3.056705404128427,-0.7291446328163147,0.36009371280670166,-0.5819627046585083,-0.18406300246715546,-2.382317066192627,0.7401041984558105
2.961905002593994,-0.47977083921432495,0.25553685426712036,0.2142331600189209,-0.37452616641501396,-0.9442168261463272,3.06325361520173,-0.7538869380950928,0.365831583738327,-0.5457303524017334,0.4552219808101654,-2.517249822616577,0.10705139487981796
2.981858015060425,-0.6633830666542053,0.4480907618999481,0.1483391523361206,-0.36161914792168576,-0.98647856951792,3.0783979687262324,-0.7801440954208374,0.3537891209125519,-0.5159538388252258,1.404341697692871,-2.1906261444091797,-0.31484511494636536
3.0020840167999268,-0.6126198768615723,0.33063873648643494,0.06633120775222778,-0.33815310055605585,-1.0178122269757095,3.102930986275137,-0.80277019739151,0.33174535632133484,-0.49548467993736267,1.6310290098190308,-1.8916676044464111,-0.3883479833602905
3.0219600200653076,-0.29804593324661255,0.15207266807556152,0.05761417746543884,-0.3173059664163219,-1.0500215388764176,3.1256232122331093,-0.8241310715675354,0.3120081424713135,-0.47271424531936646,1.383752465248108,-2.1155991554260254,-0.30786263942718506
3.041599988937378,-0.1619638204574585,0.23071721196174622,-0.01889336109161377,-0.29732586664119687,-1.0847144379484084,-3.1313712617490794,-0.845375657081604,0.29296445846557617,-0.4466675817966461,1.8265780210494995,-2.007704019546509,-0.22597336769104004
3.0617330074310303,-0.18497806787490845,0.3681456744670868,0.010308980941772461,-0.2767144033829327,-1.1063687882199074,-3.0941727693848073,-0.8600658774375916,0.2731965184211731,-0.43087175488471985,2.261465549468994,-1.198033332824707,0.052754729986190796
3.0817840099334717,-0.068165123462677,0.30609044432640076,0.04561176896095276,-0.2621641830577208,-1.1125982464003707,-3.0497696536249075,-0.8662067651748657,0.25917139649391174,-0.42721882462501526,2.15600323677063,-0.674540102481842,0.5351788401603699
3.101644992828369,0.08643937110900879,0.21480733156204224,0.07496437430381775,-0.2577957379287863,-1.1133177866239437,-3.0078549690343332,-0.8675214052200317,0.25494974851608276,-0.42709144949913025,1.616463541984558,-0.527687668800354,0.8364388942718506
3.1200320720672607,0.180131196975708,0.07352429628372192,0.06564664840698242,-0.263435502774334,-1.1155639701655222,-2.9755355977400115,-0.8671733736991882,0.26039907336235046,-0.4245028495788574,1.0156642198562622,-0.5267106294631958,1.031415581703186
3.141308069229126,0.2341180443763733,0.0784548819065094,0.05065608024597168,-0.2725478876071953,-1.118858191896083,-2.9481498456195547,-0.8663964867591858,0.2691861391067505,-0.4205901622772217,1.1414010524749756,-0.5171204209327698,0.9124020338058472
3.1618268489837646,0.2830725312232971,0.19304290413856506,0.06468057632446289,-0.27404318417335144,-1.1189698287206398,-2.9138140159139883,-0.8660802841186523,0.2706259489059448,-0.42031723260879517,1.7662513256072998,-0.4312601089477539,0.650509774684906
3.181346893310547,0.2747303247451782,0.14380314946174622,0.10207346081733704,-0.2662845577558129,-1.1172052217978037,-2.8734663574679464,-0.8671984672546387,0.2631487548351288,-0.42275217175483704,1.9743849039077759,-0.4941936135292053,0.3740008473396301
3.2013659477233887,0.21064305305480957,-0.014063447713851929,0.13361603021621704,-0.2561908925739534,-1.1184453362343574,-2.8379179667572507,-0.8700669407844543,0.2533976137638092,-0.4228159487247467,1.4843498468399048,-0.5544540286064148,0.22577516734600067
3.2212119102478027,0.1495632529258728,-0.16109704971313477,0.19966566562652588,-0.24979203445448425,-1.126278691765999,-2.817185039098359,-0.8747981786727905,0.24720245599746704,-0.41667619347572327,0.5755565762519836,-0.7584376335144043,0.07920343428850174
3.240302801132202,0.09016811847686768,-0.1592717170715332,0.18158870935440063,-0.2487272217906649,-1.1425918693374126,-2.8150821891322684,-0.8817177414894104,0.2461705505847931,-0.4024597108364105,-0.3242492377758026,-0.9258586168289185,-0.0882386714220047
3.2609939575195312,0.00950688123703003,-0.08965487778186798,0.10479062795639038,-0.25136655411285874,-1.1653050503407125,-2.829281226540382,-0.890030562877655,0.24872779846191406,-0.38207340240478516,-0.9775217175483704,-0.9608544111251831,-0.23787735402584076
3.2813870906829834,-0.03170502185821533,-0.0540158748626709,-0.013780474662780762,-0.2531055653997797,-1.1891541549826288,-2.8530950358540696,-0.8984859585762024,0.2504117786884308,-0.3605786859989166,-1.142318844795227,-0.8258726596832275,-0.47544464468955994
3.3010199069976807,-0.014779865741729736,-0.04406273365020752,0.014828681945800781,-0.25105264957251855,-1.2119254017103716,-2.877594478816033,-0.9069424867630005,0.2484237402677536,-0.34020715951919556,-1.0011863708496094,-0.8864769339561462,-0.5560941100120544
3.320952892303467,-0.11661380529403687,-0.020388633012771606,0.06982100009918213,-0.2465262869780921,-1.2343631228941725,-2.8994160572058822,-0.9153991341590881,0.2440367490053177,-0.32014143466949463,-0.8213395476341248,-0.7548093199729919,-0.5938437581062317
3.3412559032440186,-0.22916561365127563,-0.012475341558456421,0.026090621948242188,-0.24066777535541942,-1.249412301052675,-2.916698818877409,-0.9214538335800171,0.23835121095180511,-0.3067760467529297,-0.5856248140335083,-0.31962090730667114,-0.4904327988624573
3.3603250980377197,-0.17153805494308472,-0.014858722686767578,-0.08230847120285034,-0.2348460489143964,-1.2536826291217216,-2.928356496139553,-0.924058198928833,0.23269326984882355,-0.30326589941978455,-0.3095332682132721,0.12924379110336304,-0.413629412651062
3.381215810775757,0.0034470558166503906,-0.058095306158065796,-0.02982291579246521,-0.23052661281416165,-1.2511191383438538,-2.9360998856081033,-0.9242233037948608,0.22849023342132568,-0.3059467375278473,-0.3107430934906006,0.24503368139266968,-0.26583948731422424
3.3999879360198975,0.08928042650222778,-0.1070885956287384,0.012460768222808838,-0.226560338479925,-1.2495914236673777,-2.943668275295539,-0.924607515335083,0.22462709248065948,-0.30764204263687134,-0.2586590349674225,0.05987802520394325,-0.3492482304573059
3.420746088027954,0.04424017667770386,-0.17576293647289276,0.019714772701263428,-0.22104626884853282,-1.2529341560619955,-2.950924159624463,-0.9267932176589966,0.21925055980682373,-0.3049320876598358,-0.2717899978160858,-0.21698738634586334,-0.3917364776134491
3.4405438899993896,-0.09704428911209106,-0.24038510024547577,0.09037202596664429,-0.21670186636834432,-1.257975114579777,-2.961019133105831,-0.9292160868644714,0.21500980854034424,-0.3005465865135193,-0.47868889570236206,0.04494062438607216,-0.320541113615036
3.460669994354248,-0.029298782348632812,-0.19655005633831024,0.03289598226547241,-0.21134938483154886,-1.2545891446121016,-2.9687198395347565,-0.9292735457420349,0.20977945625782013,-0.3040446639060974,0.06199956312775612,0.43690475821495056,-0.44218719005584717
3.4806759357452393,0.20863878726959229,0.01666302978992462,-0.029699265956878662,-0.19719802588640517,-1.2437435574489217,-2.962137380704978,-0.9286399483680725,0.19592243432998657,-0.3150273263454437,0.9626114964485168,0.3948628306388855,-0.7207397222518921
3.500037908554077,0.3197140693664551,-0.04077523946762085,-0.02676534652709961,-0.1747969610593218,-1.2362226367508424,-2.9463448449295098,-0.9301571846008301,0.17390818893909454,-0.3233628273010254,1.0847173929214478,0.09541897475719452,-0.831027626991272
3.5200350284576416,0.29174143075942993,-0.21053287386894226,0.10729339718818665,-0.15566459412001346,-1.233131171100015,-2.9368937681332716,-0.9321222305297852,0.15503668785095215,-0.32727932929992676,0.336664617061615,0.09893745929002762,-0.6570826172828674
3.540355920791626,0.3214957118034363,-0.267941415309906,0.2668834328651428,-0.14614669389876409,-1.2312044240765825,-2.9436732445952396,-0.932839035987854,0.1456269919872284,-0.3295513093471527,-0.6326879858970642,0.15204869210720062,-0.47625312209129333
3.560045003890991,0.40230780839920044,-0.27324891090393066,0.23082801699638367,-0.14376939725307294,-1.2345941476839486,-2.96509896325521,-0.9342750310897827,0.14327463507652283,-0.32650068402290344,-1.142820119857788,-0.2537919282913208,-0.5041576027870178
3.5801069736480713,0.31348109245300293,-0.15468847751617432,0.11768603324890137,-0.13880694929210097,-1.247751113880501,-2.987441417316253,-0.9391524195671082,0.1383616328239441,-0.31440237164497375,-0.6952356696128845,-0.711370587348938,-0.6739716529846191
3.600372076034546,0.012775838375091553,-0.012979432940483093,0.1468297243118286,-0.12792157192070097,-1.2630786930535085,-3.0002580443004376,-0.9452403783798218,0.12757296860218048,-0.3004094660282135,-0.21629689633846283,-0.5095128417015076,-0.7416619062423706
3.62003493309021,-0.11582750082015991,-0.011398911476135254,0.18070214986801147,-0.11562984126372804,-1.2675528823324753,-3.007044499091133,-0.9480000138282776,0.11537234485149384,-0.296623170375824,-0.07968897372484207,0.07881806790828705,-0.6219664216041565
3.6401660442352295,0.11065959930419922,-0.05519789457321167,0.13634365797042847,-0.10386174156923068,-1.2670110949505284,-3.0105341863800033,-0.9490690231323242,0.10367511212825775,-0.29752227663993835,0.10898160189390182,-0.0994773656129837,-0.6625404953956604
3.660051107406616,0.17315858602523804,-0.07731826603412628,0.1604851484298706,-0.08892534314925407,-1.2717604411026067,-3.0106366968481053,-0.9518450498580933,0.08880818635225296,-0.2934349775314331,0.2911181151866913,-0.2818325459957123,-0.7606651782989502
3.6822688579559326,0.06221967935562134,0.027797721326351166,0.23495924472808838,-0.07175118575408031,-1.2738548417520419,-3.0073925493411395,-0.9537754654884338,0.07168963551521301,-0.29184406995773315,0.5677110552787781,0.03861641138792038,-0.8081753253936768
3.701525926589966,0.13690847158432007,0.12371675670146942,0.18576544523239136,-0.049933802484630016,-1.2725349476488388,-2.9979057582314685,-0.9546574354171753,0.04991305619478226,-0.29349252581596375,1.0006486177444458,-0.05707433819770813,-1.025617003440857
3.720031976699829,0.17554432153701782,0.030488083139061928,0.07636463642120361,-0.022477114010535378,-1.278132079203148,-2.982739849033357,-0.9572367668151855,0.022475222125649452,-0.2884313464164734,1.1798087358474731,-0.5251076817512512,-1.080533742904663
3.7400338649749756,0.02684497833251953,0.033898405730724335,0.06789618730545044,0.0017175644058564632,-1.2878669194489842,-2.9682179662219923,-0.9602403044700623,-0.001717563602142036,-0.27916938066482544,0.8723042607307434,-0.3640015125274658,-0.8428765535354614
3.7600347995758057,-0.04947340488433838,0.09199545532464981,0.18215513229370117,0.019074817514871195,-1.2919272868614626,-2.9599381409522776,-0.9611924886703491,-0.019073661416769028,-0.27521848678588867,0.4252673387527466,-0.06220323219895363,-0.5818636417388916
3.780033826828003,0.09556174278259277,0.09147458523511887,0.18548956513404846,0.028413786908232465,-1.293093731652298,-2.957945163022089,-0.9612995386123657,-0.028409963473677635,-0.27403631806373596,0.051759883761405945,-0.09096679091453552,-0.2797463536262512
3.800034999847412,0.2093895673751831,0.16622111201286316,0.12174510955810547,0.03491099754328174,-1.2972328194942233,-2.9542626383782427,-0.9622276425361633,-0.03490390628576279,-0.26999953389167786,0.6356208920478821,-0.31152597069740295,-0.2983953058719635
3.820034980773926,0.1696237325668335,0.25829583406448364,0.13643836975097656,0.04674972153302067,-1.3043573808239084,-2.9355800557990164,-0.9636605381965637,-0.046732693910598755,-0.26301002502441406,1.3651689291000366,-0.26270100474357605,-0.3171244263648987
3.8400349617004395,0.09369206428527832,0.11425934731960297,0.2215934693813324,0.05789514302051001,-1.3086043690474456,-2.9118540036582656,-0.964205801486969,-0.05786280706524849,-0.2587639093399048,1.0940519571304321,-0.06096441671252251,-0.11160154640674591
3.860034942626953,0.21579939126968384,0.01894734427332878,0.18497517704963684,0.062077964790741305,-1.3105755185406935,-2.8950773521824993,-0.964471697807312,-0.06203810125589371,-0.25679829716682434,0.6809864640235901,-0.1360863298177719,0.07396715879440308
3.8800339698791504,0.28100502490997314,0.0423954576253891,0.03011786937713623,0.06500894654456954,-1.3183622013760765,-2.8824699978259667,-0.9662619829177856,-0.06496316939592361,-0.24923409521579742,0.6628173589706421,-0.640825629234314,-0.0715389996767044
3.9000370502471924,0.037213921546936035,0.11390078067779541,-0.03299736976623535,0.0709763159922505,-1.3351150504118305,-2.871030672599178,-0.9699074029922485,-0.07091674208641052,-0.23291759192943573,0.5870251059532166,-0.8141926527023315,-0.2437356859445572
3.9200351238250732,-0.28453290462493896,-0.010975360870361328,0.02690786123275757,0.07806259127918116,-1.3474687455365277,-2.8647405037788762,-0.9721962213516235,-0.07798333466053009,-0.22080132365226746,0.06666580587625504,-0.368282288312912,-0.22661611437797546
3.940035104751587,-0.3422362804412842,-0.10630572587251663,0.14161528646945953,0.08132962020612121,-1.3530660358272422,-2.8666626503635815,-0.9731627702713013,-0.08123999089002609,-0.21530002355575562,-0.03106505237519741,-0.1888706237077713,-0.15719138085842133
3.9600729942321777,-0.3507092595100403,0.0618596151471138,0.12192431092262268,0.08403793782853658,-1.3550621199704498,-2.8655207396123785,-0.973372220993042,-0.08393905311822891,-0.21330922842025757,0.14123916625976562,-0.04141894355416298,-0.11924854665994644
3.980451822280884,-0.3535926938056946,-0.06899601221084595,0.10162672400474548,0.08826879180520535,-1.3568826457530907,-2.8638810991289163,-0.97340327501297,-0.08815421164035797,-0.21145954728126526,0.08662565797567368,-0.17261016368865967,-0.22471031546592712
4.000180006027222,-0.3774351477622986,-0.12143085151910782,0.10687297582626343,0.09312014038907108,-1.3615234921935848,-2.8619404998485405,-0.9739442467689514,-0.0929856225848198,-0.20684857666492462,0.2752451002597809,-0.2217382937669754,-0.22466425597667694
4.020073890686035,-0.37995636463165283,0.06671638041734695,0.1140548586845398,0.10096064038606647,-1.3668667827933068,-2.85253407548045,-0.9742916822433472,-0.10078921169042587,-0.201487734913826,0.8377775549888611,-0.2733178734779358,-0.3526436686515808
4.040089845657349,-0.3729401230812073,0.0024537593126296997,-0.025001108646392822,0.11253912550095495,-1.3757779059503221,-2.833594339747915,-0.974838137626648,-0.11230172216892242,-0.19255875051021576,1.1345252990722656,-0.42000362277030945,-0.3938392102718353
4.060168027877808,-0.5382992625236511,-0.17662250995635986,-0.008948192000389099,0.1217892734344822,-1.3845020601774485,-2.817274222436403,-0.9754182696342468,-0.12148842215538025,-0.1838466078042984,0.5882878303527832,-0.20186038315296173,-0.1922737956047058
4.080097913742065,-0.7084332704544067,-0.2929965853691101,-0.030755221843719482,0.12463843011692008,-1.3895213216011282,-2.8103624620141443,-0.9759844541549683,-0.12431597709655762,-0.1788853108882904,0.2652945816516876,-0.25885653495788574,-0.04659683257341385
4.100084066390991,-0.823307454586029,-0.016045212745666504,-0.1043122261762619,0.1278113524818285,-1.3930848532030875,-2.8027832453988095,-0.9762224555015564,-0.12746365368366241,-0.1753356158733368,0.6196897625923157,-0.01013106293976307,-0.0903426855802536
4.12011194229126,-0.8375027775764465,0.028248563408851624,-0.12388810515403748,0.13033223985125814,-1.3964793205563217,-2.785112454828848,-0.9764924049377441,-0.12996357679367065,-0.17196457087993622,1.0908629894256592,-0.07519963383674622,0.17578865587711334
4.140039920806885,-0.7251864075660706,-0.08549253642559052,-0.04860566556453705,0.130114711584094,-1.3990665205001878,-2.7594463847249284,-0.9769619703292847,-0.1297478824853897,-0.16944245994091034,1.383070945739746,0.11288470029830933,0.21756048500537872
4.16003680229187,-0.6519444584846497,-0.2964940071105957,-0.05144500732421875,0.12963473802114142,-1.4028880482779493,-2.730174329484503,-0.9776636362075806,-0.1292719542980194,-0.16571813821792603,1.386500358581543,-0.15830978751182556,0.41287609934806824
4.180034875869751,-0.708916425704956,-0.19779428839683533,-0.23311199247837067,0.12171989348355455,-1.4127588333292904,-2.699732901364278,-0.9802315831184387,-0.12141955643892288,-0.15621605515480042,1.6510529518127441,-0.45021852850914,0.8543400764465332
4.200035810470581,-0.6379563808441162,-0.07345610111951828,-0.4021739959716797,0.10916412770931025,-1.427145270493942,-2.6624989983349665,-0.9838088750839233,-0.10894744098186493,-0.142305389046669,1.77303946018219,-0.4946953356266022,0.747741162776947
4.2200610637664795,-0.6911854147911072,-0.22231139242649078,-0.40627962350845337,0.10170106451093312,-1.4385955367842402,-2.63159800083521,-0.9861522316932678,-0.10152583569288254,-0.13113494217395782,0.9281569123268127,-0.3549242317676544,0.474134236574173
4.240033864974976,-0.7843314409255981,-0.3969854414463043,-0.1677631139755249,0.09663407679916312,-1.4435724358885846,-2.622138019545735,-0.9872902631759644,-0.0964837521314621,-0.1262890100479126,0.16337968409061432,0.012994140386581421,0.21029727160930634
4.260024785995483,-0.8340702056884766,-0.09263361245393753,-0.23282039165496826,0.09287884439887001,-1.4394392222699393,-2.616271757797018,-0.9871120452880859,-0.09274536371231079,-0.130415141582489,0.375814288854599,0.5600987672805786,0.31240972876548767
4.280075788497925,-0.8655785322189331,0.14207880198955536,-0.30312293767929077,0.08502175216803638,-1.4234235779693698,-2.6082832038385906,-0.9855873584747314,-0.08491935580968857,-0.1463094800710678,0.3027266561985016,1.0373433828353882,0.5155447125434875
4.30003809928894,-0.6799957752227783,-0.003806881606578827,-0.33417946100234985,0.07308611742525274,-1.4027009907084607,-2.602983780825679,-0.9832732677459717,-0.0730210691690445,-0.16685819625854492,-0.05523493140935898,0.9769952297210693,0.818871259689331
4.320007085800171,-0.5457025170326233,-0.016324017196893692,-0.4649586081504822,0.05375491493597268,-1.386810382336187,-2.6035165889669787,-0.9817022681236267,-0.05372903123497963,-0.18268543481826782,-0.21798120439052582,0.7530005574226379,0.9923157095909119
4.340070009231567,-0.613587498664856,0.11658665537834167,-0.4874705672264099,0.03567681549259945,-1.364600901256877,-2.6015302984549575,-0.9781940579414368,-0.035669248551130295,-0.20460712909698486,0.13394150137901306,1.6054733991622925,0.8286948204040527
4.3592729568481445,-0.46436113119125366,0.04161693528294563,-0.26954221725463867,0.020179663409110347,-1.3263414129343571,-2.5936648424611914,-0.9700717926025391,-0.0201782938092947,-0.24197818338871002,0.11209801584482193,2.1346511840820312,0.9579419493675232
4.3800389766693115,-0.24042028188705444,0.17766910791397095,-0.3742503821849823,-0.0025829987842353767,-1.2811462083730252,-2.592806308944235,-0.958340585231781,0.002582995919510722,-0.2856159508228302,-0.46347907185554504,2.348381757736206,1.1564357280731201
4.400042772293091,-0.2251785397529602,0.10914924740791321,-0.7092875838279724,-0.024398121177499295,-1.2303716489060363,-2.5910199908011324,-0.94233238697052,0.02439570054411888,-0.33378803730010986,-0.02649104595184326,2.789396047592163,1.003398060798645
4.4200379848480225,-0.25472211837768555,0.2831544280052185,-0.5601503849029541,-0.0400221859931674,-1.1708045984116524,-2.581156528581741,-0.9203267097473145,0.04001150280237198,-0.3890989124774933,0.33647069334983826,3.120300531387329,0.8224058747291565
4.440058946609497,-0.23288512229919434,0.28997257351875305,-0.26576435565948486,-0.0520003579728959,-1.104004805834372,-2.56665017398619,-0.8918097019195557,0.05197692662477493,-0.44941508769989014,0.4852367043495178,3.496220588684082,0.9499671459197998
4.4600770473480225,-0.20269370079040527,0.3788030743598938,-0.2005983591079712,-0.0690667783734458,-1.0311975148278727,-2.546574455250347,-0.8558695316314697,0.0690118819475174,-0.5125669240951538,0.4641076922416687,3.7280659675598145,1.5044111013412476
4.4800379276275635,-0.20641809701919556,0.5702041387557983,-0.1323467493057251,-0.08704073404194151,-0.9487631677002548,-2.5151191730072613,-0.8096188306808472,0.08693087100982666,-0.5804828405380249,1.2862119674682617,4.307260036468506,1.7245835065841675
4.500036954879761,-0.10316610336303711,0.4488721489906311,0.08893531560897827,-0.09570753491223694,-0.855155511232897,-2.4660448230556486,-0.7512192130088806,0.09556148946285248,-0.6530985236167908,1.9053524732589722,4.568377494812012,1.9945296049118042
4.520039796829224,-0.00015205144882202148,0.2682502865791321,0.4445726275444031,-0.09819470827035141,-0.7578946331575359,-2.4095725313877203,-0.684082567691803,0.0980369821190834,-0.7227861881256104,1.8768236637115479,4.591892242431641,2.054591417312622
4.540040969848633,0.14622622728347778,0.14696434140205383,0.6821456551551819,-0.09926184160438228,-0.6632192624142033,-2.3572541457514533,-0.6126263737678528,0.09909892082214355,-0.7841354608535767,1.4468441009521484,4.391811847686768,1.971122145652771
4.560045957565308,0.27035075426101685,0.06517428904771805,0.8143705725669861,-0.10021556823398588,-0.5741188276922575,-2.3100730565296708,-0.5403702259063721,0.10004790872335434,-0.8354582786560059,1.2778122425079346,4.020978927612305,1.9291993379592896
4.579262018203735,0.32294726371765137,0.09543494135141373,0.7958905100822449,-0.09556741191595008,-0.49454800803757304,-2.2629827786322165,-0.4724680781364441,0.09542200714349747,-0.8761669993400574,1.5959231853485107,3.490501880645752,1.8900090456008911
4.6000378131866455,0.2182241976261139,0.1459350287914276,0.7383911609649658,-0.07967416043182318,-0.4241164761398969,-2.212901990190938,-0.4102102518081665,0.07958989590406418,-0.9085114002227783,1.9501888751983643,3.206345796585083,1.9088040590286255
4.62003493309021,0.1348203718662262,0.07684653997421265,0.8422921895980835,-0.05810438801212881,-0.3575171839614274,-2.163170731992627,-0.3493589162826538,0.05807169899344444,-0.9351876974105835,1.8902384042739868,3.086827516555786,1.8299940824508667
4.640057802200317,0.23762953281402588,-0.000828474760055542,0.9343708753585815,-0.03689338400847779,-0.2978949635702778,-2.1194387718764776,-0.2933087944984436,0.03688501566648483,-0.9553059339523315,1.4885139465332031,2.6355032920837402,1.6258381605148315
4.660131931304932,0.31389307975769043,0.0023512430489063263,0.8109179139137268,-0.0203552658655729,-0.2506267581434872,-2.0832500576751727,-0.24795980751514435,0.020353861153125763,-0.9685564637184143,1.2045693397521973,2.0135204792022705,1.431753396987915
4.680015802383423,0.17016282677650452,0.13622130453586578,0.5828293561935425,0.0012420285731809095,-0.21376415227749526,-2.0508638449498644,-0.21213971078395844,-0.0012420282000675797,-0.9772385358810425,1.7321841716766357,1.7349517345428467,1.2444452047348022
4.700016975402832,-0.060201674699783325,0.2772999405860901,0.5144236087799072,0.034829556116145424,-0.17912875439782813,-2.0195827593299125,-0.1780642718076706,-0.03482251614332199,-0.9834024906158447,2.0737130641937256,1.819325566291809,1.1924834251403809
4.719986915588379,-0.09766624867916107,0.154364213347435,0.551524817943573,0.06913788758514362,-0.14389501746949185,-1.990745207743706,-0.14305636286735535,-0.0690828189253807,-0.9873005747795105,1.687123417854309,1.8238041400909424,1.0964237451553345
4.740064859390259,0.02271505445241928,-0.012633509933948517,0.5840902924537659,0.09307636042440276,-0.1123494592372606,-1.9663310051528151,-0.1116279736161232,-0.09294202923774719,-0.9893942475318909,1.0551342964172363,1.504713773727417,1.0065762996673584
4.760065793991089,0.05612974613904953,0.09289491921663284,0.4686817526817322,0.11020769966314867,-0.08779551702304152,-1.9458552363834425,-0.08715082705020905,-0.10998474061489105,-0.9901050925254822,1.0207442045211792,1.1871488094329834,0.8574671149253845
4.779975891113281,-0.07231607288122177,0.2750104069709778,0.34018582105636597,0.13483940483748522,-0.06722980893228846,-1.9279026402891895,-0.06656938791275024,-0.1344311684370041,-0.988684356212616,1.5321398973464966,1.1161218881607056,0.7338010668754578
4.799997091293335,-0.13228709995746613,0.25994905829429626,0.27739471197128296,0.16715953080670054,-0.047267847064015094,-1.9129093860835122,-0.04659164324402809,-0.16638214886188507,-0.9849600195884705,1.7219527959823608,1.1027249097824097,0.5854904055595398
4.8199989795684814,-0.04759746789932251,0.04866549372673035,0.26832127571105957,0.19667473466683771,-0.03049439598225021,-1.898759533349616,-0.029901884496212006,-0.19540925323963165,-0.9802658557891846,1.2073447704315186,0.7830679416656494,0.688134491443634
4.8399879932403564,0.007284076884388924,-0.06608416140079498,0.29314368963241577,0.21208294305701594,-0.021765694617874965,-1.8840100639265833,-0.02127634547650814,-0.21049663424491882,-0.9773630499839783,0.4388446807861328,0.3963622748851776,0.7390992045402527
4.86646580696106,0.005524763837456703,-0.08277364075183868,0.18124788999557495,0.21511571434651383,-0.019557021577331232,-1.8681915968054832,-0.01910504698753357,-0.21346047520637512,-0.9767648577690125,0.035127587616443634,0.16360034048557281,0.8044930100440979
4.881108999252319,-0.004638480022549629,-0.10292948782444,0.1676228642463684,0.21514798327971418,-0.02144652530737572,-1.8516801899362232,-0.02095046639442444,-0.2134920060634613,-0.9767201542854309,0.03732660412788391,-0.023029904812574387,0.7954703569412231
4.900028944015503,-0.019994940608739853,0.01486814022064209,0.19513732194900513,0.2156163571788686,-0.025598659140035552,-1.8368051559201473,-0.025003183633089066,-0.2139495611190796,-0.9765246510505676,0.11077507585287094,-0.05090068653225899,0.6395875811576843
4.920109033584595,-0.038132261484861374,0.030406132340431213,0.13925576210021973,0.22027830038037344,-0.028055174155704885,-1.8253873951603323,-0.027373677119612694,-0.21850121021270752,-0.9754526615142822,0.3553755581378937,0.03566190227866173,0.49889373779296875
4.940095901489258,0.026412785053253174,-0.09312936663627625,0.11559373140335083,0.22858882919527004,-0.030491142966473365,-1.814789384423209,-0.029693379998207092,-0.22660328447818756,-0.9735344052314758,0.4691603481769562,-0.0883030965924263,0.5215654373168945
4.960107088088989,0.0777759701013565,-0.07648395001888275,0.17571991682052612,0.2357052957448436,-0.03713937866895291,-1.8033718893191037,-0.036104168742895126,-0.23352883756160736,-0.9716793298721313,0.2723046839237213,-0.30921319127082825,0.5632914900779724
4.980052947998047,0.04038117825984955,-0.033804312348365784,0.254838764667511,0.23931702982363867,-0.0479294987710664,-1.7914877699465435,-0.046545688062906265,-0.23703917860984802,-0.970384418964386,0.21981829404830933,-0.4850405156612396,0.5780240297317505
5.000036954879761,-0.0017447583377361298,0.06503485143184662,0.16839832067489624,0.24616330500800257,-0.061518158374897235,-1.7790099653310836,-0.05962603539228439,-0.24368472397327423,-0.9680199027061462,0.5185714960098267,-0.5634078979492188,0.619935929775238
5.02005410194397,0.007287181913852692,0.07579571008682251,0.1593719720840454,0.25572841447639755,-0.07725671612997718,-1.764880868900856,-0.07466994225978851,-0.25295019149780273,-0.9645934700965881,0.4436185956001282,-0.6822459101676941,0.6569651365280151
5.039711952209473,0.05509120970964432,-0.014484256505966187,0.21873056888580322,0.2585433524691901,-0.09556305172072159,-1.75143973754093,-0.09224630892276764,-0.2556726038455963,-0.9623523950576782,-0.055967219173908234,-0.80787593126297,0.6208360195159912
5.06004786491394,0.07854397594928741,-0.013384014368057251,0.23610591888427734,0.25409671297713093,-0.11558528454838311,-1.7397186588170805,-0.11162498593330383,-0.25137123465538025,-0.9614324569702148,-0.24125105142593384,-0.8920997977256775,0.552268385887146
5.07907509803772,0.03383664786815643,0.05027349293231964,0.16285216808319092,0.2497142783009053,-0.1353272233632131,-1.7298247708594496,-0.13072991371154785,-0.24712711572647095,-0.9601238965988159,-0.06379539519548416,-0.8215582370758057,0.4554970860481262
5.100054025650024,0.036259591579437256,-0.032389476895332336,0.1519150733947754,0.24786599158685912,-0.15310546336731726,-1.7211721462483063,-0.14784707129001617,-0.24533572793006897,-0.9580979347229004,-0.03895638510584831,-0.7705020904541016,0.40271544456481934
5.120149850845337,0.09672394394874573,-0.10468918085098267,0.1812477707862854,0.24429098202699026,-0.17095044793644576,-1.7139597430585725,-0.16506803035736084,-0.24186842143535614,-0.9561653733253479,-0.2272409200668335,-0.8439892530441284,0.35200682282447815
5.140078783035278,0.11782746016979218,-0.10618987679481506,0.17833620309829712,0.23646163583998883,-0.189445360558808,-1.7082578260023453,-0.1830739825963974,-0.23426419496536255,-0.9547796845436096,-0.422903448343277,-0.8610904812812805,0.34451907873153687
5.160045862197876,0.1078304797410965,-0.041415587067604065,0.23926091194152832,0.22527063822439378,-0.20800489948552925,-1.7029042593817114,-0.20129051804542542,-0.22337016463279724,-0.9537231922149658,-0.5699655413627625,-0.8895910382270813,0.4079152047634125
5.180049896240234,0.1583290994167328,-0.009187951683998108,0.3008050322532654,0.2106744880857547,-0.22757848601329692,-1.6967827160411901,-0.2206306904554367,-0.2091195285320282,-0.9526757597923279,-0.7139459848403931,-0.9394004940986633,0.4796256721019745
5.2001330852508545,0.19766969978809357,0.0586061030626297,0.24746429920196533,0.19525080775697193,-0.24742735172837502,-1.6906384125388008,-0.24025693535804749,-0.1940125823020935,-0.9511234164237976,-0.5288280248641968,-0.9168427586555481,0.444990873336792
5.220354795455933,0.19342419505119324,0.06549359858036041,0.12051612138748169,0.18646047500940502,-0.26664598033996767,-1.683567145738419,-0.25893011689186096,-0.18538188934326172,-0.9479392170906067,-0.1810312122106552,-0.8714771270751953,0.49699851870536804
5.2401039600372314,0.19376009702682495,0.020171672105789185,0.11609786748886108,0.18209552947386567,-0.2858241922542818,-1.673209294304616,-0.27728667855262756,-0.181090846657753,-0.9435667395591736,-0.00839713029563427,-0.8909454345703125,0.5796995162963867
5.260051012039185,0.23753675818443298,0.003391548991203308,0.20247983932495117,0.17696698338974035,-0.3070735130783135,-1.6621693255696113,-0.2975495457649231,-0.1760447472333908,-0.9383349418640137,-0.23316830396652222,-1.0565757751464844,0.6187103986740112
5.280123949050903,0.2822602391242981,-0.04896251857280731,0.24770402908325195,0.16369691187552451,-0.33149813196100886,-1.6529119372449737,-0.3211090564727783,-0.1629668027162552,-0.932915210723877,-0.7061825394630432,-1.2140053510665894,0.6730829477310181
5.3000757694244385,0.25984665751457214,0.012328952550888062,0.13925480842590332,0.14545544877803823,-0.35771808789449416,-1.6445922549773875,-0.34644022583961487,-0.14494308829307556,-0.9268066883087158,-0.700680673122406,-1.3246557712554932,0.7162343263626099
5.320124864578247,0.20787450671195984,0.1686604768037796,0.0913192629814148,0.12570205131384501,-0.38662371987680794,-1.6360820013955777,-0.37408843636512756,-0.1253712773323059,-0.9188796877861023,-0.8701039552688599,-1.427730917930603,0.7786039113998413
5.340049982070923,0.19153037667274475,0.12820282578468323,0.13931691646575928,0.10100017087776574,-0.4161455618998306,-1.6298475315632488,-0.40217792987823486,-0.10082854330539703,-0.9099925756454468,-1.1779849529266357,-1.4896043539047241,0.772903561592102
5.360051870346069,0.2420814335346222,0.09027242660522461,0.20993471145629883,0.07128981825218492,-0.44790377414858823,-1.6260461121361705,-0.4319770038127899,-0.07122945040464401,-0.8990674018859863,-1.2844016551971436,-1.656566858291626,0.8007141947746277
5.380133867263794,0.21340727806091309,0.08062054216861725,0.2059715986251831,0.04628952943225772,-0.4817593045353071,-1.621271805145296,-0.4628426432609558,-0.04627300053834915,-0.8852318525314331,-0.6356975436210632,-1.7114996910095215,0.7402259707450867
5.399838924407959,0.08334684371948242,0.13263587653636932,0.14120030403137207,0.03654414766879276,-0.5206057407425326,-1.6108623349961946,-0.49707362055778503,-0.03653601557016373,-0.8669388294219971,0.2612186074256897,-2.3177762031555176,0.6015633344650269
5.41916298866272,-0.12309157848358154,0.052845533937215805,0.19317996501922607,0.041520176543471746,-0.5852439798455746,-1.5998800070974544,-0.5519266724586487,-0.04150824621319771,-0.8328589200973511,0.5406742691993713,-4.271155834197998,0.029195386916399002
5.442602872848511,-0.5243580341339111,-0.10275867581367493,0.17994987964630127,0.040272833009094004,-0.6786750530064775,-1.599928938962569,-0.6272531747817993,-0.040261946618556976,-0.7777739763259888,-0.7837681174278259,-4.579017162322998,0.22788013517856598
5.460076093673706,-0.9961665868759155,-0.1679503172636032,0.09279167652130127,0.01820792017630631,-0.757866119208125,-1.6123292458568943,-0.6872592568397522,-0.018206914886832237,-0.726184070110321,-1.4483281373977661,-3.3920414447784424,0.1774171143770218
5.479314088821411,-1.0694701671600342,0.16216178238391876,-0.02461230754852295,0.002554838324027206,-0.81100678543289,-1.626367497506771,-0.7249786257743835,-0.002554835518822074,-0.6887666583061218,-0.58499675989151,-2.024787664413452,-0.06350958347320557
5.500020980834961,-0.5316303968429565,0.16250847280025482,-0.07894408702850342,0.0010704810803024017,-0.8490106341265332,-1.6311585410787441,-0.7506266236305237,-0.0010704809101298451,-0.6607257127761841,0.07094811648130417,-2.0010135173797607,-0.08909909427165985
5.5200560092926025,-0.20930266380310059,0.0024386844597756863,-0.12371200323104858,0.0045138858831740136,-0.8944360980106071,-1.6271500577628293,-0.7798482775688171,-0.00451387045904994,-0.6259523034095764,0.3564266264438629,-2.5463509559631348,0.037093501538038254
5.540041923522949,-0.3077923655509949,-0.20412234961986542,-0.1863824725151062,0.01154563521543131,-0.9481678383820233,-1.624263551633703,-0.8122942447662354,-0.011545378714799881,-0.5831335783004761,0.22523115575313568,-2.7284648418426514,-0.47048667073249817
5.560049772262573,-0.4604424834251404,-0.1228892132639885,-0.16601788997650146,0.022147378645521902,-0.9991058256016887,-1.6303909029915895,-0.8407812714576721,-0.02214556746184826,-0.5409218072891235,-0.16027335822582245,-2.3004629611968994,-0.6969366669654846
5.579638957977295,-0.3702922463417053,0.06973332911729813,-0.16624021530151367,0.029408582212819112,-1.0384773787097874,-1.6459716091119894,-0.8612598776817322,-0.02940434403717518,-0.5073133111000061,-0.8218261003494263,-1.7308403253555298,-0.7032281160354614
5.6030848026275635,-0.09639710187911987,0.1356416642665863,-0.17819547653198242,0.027750316067274714,-1.0682680804221183,-1.6718528653614337,-0.8760302066802979,-0.02774675376713276,-0.48145729303359985,-1.5139590501785278,-1.355915904045105,-0.36783692240715027
5.620033025741577,0.13904321193695068,0.06382091343402863,-0.27219444513320923,0.016733068936037036,-1.0952894802700426,-1.700566212803556,-0.8889363408088684,-0.016732288524508476,-0.45772504806518555,-1.144661784172058,-1.436659574508667,-0.1759200394153595
5.640060901641846,0.1741921305656433,0.18818894028663635,-0.16509398818016052,0.01887853342317472,-1.1218031433638243,-1.710280698130901,-0.9007239937782288,-0.018877411261200905,-0.43398135900497437,0.234277606010437,-1.1791023015975952,-0.31513237953186035
5.660117864608765,0.1296127438545227,0.1876969188451767,-0.016249477863311768,0.026613018365316685,-1.1404821294882985,-1.7024272678822312,-0.9085129499435425,-0.02660987712442875,-0.4170086979866028,0.719957709312439,-0.6636614799499512,-0.13490858674049377
5.680056810379028,0.11673009395599365,0.026292067021131516,-0.06935179233551025,0.03443179641026973,-1.1489761153974196,-1.6901579791864427,-0.9118044972419739,-0.03442499414086342,-0.40917912125587463,0.6133087277412415,-0.19484037160873413,-0.007358297239989042
5.700166940689087,0.21745997667312622,-0.026586104184389114,-0.09267568588256836,0.035860534196331104,-1.1529256886382704,-1.6836852046516386,-0.913367509841919,-0.03585284948348999,-0.40555432438850403,-0.0153807383030653,-0.2707560062408447,0.07203388214111328
5.720155954360962,0.25939011573791504,-0.05183740705251694,-0.09209442138671875,0.033541793384431605,-1.1604810552123674,-1.6888163542235417,-0.9164792895317078,-0.03353550285100937,-0.3986740708351135,-0.4229397475719452,-0.45340293645858765,-0.08684176206588745
5.740051984786987,0.2269212007522583,0.04661320522427559,-0.018812477588653564,0.032504542422248955,-1.1677001717281792,-1.697884943487383,-0.9193649888038635,-0.03249881789088249,-0.3920609951019287,-0.5008482933044434,-0.2826879322528839,-0.1299618035554886
5.7601377964019775,0.2539440989494324,0.028551291674375534,0.07981294393539429,0.028952057726556978,-1.1725293171052782,-1.7104826045012027,-0.9213482141494751,-0.028948012739419937,-0.38765907287597656,-0.8491540551185608,-0.2833106815814972,-0.028381679207086563
5.7801079750061035,0.30057430267333984,0.0014079473912715912,0.17193758487701416,0.01946031326568675,-1.178637132037256,-1.7310878177272058,-0.9239109754562378,-0.019459085538983345,-0.38211220502853394,-1.47249436378479,-0.33856549859046936,0.12722040712833405
5.800194025039673,0.33069849014282227,-0.09771449118852615,0.20694094896316528,0.003664911610126541,-1.1853253110185393,-1.7616912171421084,-0.9266151785850525,-0.0036649033427238464,-0.37599310278892517,-1.7176707983016968,-0.4477333426475525,0.052349332720041275
5.820230960845947,0.29199105501174927,-0.03666162118315697,0.19283372163772583,-0.0012001992089899502,-1.195721961906671,-1.7861025258539425,-0.9304797649383545,0.001200198894366622,-0.3663415014743805,-0.7187561392784119,-0.5748509168624878,-0.46766573190689087
5.840051889419556,0.1868584156036377,-0.057155925780534744,0.34610021114349365,0.0044285550355373255,-1.2084049523566296,-1.800476683202805,-0.9350425601005554,-0.004428540356457233,-0.35450783371925354,-0.5891305804252625,-0.6954197883605957,-0.5562435388565063
5.860018014907837,0.078826904296875,-0.08092537522315979,0.4291976988315582,0.011344750238806147,-1.2238453984906434,-1.8184695856834119,-0.940353274345398,-0.011344507336616516,-0.3400101065635681,-0.8957582712173462,-0.8727737069129944,-0.7206856608390808
5.880141019821167,-0.0016971826553344727,-0.0471019521355629,0.4709745943546295,0.015566494262324045,-1.2393137948090993,-1.8460652740511099,-0.9454463124275208,-0.01556586567312479,-0.3254057466983795,-1.671743631362915,-0.5674106478691101,-0.5062300562858582
5.899493932723999,0.07254165410995483,-0.2041875422000885,0.4895766079425812,0.0066584385947142145,-1.2474360315387378,-1.8898176271732843,-0.9481520652770996,-0.0066583892330527306,-0.31774747371673584,-2.7007369995117188,-0.5460299849510193,-0.11116589605808258
5.920146942138672,0.34016311168670654,-0.04697463661432266,0.34037017822265625,-0.00508930413484151,-1.2652084752863522,-1.937889726333289,-0.9536579251289368,0.0050892820581793785,-0.30084994435310364,-1.9596493244171143,-1.113904356956482,-0.3532930314540863
5.940053939819336,0.31583815813064575,0.2694621682167053,0.20557361841201782,-0.0014881850493618529,-1.2877266609672877,-1.962355325456488,-0.9602015018463135,0.0014881845563650131,-0.2793041467666626,-0.32485830783843994,-1.0727477073669434,-0.6826498508453369
5.96006178855896,0.17141300439834595,0.14588730037212372,0.2730068564414978,0.01313619608970086,-1.307191054915439,-1.9629419816457854,-0.9653735160827637,-0.0131358178332448,-0.2605404853820801,0.5382026433944702,-0.9248542189598083,-0.7030104398727417
5.980041980743408,0.11460775136947632,0.06137378513813019,0.2774481177330017,0.028952868873171077,-1.3263417490360554,-1.9538254523611471,-0.9698627591133118,-0.028948824852705002,-0.2419257014989853,0.7056506276130676,-0.9906669855117798,-0.6205326318740845
6.0001609325408936,0.10830038785934448,-0.045664042234420776,0.1331585794687271,0.04320130454352572,-1.3473811592537301,-1.9411389918053135,-0.9742366075515747,-0.04318786785006523,-0.22135446965694427,0.9147132635116577,-1.0821890830993652,-0.4526284337043762
6.0200769901275635,0.07478457689285278,-0.03151783347129822,-0.06621907651424408,0.05785463393870629,-1.3703275135104196,-1.9170435329380622,-0.9783336520195007,-0.05782236531376839,-0.1987956017255783,1.8648152351379395,-1.0174696445465088,-0.5270419716835022
6.040054082870483,-0.06021767854690552,0.15177197754383087,0.018764570355415344,0.07567227442131907,-1.3904470703264253,-1.8754909221263132,-0.9809657335281372,-0.07560007274150848,-0.17885984480381012,2.4353835582733154,-0.7604610919952393,-0.45024052262306213
6.060063123703003,-0.1734369397163391,0.19275331497192383,0.1290706992149353,0.09504170424986026,-1.40677642253684,-1.8276810413259934,-0.9821263551712036,-0.09489868581295013,-0.16254855692386627,2.6205782890319824,-0.4464454650878906,-0.6662150025367737
6.08008599281311,-0.2143118977546692,0.0620393231511116,0.08984476327896118,0.11805368294901697,-1.4193406936914927,-1.77545861527765,-0.9816719889640808,-0.11777966469526291,-0.14982712268829346,2.9926817417144775,-0.31236717104911804,-0.7716560959815979
6.099266767501831,-0.2915083169937134,0.07216627895832062,0.08655546605587006,0.1421636964983156,-1.4285596107979817,-1.7135431314862932,-0.9799151420593262,-0.14168530702590942,-0.14032752811908722,3.262251615524292,0.2029791623353958,-0.5659605264663696
6.119844913482666,-0.2042723298072815,0.014385804533958435,0.08622109889984131,0.15679691034551538,-1.4321428649260017,-1.6560583177528216,-0.9782532453536987,-0.15615521371364594,-0.13651414215564728,2.4253995418548584,0.15264151990413666,-0.1698211282491684
6.139460802078247,-0.12286680936813354,-0.12192876636981964,0.015640512108802795,0.16490462657092034,-1.4406002166596328,-1.6191758629038342,-0.9780852794647217,-0.16415825486183167,-0.12806734442710876,1.440866231918335,-0.39371219277381897,-0.21107645332813263
6.160072088241577,-0.2610243558883667,0.027258768677711487,-0.14320743083953857,0.17438144242806555,-1.4508698688801545,-1.5923685920767965,-0.977760374546051,-0.1734989881515503,-0.1178247481584549,1.4689662456512451,0.05613158270716667,-0.3751768469810486
6.18028998374939,-0.2928522229194641,0.10337729752063751,-0.1245923638343811,0.1840037004823812,-1.4465007931544722,-1.5640748890698675,-0.9755346179008484,-0.1829671412706375,-0.12188291549682617,1.2452940940856934,0.6595482230186462,-0.20739902555942535
6.200127840042114,0.02937406301498413,-0.061938658356666565,-0.05472247302532196,0.19072616132648829,-1.4425348215234925,-1.54581932439079,-0.9738014340400696,-0.18957193195819855,-0.12559069693088531,0.6882273554801941,-0.09713573753833771,-0.2816455662250519
6.220005989074707,-0.11547344923019409,-0.14564064145088196,-0.12606000900268555,0.1960672541091292,-1.4514796064567503,-1.5367299750158137,-0.9738667607307434,-0.19481344521045685,-0.11675316095352173,0.2908097207546234,-0.31064480543136597,-0.07427185773849487
6.240144968032837,-0.4531441926956177,0.005609273910522461,-0.12066953629255295,0.19632104461280758,-1.4507798306221011,-1.5304228433280844,-0.9737356305122375,-0.19506236910820007,-0.11742869019508362,0.5265029072761536,0.4251328110694885,0.049386166036129
6.259695768356323,-0.32232725620269775,0.1504945456981659,-0.023661665618419647,0.19935883552562347,-1.4456949791355196,-1.5138119238373702,-0.9725334644317627,-0.1980409026145935,-0.12230394780635834,1.0327651500701904,0.33037155866622925,-0.16074569523334503
6.280081033706665,-0.393299400806427,-0.1538419872522354,0.15243816375732422,0.20546497156397067,-1.4440308536519206,-1.4930783419801947,-0.9711109399795532,-0.2040223777294159,-0.12376701086759567,1.0065429210662842,0.31620872020721436,-0.0922650620341301
6.300050973892212,-0.40942877531051636,-0.19498960673809052,0.12786662578582764,0.20787139501039137,-1.4414716404483159,-1.473182912458898,-0.9703013896942139,-0.20637758076190948,-0.12618820369243622,0.9907085299491882,0.24610337615013123,0.04358004406094551
6.320044994354248,-0.4426587224006653,-0.17793986201286316,0.052531979978084564,0.2104197347646203,-1.4461065006327096,-1.451881188668651,-0.9703507423400879,-0.20887039601802826,-0.12162383645772934,1.1180293560028076,-0.25644150376319885,-0.04036900773644447
6.340045928955078,-0.7949228286743164,-0.22138164937496185,-0.07088922709226608,0.2122456513243056,-1.4526701815292102,-1.4286854464292391,-0.9707478284835815,-0.21065568923950195,-0.11520705372095108,1.1283038854599,0.28604963421821594,0.15604369342327118
6.359492063522339,-1.0186042785644531,-0.1552860140800476,-0.23689186573028564,0.2092441104168053,-1.4450952054618484,-1.4074405375339383,-0.9704703092575073,-0.2077205628156662,-0.12263580411672592,0.8651570081710815,0.7678968906402588,0.3587951064109802
6.3800718784332275,-0.7903803586959839,-0.2073466032743454,-0.20420557260513306,0.20294873942550892,-1.434495908644956,-1.394927846896364,-0.9703922867774963,-0.2015584260225296,-0.1330900639295578,0.2270241379737854,0.45628708600997925,0.444044291973114
6.400052785873413,-0.8542253375053406,-0.2866785526275635,-0.1947018951177597,0.19200759416985558,-1.4283944139918825,-1.3941463270775918,-0.9716869592666626,-0.19082997739315033,-0.13931302726268768,-0.2972804605960846,0.3428051471710205,0.6590476632118225
6.420080900192261,-1.2341766357421875,-0.34349513053894043,-0.12321096658706665,0.17925283553083565,-1.4042824328339083,-1.3959329556446993,-0.9703673720359802,-0.17829443514347076,-0.16308976709842682,0.18788830935955048,2.1729612350463867,0.45977234840393066
6.440043926239014,-1.3057775497436523,-0.1402265429496765,-0.023011893033981323,0.16872412276449783,-1.3585441812279857,-1.3848812456630564,-0.9636775255203247,-0.16792473196983337,-0.20767061412334442,0.6055120229721069,2.341686725616455,0.846981406211853
6.460045099258423,-1.0335924625396729,-0.20719239115715027,-0.26261797547340393,0.15327029871406278,-1.3175237808905191,-1.3675706208481393,-0.9567487239837646,-0.15267090499401093,-0.24763600528240204,0.5640918612480164,2.0921223163604736,1.0704783201217651
6.480077028274536,-0.9597247242927551,-0.25192201137542725,-0.3822585940361023,0.13719513177181428,-1.279458118043519,-1.3537655233443857,-0.9488598108291626,-0.13676513731479645,-0.28453531861305237,0.4418637454509735,1.9523063898086548,0.7147053480148315
6.50012993812561,-0.9194528460502625,-0.09853704273700714,-0.43348821997642517,0.1297472140604084,-1.2460140926623302,-1.338293092456351,-0.9397542476654053,-0.12938348948955536,-0.31642022728919983,0.7989923357963562,1.5392636060714722,0.5570352077484131
6.520068883895874,-0.894902765750885,-0.002237655222415924,-0.3987898826599121,0.12350332929364043,-1.2206993098896732,-1.320154871448886,-0.932184636592865,-0.12318959832191467,-0.34037643671035767,0.5896910429000854,1.3834161758422852,0.6886688470840454
6.540251970291138,-0.8676570057868958,-0.13172182440757751,-0.1017867922782898,0.11059946393813819,-1.1937507605544357,-1.3079185251267404,-0.924075722694397,-0.11037412285804749,-0.3659256398677826,0.11625787615776062,1.3919755220413208,0.9249959588050842
6.560045957565308,-0.7394211292266846,-0.06348886340856552,-0.08663219213485718,0.09592944444398928,-1.1653661914620514,-1.2978956608050087,-0.9147078394889832,-0.09578238427639008,-0.3926006555557251,0.309109628200531,1.6829336881637573,0.8245987892150879
6.580054998397827,-0.7377111315727234,0.12578073143959045,-0.16260981559753418,0.08529575280658062,-1.1268263600851374,-1.283169218266218,-0.8997704982757568,-0.08519236743450165,-0.4279663860797882,0.5678809881210327,2.319589376449585,0.7343836426734924
6.60008692741394,-0.5011351704597473,0.10591679811477661,-0.2130376696586609,0.07831739815168363,-1.0789224777480613,-1.2667087417070297,-0.8787475824356079,-0.07823736220598221,-0.4708307683467865,0.4763818681240082,2.5616133213043213,0.6571844816207886
6.6200549602508545,-0.316369891166687,0.05853524059057236,-0.11582624912261963,0.0707861241477966,-1.0284015529215327,-1.2548341935849958,-0.8543301224708557,-0.07072702795267105,-0.5148958563804626,0.23424933850765228,2.6007192134857178,0.5570634007453918
6.639956951141357,-0.12459510564804077,0.08318676799535751,0.06319761276245117,0.06333164464817821,-0.9758727039205597,-1.2455311574839547,-0.8265309929847717,-0.06328931450843811,-0.559321939945221,0.14934785664081573,2.7096517086029053,0.5875433087348938
6.66004490852356,0.04955911636352539,0.17728784680366516,0.11894840002059937,0.05509282679615421,-0.9217542143555469,-1.2373290536995953,-0.7954543828964233,-0.055064961314201355,-0.6035065054893494,0.03165691718459129,2.781501293182373,0.5595795512199402
6.680043935775757,0.12254750728607178,0.23413309454917908,0.06282860040664673,0.04606955879351299,-0.8657551482732776,-1.2306585477616887,-0.7607768177986145,-0.046053264290094376,-0.6473775506019592,-0.061396609991788864,2.825010299682617,0.5550228953361511
6.7001049518585205,0.13793718814849854,0.20446763932704926,0.07402700185775757,0.03640012140487684,-0.8105184822074795,-1.2244870801974812,-0.7241645455360413,-0.03639208525419235,-0.6886662840843201,-0.08747898042201996,2.7570672035217285,0.5689499378204346
6.720044851303101,0.15228766202926636,0.16215328872203827,0.23964285850524902,0.02821539712930977,-0.7530549636974023,-1.2163291162232523,-0.6835986375808716,-0.028211653232574463,-0.7293126583099365,0.12979596853256226,3.056281805038452,0.6261110305786133
6.740133047103882,0.1987549066543579,0.18860095739364624,0.3923814296722412,0.022617787897840594,-0.6895284422000832,-1.2024793802290794,-0.6360107064247131,-0.022615859284996986,-0.771348774433136,0.3301547169685364,3.3797366619110107,0.8075371980667114
6.760045766830444,0.24377673864364624,0.29426664113998413,0.3604767322540283,0.01982337039864956,-0.6198858581303811,-1.182988180590042,-0.5808281302452087,-0.019822072237730026,-0.8137848377227783,0.664516806602478,3.549995183944702,0.8666817545890808
6.780045986175537,0.2904907464981079,0.13524305820465088,0.34711259603500366,0.020681561929936386,-0.5513628147659718,-1.16072333141522,-0.5237365365028381,-0.020680086687207222,-0.8516292572021484,0.6023370623588562,3.3412532806396484,0.9913492798805237
6.800073862075806,0.29773879051208496,0.05763956159353256,0.4177730083465576,0.022393648616576865,-0.485894484001054,-1.1355594036236132,-0.4668824076652527,-0.022391777485609055,-0.8840358853340149,0.8545185327529907,3.3421101570129395,1.0989471673965454
6.820044994354248,0.31487858295440674,0.11757346987724304,0.5526652336120605,0.03197713348611213,-0.4185049540975468,-1.1055345492694293,-0.40618711709976196,-0.03197168558835983,-0.9132304191589355,1.3774100542068481,3.463052272796631,1.1921902894973755
6.8401501178741455,0.35726630687713623,0.023923248052597046,0.6518436670303345,0.05306193134384519,-0.3523479097405351,-1.0707971816727286,-0.34461671113967896,-0.05303703621029854,-0.9372440576553345,1.7602216005325317,3.2981443405151367,1.2738611698150635
6.860030889511108,0.367354154586792,-0.028479717671871185,0.615813136100769,0.07862643687638943,-0.2912565218042007,-1.0343031261269149,-0.2862688899040222,-0.0785454511642456,-0.954924464225769,1.8352389335632324,3.04313588142395,1.3500785827636719
6.882097959518433,0.2954477369785309,-0.033448539674282074,0.46940964460372925,0.10923992639781832,-0.23785505824408937,-0.9992115544315877,-0.2342141568660736,-0.10902278870344162,-0.9660526514053345,2.1057028770446777,2.663217782974243,1.1865286827087402
6.900037050247192,0.15594612061977386,0.1169498860836029,0.44410085678100586,0.1511397738665795,-0.1905206226337684,-0.9699958752048511,-0.1872113198041916,-0.1505650132894516,-0.9707121849060059,2.6396806240081787,2.5214152336120605,0.7622318863868713
6.9201648235321045,0.048773348331451416,0.12473000586032867,0.5258592367172241,0.20410126278513185,-0.14321294593614786,-0.9487191902440663,-0.13976146280765533,-0.20268715918064117,-0.9692185521125793,2.844636917114258,2.5928666591644287,0.4387032687664032
6.940050840377808,0.05902225524187088,0.07761049270629883,0.5549646019935608,0.2560586501392919,-0.09470223588948215,-0.9356502583544567,-0.0914776548743248,-0.25326967239379883,-0.9630609154701233,2.387908697128296,2.5257396697998047,0.21881914138793945
6.96001410484314,0.0738503485918045,0.05941048264503479,0.42119264602661133,0.2956475521662777,-0.048379484626573196,-0.9294950789639156,-0.04626242443919182,-0.2913593649864197,-0.9554944038391113,1.640229344367981,2.287656307220459,0.119064100086689
6.980108022689819,0.004925530403852463,0.1461048126220703,0.278491735458374,0.3242900782621224,-0.005212463302566947,-0.9256881998882784,-0.0049407524056732655,-0.3186359405517578,-0.947864294052124,1.3792790174484253,2.199031352996826,0.16041095554828644
7.000048875808716,-0.06641071289777756,0.26628243923187256,0.2991911768913269,0.3549577745900983,0.038174826797345233,-0.9231365752456504,0.03578636050224304,-0.34755077958106995,-0.9369779825210571,1.6728148460388184,2.267934560775757,0.1408146768808365
7.019486904144287,-0.08440593630075455,0.2774524390697479,0.4173598885536194,0.38838535170542343,0.08341431933995802,-0.922183954974454,0.07711226493120193,-0.3786945044994354,-0.9223037362098694,1.5917797088623047,2.253488779067993,0.12620022892951965
7.04004693031311,-0.060578860342502594,0.17888641357421875,0.47544747591018677,0.4151841436829645,0.12690909988403082,-0.9229206444927022,0.11581569164991379,-0.40335842967033386,-0.9076831340789795,1.0516443252563477,2.072968006134033,0.11041662096977234
7.064894914627075,-0.04158879816532135,0.07525354623794556,0.45497310161590576,0.43036552563952285,0.1654033917807552,-0.9223399687943877,0.14963631331920624,-0.41720303893089294,-0.896409809589386,0.5223118662834167,1.7608567476272583,0.17943255603313446
7.080037832260132,-0.04416167736053467,0.1137288510799408,0.3852531909942627,0.4400162817457583,0.19765008479866703,-0.9196295722144797,0.17766085267066956,-0.4259541928768158,-0.8871300220489502,0.47938841581344604,1.6271952390670776,0.24877703189849854
7.1000730991363525,-0.09391362965106964,0.13701248168945312,0.28306102752685547,0.4543486313975546,0.22833947131018095,-0.9163769279080517,0.20339548587799072,-0.438877135515213,-0.8752240538597107,0.7647099494934082,1.5827361345291138,0.3641766607761383
7.120171785354614,-0.07518944144248962,0.15025973320007324,0.33396458625793457,0.4697444371623728,0.2565574278650147,-0.9114103688535947,0.2262667417526245,-0.45265841484069824,-0.8624985218048096,0.6094669103622437,1.45070219039917,0.39834344387054443
7.140054941177368,-0.016366511583328247,0.04186210036277771,0.3732960820198059,0.479884971455178,0.28082439639489265,-0.9064301302196185,0.24584344029426575,-0.4616771340370178,-0.8522999286651611,0.2091783732175827,1.1606342792510986,0.33277538418769836
7.160049915313721,0.02885580062866211,-0.03329288959503174,0.4092506170272827,0.47989606527818907,0.2964971862129176,-0.8988728151631392,0.2591691315174103,-0.46168696880340576,-0.8483374714851379,-0.3688514232635498,0.7675455212593079,0.3154131770133972
7.1800620555877686,0.018283605575561523,-0.013628840446472168,0.45734232664108276,0.47069267843047086,0.304548963601782,-0.8889323585107174,0.26725414395332336,-0.4535037577152252,-0.8502408862113953,-0.6845324039459229,0.5135527849197388,0.2743088901042938
7.200123071670532,0.013106435537338257,0.1035631000995636,0.428520143032074,0.4614058338253667,0.3092195721975868,-0.8786824798336548,0.27249228954315186,-0.4452073574066162,-0.8529585599899292,-0.41809046268463135,0.41151195764541626,0.33983200788497925
7.220071077346802,0.036108702421188354,0.19899627566337585,0.41840654611587524,0.4577676782600728,0.3125309738554224,-0.8684258490464116,0.27581146359443665,-0.44194671511650085,-0.8535872101783752,-0.23604239523410797,0.37464165687561035,0.3928844928741455
7.240065813064575,0.0810365378856659,0.13605698943138123,0.38788050413131714,0.4581455105209351,0.3149093763527943,-0.8609085582398894,0.2777891457080841,-0.4422856271266937,-0.8527699708938599,0.04221520572900772,0.1485384702682495,0.2783187925815582
7.260123014450073,0.1319677233695984,0.042783141136169434,0.40183448791503906,0.45968078085638175,0.31098995258800294,-0.854551362859126,0.2742365300655365,-0.44366204738616943,-0.8532047271728516,-0.1482865810394287,-0.25312453508377075,0.3200521767139435
7.280057907104492,0.0743924081325531,-0.011582165956497192,0.45482170581817627,0.45419070524566746,0.29863035145351385,-0.8445168096680777,0.2643832266330719,-0.4387352168560028,-0.8588439226150513,-0.6843771934509277,-0.5296643376350403,0.3786325752735138
7.299829959869385,0.03679284453392029,-0.03609412908554077,0.5302587747573853,0.43695238595588626,0.27823290957608593,-0.8290268455752341,0.2488517016172409,-0.42318016290664673,-0.8712010979652405,-1.3153115510940552,-0.8716256618499756,0.47380125522613525
7.320091009140015,0.054831549525260925,0.0389595627784729,0.5878186821937561,0.411997276547598,0.25107301298231166,-0.810278412527905,0.22765442728996277,-0.4004402756690979,-0.8875928521156311,-1.5064120292663574,-1.1007575988769531,0.5261906981468201
7.340372800827026,0.09325368702411652,0.05625006556510925,0.6500713229179382,0.3844528459998912,0.21793622641353794,-0.7907182720656203,0.20043224096298218,-0.37505197525024414,-0.9050762057304382,-1.58602774143219,-1.4826773405075073,0.5880927443504333
7.360216856002808,0.10716001689434052,0.08445844054222107,0.7111790180206299,0.35568989123493366,0.1768355732182613,-0.7716298126539384,0.16490422189235687,-0.34823715686798096,-0.9227879047393799,-1.5973281860351562,-1.9565097093582153,0.5861151218414307
7.38021993637085,0.07450380176305771,0.09190037846565247,0.7755141258239746,0.32422019052267925,0.12701746677601533,-0.7546884026065188,0.12007629871368408,-0.31856968998908997,-0.9402632713317871,-1.807841420173645,-2.489884853363037,0.5050159096717834
7.4002158641815186,0.011512242257595062,0.07061180472373962,0.7274609804153442,0.2847723446168805,0.06713730882445372,-0.7414025082352809,0.06438500434160233,-0.280938982963562,-0.9575635194778442,-2.280686140060425,-3.11472487449646,0.3920381963253021
7.420377016067505,-0.08931123465299606,0.19000816345214844,0.6494897603988647,0.23549864390370684,-0.001959873066274402,-0.7329007190785889,-0.0019057756289839745,-0.23332789540290833,-0.9723962545394897,-2.6335394382476807,-3.548823356628418,0.22891749441623688
7.440094947814941,-0.15112760663032532,0.19498279690742493,0.5826059579849243,0.18267620792798148,-0.07535498365198909,-0.7338721044119094,-0.0740310475230217,-0.18166190385818481,-0.9805704355239868,-2.607940673828125,-3.846914291381836,-0.122603639960289
7.460094928741455,-0.13463842868804932,0.10900154709815979,0.5265810489654541,0.13229054523291184,-0.15693661299522693,-0.7449289333100901,-0.1549275666475296,-0.13190501928329468,-0.9790804386138916,-2.597684383392334,-4.57846212387085,-0.3563051223754883
7.479514837265015,-0.21389496326446533,0.18760612607002258,0.4555681347846985,0.0821687911386419,-0.25382614958730204,-0.7641740330561895,-0.2502621114253998,-0.08207635581493378,-0.9646928906440735,-2.6872544288635254,-5.277247905731201,-0.5075364708900452
7.499891042709351,-0.3544362485408783,0.13205190002918243,0.2751849293708801,0.03571552900744349,-0.36281968292753997,-0.791875253007557,-0.3546854257583618,-0.03570793569087982,-0.9343035817146301,-2.5585949420928955,-5.820583820343018,-0.7358282208442688
7.527148008346558,-0.5655171871185303,-0.1515728235244751,0.21395522356033325,-0.02929304641393932,-0.6111352205405716,-0.8664182093604159,-0.5735514163970947,0.02928885817527771,-0.8186458349227905,-2.0934362411499023,-6.318728446960449,-0.9962838888168335
7.54934287071228,-0.6382151246070862,-0.25480931997299194,0.2711148262023926,-0.047368490745781394,-0.7379408666497606,-0.9073116263822798,-0.6720112562179565,0.04735077917575836,-0.7390255928039551,-1.9271222352981567,-6.258456707000732,-1.0748950242996216
7.56005597114563,-0.6382151246070862,-0.25480931997299194,0.2711148262023926,-0.047368490745781394,-0.7379408666497606,-0.9073116263822798,-0.6720112562179565,0.04735077917575836,-0.7390255928039551,-1.9271222352981567,-6.258456707000732,-1.0748950242996216
7.57933783531189,-0.7110647559165955,-0.2291886806488037,0.2435089349746704,-0.05658089527625987,-0.8639482998841369,-0.9509947136144624,-0.7591958045959473,0.05655071139335632,-0.6484009623527527,-1.8992865085601807,-6.102956295013428,-1.343574047088623
7.61031699180603,-0.8020908236503601,-0.24692152440547943,-0.08873409032821655,-0.0475986546216687,-1.09983685472373,-1.054424670952156,-0.8901241421699524,0.04758068174123764,-0.4532276391983032,-2.306593894958496,-5.433722972869873,-1.8855096101760864
7.637594938278198,-0.8551321625709534,-0.1707063615322113,-0.21099922060966492,-0.028818860959650614,-1.2070275288030532,-1.1160325786448297,-0.9341745376586914,0.028814872726798058,-0.35565122961997986,-2.5342354774475098,-5.0099992752075195,-2.337421178817749
7.639179944992065,-0.8551321625709534,-0.1707063615322113,-0.21099922060966492,-0.028818860959650614,-1.2070275288030532,-1.1160325786448297,-0.9341745376586914,0.028814872726798058,-0.35565122961997986,-2.5342354774475098,-5.0099992752075195,-2.337421178817749
7.664545774459839,-0.8526955842971802,0.19313284754753113,-0.38203397393226624,0.043549457269813026,-1.3675167025223294,-1.2301222536454275,-0.9784812331199646,-0.04353569447994232,-0.20169112086296082,-1.5947166681289673,-2.989302396774292,-2.6676769256591797
7.679421901702881,-0.8526955842971802,0.19313284754753113,-0.38203397393226624,0.043549457269813026,-1.3675167025223294,-1.2301222536454275,-0.9784812331199646,-0.04353569447994232,-0.20169112086296082,-1.5947166681289673,-2.989302396774292,-2.6676769256591797
7.706819772720337,-0.5751993656158447,0.41781389713287354,-0.42559683322906494,0.13486667256946097,-1.4516823466983413,-1.2773795880640144,-0.983897864818573,-0.13445819914340973,-0.11775342375040054,-0.3750884532928467,-1.482202172279358,-2.00077223777771
7.731403112411499,-0.4725372791290283,0.34484612941741943,-0.30729377269744873,0.16803882047062146,-1.473896311454007,-1.289654397420774,-0.9812897443771362,-0.16724911332130432,-0.09538572281599045,-0.5590230226516724,-0.9797186851501465,-1.4339771270751953
7.7498228549957275,-0.3597891330718994,0.18674765527248383,-0.1877618432044983,0.18904659301690632,-1.4872444971338274,-1.308874924381298,-0.9787575006484985,-0.18792255222797394,-0.0819678008556366,-1.1915498971939087,-0.7442883253097534,-0.8312886953353882
7.770349979400635,-0.23062777519226074,0.11392872035503387,-0.14816361665725708,0.19782760339906366,-1.4950606657078778,-1.342308792030909,-0.9776850342750549,-0.1965397745370865,-0.07418752461671829,-2.0450897216796875,-0.7001627087593079,-0.32650792598724365
7.789751768112183,-0.13002872467041016,0.12685923278331757,-0.12562662363052368,0.19674484089416772,-1.499071294176611,-1.393403155882114,-0.9781865477561951,-0.19547800719738007,-0.070281021296978,-2.959096670150757,-0.7363397479057312,0.03982086107134819
7.809942007064819,-0.05285888910293579,0.1991918534040451,-0.11978501826524734,0.18927258262959296,-1.5027919423805474,-1.4608602981079883,-0.9798712730407715,-0.1881445199251175,-0.06673845648765564,-3.6687421798706055,-0.9578561186790466,0.20920129120349884
7.830235958099365,-0.07004624605178833,0.33295613527297974,-0.1603526473045349,0.17948405542984797,-1.5093287766856467,-1.5383521416303776,-0.9820777773857117,-0.17852194607257843,-0.06044205650687218,-3.921739101409912,-1.064020037651062,0.2606963813304901
7.849266767501831,-0.1736687421798706,0.456807017326355,-0.2044197916984558,0.17004289924925445,-1.5147659991673204,-1.6145388660071855,-0.9840309619903564,-0.16922463476657867,-0.05519334599375725,-3.545117139816284,-0.7332441806793213,0.22273224592208862
7.870419979095459,-0.23385339975357056,0.5503919124603271,-0.18776845932006836,0.1640261810379321,-1.5132077532936379,-1.6770232508585503,-0.9849423766136169,-0.16329166293144226,-0.056784212589263916,-2.5915822982788086,-0.16807764768600464,-0.013312669470906258
7.8897199630737305,-0.17081421613693237,0.6149259209632874,-0.14789623022079468,0.16619656779653733,-1.506520538727269,-1.7166702601142025,-0.9841846823692322,-0.16543252766132355,-0.0633465051651001,-1.2908538579940796,0.10896008461713791,-0.46851247549057007
7.9095869064331055,-0.13248366117477417,0.5700536966323853,-0.15678584575653076,0.1786842808952281,-1.5023491365477148,-1.7309783886633185,-0.981774091720581,-0.17773495614528656,-0.0673048198223114,-0.08980807662010193,0.07040940970182419,-0.841345489025116
7.929317951202393,-0.23115015029907227,0.49176180362701416,-0.12544876337051392,0.1963754160715492,-1.4997682072287077,-1.7253719107481271,-0.97830730676651,-0.19511570036411285,-0.06960441917181015,0.6970264315605164,0.3249579966068268,-0.8431448340415955
7.9495460987091064,-0.2507542371749878,0.43616753816604614,-0.03720187395811081,0.21369974480136175,-1.496500110076922,-1.7083652390092787,-0.9745569825172424,-0.21207693219184875,-0.07253941893577576,1.037958025932312,0.24858278036117554,-0.7961872816085815
7.969249963760376,-0.3038604259490967,0.39138707518577576,0.015512354671955109,0.2302069731464011,-1.499543020444685,-1.687501473519586,-0.9711486101150513,-0.22817903757095337,-0.06931489706039429,1.056102991104126,-0.042549457401037216,-0.677347719669342
7.988858938217163,-0.4298282861709595,0.37479692697525024,-0.135387122631073,0.24084224493316606,-1.502657971269848,-1.6677965601653768,-0.968883752822876,-0.23852065205574036,-0.06612050533294678,0.9518698453903198,0.26276376843452454,-0.24837026000022888
8.008805990219116,-0.40536606311798096,0.3672347962856293,-0.1910915970802307,0.24073868724599373,-1.497015084142169,-1.6512948718504532,-0.9685200452804565,-0.23842006921768188,-0.07158856093883514,0.5950736403465271,0.6551703214645386,0.3080563545227051
8.03007197380066,-0.19673937559127808,0.32196301221847534,-0.09964383393526077,0.23038292731126972,-1.4840361939076565,-1.644910248225124,-0.9699171781539917,-0.22835035622119904,-0.08436192572116852,-0.08856122195720673,0.7355169057846069,0.7455814480781555
8.049547910690308,-0.02675396203994751,0.18877799808979034,-0.003949761390686035,0.21039202596460316,-1.4697026345256068,-1.6525486413472028,-0.972956120967865,-0.20884329080581665,-0.09869617968797684,-0.8111390471458435,0.5062319040298462,1.1623475551605225
8.068862915039062,0.05048912763595581,0.1271725445985794,-0.014162115752696991,0.1814037197836664,-1.4589466925273002,-1.6703385351822138,-0.9774452447891235,-0.1804104447364807,-0.10978509485721588,-1.1508359909057617,0.23243196308612823,1.5091816186904907
8.088408946990967,0.009692013263702393,0.15128996968269348,-0.06885045766830444,0.14654967633591418,-1.4529950026016847,-1.6876120678220687,-0.9824245572090149,-0.1460256725549698,-0.11626924574375153,-0.8516351580619812,0.14063972234725952,1.7382657527923584
8.110193967819214,-0.07667326927185059,0.1600664258003235,-0.09666263312101364,0.10921223083266322,-1.4467691364598148,-1.694258558582114,-0.9864064455032349,-0.10899525880813599,-0.12297242134809494,-0.2486642599105835,0.4262528419494629,1.8684128522872925
8.129915952682495,-0.06091415882110596,0.15022054314613342,-0.061916694045066833,0.07179096499573416,-1.4351719499579654,-1.689141297050397,-0.9882648587226868,-0.07172930985689163,-0.13486069440841675,0.2312903255224228,0.7627111673355103,1.8967132568359375
8.148287057876587,0.04975545406341553,0.14875510334968567,0.01952199637889862,0.03593935837606461,-1.4182147404384338,-1.6763694119813701,-0.9877437949180603,-0.03593162074685097,-0.15189208090305328,0.5136943459510803,0.9809806942939758,1.8135613203048706
8.16857099533081,0.15760374069213867,0.12007007002830505,0.0860033631324768,0.003706553533282894,-1.398367273335599,-1.6581741523185685,-0.9851641058921814,-0.003706545103341341,-0.17157471179962158,0.7893022894859314,1.001974105834961,1.6517648696899414
8.188567876815796,0.23492467403411865,0.09139394760131836,0.055217400193214417,-0.023659535065625566,-1.3793795764025258,-1.633912902983206,-0.9814608097076416,0.02365732751786709,-0.190196692943573,1.1232659816741943,0.8713465332984924,1.4704340696334839
8.209950923919678,0.23708575963974,0.02127264067530632,0.0497792512178421,-0.04638620395740049,-1.362367196634299,-1.6035788229874266,-0.9773047566413879,0.04636957123875618,-0.20670069754123688,1.3638955354690552,0.7036469578742981,1.3116965293884277
8.229909896850586,0.20461082458496094,-0.005365319550037384,0.09159007668495178,-0.06560827990763993,-1.3477033332052584,-1.5715201316164662,-0.9731196165084839,0.0655612200498581,-0.22077099978923798,1.3533648252487183,0.5863116383552551,1.2118347883224487
8.248881101608276,0.18045997619628906,-0.020583927631378174,0.11738032102584839,-0.0825520390813341,-1.334221563802359,-1.5405645974033486,-0.9688358306884766,0.08245830982923508,-0.23357601463794708,1.2649822235107422,0.5221771001815796,1.1388798952102661
8.267961978912354,0.20790374279022217,-0.02780395746231079,0.1330489218235016,-0.09833592285668728,-1.3228061675032816,-1.5119069727496515,-0.9647245407104492,0.09817751497030258,-0.24427030980587006,1.1435719728469849,0.3362380564212799,1.065922737121582
8.287009000778198,0.23683124780654907,-0.02438466250896454,0.130224347114563,-0.112527868768335,-1.3157521305359376,-1.4851896835521088,-0.9615321755409241,0.11229053884744644,-0.25069257616996765,1.0954862833023071,0.08917386084794998,0.9681186676025391
8.309159994125366,0.23322850465774536,-0.015258453786373138,0.1295156478881836,-0.12448165410205252,-1.313416546961639,-1.4586980477047824,-0.9595773220062256,0.12416041642427444,-0.25257787108421326,1.1687320470809937,-0.17064741253852844,0.8569546341896057
8.32942795753479,0.19194525480270386,-0.005007758736610413,0.13749003410339355,-0.1337170444497483,-1.3149217378464164,-1.4304901044470786,-0.9588062167167664,0.1333189159631729,-0.25083231925964355,1.3219915628433228,-0.3216385245323181,0.7539950609207153
