timestamp,acceleration_x,acceleration_y,acceleration_z,attitude_pitch,attitude_roll,attitude_yaw,gravity_x,gravity_y,gravity_z,rotation_x,rotation_y,rotation_z
0.0,0.1174653172492981,-0.26414376497268677,0.0025510191917419434,-0.7657578358340408,-1.340903991521159,-1.4670111211124985,-0.7018923163414001,0.6930834650993347,-0.16426371037960052,-1.0359810590744019,0.26996853947639465,0.9977695941925049
0.019623279571533203,-0.0035163164138793945,-0.17128592729568481,-0.2541024684906006,-0.7872219554811806,-1.3510037888573763,-1.4896494500484583,-0.6888360381126404,0.70839524269104,-0.153887078166008,-0.8098424673080444,0.3632320761680603,0.7341839075088501
0.03943514823913574,0.036712825298309326,-0.06065332889556885,-0.26737546920776367,-0.8023533560853209,-1.353962134523903,-1.504211989173472,-0.6787417531013489,0.7189937233924866,-0.1495252102613449,-0.4697706401348114,0.3328821659088135,0.5481935143470764
0.0600590705871582,0.05371057987213135,-0.18672305345535278,-0.21766573190689087,-0.8133962440075817,-1.3557056901431837,-1.5145283955530804,-0.6712033152580261,0.7266247272491455,-0.1466379165649414,-0.5012896656990051,0.16820958256721497,0.3143211007118225
0.08016014099121094,-0.08841824531555176,-0.24186104536056519,-0.1799790859222412,-0.8169236307478892,-1.3661736094854486,-1.5307796208287499,-0.6701878309249878,0.7290436029434204,-0.13908223807811737,-0.6241234540939331,0.021699249744415283,-0.23588424921035767
0.09997797012329102,-0.19014495611190796,-0.20193195343017578,-0.2555641531944275,-0.8083398631306714,-1.3776116516486863,-1.5460191888796249,-0.6778513193130493,0.7231414914131165,-0.1326042115688324,-0.19770020246505737,-0.03083169087767601,-0.7415280938148499
0.12506508827209473,-0.134158194065094,-0.1845659613609314,-0.1735423356294632,-0.7925831954499826,-1.3790708858814178,-1.5493657734458353,-0.6891451478004456,0.7121690511703491,-0.13376975059509277,0.2314702719449997,0.1431812047958374,-0.8351395726203918
0.13905000686645508,-0.09438842535018921,-0.2073061466217041,-0.09311391413211823,-0.7746886789021976,-1.3694214490441265,-1.5443714598571534,-0.7001979351043701,0.6994936466217041,-0.14293967187404633,0.3948093354701996,0.4742439091205597,-0.8298022150993347
0.1600341796875,-0.05679088830947876,-0.25750041007995605,-0.030699610710144043,-0.7568761133881339,-1.3602108917408386,-1.544365839935583,-0.7109246850013733,0.6866537928581238,-0.15196338295936584,-0.10906346887350082,0.37242016196250916,-0.9574726819992065
0.17992305755615234,-0.07101762294769287,-0.23278582096099854,-0.06771938502788544,-0.7357663304311003,-1.3633978130438837,-1.5575032017257977,-0.7254301309585571,0.6711554527282715,-0.15264810621738434,-0.21466057002544403,0.22851687669754028,-1.3082048892974854
0.19996213912963867,-0.009971678256988525,-0.15746712684631348,-0.040523990988731384,-0.7090180710514847,-1.3658086386869286,-1.5667046934336843,-0.7431106567382812,0.6510887742042542,-0.1544986367225647,0.10003718733787537,0.07379600405693054,-1.4847849607467651
0.2199859619140625,-0.0003349781036376953,-0.06803113222122192,-0.028558969497680664,-0.6756492783526198,-1.3671466977056064,-1.5664609415897155,-0.7641762495040894,0.6254040598869324,-0.15781190991401672,0.6227642893791199,-0.22765208780765533,-1.772912859916687
0.24004220962524414,-0.03649342060089111,-0.0014583468437194824,0.048986196517944336,-0.6361582661450962,-1.3671118998122176,-1.5563585508359221,-0.7877559661865234,0.5941095948219299,-0.1627100110054016,0.9764448404312134,-0.3204072117805481,-1.958821415901184
0.25927019119262695,-0.07135027647018433,-0.07339006662368774,0.09114857017993927,-0.593198753800312,-1.3622283502955501,-1.540229440045176,-0.8111876249313354,0.5590161681175232,-0.17168445885181427,1.1168261766433716,-0.161734938621521,-1.902514934539795
0.28003811836242676,-0.0866968035697937,-0.23425215482711792,0.08064156770706177,-0.5564223092962197,-1.3579630889673375,-1.5258421652700491,-0.8299903273582458,0.5281515717506409,-0.17936605215072632,0.638674795627594,-0.19366641342639923,-1.4577851295471191
0.2999739646911621,-0.14598679542541504,-0.10486108064651489,0.1454339623451233,-0.5271115616695562,-1.3631439761984534,-1.5293263390358611,-0.845697283744812,0.5030390620231628,-0.17817942798137665,-0.11477670073509216,-0.12647557258605957,-1.5597269535064697
0.319965124130249,-0.07814288139343262,-0.0010416507720947266,0.1316990703344345,-0.49841199259768126,-1.3696792022996438,-1.5411609443034424,-0.8606390953063965,0.47803133726119995,-0.17546135187149048,-0.3190467655658722,0.022907612845301628,-1.3978123664855957
0.3399982452392578,0.035533010959625244,0.005422472953796387,0.11187325417995453,-0.4736534759287586,-1.375532891912035,-1.5529741668934245,-0.8729965686798096,0.45614057779312134,-0.1726643443107605,-0.1531079262495041,-0.05992184579372406,-1.197610855102539
0.3599720001220703,0.08138900995254517,0.012262493371963501,0.10439576208591461,-0.4540617407142818,-1.3795727657285395,-1.558776704946105,-0.8822923302650452,0.43861931562423706,-0.1708020567893982,-0.03053954243659973,-0.04512904956936836,-0.8554072380065918
0.38005709648132324,0.02283608913421631,0.08156272768974304,0.05905783176422119,-0.437174063148925,-1.38264142361858,-1.562940394146801,-0.8899626731872559,0.4233810007572174,-0.16945527493953705,0.018472157418727875,-0.06765148788690567,-0.9280455708503723
0.3999662399291992,0.03696322441101074,0.19083690643310547,-0.010636195540428162,-0.4177336548533147,-1.3827307800961277,-1.5621353632444244,-0.8978946208953857,0.4056900441646576,-0.1708824336528778,0.4560554027557373,-0.031025836244225502,-0.9474926590919495
0.42003607749938965,0.1479576826095581,0.16728144884109497,-0.005034253001213074,-0.3978822934238409,-1.3816074393533464,-1.5542212352699876,-0.9054345488548279,0.3874669373035431,-0.1733715683221817,0.566623330116272,-0.19202040135860443,-0.8720648884773254
0.44038915634155273,0.20204204320907593,0.06257542967796326,0.017884090542793274,-0.38051603385794136,-1.383568795955232,-1.5478881133073548,-0.9122471213340759,0.3713996410369873,-0.17282187938690186,0.26143839955329895,-0.21989518404006958,-0.701442301273346
0.4599781036376953,0.20573323965072632,0.03257972002029419,-0.03597645461559296,-0.36676175453029236,-1.3881592701531011,-1.5483577429091766,-0.917967677116394,0.35859444737434387,-0.16954423487186432,-0.0019400273449718952,-0.18758100271224976,-0.6980546116828918
0.4799630641937256,0.23322391510009766,0.08224532008171082,-0.10120940208435059,-0.3538981848416444,-1.391534341473457,-1.55220923939076,-0.9229975938796997,0.34655705094337463,-0.167253777384758,-0.13376179337501526,-0.06661277264356613,-0.6500498056411743
0.5000109672546387,0.2358890175819397,0.08073192834854126,-0.1345123052597046,-0.3409993615551786,-1.3951509075563866,-1.5595395310134237,-0.927920937538147,0.3344290852546692,-0.16468210518360138,-0.29300814867019653,-0.044650305062532425,-0.7404611110687256
0.5193929672241211,0.24195611476898193,0.05509072542190552,-0.14593623578548431,-0.3277118611056273,-1.399186083037948,-1.5697457260753889,-0.9328740835189819,0.32187750935554504,-0.16168104112148285,-0.41482362151145935,-0.014534123241901398,-0.7476049065589905
0.5400161743164062,0.23252272605895996,0.054553985595703125,-0.15386390686035156,-0.31440001783043164,-1.4014095331500782,-1.5806205295828133,-0.9373720288276672,0.3092459440231323,-0.1603146344423294,-0.3942457437515259,0.11969958245754242,-0.7480871677398682
0.5600171089172363,0.24647986888885498,0.09210342168807983,-0.14835309982299805,-0.3006979004846698,-1.4012906771744043,-1.5915605387409708,-0.9414414167404175,0.2961868643760681,-0.1611257642507553,-0.3363479971885681,0.1900712102651596,-0.7993335723876953
0.5800042152404785,0.24676871299743652,0.09892436861991882,-0.16428516805171967,-0.2851104575687494,-1.4009338915482064,-1.6001354271414265,-0.9458196759223938,0.28126344084739685,-0.1622224599123001,-0.22792814671993256,0.09098688513040543,-0.8723177909851074
0.5999712944030762,0.18566572666168213,0.04392838478088379,-0.15075857937335968,-0.2676194751123094,-1.4034118284814179,-1.6084280416750336,-0.9509246945381165,0.26443639397621155,-0.16067342460155487,-0.3202196955680847,-0.12551559507846832,-1.0299738645553589
0.6199612617492676,0.057721078395843506,0.0380370169878006,-0.10469841957092285,-0.2463375447653555,-1.409224631943793,-1.6210396395411701,-0.9571809768676758,0.24385370314121246,-0.15601332485675812,-0.5237433314323425,-0.09715399146080017,-1.2524315118789673
0.6400032043457031,-0.0478670597076416,0.058721914887428284,-0.08464407920837402,-0.222904431754469,-1.4143452107743921,-1.6372416714527567,-0.9633482098579407,0.22106312215328217,-0.15195876359939575,-0.5946305394172668,-0.012201370671391487,-1.3051939010620117
0.6600661277770996,-0.08969342708587646,0.08208151161670685,-0.11357396841049194,-0.19941937691195624,-1.4161764547896376,-1.650710749900814,-0.9684883952140808,0.1981002539396286,-0.15095242857933044,-0.3587755262851715,0.05699305608868599,-1.2508330345153809
0.6799671649932861,-0.12845277786254883,0.13243678212165833,-0.11640000343322754,-0.173563183596169,-1.417737662582255,-1.6597219305036355,-0.9734606742858887,0.17269308865070343,-0.15017110109329224,-0.1579061597585678,-0.029514580965042114,-1.4715741872787476
0.6999630928039551,-0.17177599668502808,0.05095358192920685,-0.09790992736816406,-0.14349265825167007,-1.4213505012964807,-1.6672160551184672,-0.9786909222602844,0.1430007368326187,-0.1473599672317505,-0.1720087081193924,-0.2201048582792282,-1.5914256572723389
0.7199740409851074,-0.2708389163017273,0.020880065858364105,0.02218693494796753,-0.11394875378817546,-1.4282172073101735,-1.6793273337511574,-0.9834335446357727,0.11370231956243515,-0.1411750316619873,-0.6770043969154358,-0.26792412996292114,-1.5317338705062866
0.7399802207946777,-0.3829401731491089,0.062117405235767365,0.06844437122344971,-0.08619779223616288,-1.430990777859932,-1.7016104600241888,-0.9865666627883911,0.08609108626842499,-0.1388331949710846,-1.036769151687622,0.29673755168914795,-1.5214083194732666
0.7600631713867188,-0.11033952236175537,0.03231312334537506,-0.1045907735824585,-0.05849465037388046,-1.42115626153241,-1.725826932062287,-0.9871336221694946,0.05846129730343819,-0.14882725477218628,-0.8767929077148438,0.7544466257095337,-1.6071465015411377
0.7800450325012207,0.42146772146224976,0.06484876573085785,-0.18730002641677856,-0.026997021923701563,-1.4086028965304889,-1.7429990106498465,-0.9865158796310425,0.02699374221265316,-0.1614243984222412,-0.3082219362258911,0.4837714433670044,-1.7404015064239502
0.7999131679534912,0.7681602835655212,0.10874418169260025,-0.23457427322864532,0.00501508096765945,-1.4051521314942572,-1.7462006030451862,-0.9863000512123108,-0.005015059839934111,-0.16488568484783173,0.5455130934715271,-0.14458772540092468,-1.389243721961975
0.8199660778045654,0.7043445110321045,0.076586052775383,-0.28261375427246094,0.029425506210687746,-1.4143815742494328,-1.7293819355142335,-0.9873645305633545,-0.029421260580420494,-0.15571030974388123,1.4050284624099731,-0.6903630495071411,-0.8311808109283447
0.8399901390075684,0.3580701947212219,0.030035246163606644,-0.13307440280914307,0.049632791427634576,-1.4272931336954864,-1.7020208361257545,-0.9885023236274719,-0.049612417817115784,-0.14283506572246552,1.489037036895752,-0.38184431195259094,-0.8400031328201294
0.8600680828094482,0.15736472606658936,-0.06672175973653793,0.02534186840057373,0.07060508090869105,-1.43068048702301,-1.6819651135797438,-0.9877327680587769,-0.07054643332958221,-0.1393098682165146,0.6958792805671692,0.15581834316253662,-0.9085821509361267
0.8800971508026123,0.2090734839439392,-0.1327560842037201,0.12186241149902344,0.08674367514590188,-1.4238375067166582,-1.6788606375073805,-0.9855017066001892,-0.08663493394851685,-0.145879864692688,-0.07288484275341034,0.4840887188911438,-0.6230204105377197
0.9000072479248047,0.27147769927978516,-0.06078644096851349,0.11282022297382355,0.09603849794419343,-1.4139814347761626,-1.6827388694523924,-0.9831780195236206,-0.09589093178510666,-0.15545329451560974,-0.04326046258211136,0.45031583309173584,-0.4147473871707916
0.9201412200927734,0.2598227262496948,0.07870405912399292,0.05126672983169556,0.1050508736578309,-1.406096154507357,-1.679873102614466,-0.9810293912887573,-0.10485776513814926,-0.16305270791053772,0.5400475859642029,0.34047508239746094,-0.43819254636764526
0.940000057220459,0.2394094467163086,0.10820773243904114,-0.008354201912879944,0.11714260233660596,-1.4036646685319403,-1.6627824437355254,-0.9793083071708679,-0.11687487363815308,-0.16521459817886353,1.3658344745635986,0.11191951483488083,-0.4323332905769348
0.9601740837097168,0.23749428987503052,0.052628085017204285,0.06448251008987427,0.12957436360244223,-1.4037878993452184,-1.63443769293477,-0.9778202176094055,-0.12921208143234253,-0.16483964025974274,1.488637089729309,0.2899169325828552,-0.3668903410434723
0.9800119400024414,0.23630011081695557,-0.07832562923431396,0.20503008365631104,0.14252397597002478,-1.3977966395648491,-1.6125647950452926,-0.9750849008560181,-0.14204195141792297,-0.17039267718791962,0.8141991496086121,0.615131139755249,-0.5815439820289612
0.9999771118164062,0.2621845602989197,-0.17700430750846863,0.1998654156923294,0.1554077136304902,-1.386903261234193,-1.6060718860656602,-0.9712909460067749,-0.15478290617465973,-0.18065465986728668,0.13712121546268463,0.48961904644966125,-0.44886595010757446
1.019200086593628,0.18955910205841064,-0.08884891867637634,0.12040330469608307,0.15810114492584057,-1.379489139813009,-1.6023328976565117,-0.9695120453834534,-0.1574433147907257,-0.18777093291282654,0.3621373176574707,0.35700497031211853,0.19777129590511322
1.0474951267242432,0.04602688550949097,0.024808019399642944,0.22423096001148224,0.1602743410529857,-1.362334356593966,-1.5849193044551313,-0.9658114314079285,-0.1595890372991562,-0.20430298149585724,0.2420952171087265,0.6765657663345337,-0.1398433893918991
1.0599479675292969,0.04602688550949097,0.024808019399642944,0.22423096001148224,0.1602743410529857,-1.362334356593966,-1.5849193044551313,-0.9658114314079285,-0.1595890372991562,-0.20430298149585724,0.2420952171087265,0.6765657663345337,-0.1398433893918991
1.088320255279541,0.1982177495956421,-0.02874445915222168,0.2028885781764984,0.15780771788052797,-1.3405991603263394,-1.575296605456532,-0.9615234732627869,-0.15715354681015015,-0.22533433139324188,0.48466864228248596,0.41356173157691956,0.3121034502983093
1.108335018157959,0.10273605585098267,0.09422697126865387,0.1706877499818802,0.15536776184504542,-1.3353928893704805,-1.560096529090945,-0.9607071876525879,-0.15474344789981842,-0.23042592406272888,0.8656185269355774,0.35089489817619324,0.1881840080022812
1.1280381679534912,0.040246546268463135,0.0702609270811081,0.20230326056480408,0.15877215015833218,-1.3333885603386124,-1.5411724087314829,-0.9597257971763611,-0.15810592472553253,-0.23222577571868896,0.9883044958114624,0.08266255259513855,0.015114008449018002
1.1479520797729492,-0.08235615491867065,0.0283280611038208,0.2069684863090515,0.15892498410989558,-1.3383444714809067,-1.5211941467962269,-0.9608414173126221,-0.15825682878494263,-0.2274610698223114,0.8987477421760559,-0.21753287315368652,0.4382503926753998
1.1670441627502441,-0.34386712312698364,0.12264096736907959,0.27790600061416626,0.15184947565032073,-1.3448523546573217,-1.5024246266719083,-0.9633685350418091,-0.15126658976078033,-0.22144857048988342,0.7858930826187134,0.031108463183045387,0.6509783864021301
1.182927131652832,-0.47151273488998413,0.16865594685077667,0.38779324293136597,0.14536380238799548,-1.341726577664502,-1.4802715836606068,-0.9636068940162659,-0.1448523998260498,-0.22467683255672455,1.4525892734527588,0.6322368383407593,0.503767192363739
1.202843189239502,-0.4229695796966553,0.17139703035354614,0.3043855130672455,0.14208969246404374,-1.3276510775506032,-1.4390161591547952,-0.9608043432235718,-0.14161205291748047,-0.23833028972148895,2.4847335815429688,0.9408818483352661,0.7442139983177185
1.226768970489502,-0.3343871235847473,0.17123398184776306,0.477855920791626,0.13885828677206907,-1.3204947329815602,-1.382317619392139,-0.9595123529434204,-0.1384124755859375,-0.24531200528144836,2.6361336708068848,0.5071795582771301,0.9068307876586914
1.247718095779419,-0.4678240418434143,0.11977747082710266,0.5432794690132141,0.1345108744424399,-1.3231482942250774,-1.32849067342455,-0.9607343077659607,-0.1341056227684021,-0.242910236120224,2.34963059425354,0.17704586684703827,0.9619866013526917
1.268057107925415,-0.6998686790466309,0.008439406752586365,0.6714093089103699,0.12102424254424866,-1.3216812582283863,-1.287874908337562,-0.9620422124862671,-0.12072902172803879,-0.24474306404590607,1.2461994886398315,0.5622866153717041,1.3618298768997192
1.2876219749450684,-0.7610081434249878,-0.07633284479379654,0.675047755241394,0.09532039599976229,-1.3124553836883068,-1.2623660239462717,-0.9624263644218445,-0.09517611563205719,-0.25431716442108154,0.6189712882041931,0.5027140378952026,1.7201862335205078
1.3078842163085938,-0.654636800289154,0.09781607240438461,0.6178427934646606,0.06615675690698371,-1.311686069759322,-1.2404162369026386,-0.9645039439201355,-0.06610850989818573,-0.25566014647483826,0.9103111624717712,-0.09098850190639496,1.6774990558624268
1.3267812728881836,-0.6568322777748108,0.12519434094429016,0.6190829277038574,0.04004592238411392,-1.3169431639853655,-1.2073910002186816,-0.9671759009361267,-0.04003521800041199,-0.2509341537952423,1.5983145236968994,-0.24127769470214844,1.6985557079315186
1.3473782539367676,-0.6327226161956787,0.010653695091605186,0.5452625751495361,0.014285932256211987,-1.3241320678283464,-1.1684169049500528,-0.9696334004402161,-0.014285446144640446,-0.24414564669132233,1.4908016920089722,-0.47430527210235596,1.7742724418640137
1.3673620223999023,-0.5708408355712891,-0.05067611485719681,0.42132991552352905,-0.016207046291804025,-1.3350794501286318,-1.1309815601740245,-0.9722194671630859,0.01620633713901043,-0.23350943624973297,1.4017963409423828,-0.44345057010650635,2.143383264541626
1.3864669799804688,-0.7068331241607666,-0.010376360267400742,0.21073895692825317,-0.052040921886716905,-1.3426244510998089,-1.0970787934177484,-0.9727628231048584,0.05201743543148041,-0.22589093446731567,1.0920056104660034,-0.4383202791213989,2.06209659576416
1.4064640998840332,-0.7058004140853882,0.0021339580416679382,0.11732740700244904,-0.08861901014477509,-1.3496912252659103,-1.0696396021771684,-0.9718271493911743,0.08850306272506714,-0.21844737231731415,0.8890056014060974,-0.5660971403121948,2.1564972400665283
1.4263131618499756,-0.714902400970459,0.03364650905132294,0.19558310508728027,-0.13061908198029357,-1.3592463853814654,-1.0493091212413357,-0.9693780541419983,0.13024798035621643,-0.20818686485290527,0.1908435821533203,-0.6384321451187134,2.3505916595458984
1.4472031593322754,-0.8059346675872803,-0.012335240840911865,0.16274678707122803,-0.1788758440549317,-1.3688891127763558,-1.038458161820834,-0.9640544056892395,0.17792347073554993,-0.19733844697475433,-0.022638501599431038,-0.3318564295768738,2.5720598697662354
1.467008113861084,-0.7848504781723022,0.04994717240333557,-0.0160360187292099,-0.2281028521171337,-1.3743062265853727,-1.0276049628326747,-0.9553534388542175,0.2261299192905426,-0.19017121195793152,0.111026830971241,-0.40007737278938293,2.4624979496002197
1.4860639572143555,-0.7067696452140808,0.013101458549499512,-0.020271003246307373,-0.27695496000873615,-1.3798735573748775,-1.016972463205092,-0.944414496421814,0.27342793345451355,-0.18253351747989655,-0.16012823581695557,-0.44307321310043335,2.557994842529297
1.5086731910705566,-0.6751763820648193,-0.14015141129493713,0.05555522441864014,-0.3297656447519668,-1.3879896888042658,-1.0186178372843175,-0.9303534626960754,0.3238213062286377,-0.17199499905109406,-0.9727887511253357,-0.25989603996276855,2.600719928741455
1.5259981155395508,-0.6768651008605957,-0.13373687863349915,-0.010545387864112854,-0.38470252424555224,-1.3980606433307479,-1.0343687174047054,-0.9131161570549011,0.375283420085907,-0.15931543707847595,-1.4172141551971436,-0.22769486904144287,2.494509696960449
1.547044277191162,-0.7107005715370178,-0.04710313677787781,-0.1422460824251175,-0.4352927005402556,-1.4124947254506588,-1.055993898041525,-0.8954092264175415,0.42167583107948303,-0.1429407149553299,-1.2205919027328491,-0.3081345856189728,2.2443363666534424
1.5668010711669922,-0.7728071808815002,0.03935253620147705,-0.1968080997467041,-0.4809433612393553,-1.4227908302681995,-1.0728336836959986,-0.8768664002418518,0.4626157283782959,-0.1307370662689209,-1.0106849670410156,-0.002179807284846902,2.0677123069763184
1.589353084564209,-0.751412570476532,-0.0160219669342041,-0.21438372135162354,-0.522542054166371,-1.4310020199259756,-1.092195313579801,-0.8580998778343201,0.49908456206321716,-0.12074505537748337,-1.33533775806427,0.1777247041463852,1.847802758216858
1.6092162132263184,-0.6466309428215027,-0.0682172179222107,-0.15658551454544067,-0.5636395064755435,-1.4394407376639924,-1.1220412421536388,-0.8380340933799744,0.5342662930488586,-0.11071798205375671,-1.6410772800445557,0.4299165606498718,1.88706374168396
1.6294522285461426,-0.544266402721405,-0.031082868576049805,-0.1971682459115982,-0.6030468887730537,-1.4484862435071901,-1.1543770496028811,-0.8174586892127991,0.5671545267105103,-0.10048501938581467,-1.4989944696426392,0.45621466636657715,1.6415271759033203
1.6468629837036133,-0.4096924066543579,-0.022972822189331055,-0.23937922716140747,-0.6359490957732914,-1.4573597070780264,-1.1807297503076446,-0.7993378639221191,0.593941330909729,-0.09106512367725372,-1.0028020143508911,0.1854950189590454,1.4183871746063232
1.6669321060180664,-0.2914809584617615,-0.04522967338562012,-0.21908849477767944,-0.665340906342147,-1.4657726759606393,-1.199657014742681,-0.7823716998100281,0.6173273324966431,-0.08247097581624985,-0.8526906967163086,0.056774500757455826,1.3154855966567993
1.686676025390625,-0.24124544858932495,-0.07804709672927856,-0.19582349061965942,-0.690807229087877,-1.4768062949922436,-1.217905959159146,-0.7673301696777344,0.637159526348114,-0.07233451306819916,-0.7658666968345642,0.0038574011996388435,1.1068285703659058
1.7070050239562988,-0.15333855152130127,-0.057871460914611816,-0.18653559684753418,-0.713649203081533,-1.4867271368313262,-1.233971296904226,-0.7533082962036133,0.6545968651771545,-0.06347963958978653,-0.6751353144645691,0.04814985394477844,1.0556257963180542
1.726180076599121,-0.10257720947265625,-0.04514002799987793,-0.26332664489746094,-0.733575233645724,-1.4955674317730907,-1.2463499157868412,-0.7406845688819885,0.6695295572280884,-0.05582623556256294,-0.4072234034538269,-0.10110966861248016,0.8702811002731323
1.7463271617889404,-0.029071033000946045,-0.015264511108398438,-0.2190166711807251,-0.7499684114380023,-1.5010570093202622,-1.2543328426134581,-0.7299317121505737,0.6816156506538391,-0.05098762735724449,-0.2734989523887634,0.052791208028793335,0.7248215675354004
1.7662129402160645,0.08172917366027832,-0.07111567258834839,-0.23635900020599365,-0.7623915626986263,-1.5037349221040255,-1.2583889053244044,-0.7215608954429626,0.6906529664993286,-0.04846155643463135,-0.1294715702533722,0.032629042863845825,0.5327291488647461
1.7853021621704102,0.19109952449798584,-0.09121668338775635,-0.23921924829483032,-0.7723203380090415,-1.5041870119349279,-1.2600590593077692,-0.7147049307823181,0.6977991461753845,-0.047676537185907364,-0.06788922846317291,-0.0058268285356462,0.43647196888923645
1.806049108505249,0.24926060438156128,-0.11639857292175293,-0.19020622968673706,-0.779982208644492,-1.5050360879755094,-1.2623632195416814,-0.7093895077705383,0.7032667994499207,-0.04671698436141014,-0.17350926995277405,0.1290660947561264,0.31943148374557495
1.8245019912719727,0.300783634185791,-0.15821319818496704,-0.18792831897735596,-0.7860392799858621,-1.5047181683321906,-1.2664282817116312,-0.7051110863685608,0.7075600028038025,-0.046660374850034714,-0.17125800251960754,0.19795915484428406,0.27562758326530457
1.8459441661834717,0.35351723432540894,-0.12676358222961426,-0.16810470819473267,-0.7907995349146129,-1.4992644827446635,-1.2664157564985763,-0.701478898525238,0.7109158039093018,-0.05026383697986603,0.18684294819831848,0.3279569149017334,0.17367354035377502
1.8659462928771973,0.39469432830810547,-0.12039881944656372,-0.14173787832260132,-0.7924253492860499,-1.4862200608876326,-1.2586591333632104,-0.6996108293533325,0.7120582461357117,-0.059311963617801666,0.28411033749580383,0.361842542886734,-0.008962659165263176
1.885667085647583,0.43107885122299194,-0.22722822427749634,-0.10624496638774872,-0.7911692675209164,-1.4742525165198466,-1.251409599560904,-0.6997403502464294,0.711175799369812,-0.06776627153158188,0.18901848793029785,0.31057465076446533,-0.027728773653507233
1.9062180519104004,0.3885538578033447,-0.25022250413894653,-0.08146131038665771,-0.7862320532112307,-1.465176540306393,-1.249681944258526,-0.7025798559188843,0.7076961994171143,-0.07448351383209229,0.03281650319695473,0.3035675883293152,-0.27118581533432007
1.9259161949157715,0.3239023685455322,-0.19399166107177734,-0.11156589537858963,-0.7888889698000665,-1.4426512530113649,-1.239648145587598,-0.6988568305969238,0.7095708250999451,-0.09004849940538406,0.4524168074131012,1.1697354316711426,0.29247090220451355
1.9459199905395508,0.300656259059906,-0.3472270369529724,-0.045752182602882385,-0.7853101383114991,-1.4182453968764412,-1.234630522117954,-0.6989566087722778,0.7070445418357849,-0.10746138542890549,-0.03550155460834503,0.7993924617767334,-0.11434562504291534
1.9657602310180664,0.3996201753616333,-0.4225902557373047,-0.06631888449192047,-0.787513520479378,-1.3966643231949782,-1.2351864792362062,-0.6949390172958374,0.7086009979248047,-0.12224923819303513,-0.14623279869556427,1.3461703062057495,0.017342980951070786
1.9856090545654297,0.3416922092437744,-0.37998080253601074,-0.037491440773010254,-0.7843729188439602,-1.3773466250884383,-1.2419238114684261,-0.694628119468689,0.7063814401626587,-0.13607731461524963,-0.1775285303592682,1.2116128206253052,-0.3514256179332733
2.0073251724243164,0.3378891348838806,-0.3229251503944397,-0.06093597412109375,-0.7778151527464656,-1.3549831035424695,-1.2453754468034401,-0.6959214806556702,0.7017245292663574,-0.15256503224372864,0.05619596689939499,1.2437574863433838,-0.3750264644622803
2.0282070636749268,0.25360697507858276,-0.3461722731590271,-0.012164533138275146,-0.76963491647929,-1.329436467543288,-1.248623266579901,-0.6973479390144348,0.6958730816841125,-0.17165811359882355,-0.1229681447148323,1.4871463775634766,-0.4431553781032562
2.043436050415039,0.20009809732437134,-0.30605489015579224,-0.03793901205062866,-0.7619269734784714,-1.3048346191039504,-1.2595784513915922,-0.6980687975883484,0.690316915512085,-0.19016467034816742,-0.43462830781936646,1.723483681678772,-0.5176178216934204
2.0627031326293945,0.21642345190048218,-0.2580797076225281,-0.12357062101364136,-0.7541083999837296,-1.2830827980718462,-1.27664146924483,-0.6989217400550842,0.6846390962600708,-0.20682799816131592,-0.4735608994960785,1.5981196165084839,-0.5744437575340271
2.0812160968780518,0.2381247878074646,-0.2088526487350464,-0.10488384962081909,-0.745577231732649,-1.2644787800210633,-1.2949586239611401,-0.7004966735839844,0.6783959865570068,-0.221547469496727,-0.5367119312286377,1.5121994018554688,-0.6338761448860168
2.1001110076904297,0.18929708003997803,-0.2429909110069275,-0.06279268860816956,-0.7372041093128424,-1.2467079475735463,-1.314743189456823,-0.7018094658851624,0.6722205877304077,-0.2357609122991562,-0.6767007112503052,1.649147391319275,-0.5737261772155762
2.1201400756835938,0.15807098150253296,-0.21183890104293823,-0.09901009500026703,-0.7315797528854967,-1.2282452518978695,-1.3380051445960135,-0.7008872032165527,0.6680459976196289,-0.24994321167469025,-0.7731430530548096,1.757042646408081,-0.5101345181465149
2.139975070953369,0.20885998010635376,-0.15444731712341309,-0.11234557628631592,-0.7280540586718754,-1.2099920246049611,-1.3623551889269863,-0.6984078288078308,0.6654183268547058,-0.26352420449256897,-0.7917153239250183,1.6729061603546143,-0.3892180323600769
2.1592559814453125,0.22108691930770874,-0.14633750915527344,-0.10710141062736511,-0.7266344985809001,-1.19188707010611,-1.3844081604103997,-0.6943992972373962,0.6643579602241516,-0.2764740586280823,-0.7366217374801636,1.6477069854736328,-0.3080636262893677
2.179899215698242,0.19928878545761108,-0.14679408073425293,-0.10421246290206909,-0.7271026385951651,-1.172712077252713,-1.4048882092796946,-0.6886839866638184,0.6647077798843384,-0.28961700201034546,-0.6774389743804932,1.6133959293365479,-0.22136802971363068
2.1999011039733887,0.2104550004005432,-0.1272786259651184,-0.10971996188163757,-0.7294545164252423,-1.1526696057506176,-1.4226255223284436,-0.681310772895813,0.6664630770683289,-0.3027251660823822,-0.6627956032752991,1.5514978170394897,-0.09273134917020798
2.222952127456665,0.2127780318260193,-0.1390993595123291,-0.11832165718078613,-0.7329739457430892,-1.1352609560814138,-1.4387546456395555,-0.6738071441650391,0.6690828204154968,-0.31354793906211853,-0.5864078402519226,1.3255671262741089,-0.040105193853378296
2.240471124649048,0.19522106647491455,-0.09958899021148682,-0.1324058473110199,-0.7385859479814736,-1.117934586583319,-1.4507381834377402,-0.6648866534233093,0.67324298620224,-0.3235268294811249,-0.41797199845314026,1.1933846473693848,0.13257348537445068
2.2603821754455566,0.14195889234542847,-0.06806296110153198,-0.14910835027694702,-0.7442946501255773,-1.099535301319321,-1.4574098827982465,-0.6553866863250732,0.6774531602859497,-0.33395448327064514,-0.28611478209495544,1.1027143001556396,0.15810607373714447
2.283557176589966,0.09867680072784424,-0.09765523672103882,-0.17403820157051086,-0.7499593789995527,-1.0805612303652092,-1.4610816727389333,-0.6455366611480713,0.681609034538269,-0.3445165753364563,-0.23761925101280212,1.0461901426315308,0.22765441238880157
2.3020429611206055,0.07704180479049683,-0.09367948770523071,-0.19702991843223572,-0.7569775721947027,-1.0615386710383345,-1.4629742777335686,-0.6346743702888489,0.6867275238037109,-0.35439231991767883,-0.2663586437702179,1.0004063844680786,0.31926727294921875
2.3215999603271484,0.047330260276794434,-0.10749757289886475,-0.2069539725780487,-0.7650601773872395,-1.0443085326547368,-1.4652745757373844,-0.6236547827720642,0.6925804018974304,-0.36247360706329346,-0.3199877142906189,0.9165645241737366,0.2991946041584015
2.3448972702026367,0.011433124542236328,-0.09206372499465942,-0.19182226061820984,-0.7737382073318608,-1.0285811474091766,-1.4696214393024434,-0.6127057671546936,0.6988140940666199,-0.36912137269973755,-0.3675546944141388,0.9585025310516357,0.28027334809303284
2.364816188812256,-0.018616080284118652,-0.05486530065536499,-0.18192797899246216,-0.781622380950311,-1.0136930030465483,-1.4767055982813488,-0.6024472117424011,0.7044318914413452,-0.3752773702144623,-0.4515230059623718,1.0103298425674438,0.12748490273952484
2.3843302726745605,0.0010196566581726074,-0.029732942581176758,-0.19233930110931396,-0.7885455630296865,-1.002013943350019,-1.4865636867234473,-0.5938999652862549,0.709328830242157,-0.3796517550945282,-0.5600329041481018,0.7763455510139465,0.07800555974245071
2.4042301177978516,-0.04183840751647949,0.0639464259147644,-0.2556627690792084,-0.794290606029438,-0.9999118599131335,-1.4992006462537,-0.5896618366241455,0.7133666276931763,-0.3786909282207489,-0.4769287407398224,0.42097005248069763,-0.02754584327340126
2.424135208129883,-0.10637813806533813,0.31123775243759155,-0.28088992834091187,-0.7991039926636838,-0.9965641623149627,-1.5064437439412723,-0.5855011940002441,0.7167315483093262,-0.3787933588027954,-0.17554889619350433,0.46520522236824036,0.1480477750301361
2.444103240966797,-0.15328097343444824,0.3403138518333435,-0.2922270894050598,-0.802951050901326,-0.9847088994693164,-1.5037965117448648,-0.5786678791046143,0.7194089889526367,-0.38417983055114746,0.06557933986186981,0.6173313856124878,0.2816813588142395
2.463160991668701,-0.14629697799682617,0.20060956478118896,-0.15862193703651428,-0.8079431498472898,-0.9607548452352516,-1.4934678123049263,-0.566349446773529,0.7228674292564392,-0.3958672881126404,0.26243436336517334,1.1464606523513794,0.5938652753829956
2.4855599403381348,-0.09134513139724731,0.07484018802642822,-0.03205546736717224,-0.8137114136889656,-0.9254909368968268,-1.478550200196642,-0.5487000346183777,0.7268412113189697,-0.4130740165710449,0.04945598542690277,1.1236543655395508,0.2827332019805908
2.5049309730529785,-0.020968616008758545,-0.030113935470581055,0.10670331120491028,-0.8163204760831829,-0.9076475725630513,-1.478946605106411,-0.5397461652755737,0.7286306619644165,-0.42162954807281494,-0.1457819938659668,0.8130819797515869,0.10290948301553726
2.5197830200195312,0.016913533210754395,0.0029897689819335938,0.11404076218605042,-0.821089458492796,-0.8906448794517324,-1.4762935347319912,-0.5297919511795044,0.7318886518478394,-0.4285550117492676,-0.036388762295246124,0.6096664071083069,0.2763763666152954
2.539428234100342,-0.0372997522354126,0.03878438472747803,0.15329545736312866,-0.824076233445575,-0.877169333548338,-1.4722441416523617,-0.5222858786582947,0.7339206337928772,-0.4342556893825531,-0.02489992417395115,0.4908629357814789,0.16244623064994812
2.5616302490234375,-0.08000171184539795,-0.009371757507324219,0.16678720712661743,-0.826572363688148,-0.8662796732954249,-1.4705766160937674,-0.5161287188529968,0.7356138229370117,-0.43872949481010437,-0.06771592795848846,0.44168421626091003,0.11965535581111908
2.5838069915771484,-0.051468610763549805,-0.029828310012817383,0.1769673228263855,-0.8293390567313929,-0.8574196945409713,-1.469495578488921,-0.5106804966926575,0.7374851703643799,-0.4419516324996948,-0.12511929869651794,0.38668087124824524,0.12953834235668182
2.6036152839660645,-0.020839571952819824,-0.09102022647857666,0.18539711833000183,-0.8320376914537093,-0.8511418903108446,-1.4704246601914186,-0.5063973069190979,0.7393050193786621,-0.4438353180885315,-0.07804073393344879,0.30447256565093994,0.07770657539367676
2.6243510246276855,0.03153717517852783,-0.1460323929786682,0.18451184034347534,-0.8337224866469292,-0.8453059390861704,-1.4701603465447672,-0.5028659701347351,0.7404384613037109,-0.4459560215473175,-0.025754891335964203,0.27811312675476074,0.04683388024568558
2.6445059776306152,0.0806766152381897,-0.18971651792526245,0.15837013721466064,-0.834196638178872,-0.8400705504428717,-1.470271420866316,-0.5002628564834595,0.7407570481300354,-0.4483482837677002,-0.019074751064181328,0.26256537437438965,-0.024364542216062546
2.664058208465576,0.12367591261863708,-0.2068600058555603,0.13929349184036255,-0.833141428059934,-0.837825377728645,-1.4733755128707378,-0.4998356103897095,0.740047812461853,-0.4499930739402771,-0.08682112395763397,0.19135716557502747,-0.2133485972881317
2.6837220191955566,0.16255706548690796,-0.2339712381362915,0.10571414232254028,-0.8288806912959664,-0.840151884747718,-1.4807438181934862,-0.5032248497009277,0.7371755242347717,-0.45092910528182983,0.06754034012556076,0.12388713657855988,-0.37803375720977783
2.7039451599121094,0.21288657188415527,-0.2459620237350464,0.12663793563842773,-0.8239895402922847,-0.8384639303827499,-1.4846953552987416,-0.5051382780075073,0.7338617444038391,-0.45418328046798706,-0.06177360936999321,0.3458612561225891,-0.16672927141189575
2.722702980041504,0.21460306644439697,-0.23583686351776123,0.04437977075576782,-0.8231236965756626,-0.8376096575683714,-1.4921769982225466,-0.5052220225334167,0.7332733273506165,-0.4550396800041199,-0.2245490700006485,0.26016470789909363,-0.2937726378440857
2.7433531284332275,0.23676586151123047,-0.17248094081878662,0.03065583109855652,-0.8213503148519734,-0.8403312490271102,-1.504103777049065,-0.5074262619018555,0.7320663928985596,-0.4545298218727112,-0.24660877883434296,0.36151301860809326,-0.3457361161708832
2.7633252143859863,0.27100539207458496,-0.15855038166046143,0.0073410868644714355,-0.8193824398525832,-0.8420970569020979,-1.5163202641203577,-0.5093019604682922,0.7307243943214417,-0.4545916020870209,-0.2615014910697937,0.33836427330970764,-0.3755910098552704
2.782917022705078,0.2956317067146301,-0.1554955244064331,-0.005014479160308838,-0.8168556253598782,-0.8462491595875005,-1.530520969018982,-0.5125659704208374,0.7289970517158508,-0.4536953270435333,-0.32327622175216675,0.27444708347320557,-0.45301303267478943
2.804854154586792,0.2917279601097107,-0.12154370546340942,-0.052939653396606445,-0.8142941241460282,-0.8536129808555106,-1.5471328865657248,-0.5172986388206482,0.7272412776947021,-0.45113450288772583,-0.3434719443321228,0.1864267736673355,-0.4959399700164795
2.8232221603393555,0.2511025071144104,-0.042641639709472656,-0.14937686920166016,-0.810413376195068,-0.8642698879371683,-1.564184616389224,-0.5242196321487427,0.7245721220970154,-0.4474250376224518,-0.28657013177871704,-0.020646166056394577,-0.5792279243469238
2.8430380821228027,0.19335848093032837,0.07519984245300293,-0.17895370721817017,-0.8035776168594708,-0.876672014835082,-1.5796242391625854,-0.5335226655006409,0.7198440432548523,-0.4440474808216095,-0.08784551173448563,-0.07215684652328491,-0.6151914596557617
2.863035202026367,0.14563804864883423,0.17592930793762207,-0.2047174572944641,-0.794924335757418,-0.8868201908744361,-1.5910270262599657,-0.5428091287612915,0.7138106226921082,-0.44252994656562805,-0.0021293116733431816,-0.11176329106092453,-0.584270179271698
2.88297700881958,0.07889902591705322,0.244545578956604,-0.2297360897064209,-0.7840936258441711,-0.8959638574151261,-1.6011956136332672,-0.552837073802948,0.7061837315559387,-0.44235265254974365,0.1963508278131485,-0.046399109065532684,-0.6410399675369263
2.902083158493042,0.030757606029510498,0.2408888339996338,-0.183691143989563,-0.7741356093172428,-0.8982544137473774,-1.6074772048831707,-0.5593221187591553,0.6990982890129089,-0.4454440772533417,-0.03427406772971153,0.2651362419128418,-0.4521695375442505
2.922011137008667,0.027440190315246582,0.15219783782958984,-0.12335458397865295,-0.7709916906291444,-0.9022290628684754,-1.623573028312012,-0.5628100633621216,0.6968468427658081,-0.4445776343345642,-0.6856433153152466,0.44548672437667847,-0.5009942650794983
2.9427881240844727,0.0965796709060669,0.06447738409042358,-0.07783105969429016,-0.776556258430886,-0.9153170538513667,-1.6558518823329564,-0.5654975175857544,0.7008270621299744,-0.4348033666610718,-1.498406171798706,0.49417924880981445,-0.5065041184425354
2.9627411365509033,0.18542176485061646,-0.1535664200782776,0.01848241686820984,-0.7887955989059812,-0.9379889686280586,-1.7051871398190985,-0.5682494640350342,0.709505021572113,-0.416767418384552,-1.9668681621551514,0.6760075092315674,-0.5872102975845337
2.9816811084747314,0.3402416706085205,-0.3258820176124573,0.05566608905792236,-0.8039359691435842,-0.967873149377952,-1.7625008565132592,-0.5715343952178955,0.7200927138328552,-0.3934652805328369,-1.9713549613952637,0.37601354718208313,-0.5524224042892456
3.002695083618164,0.3451613783836365,-0.2085060477256775,-0.09434053301811218,-0.8072765204136462,-0.9940374582593056,-1.8037067857341058,-0.5796126127243042,0.7224066853523254,-0.37706458568573,-0.433559775352478,0.022134587168693542,-0.8642398715019226
3.022599220275879,0.27926623821258545,-0.1425384283065796,-0.03644442558288574,-0.7847606386126267,-1.0032640452219834,-1.8162394558454669,-0.5966338515281677,0.7066558599472046,-0.3803495764732361,0.6177248954772949,-0.0568053238093853,-1.5350127220153809
3.042695999145508,0.3165806531906128,-0.4371793866157532,0.05790972709655762,-0.7487934294077475,-1.0150160942000364,-1.8278931427192722,-0.6222600340843201,0.6807554364204407,-0.38647735118865967,0.44442424178123474,-0.4082016348838806,-1.8420618772506714
3.0650501251220703,0.324981153011322,-0.5111579298973083,0.13711047172546387,-0.7181101188234321,-1.0415092216555453,-1.8505569003467595,-0.6500086188316345,0.6579626798629761,-0.3802289068698883,-0.21954180300235748,-0.6227182745933533,-1.655772089958191
3.083217144012451,0.2620422840118408,-0.5270175337791443,0.1465182900428772,-0.6957018384409769,-1.06888376491038,-1.875956287193582,-0.6729309558868408,0.640924334526062,-0.36929672956466675,-0.4229229986667633,-0.49492424726486206,-1.251812219619751
3.1024820804595947,0.19672971963882446,-0.3821793794631958,0.11362120509147644,-0.6776262301607138,-1.095948130344516,-1.9022041619967451,-0.6928691864013672,0.6269454956054688,-0.3561903238296509,-0.40091824531555176,-0.5324919819831848,-1.4069870710372925
3.122279167175293,0.14305931329727173,-0.27416032552719116,0.005224853754043579,-0.6497674569923956,-1.1185534696308992,-1.9216663517032373,-0.7161794304847717,0.6050012707710266,-0.34793734550476074,0.4126911759376526,-0.5865894556045532,-1.6826671361923218
3.141453266143799,0.14749562740325928,-0.26584941148757935,-0.0011022090911865234,-0.6145918222640718,-1.1338186788484337,-1.9237513803255664,-0.740238606929779,0.5766251087188721,-0.34576067328453064,0.7859803438186646,-0.8041060566902161,-1.6516295671463013
3.1622321605682373,0.07350629568099976,-0.28993213176727295,0.06808149814605713,-0.5765141207720946,-1.1501364591391006,-1.923431762551674,-0.7652787566184998,0.5451048016548157,-0.3423583507537842,0.7553179264068604,-0.792499840259552,-1.7252191305160522
3.1820530891418457,0.021561622619628906,-0.26280736923217773,0.017627567052841187,-0.5406747215612261,-1.1669946666353757,-1.9245787639705683,-0.7884073257446289,0.5147145986557007,-0.33687201142311096,0.7071617841720581,-0.8277845978736877,-1.6553250551223755
3.202033042907715,0.009640276432037354,-0.22929146885871887,-0.007685363292694092,-0.5037283189762592,-1.1812077668840268,-1.923830264227052,-0.8101621270179749,0.4826941192150116,-0.33263152837753296,0.7010179162025452,-0.6565430164337158,-1.7608606815338135
3.2222909927368164,0.09603863954544067,-0.2791469991207123,0.07269394397735596,-0.4655179371422658,-1.1955333932373928,-1.9267790475098234,-0.8314054608345032,0.4488856792449951,-0.3275158107280731,0.47570011019706726,-0.6523358821868896,-1.8475254774093628
3.2418711185455322,0.1668725609779358,-0.3420097529888153,0.12368905544281006,-0.4309890084952522,-1.2106589961340224,-1.9330394070180668,-0.8502679467201233,0.41776958107948303,-0.3201766014099121,0.2456481009721756,-0.6400895118713379,-1.5863373279571533
3.2617621421813965,0.10835111141204834,-0.2869112491607666,0.10751330852508545,-0.3997530034618832,-1.2266865764816857,-1.9408139385286363,-0.8671554923057556,0.38919082283973694,-0.3107604682445526,0.17914651334285736,-0.5990627408027649,-1.662684679031372
3.280618190765381,0.022325873374938965,-0.24221602082252502,0.11167341470718384,-0.3654057082275599,-1.2414833859031271,-1.950374802767423,-0.8837913870811462,0.35732823610305786,-0.3020422160625458,0.1632751077413559,-0.5185516476631165,-1.8516316413879395
3.301584243774414,-0.03519028425216675,-0.19395124912261963,0.09178638458251953,-0.32821506518480115,-1.2542186186550595,-1.9587158487485736,-0.8995783925056458,0.32235389947891235,-0.29469791054725647,0.29950955510139465,-0.5035959482192993,-1.9785407781600952
3.3220760822296143,-0.10431176424026489,-0.10102078318595886,0.14040404558181763,-0.287076498715589,-1.2651474290537452,-1.9656712941319925,-0.9146244525909424,0.2831495702266693,-0.2885974645614624,0.2581901252269745,-0.4305947422981262,-2.129011869430542
3.3404901027679443,-0.11867082118988037,-0.1634529083967209,0.31732890009880066,-0.24507662488195622,-1.2766362016955504,-1.976237315376293,-0.9284482598304749,0.24263066053390503,-0.2812725007534027,-0.04505126550793648,-0.3911566734313965,-2.1290435791015625
3.3615942001342773,-0.15764003992080688,-0.21260027587413788,0.31347599625587463,-0.20766560085008212,-1.289354414060971,-1.9919689218283998,-0.9400161504745483,0.20617622137069702,-0.2717738151550293,-0.2991625666618347,-0.5364207029342651,-1.9426249265670776
3.3803329467773438,-0.29379504919052124,-0.002825513482093811,0.16722342371940613,-0.16976207551514408,-1.3027245124813016,-2.0060445330500407,-0.9504218697547913,0.16894784569740295,-0.2610650658607483,0.08275052905082703,-0.5413153171539307,-2.1601107120513916
3.400393009185791,-0.23523622751235962,0.10143601149320602,0.2026168406009674,-0.12514763721813327,-1.3140185511099924,-2.012766576609429,-0.9596489667892456,0.12482121586799622,-0.2519790828227997,0.35265907645225525,-0.5449910163879395,-2.287182331085205
3.421180248260498,-0.20923548936843872,-0.0007907748222351074,0.23747946321964264,-0.07985501519874126,-1.326822635084991,-2.015435290246961,-0.967293381690979,0.07977017015218735,-0.2407907396554947,0.48340657353401184,-0.7291268110275269,-2.1636128425598145
3.4413931369781494,-0.4281507730484009,0.16764703392982483,0.2191125750541687,-0.03663048308254698,-1.3402151479744355,-2.0139403264787457,-0.9728807210922241,0.036622293293476105,-0.22839005291461945,0.6502333283424377,-0.5822528004646301,-1.9731062650680542
3.4612231254577637,-0.6266052722930908,0.3130566477775574,0.270638644695282,0.0016858976377473562,-1.3504100598131863,-2.009486787973546,-0.9758117198944092,-0.0016858968883752823,-0.21860626339912415,0.5975469946861267,-0.31094643473625183,-1.5656644105911255
3.481222152709961,-0.6788231730461121,0.36102262139320374,0.3648441433906555,0.02508784350773367,-1.3511711230255334,-2.0089425846612685,-0.9756720662117004,-0.025085212662816048,-0.21779529750347137,-0.08531171083450317,0.1799623966217041,-0.7419469952583313
3.5013370513916016,-0.519210159778595,0.31536561250686646,0.5968491435050964,0.028595950635305272,-1.3409925172366883,-2.0161212155500166,-0.97331303358078,-0.028592053800821304,-0.2276933789253235,-0.4680917263031006,0.7866111397743225,0.2772023379802704
3.5225892066955566,-0.3612181544303894,0.2246800810098648,0.5769108533859253,0.015421742801849688,-1.323968717741585,-2.0202618655085938,-0.9695770740509033,-0.015421131625771523,-0.24429988861083984,-0.11086547374725342,0.7963685393333435,0.7257198095321655
3.5409669876098633,-0.3860781192779541,0.15188387036323547,0.324455201625824,0.006528789861219329,-1.3125828524851986,-2.007595989742929,-0.9668271541595459,-0.006528743542730808,-0.25534823536872864,1.1898066997528076,0.30850276350975037,0.4284875988960266
3.5610761642456055,-0.36166489124298096,0.11065545678138733,0.3584335446357727,0.007994500729506762,-1.3113676731854291,-1.9765635385358082,-0.9665058851242065,-0.007994415238499641,-0.25652018189430237,1.707550048828125,-0.09522594511508942,0.214302659034729
3.5807652473449707,-0.4538062810897827,0.011136825196444988,0.25325486063957214,0.010038461853765505,-1.3169946717751626,-1.9419180992933178,-0.9679160118103027,-0.010038292966783047,-0.2510729730129242,1.5570746660232544,-0.551325798034668,0.40801191329956055
3.6006879806518555,-0.4883306622505188,-0.037936389446258545,0.5631338357925415,0.002194326128910163,-1.322359532184032,-1.9153887307390982,-0.9692956209182739,-0.0021943242754787207,-0.24588844180107117,0.5521577596664429,0.27199068665504456,1.1046977043151855
3.6209540367126465,-0.7620034217834473,-0.15241320431232452,0.38740307092666626,-0.024775873428033175,-1.3072251626500722,-1.907200696616251,-0.9651694297790527,0.024773338809609413,-0.2604500949382782,-0.500984787940979,1.1095246076583862,1.5935654640197754
3.6408700942993164,-0.8051310181617737,0.03286248445510864,0.03988581895828247,-0.06691877287343573,-1.2824598342213185,-1.9067314217347704,-0.9565724730491638,0.0668688416481018,-0.28372135758399963,-0.87876296043396,0.8252373337745667,2.3381190299987793
3.660579204559326,-0.5475711226463318,0.28549924492836,0.11044624447822571,-0.10656318492424253,-1.276223461722813,-1.8999025340720648,-0.9514982104301453,0.10636161267757416,-0.28868427872657776,0.14337141811847687,0.268959641456604,1.9859257936477661
3.6799581050872803,-0.8033469915390015,0.27464205026626587,0.11037462949752808,-0.14493207815064246,-1.2695635676835564,-1.879155631067658,-0.944959282875061,0.14442521333694458,-0.2935870289802551,0.7879230976104736,0.07702535390853882,2.136272430419922
3.70098614692688,-0.8689725995063782,0.0742376446723938,0.14751753211021423,-0.17830774737030067,-1.261376455005873,-1.847219569389624,-0.9374085664749146,0.17736440896987915,-0.299678236246109,1.2085412740707397,0.22232937812805176,2.0999839305877686
3.72039794921875,-0.6800445914268494,0.019298285245895386,0.06850618124008179,-0.21069639254494438,-1.252947459265151,-1.8094036682701111,-0.9289031624794006,0.20914094150066376,-0.30561262369155884,1.224391222000122,-0.06708308309316635,2.073801279067993
3.7405571937561035,-0.5806746482849121,-0.11889684200286865,-0.0069931745529174805,-0.23971625336853766,-1.251429122357044,-1.7749944593387719,-0.9222856163978577,0.2374269962310791,-0.3049880862236023,0.9814199209213257,-0.378349632024765,1.8614163398742676
3.7605490684509277,-0.4865843653678894,-0.11195725202560425,0.05598336458206177,-0.27072378458770924,-1.2546915141282065,-1.751012002264537,-0.9158356785774231,0.2674289345741272,-0.29954421520233154,0.2759080231189728,-0.6273248791694641,1.7316211462020874
3.7802000045776367,-0.45841091871261597,-0.10053539276123047,0.10079783201217651,-0.3029157113057844,-1.2664014785866389,-1.7414262438833814,-0.9105924367904663,0.2983044385910034,-0.2860701084136963,-0.29547494649887085,-0.8411659598350525,1.6805472373962402
3.8000991344451904,-0.5032975673675537,0.012284815311431885,0.03524494171142578,-0.3358189294184093,-1.282289230133686,-1.7358118297330039,-0.9051191806793213,0.32954245805740356,-0.26862820982933044,0.022247787564992905,-0.8890458941459656,1.5776002407073975
3.8200812339782715,-0.5096049308776855,0.13236841559410095,-0.04816749691963196,-0.3627968336664205,-1.2954132728112246,-1.7235356450043482,-0.8996817469596863,0.3548904061317444,-0.2542160451412201,0.20397384464740753,-0.8412382006645203,1.2997876405715942
3.839962959289551,-0.5121124982833862,-0.03130525350570679,-0.07382284104824066,-0.38588868669051624,-1.3081904114529883,-1.716185513739561,-0.8947020769119263,0.37638261914253235,-0.2405082732439041,-0.3154814839363098,-0.6768677234649658,1.2102689743041992
3.859961986541748,-0.5265802145004272,-0.08556419610977173,-0.07152611017227173,-0.4132011139385524,-1.3244201386482983,-1.7258165982656601,-0.8881842494010925,0.4015430808067322,-0.22336536645889282,-1.1320269107818604,-0.5998718738555908,1.1781041622161865
3.8800230026245117,-0.4400397539138794,0.04195907711982727,-0.09728413820266724,-0.4408399521081648,-1.3428043826330007,-1.7447153905539956,-0.8809899687767029,0.4266992509365082,-0.20441275835037231,-1.038072943687439,-0.5026037693023682,1.1351118087768555
3.9000930786132812,-0.3739502429962158,0.1808461844921112,-0.18449944257736206,-0.46440637334188906,-1.3585280616475937,-1.7547717254951334,-0.8740203380584717,0.44789212942123413,-0.1883644163608551,-0.4093506336212158,-0.6175764203071594,0.9670217037200928
3.919964075088501,-0.30960583686828613,0.134801983833313,-0.18379473686218262,-0.4832963069149366,-1.3729225882151426,-1.75680005407736,-0.8681896328926086,0.46470046043395996,-0.17406971752643585,-0.23450303077697754,-0.6774324178695679,0.8907893300056458
3.940190076828003,-0.32462573051452637,0.016511231660842896,-0.1560376137495041,-0.5023884355315962,-1.3872592056202817,-1.7606134576516987,-0.8617145419120789,0.4815202057361603,-0.15995675325393677,-0.5029116272926331,-0.5380808711051941,0.9199350476264954
3.9600400924682617,-0.2921448349952698,6.416440010070801e-05,-0.13596345484256744,-0.5219925081156599,-1.400536856440231,-1.7693712568342523,-0.854293942451477,0.4986082911491394,-0.1468735933303833,-0.5708523988723755,-0.36748242378234863,0.8803582191467285
3.980009078979492,-0.18843185901641846,0.01105588674545288,-0.1792883276939392,-0.5405874900023218,-1.4114287085235726,-1.7773285751325192,-0.8465413451194763,0.5146397948265076,-0.13606517016887665,-0.38707712292671204,-0.33417344093322754,0.8521354794502258
3.9999632835388184,-0.11031204462051392,0.012276947498321533,-0.1755918711423874,-0.558570495926716,-1.4204627000611385,-1.7820395525611594,-0.8384489417076111,0.5299745202064514,-0.12700529396533966,-0.3214040994644165,-0.3118298053741455,0.8441874980926514
4.019963264465332,-0.09323632717132568,-0.010017573833465576,-0.15008915960788727,-0.5757411815557897,-1.4275263284986086,-1.7866784478574746,-0.8301952481269836,0.5444566607475281,-0.11976262181997299,-0.3446190655231476,-0.16114769876003265,0.8039495348930359
4.03965425491333,-0.022337913513183594,-0.029651641845703125,-0.13134586811065674,-0.5920500978598844,-1.4333857628428948,-1.7929297143125986,-0.8219766616821289,0.5580633878707886,-0.11366457492113113,-0.44899746775627136,-0.05353797972202301,0.7553262114524841
4.0599610805511475,0.024524152278900146,-0.07326215505599976,-0.14332318305969238,-0.6086389797873673,-1.4391441429638447,-1.8019885144028787,-0.8133273124694824,0.5717513561248779,-0.10769926011562347,-0.45722144842147827,0.01807788386940956,0.7992819547653198
4.079984188079834,0.05464279651641846,-0.07635027170181274,-0.12640196084976196,-0.6261435732894306,-1.4413448612870716,-1.8106570505064725,-0.8035137057304382,0.586024284362793,-0.10460097342729568,-0.43005263805389404,0.2260570079088211,0.7817097306251526
4.09996223449707,0.09710043668746948,-0.08161526918411255,-0.1638656109571457,-0.64205480985318,-1.4398935268647641,-1.8166727859146456,-0.794015109539032,0.5988423228263855,-0.10453657805919647,-0.3041810691356659,0.276733934879303,0.7750561833381653
4.119962215423584,0.11929678916931152,-0.12646865844726562,-0.11676014959812164,-0.6582246907659752,-1.437347856204011,-1.8246776098678672,-0.7840461134910583,0.6117134094238281,-0.10525531321763992,-0.5517402291297913,0.4425562024116516,0.7022585272789001
4.140048980712891,0.12139952182769775,-0.17808794975280762,-0.11547940969467163,-0.6730450553385969,-1.4347731326866984,-1.8388186047882056,-0.77470463514328,0.6233698725700378,-0.10603255778551102,-0.68272864818573,0.6971536874771118,0.6302245259284973
4.159961223602295,0.1667177677154541,-0.15127074718475342,-0.16125494241714478,-0.6862186438886865,-1.4272117701854896,-1.852579074444139,-0.7656863331794739,0.6336162686347961,-0.11070254445075989,-0.5190504789352417,0.9217159152030945,0.5300951600074768
4.179963111877441,0.21321254968643188,-0.1748201847076416,-0.1805517077445984,-0.6980177990657495,-1.4129490753932112,-1.8616363764401602,-0.7565933465957642,0.6427003741264343,-0.12042802572250366,-0.4160894751548767,1.0934096574783325,0.5408686995506287
4.200149059295654,0.2063785195350647,-0.2419729232788086,-0.16769438982009888,-0.7093232154698005,-1.3968217740537738,-1.8720687575639232,-0.747348427772522,0.6513203978538513,-0.13134746253490448,-0.5593388080596924,1.2172048091888428,0.45139920711517334
4.220053195953369,0.189974844455719,-0.2431691288948059,-0.1542551964521408,-0.71995720119526,-1.3784139170658778,-1.885169409761755,-0.7379637360572815,0.6593524813652039,-0.14374907314777374,-0.6084456443786621,1.4998838901519775,0.3666822910308838
4.24007511138916,0.2016516923904419,-0.254217267036438,-0.17561572790145874,-0.7250639264487037,-1.3580917075503296,-1.900954114061187,-0.7315894365310669,0.6631832718849182,-0.15800252556800842,-0.6236730813980103,1.5578160285949707,0.037485212087631226
4.259984970092773,0.2710365056991577,-0.31714993715286255,-0.10771191120147705,-0.7304867771421224,-1.3339444847686293,-1.9158217053410724,-0.724054753780365,0.6672322750091553,-0.1747741997241974,-0.604875385761261,1.8379428386688232,0.17082323133945465
4.279965162277222,0.2592238187789917,-0.349448025226593,-0.09711211919784546,-0.7352432317553163,-1.3085810702429737,-1.9331331247107586,-0.7163161635398865,0.6707675457000732,-0.1922556608915329,-0.7391630411148071,1.8745142221450806,-0.0503511056303978
4.300014972686768,0.2678655982017517,-0.307777464389801,-0.11221835017204285,-0.7387479811038582,-1.281187622471617,-1.9495357399120548,-0.7085242867469788,0.6733627915382385,-0.21113081276416779,-0.4871385395526886,2.0247762203216553,0.12615926563739777
4.320044994354248,0.24964648485183716,-0.29082196950912476,-0.11626200377941132,-0.7444343053885188,-1.243737056803768,-1.9566105885121778,-0.6964848041534424,0.6775558590888977,-0.23627719283103943,-0.24768157303333282,2.162839412689209,0.16229909658432007
4.339956283569336,0.27271199226379395,-0.32316291332244873,-0.08069095015525818,-0.7476653152621408,-1.2055681056969683,-1.9629373612016465,-0.6849129796028137,0.6799286603927612,-0.26189953088760376,-0.30603423714637756,2.1128082275390625,0.03962422534823418
4.360007286071777,0.31581807136535645,-0.3589887022972107,-0.07204210758209229,-0.751832590228527,-1.168295810764559,-1.9696885986176753,-0.6720650792121887,0.6829785108566284,-0.28612756729125977,-0.2922324538230896,2.0053796768188477,0.17007748782634735
4.380009174346924,0.2964085340499878,-0.30132317543029785,-0.10844701528549194,-0.7570434289745612,-1.1338403131410346,-1.9746740551736839,-0.6585759520530701,0.6867753863334656,-0.3075992166996002,-0.2591472864151001,1.7599899768829346,0.16862177848815918
4.399943113327026,0.23525911569595337,-0.25226157903671265,-0.12946075201034546,-0.7613914647728807,-1.101865898301955,-1.97799034452275,-0.6457358002662659,0.6899293661117554,-0.3271433711051941,-0.13636210560798645,1.7169207334518433,0.14010076224803925
4.4199652671813965,0.2274688482284546,-0.2443881630897522,-0.10024651885032654,-0.7651292328932308,-1.0667300577832977,-1.9773684096488249,-0.6315826177597046,0.6926302313804626,-0.3483772575855255,-0.008066429756581783,1.737688422203064,0.20883044600486755
4.439963102340698,0.25179916620254517,-0.25957125425338745,-0.07204616069793701,-0.7691786159290624,-1.0294945411580863,-1.973033727074914,-0.6157670617103577,0.6955453157424927,-0.3701995015144348,0.0445094034075737,1.697486162185669,0.25480228662490845
4.45999002456665,0.21873843669891357,-0.21156102418899536,-0.09584784507751465,-0.7709980814938131,-0.9939338708852401,-1.9681795026341846,-0.6011542081832886,0.6968514323234558,-0.391167014837265,0.141555055975914,1.5715429782867432,0.1190810427069664
4.479964256286621,0.2065979242324829,-0.22979587316513062,-0.0796026885509491,-0.7709564188377527,-0.9594891994196831,-1.9628560149951566,-0.5873504281044006,0.6968215703964233,-0.41165411472320557,0.18538248538970947,1.5133404731750488,0.1507546305656433
4.49997615814209,0.20777243375778198,-0.2454676628112793,-0.06923416256904602,-0.7717239978517322,-0.9242975328823896,-1.9545733894705135,-0.5720759034156799,0.6973719000816345,-0.43174251914024353,0.21448372304439545,1.4180362224578857,0.29372698068618774
4.519838094711304,0.14373409748077393,-0.1413518190383911,-0.10187077522277832,-0.7733575322058397,-0.8887321262001933,-1.943382112205712,-0.5554772615432739,0.6985417008399963,-0.45109260082244873,0.28513815999031067,1.3939387798309326,0.3532961905002594
4.539966106414795,0.079204261302948,-0.14734596014022827,-0.07818999886512756,-0.7755311585697684,-0.8534018838656489,-1.9329115643825814,-0.5380512475967407,0.7000954747200012,-0.4694327712059021,0.16748549044132233,1.3858402967453003,0.29319891333580017
4.559981107711792,0.06785541772842407,-0.1688106656074524,-0.0804816484451294,-0.7781140625359754,-0.82025381931302,-1.9234675969931019,-0.5208736062049866,0.7019374370574951,-0.48577210307121277,0.1543668806552887,1.2430912256240845,0.3761664032936096
4.580039978027344,0.02202153205871582,-0.08770227432250977,-0.10306251049041748,-0.7805052309330301,-0.7908267295874217,-1.9130904666181516,-0.5051606297492981,0.70363849401474,-0.49970555305480957,0.14785154163837433,0.9527733325958252,0.23592036962509155
4.600005149841309,-0.03962719440460205,-0.008456289768218994,-0.09621953964233398,-0.781354537393202,-0.769498272368171,-1.9072019295695752,-0.49397262930870056,0.7042417526245117,-0.5099360346794128,0.09142936021089554,0.831207811832428,0.2622302770614624
4.620030164718628,-0.03568941354751587,0.11103695631027222,-0.1520586609840393,-0.7848831751349344,-0.7479386561326858,-1.8982061807043247,-0.48117148876190186,0.706742525100708,-0.5186415314674377,0.11092058569192886,0.6427373886108398,0.38159215450286865
4.63996696472168,-0.07111623883247375,0.17038708925247192,-0.15742039680480957,-0.786857090960795,-0.7267006779250246,-1.8853151591672224,-0.46912118792533875,0.7081376314163208,-0.52769935131073,0.4933268129825592,0.6854062080383301,0.48861995339393616
4.659972190856934,-0.10428699851036072,0.14259636402130127,-0.1556018590927124,-0.7818836954667951,-0.6952593394689848,-1.8615794995370636,-0.4545508921146393,0.7046173214912415,-0.5448834896087646,0.8156791925430298,0.6617943048477173,0.37177151441574097
4.679362058639526,-0.05256524682044983,-0.006489932537078857,-0.040295958518981934,-0.7733935314483744,-0.6700442028370136,-1.8425673288333724,-0.4443676769733429,0.6985674500465393,-0.5608393549919128,0.6766787171363831,0.5226925015449524,0.2926335334777832
4.699970245361328,0.024691402912139893,0.0002555251121520996,0.027360975742340088,-0.7682656202161127,-0.6478139703552931,-1.8234199278792327,-0.4339473247528076,0.6948890686035156,-0.5734273791313171,0.5534785389900208,0.3471410870552063,0.43260639905929565
4.719970226287842,0.006255596876144409,0.11834144592285156,0.06682908535003662,-0.7624492953853578,-0.6287246549186072,-1.804195295929954,-0.42529240250587463,0.6906946897506714,-0.5848650932312012,0.7891671061515808,0.22342650592327118,0.3458957076072693
4.739962100982666,-0.005155205726623535,0.1728229522705078,0.07401597499847412,-0.7506048048260715,-0.6098856829612069,-1.7817724846980365,-0.4188559949398041,0.6820811629295349,-0.5994372367858887,1.0481181144714355,0.10307533293962479,0.29306721687316895
4.759963035583496,0.035127490758895874,0.04420977830886841,0.1429520845413208,-0.7370395208817321,-0.5942627642441536,-1.759100516107177,-0.4145829975605011,0.6720987558364868,-0.6135179400444031,0.9549039602279663,-0.06724553555250168,0.3404291272163391
4.7799601554870605,0.04724329710006714,0.0038756132125854492,0.16052377223968506,-0.7272193170256608,-0.5835566699937513,-1.7380781451472362,-0.41160786151885986,0.6647949814796448,-0.6233991980552673,0.7255555391311646,-0.23940372467041016,0.3597889542579651
4.79996919631958,0.026508361101150513,-0.046306490898132324,0.19166719913482666,-0.7205746424278187,-0.5766906739265445,-1.7208763960099922,-0.4097175598144531,0.659816563129425,-0.6298997402191162,0.5624845623970032,-0.21267251670360565,0.4012366235256195
4.819962024688721,0.05193990468978882,-0.06318098306655884,0.20156848430633545,-0.7153047795275048,-0.5689170975457364,-1.7042704735340573,-0.4066762328147888,0.6558475494384766,-0.6359862685203552,0.5237793922424316,-0.15030145645141602,0.33468443155288696
4.839998245239258,0.08753108978271484,-0.06407564878463745,0.19657737016677856,-0.7099934797338403,-0.5622654630465823,-1.6891001277985962,-0.4042882025241852,0.6518288254737854,-0.6416153311729431,0.5205762982368469,-0.1642308384180069,0.35034143924713135
4.859961032867432,0.11592558026313782,-0.06357789039611816,0.2037208080291748,-0.7044810617607656,-0.5564704112481735,-1.6745886367412386,-0.40245506167411804,0.6476384997367859,-0.6469886898994446,0.5011978149414062,-0.1840847134590149,0.3125855326652527
4.879982948303223,0.14124795794487,-0.0397602915763855,0.19157618284225464,-0.700184918736821,-0.552960299922907,-1.6623938999586463,-0.4016391634941101,0.6443591117858887,-0.6507589817047119,0.35332655906677246,-0.2624652087688446,0.2341766208410263
4.899963140487671,0.173603355884552,-0.023457229137420654,0.17106229066848755,-0.6971671103965191,-0.5533259148559676,-1.6538087628476112,-0.4028971195220947,0.6420484185218811,-0.6522635221481323,0.2821454703807831,-0.3462250828742981,0.19394806027412415
4.91998815536499,0.18533951044082642,0.017280876636505127,0.14637327194213867,-0.6947849533387201,-0.5562361716557077,-1.6459817270811714,-0.40560010075569153,0.6402202844619751,-0.6523853540420532,0.2722088694572449,-0.43109095096588135,0.18896660208702087
4.939960956573486,0.16108056902885437,0.03902691602706909,0.12503552436828613,-0.692440418161379,-0.5597486102096049,-1.638140303078297,-0.4086848795413971,0.6384174227714539,-0.6522267460823059,0.2359631210565567,-0.41000109910964966,0.18708863854408264
4.95996618270874,0.12907788157463074,0.041109561920166016,0.08360540866851807,-0.6907072292616305,-0.5638938035424652,-1.6320947665133827,-0.41197580099105835,0.6370824575424194,-0.6514613628387451,0.14378681778907776,-0.3972584009170532,0.11376310884952545
4.979993104934692,0.13201606273651123,0.03464782238006592,0.05234283208847046,-0.6902218131725761,-0.5697515425857692,-1.6289218892899096,-0.41595155000686646,0.6367082595825195,-0.6492972373962402,0.04716067388653755,-0.3800428509712219,0.0797567069530487
5.000000953674316,0.12234371900558472,-0.0017789006233215332,0.004972279071807861,-0.6907812070913362,-0.5754449185189343,-1.6270730900941652,-0.41944757103919983,0.6371394991874695,-0.6466196775436401,-0.013752596452832222,-0.31916627287864685,0.048208169639110565
5.019963264465332,0.11124318838119507,-0.007501423358917236,-0.03805047273635864,-0.691514570766369,-0.5809845203446172,-1.6270715409818084,-0.4227665960788727,0.6377045512199402,-0.6438954472541809,-0.03215506672859192,-0.22339315712451935,0.009824114851653576
5.0399720668792725,0.10661667585372925,-0.0013383030891418457,-0.09716677665710449,-0.6921505227152412,-0.5851249882618783,-1.6279779108593033,-0.42520493268966675,0.6381942629814148,-0.6418012380599976,-0.08228160440921783,-0.1444171965122223,-0.04867358133196831
5.0599610805511475,0.10833078622817993,0.009696781635284424,-0.1310122013092041,-0.6924439646902669,-0.589128246710063,-1.6306549246147488,-0.4276667535305023,0.6384201645851135,-0.6399381756782532,-0.06130756065249443,-0.08348052203655243,-0.08252330869436264
5.0800909996032715,0.10269126296043396,0.02541881799697876,-0.16808676719665527,-0.6926350917062215,-0.5922280788581648,-1.633633033262534,-0.4295802414417267,0.6385672688484192,-0.638508141040802,-0.04485124722123146,-0.04173458740115166,-0.09344393014907837
5.09996223449707,0.06623885035514832,0.014294028282165527,-0.22337228059768677,-0.6925374217859068,-0.5935614641667077,-1.635069424129578,-0.43046608567237854,0.6384921073913574,-0.637986421585083,0.0214446559548378,0.011006125248968601,-0.013452600687742233
5.119962215423584,0.010450422763824463,-0.0016003251075744629,-0.24540674686431885,-0.6910841777718759,-0.5918392930246066,-1.6354786875930833,-0.42988401651382446,0.6373729705810547,-0.6394963264465332,0.04502654820680618,0.18279573321342468,-0.1560831516981125
5.140017032623291,-0.03008657693862915,-0.0065122246742248535,-0.24063140153884888,-0.6871480415134278,-0.5891509323838398,-1.6401521861266777,-0.42955392599105835,0.6343350410461426,-0.6427305340766907,0.05173025652766228,0.3387296795845032,-0.3609529435634613
5.159959077835083,-0.026976346969604492,-0.03947645425796509,-0.22316193580627441,-0.6821908201076289,-0.5853882064927659,-1.6481768291285124,-0.4288646876811981,0.630495011806488,-0.6469553709030151,-0.02435971610248089,0.45831412076950073,-0.4477810561656952
5.179993152618408,-0.030644237995147705,-0.08779311180114746,-0.21140062808990479,-0.6800397142663384,-0.5822266221328247,-1.6604486197903408,-0.4275619387626648,0.6288238763809204,-0.64943927526474,-0.33954671025276184,0.6015610098838806,-0.49855607748031616
5.199995040893555,-0.03893685340881348,-0.026489615440368652,-0.1886500120162964,-0.6818349681469871,-0.5823034595463362,-1.6797657347265675,-0.426990270614624,0.6302188038825989,-0.6484625339508057,-0.6329702734947205,0.5963324308395386,-0.6527661085128784
5.2199671268463135,-0.06464701890945435,0.12284260988235474,-0.14992833137512207,-0.6864099712592505,-0.5853122662399706,-1.7024836133331098,-0.4273420572280884,0.6337642669677734,-0.6447647213935852,-0.6434587836265564,0.5688198208808899,-0.5151410102844238
5.23996114730835,-0.191877543926239,0.3470858931541443,-0.20101052522659302,-0.6890956884217878,-0.5841873135923554,-1.7216921811324977,-0.42567622661590576,0.6358394622802734,-0.643822968006134,-0.5053452849388123,0.7224005460739136,-0.5562829375267029
5.25996208190918,-0.31381672620773315,0.38105279207229614,-0.13256371021270752,-0.6921033028820673,-0.5779240000282337,-1.7389776231669882,-0.42058879137039185,0.6381579637527466,-0.644871711730957,-0.48664650321006775,1.0566846132278442,-0.4123265743255615
5.279971122741699,-0.22882357239723206,0.10267704725265503,0.10060155391693115,-0.6995911645962799,-0.5662761207714423,-1.756689121428424,-0.41047388315200806,0.6439049243927002,-0.6456760764122009,-0.9137163162231445,1.2406325340270996,-0.3103177547454834
5.2999982833862305,-0.10575896501541138,-0.14357024431228638,0.25038963556289673,-0.7155147533219314,-0.5534885053888818,-1.7756992676432835,-0.39674338698387146,0.6560060381889343,-0.642067551612854,-1.155782699584961,1.1893115043640137,-0.10647491365671158
5.3199851512908936,-0.09715333580970764,-0.19059479236602783,0.2657662034034729,-0.7345930735260706,-0.5444217937372244,-1.7942701607438158,-0.3843529224395752,0.6702852249145508,-0.6348153352737427,-1.1909708976745605,0.953775942325592,-0.15271419286727905
5.339993953704834,-0.18093371391296387,-0.21735602617263794,0.26386260986328125,-0.7516647216478985,-0.5411147830988969,-1.8164646378701252,-0.37630194425582886,0.6828558444976807,-0.6261826753616333,-1.1511938571929932,0.9070706963539124,-0.33957669138908386
5.359577178955078,-0.2820878326892853,-0.14768481254577637,0.2241860032081604,-0.7667265599454733,-0.5416028233544689,-1.843768709938723,-0.37126293778419495,0.6937814950942993,-0.6171151399612427,-1.136775016784668,0.9828571677207947,-0.6089332103729248
5.379961967468262,-0.31236523389816284,-0.023564696311950684,0.2543494701385498,-0.7776677027846994,-0.5429938883728987,-1.8768103336329303,-0.3681766986846924,0.7016194462776184,-0.6100624203681946,-0.9307762980461121,1.1663281917572021,-0.852085530757904
5.399984121322632,-0.25475800037384033,0.040199339389801025,0.2136896848678589,-0.7811032503856598,-0.5437498740222658,-1.9100722782174993,-0.3673885464668274,0.7040632963180542,-0.6077174544334412,-0.6923280358314514,1.0893840789794922,-0.9499447345733643
5.419962167739868,-0.1374220848083496,-0.05556982755661011,0.24991381168365479,-0.7837782533293471,-0.5469165902801318,-1.9433062976467326,-0.3683303892612457,0.7059603929519653,-0.6049402356147766,-0.8258848190307617,0.9328966736793518,-0.9125342965126038
5.439953088760376,-0.07228055596351624,-0.142503559589386,0.2483292818069458,-0.7929831538890695,-0.5565584174316428,-1.9811071084543996,-0.3706972599029541,0.7124497890472412,-0.5958178043365479,-1.5131858587265015,0.8829380869865417,-0.9073652625083923
5.459969997406006,-0.0643545389175415,-0.27660614252090454,0.15528541803359985,-0.8167018944611952,-0.5758172366767998,-2.0304633276419706,-0.37279441952705383,0.7288918495178223,-0.5742307901382446,-1.88056218624115,0.6838476061820984,-0.7638181447982788
5.479969024658203,0.004327893257141113,-0.06588023900985718,0.11406832933425903,-0.8348161603233458,-0.591625678687943,-2.073014646264745,-0.37439921498298645,0.7411730885505676,-0.557214081287384,-1.3133840560913086,0.8237180709838867,-0.6544449329376221
5.500070095062256,0.06488102674484253,-0.042898595333099365,0.04419255256652832,-0.8445487475274815,-0.604895999261271,-2.1087995418845966,-0.37764039635658264,0.7476715445518494,-0.5462373495101929,-0.8860108852386475,0.5196229219436646,-0.7635074257850647
5.519971132278442,0.11546960473060608,-0.16386741399765015,0.02462005615234375,-0.8509553960857129,-0.6205813091192671,-2.1406677011862936,-0.3833680748939514,0.7519106268882751,-0.5363389253616333,-0.8863667249679565,0.3167901933193207,-0.5851648449897766
5.539962291717529,0.06958058476448059,-0.1941814422607422,-0.05472695827484131,-0.8594132452641601,-0.63769021569306,-2.1700315777471926,-0.3886875808238983,0.7574596405029297,-0.5245730876922607,-0.9338115453720093,0.24458950757980347,-0.49316391348838806
5.559963226318359,0.02787652611732483,-0.2388465404510498,-0.1282517910003662,-0.8684628837570312,-0.6550703823594903,-2.199697738387746,-0.39355331659317017,0.7633368372917175,-0.5122817754745483,-0.9181911945343018,0.2795322835445404,-0.5050831437110901
5.580069065093994,0.05008089542388916,-0.23471111059188843,-0.15149295330047607,-0.8753404417577654,-0.6700338959062047,-2.2280576941589993,-0.3979048728942871,0.7677617073059082,-0.5022090077400208,-0.7749814987182617,0.38088059425354004,-0.5274978280067444
5.599974155426025,0.05200999975204468,-0.1566219925880432,-0.16324329376220703,-0.8779487661348915,-0.6830864209577585,-2.254172787653824,-0.4031605124473572,0.7694303393363953,-0.4954177439212799,-0.39566123485565186,0.32091957330703735,-0.6103492379188538
5.619960069656372,0.029779940843582153,-0.09070056676864624,-0.1758759319782257,-0.8711623914762601,-0.6892039388271096,-2.270395005877693,-0.4094947874546051,0.7650779485702515,-0.49696049094200134,0.24634818732738495,0.36796459555625916,-0.6176202893257141
5.639970064163208,0.008925467729568481,-0.01945638656616211,-0.2237674593925476,-0.8543382915925265,-0.6841464549684086,-2.2742216080354534,-0.4150533378124237,0.7541365027427673,-0.5089291930198669,0.8540861010551453,0.43046367168426514,-0.634860098361969
5.65997314453125,0.06945499777793884,-0.05427020788192749,-0.19615960121154785,-0.8322315208346563,-0.6734313121004666,-2.272458787426254,-0.4198729693889618,0.7394355535507202,-0.5262525677680969,0.8926655054092407,0.4989646077156067,-0.6807717680931091
5.680026054382324,0.1368621289730072,-0.14418548345565796,-0.20451360940933228,-0.8128913380832453,-0.6644686575742184,-2.274187879447315,-0.42387980222702026,0.7262777090072632,-0.5411529541015625,0.6368662714958191,0.46053004264831543,-0.6231736540794373
5.699963092803955,0.19934406876564026,-0.09632748365402222,-0.1908462643623352,-0.7980585995499212,-0.6583898231731966,-2.278617528432631,-0.4271271824836731,0.7160021662712097,-0.5521805882453918,0.24837499856948853,0.5423574447631836,-0.4979263246059418
5.71998405456543,0.19770115613937378,-0.21133363246917725,-0.2657182216644287,-0.7880778312059717,-0.6511930075577914,-2.281632219465984,-0.4274526536464691,0.7089990377426147,-0.5608962774276733,0.34529703855514526,0.33857014775276184,-0.3149097263813019
5.739987134933472,0.17067301273345947,-0.19194066524505615,-0.20307564735412598,-0.7795258193599621,-0.65113502310971,-2.290476081024235,-0.4310793876647949,0.7029422521591187,-0.5657232999801636,0.3230801522731781,0.2915126085281372,-0.5696245431900024
5.759960174560547,0.2200106680393219,-0.2050459384918213,-0.20454227924346924,-0.7668161246335529,-0.6504642930125815,-2.293871205485021,-0.4360750615596771,0.6938459873199463,-0.5730762481689453,0.47093501687049866,0.06305582821369171,-0.5023180842399597
5.779962062835693,0.2260233461856842,-0.1904909610748291,-0.12391459941864014,-0.7491690377057209,-0.6542296937880729,-2.297563985506317,-0.44561249017715454,0.6810305118560791,-0.5810568332672119,0.6327717900276184,-0.20316582918167114,-0.7134683132171631
5.800006151199341,0.2674427330493927,-0.32806485891342163,0.04888772964477539,-0.7353179637178836,-0.6650108708622333,-2.3057252512355517,-0.4576282203197479,0.6708229780197144,-0.5835863351821899,0.0757889524102211,-0.3452319800853729,-0.6226243376731873
5.819962024688721,0.28594252467155457,-0.38977736234664917,0.11734998226165771,-0.7308086259673671,-0.6859484832662975,-2.322454224810455,-0.4716571271419525,0.6674720048904419,-0.5762123465538025,-0.519540011882782,-0.6468453407287598,-0.6479669809341431
5.839961051940918,0.2852080762386322,-0.32867735624313354,0.1512542963027954,-0.7342103692164497,-0.7215174246199996,-2.352185964148182,-0.49034714698791504,0.6700011491775513,-0.5573670864105225,-1.0640090703964233,-0.9544121026992798,-0.8725502490997314
5.859961986541748,0.26763373613357544,-0.23165249824523926,0.05877244472503662,-0.735637404424607,-0.7708144654752838,-2.391037707464476,-0.5165503025054932,0.6710598468780518,-0.5318408012390137,-0.896618664264679,-1.4060618877410889,-1.1341571807861328
5.879961967468262,0.2197921872138977,-0.03743624687194824,-0.04669767618179321,-0.7263702982843077,-0.8284299506577492,-2.4268649688681583,-0.5508773326873779,0.6641604900360107,-0.5053959488868713,-0.372488796710968,-1.929417371749878,-1.4502400159835815
5.899975061416626,0.03390026092529297,0.10545891523361206,0.03393164277076721,-0.7028601573378072,-0.8861388293715878,-2.458514071425828,-0.5910443067550659,0.6464025974273682,-0.4825248718261719,0.10290369391441345,-1.6724841594696045,-1.808192491531372
5.919968128204346,0.007071793079376221,-0.0031632184982299805,0.1981968879699707,-0.6775832427314964,-0.9305236753313716,-2.4869257712472277,-0.6247779726982117,0.626911997795105,-0.46543940901756287,-0.4074625074863434,-1.0161049365997314,-1.5738264322280884
5.939963102340698,0.11467987298965454,-0.1106070876121521,0.19200295209884644,-0.6587358881793159,-0.9725661060431752,-2.523251149061982,-0.653437077999115,0.6121177077293396,-0.4453447163105011,-0.6959514617919922,-1.0141184329986572,-1.6186617612838745
5.959964275360107,0.18055301904678345,0.03632920980453491,0.07723218202590942,-0.6364155923866074,-1.0143139913778305,-2.5556630478291873,-0.6828875541687012,0.5943166017532349,-0.42479702830314636,-0.12009459733963013,-1.1872519254684448,-1.6873400211334229
5.979962110519409,0.2117750644683838,-0.00464785099029541,0.12607210874557495,-0.6052822853645996,-1.048059027003752,-2.571215022502377,-0.7125226855278015,0.5689942240715027,-0.4105571508407593,0.4564197361469269,-1.2637768983840942,-1.6026732921600342
5.999964237213135,0.2493913173675537,-0.0273587703704834,0.24245718121528625,-0.5730416161007583,-1.0778977381880956,-2.580128461401125,-0.7402358651161194,0.5421903133392334,-0.3975934088230133,0.469998836517334,-1.247731328010559,-1.6315118074417114
6.019964218139648,0.24234044551849365,-0.11704057455062866,0.24246346950531006,-0.5401593757574961,-1.107640680425172,-2.5899906398638057,-0.7672733664512634,0.5142726898193359,-0.3831649720668793,0.2945367991924286,-1.1681898832321167,-1.686421275138855
6.039961099624634,0.22130775451660156,-0.15236535668373108,0.2286103367805481,-0.5081168303343916,-1.1371478586820318,-2.6028241876614673,-0.7927951216697693,0.48653286695480347,-0.3670992851257324,-0.03795584663748741,-1.1242724657058716,-1.6971110105514526
6.060021162033081,0.19021284580230713,-0.1190580427646637,0.15781626105308533,-0.4757972399091178,-1.1688499449027434,-2.6225467463878926,-0.8180814385414124,0.4580472707748413,-0.3477577567100525,-0.156241774559021,-1.1672402620315552,-1.9705437421798706
6.0799641609191895,0.24878114461898804,-0.1306774616241455,0.2096548080444336,-0.4410409917374139,-1.199585077093586,-2.6414474673560586,-0.842714250087738,0.4268810749053955,-0.32803264260292053,-0.08134511858224869,-1.1003737449645996,-1.8802590370178223
6.099971294403076,0.24537819623947144,-0.10202419757843018,0.1675601601600647,-0.40537931379695247,-1.2298602297061154,-2.6560092173158645,-0.8660598993301392,0.39436736702919006,-0.30726978182792664,0.08216670155525208,-1.3195428848266602,-1.9772045612335205
6.119962215423584,0.15147441625595093,-0.04520276188850403,0.18322238326072693,-0.36559436382437077,-1.2596532944378436,-2.6667750522931777,-0.8890690803527832,0.3575044274330139,-0.28591421246528625,0.21642445027828217,-1.2824939489364624,-2.12825608253479
6.139986038208008,0.07647109031677246,-0.0879928469657898,0.18250441551208496,-0.3236072159716863,-1.2876726459950256,-2.677118345321505,-0.910348653793335,0.3179886043071747,-0.2648562490940094,-0.016118617728352547,-1.1085293292999268,-2.1525230407714844
6.159985065460205,0.060457825660705566,-0.13601678609848022,0.188041090965271,-0.28436505864925793,-1.3124893971488099,-2.693434941788476,-0.9279962182044983,0.2805480659008026,-0.24518539011478424,-0.40225690603256226,-0.8777744770050049,-2.04555344581604
6.180052280426025,0.03914594650268555,-0.07779920101165771,0.1616523563861847,-0.24695837389326955,-1.3335395770858547,-2.711730218632372,-0.9424968957901001,0.2444557547569275,-0.2279062271118164,-0.3336705267429352,-0.8473798036575317,-2.095243453979492
6.199969291687012,-0.11861652135848999,-0.00684221088886261,0.08701354265213013,-0.20432109269825435,-1.3560924784526711,-2.7272629211466026,-0.9567161202430725,0.2029024213552475,-0.20862625539302826,-0.17021846771240234,-1.086630940437317,-2.4289627075195312
6.219962120056152,-0.2965587377548218,-0.010073810815811157,0.10005843639373779,-0.15615446084724927,-1.3800730851701664,-2.740322555496599,-0.9699207544326782,0.15552061796188354,-0.18726253509521484,-0.216701477766037,-0.9283689856529236,-2.482119560241699
6.23996114730835,-0.35376453399658203,0.03771812468767166,0.24821166694164276,-0.11196025511973051,-1.3933180966848655,-2.75945207971857,-0.978129506111145,0.11172649264335632,-0.175442636013031,-0.8666849136352539,-0.1901015043258667,-2.1837592124938965
6.259961128234863,-0.2173827886581421,0.03670118749141693,0.28036561608314514,-0.07685408389219886,-1.3962411138263615,-2.7892263867882736,-0.9818968772888184,0.07677844911813736,-0.1731574684381485,-1.3118144273757935,-0.002935434691607952,-1.8361313343048096
6.279962062835693,-0.15276086330413818,0.2228078544139862,0.19027365744113922,-0.04748894860363501,-1.3998236672754536,-2.8175717166352237,-0.9843087792396545,0.04747110232710838,-0.16994908452033997,-0.9699402451515198,-0.04628610610961914,-1.5419520139694214
6.299962043762207,-0.19707226753234863,0.2620539963245392,0.2235933542251587,-0.021547573718123696,-1.3989461067834,-2.839530667702357,-0.9850413799285889,0.021545905619859695,-0.17096590995788574,-0.8304978609085083,0.1925940215587616,-1.426867961883545
6.319981098175049,-0.24527257680892944,0.08848173171281815,0.30521154403686523,0.002635745324585358,-1.3921530740588408,-2.8610567202621393,-0.9840822815895081,-0.0026357423048466444,-0.17769397795200348,-0.834989607334137,0.564461350440979,-1.195096492767334
6.339965105056763,-0.19463610649108887,-0.0017190631479024887,0.3793679475784302,0.017370509196221677,-1.3803444476277364,-2.8816158618070338,-0.9817707538604736,-0.01736963540315628,-0.18927408754825592,-0.8047844171524048,0.6167943477630615,-0.7351645231246948
6.359961986541748,-0.21553272008895874,0.09168770909309387,0.29240405559539795,0.030138264860022215,-1.368912453774084,-2.890729824023829,-0.979245662689209,-0.030133701860904694,-0.20042423903942108,0.23082990944385529,0.40323424339294434,-0.7916034460067749
6.3800272941589355,-0.24755769968032837,0.2622986435890198,0.30483269691467285,0.050436437746073405,-1.3643681059788089,-2.8767939525691153,-0.9775246977806091,-0.05041505768895149,-0.2047046422958374,1.3647117614746094,0.17361688613891602,-0.8446964025497437
6.399973154067993,-0.3800358772277832,0.15536712110042572,0.335288941860199,0.06977611105504113,-1.3614356683537636,-2.8462717752149698,-0.9757838249206543,-0.06971950829029083,-0.20732884109020233,1.7338680028915405,0.3294914960861206,-0.42012152075767517
6.4199371337890625,-0.381009042263031,-0.03582266718149185,0.4797983169555664,0.07742908149783297,-1.3578789467059311,-2.820155666290352,-0.974490225315094,-0.07735173404216766,-0.21067920327186584,0.7442821860313416,0.43280652165412903,0.39412668347358704
6.439913272857666,-0.3251110911369324,0.1040906235575676,0.5894064903259277,0.06805607422444512,-1.3495492221737846,-2.818675161855761,-0.9733660817146301,-0.06800355017185211,-0.21893849968910217,-0.2916114926338196,0.34782087802886963,0.3039897084236145
6.459992170333862,-0.3592275381088257,0.3197566568851471,0.4040721654891968,0.06403254867423597,-1.34371357609561,-2.8120199431906387,-0.9723306894302368,-0.06398879736661911,-0.2246747612953186,0.8773518204689026,0.1608264148235321,0.3772108256816864
6.4799981117248535,-0.2993050813674927,0.3262242078781128,0.30873697996139526,0.06427500433317823,-1.3521588085185103,-2.7859908329336345,-0.97417813539505,-0.06423075497150421,-0.21645189821720123,1.6260212659835815,-0.7787638902664185,0.17265450954437256
6.499978065490723,-0.39784497022628784,0.2858884930610657,0.4157944917678833,0.06549153973479126,-1.3706334684751331,-2.7506941916202483,-0.9779331684112549,-0.06544473022222519,-0.19840268790721893,1.816440463066101,-0.7434560060501099,0.4912540316581726
6.51986026763916,-0.5928516387939453,0.2763833999633789,0.3765729069709778,0.0587658389529693,-1.3854109516147162,-2.7153517867497703,-0.9811687469482422,-0.05873202160000801,-0.18400715291500092,1.4220185279846191,-0.43931639194488525,0.8569628000259399
6.539966106414795,-0.5425301194190979,0.30139923095703125,0.2810446619987488,0.043035422836702385,-1.396187711752891,-2.6860913747828206,-0.9838827848434448,-0.043022140860557556,-0.17356187105178833,1.303698182106018,-0.5362867116928101,1.2365018129348755
6.559977054595947,-0.46124041080474854,0.370352566242218,0.19102545082569122,0.0206378470099837,-1.4111797669314816,-2.652939036628772,-0.9870780110359192,-0.020636381581425667,-0.15890580415725708,1.7054370641708374,-0.9866679310798645,1.4274638891220093
6.579992294311523,-0.5418930053710938,0.3817152678966522,0.1763959527015686,-0.0014634515851900043,-1.4355531598480782,-2.611408446405312,-0.9908676147460938,0.0014634510735049844,-0.13483113050460815,2.03216290473938,-1.2888758182525635,1.460749626159668
6.599987030029297,-0.6730548739433289,0.2806003987789154,0.2654239535331726,-0.02813439271390819,-1.4601781931751774,-2.5691703470079332,-0.9934948086738586,0.028130682185292244,-0.11034899950027466,1.7503395080566406,-1.219742774963379,1.7103103399276733
6.6199631690979,-0.7393854856491089,0.20504216849803925,0.3345564603805542,-0.06372347079646182,-1.4795040112258333,-2.537819634476403,-0.9938146471977234,0.06368035078048706,-0.09098052978515625,0.9984355568885803,-0.8009606599807739,2.1801912784576416
6.639965057373047,-0.7822167873382568,0.1310432255268097,0.1306232213973999,-0.10993120271610966,-1.494447988927283,-2.517706695179335,-0.9910680651664734,0.10970991849899292,-0.07581376284360886,0.6464179158210754,-0.7654709815979004,2.4656686782836914
6.659963130950928,-0.7338993549346924,0.14800643920898438,0.049284882843494415,-0.16004899279526924,-1.505649079711186,-2.5027663542989713,-0.9851252436637878,0.15936657786369324,-0.06426914781332016,0.5434511303901672,-0.6657049059867859,2.599226236343384
6.679996013641357,-0.7128356099128723,0.07957762479782104,0.001459360122680664,-0.21057997528769723,-1.5170062641357636,-2.488467074003821,-0.9764954447746277,0.20902709662914276,-0.052576471120119095,0.5121634006500244,-0.6179185509681702,2.5828444957733154
6.699961185455322,-0.6710463166236877,-0.03919515013694763,0.03776836395263672,-0.2622216211510787,-1.526020123770304,-2.477448389359845,-0.964848518371582,0.25922685861587524,-0.04323114827275276,0.27975064516067505,-0.5317599773406982,2.6183884143829346
6.719963073730469,-0.6281954646110535,-0.09206950664520264,0.013952553272247314,-0.31350359240963493,-1.535364779302608,-2.4722863599786025,-0.9506620168685913,0.30839335918426514,-0.03369753062725067,0.08200757950544357,-0.5461011528968811,2.509202718734741
6.7399680614471436,-0.6729355454444885,-0.13719162344932556,-0.0606350302696228,-0.362060718134261,-1.5441607251756075,-2.4707573448889204,-0.934837281703949,0.3542020916938782,-0.024905843660235405,-0.22663189470767975,-0.34291785955429077,2.3559749126434326
6.759964942932129,-0.673171877861023,-0.27440401911735535,-0.055314358323812485,-0.40777289518022397,-1.5512824641806695,-2.4802452595476403,-0.9178313612937927,0.39656582474708557,-0.017912710085511208,-0.7753515243530273,0.03606504946947098,2.2264297008514404
6.779982089996338,-0.5494391918182373,-0.2719743251800537,-0.13732904195785522,-0.4512748994527429,-1.5586381747797486,-2.500540227844725,-0.8998254537582397,0.4361131489276886,-0.010940753854811192,-1.085800290107727,0.05482178181409836,2.0867154598236084
6.800052165985107,-0.4280731678009033,-0.21580472588539124,-0.18895387649536133,-0.4916097075018512,-1.5694856029137727,-2.5235060260153297,-0.8815734386444092,0.47204557061195374,-0.001155500067397952,-0.9388397932052612,-0.06857214123010635,1.952441930770874
6.819962024688721,-0.4017971158027649,-0.1775112748146057,-0.17342007160186768,-0.5289701178932135,-1.5796027267693014,-2.5417843594772718,-0.8632938861846924,0.504644513130188,0.0076027074828743935,-0.6041296124458313,-0.0629132017493248,1.7750087976455688
6.839960098266602,-0.36056673526763916,-0.1846921443939209,-0.17836570739746094,-0.5624000903971084,-1.5868023072595727,-2.5540056596802545,-0.8458694219589233,0.5332181453704834,0.013540126383304596,-0.3758639395236969,-0.08129646629095078,1.6114921569824219
6.859961032867432,-0.2873317003250122,-0.2179902195930481,-0.14523327350616455,-0.5942208737879316,-1.591570389234861,-2.562266125819134,-0.8284061551094055,0.5598633289337158,0.01721183769404888,-0.3004046380519867,0.08031710982322693,1.6078128814697266
6.87999415397644,-0.27991020679473877,-0.23981356620788574,-0.21411538124084473,-0.6247457986597958,-1.5955040851596334,-2.5687693316384914,-0.8108643889427185,0.5848910808563232,0.020038718357682228,-0.16651201248168945,-0.09979362785816193,1.4588344097137451
6.899960041046143,-0.23393619060516357,-0.20338165760040283,-0.18408119678497314,-0.6531150908568514,-1.5989265618516104,-2.5724028729496533,-0.7938807606697083,0.6076633334159851,0.02233794331550598,-0.020731331780552864,-0.035909365862607956,1.3845243453979492
6.919963121414185,-0.26143497228622437,-0.2054014801979065,-0.16973769664764404,-0.6789920501411931,-1.5973073528699113,-2.572017486331777,-0.7779327034950256,0.6280089616775513,0.02062862738966942,0.0586296021938324,0.24351394176483154,1.2170283794403076
6.939983129501343,-0.2242102026939392,-0.2126513123512268,-0.2108912467956543,-0.7024338056474274,-1.5904282310379085,-2.5702273342445316,-0.7631250619888306,0.6460772752761841,0.014983522705733776,0.12807083129882812,0.28555405139923096,1.1371451616287231
6.9599621295928955,-0.1545100212097168,-0.1668468713760376,-0.19226765632629395,-0.7248212388272155,-1.5841768065130666,-2.567816285744593,-0.7485508918762207,0.6630016565322876,0.010016567073762417,0.09289078414440155,0.19925707578659058,1.095189094543457
6.979963064193726,-0.18009060621261597,-0.15585005283355713,-0.16642189025878906,-0.7458978060821027,-1.5779766013794723,-2.565976580200189,-0.7344602942466736,0.6786314845085144,0.005273716989904642,0.08815046399831772,0.3111449182033539,1.0017006397247314
7.000025272369385,-0.15262168645858765,-0.14495855569839478,-0.17405682802200317,-0.7646593880829924,-1.5680258648143912,-2.5625240566057905,-0.7216153740882874,0.692291259765625,-0.0019992131274193525,0.23310032486915588,0.42718663811683655,0.9003430604934692
7.020095109939575,-0.10070818662643433,-0.13220179080963135,-0.14607828855514526,-0.7816293802896838,-1.5519278314072515,-2.5556172778976283,-0.7096402645111084,0.7044368386268616,-0.013391434215009212,0.23184257745742798,0.7076210379600525,0.7810073494911194
7.039988994598389,-0.05585235357284546,-0.19402861595153809,-0.14182662963867188,-0.7958739916040437,-1.5326813755310225,-2.550132201286956,-0.6991524696350098,0.7144753932952881,-0.02666107565164566,0.07367353141307831,0.8399139642715454,0.6960546970367432
7.059994220733643,0.004123985767364502,-0.1910383701324463,-0.09892070293426514,-0.8090268907828165,-1.5152079693935352,-2.550835257907432,-0.689136803150177,0.7236158847808838,-0.03834748640656471,-0.15157634019851685,0.9552361369132996,0.600379467010498
7.079998016357422,0.07059139013290405,-0.18830645084381104,-0.061269648373126984,-0.8196082576647254,-1.4973627948313428,-2.5540503321559114,-0.6806684136390686,0.7308785319328308,-0.05007392540574074,-0.017039643600583076,1.1069601774215698,0.5455966591835022
7.099914073944092,0.13579684495925903,-0.129771888256073,-0.09331619739532471,-0.8294950414508155,-1.4693541079471322,-2.545824529831523,-0.671777069568634,0.737590491771698,-0.06838127970695496,0.46816667914390564,1.1213691234588623,0.4433210492134094
7.119909286499023,0.1613253355026245,-0.1615118384361267,-0.04512465000152588,-0.8356192943707614,-1.4335082884867805,-2.528090987449334,-0.6644076108932495,0.7417120337486267,-0.09179264307022095,0.5414061546325684,1.1973143815994263,0.3679385483264923
7.139904975891113,0.19095337390899658,-0.25746428966522217,0.030525848269462585,-0.8415158619551257,-1.399714551307646,-2.5155639836203867,-0.6566058397293091,0.7456540465354919,-0.11344224214553833,0.17539972066879272,1.2644872665405273,0.31465643644332886
7.159902095794678,0.1880306601524353,-0.25243645906448364,0.03879128396511078,-0.8445321949972325,-1.3697669447354535,-2.5125275167866223,-0.6507077217102051,0.7476605176925659,-0.1326024830341339,-0.017995985224843025,1.4427030086517334,0.005101441405713558
7.1799070835113525,0.21599358320236206,-0.17276525497436523,0.012423694133758545,-0.8479777836733726,-1.3382631752257774,-2.5092775079731426,-0.6436974406242371,0.749944269657135,-0.1524384766817093,0.3268783390522003,1.5926233530044556,0.1276451051235199
7.1999921798706055,0.20391756296157837,-0.11208581924438477,0.03952193260192871,-0.8498091829366752,-1.3007299248928355,-2.496962930555566,-0.6361990571022034,0.7511544823646545,-0.17611873149871826,0.49307018518447876,1.3690834045410156,0.46676555275917053
7.219964027404785,0.11680716276168823,-0.21507513523101807,0.03454788029193878,-0.8521585328731619,-1.255852149087138,-2.4805746139805223,-0.625977635383606,0.7527032494544983,-0.20393580198287964,0.2559923529624939,1.7768020629882812,0.010412266477942467
7.239928245544434,0.16063570976257324,-0.22195935249328613,0.03583166003227234,-0.8503794393430126,-1.218617816668019,-2.4775474716152415,-0.6192079782485962,0.7515307664871216,-0.2275584638118744,0.026737302541732788,1.8100956678390503,-0.027064766734838486
7.2599382400512695,0.24176841974258423,-0.22198718786239624,0.04804748296737671,-0.8523901853616115,-1.181511139120963,-2.4767105970822176,-0.608940601348877,0.7528557181358337,-0.24979934096336365,0.02730517089366913,1.8221242427825928,0.16421441733837128
7.279938220977783,0.20027422904968262,-0.18513131141662598,0.009425759315490723,-0.8549583094848506,-1.1421015914076316,-2.4713772691770193,-0.5968653559684753,0.7545435428619385,-0.27279263734817505,0.2254849523305893,1.7542649507522583,0.19918163120746613
7.299989223480225,0.14662349224090576,-0.18428677320480347,0.013527929782867432,-0.8548571957262916,-1.0990072572130747,-2.46170290801839,-0.5846269726753235,0.7544772028923035,-0.298287570476532,0.3102375566959381,1.8302748203277588,0.09457717835903168
7.319995164871216,0.17293566465377808,-0.2339400053024292,0.051891177892684937,-0.8537900991294589,-1.056159896374956,-2.4541120245586483,-0.5720139145851135,0.7537764310836792,-0.3234519362449646,0.17337873578071594,1.8896273374557495,0.08540277183055878
7.339986085891724,0.21246951818466187,-0.25113755464553833,0.03853064775466919,-0.854604630431732,-1.0165029516927604,-2.4489019982274116,-0.5582184195518494,0.7543113827705383,-0.34555286169052124,0.09556200355291367,1.695211410522461,0.1664663404226303
7.359969139099121,0.1615900993347168,-0.21996527910232544,0.016019821166992188,-0.8563749529466053,-0.9789199266096905,-2.4428909048994187,-0.5437312126159668,0.7554724812507629,-0.3655377924442291,0.2059658020734787,1.606515884399414,0.16184507310390472
7.379964113235474,0.13877183198928833,-0.20340770483016968,0.03363305330276489,-0.8553481335389865,-0.9398286035979109,-2.4333389589283465,-0.529656171798706,0.7547993063926697,-0.38696572184562683,0.36852964758872986,1.5827027559280396,0.1255774199962616
7.399963140487671,0.16210013628005981,-0.23173505067825317,0.02541247010231018,-0.8527572592728662,-0.8989144778383762,-2.419667803945494,-0.5149137377738953,0.7530972957611084,-0.40952208638191223,0.41040903329849243,1.5101114511489868,0.24228134751319885
7.419999122619629,0.1614282727241516,-0.27493661642074585,0.0223943293094635,-0.8529951567304382,-0.8619779463960233,-2.408354872501257,-0.49930351972579956,0.7532537579536438,-0.42814087867736816,0.16514986753463745,1.3348195552825928,0.2512297034263611
7.439963102340698,0.1473475992679596,-0.2658002972602844,-0.005446404218673706,-0.8550912593869341,-0.8311196069292723,-2.4009009523369933,-0.4846888482570648,0.7546308040618896,-0.44227707386016846,0.015132087282836437,1.1960195302963257,0.21894541382789612
7.459961175918579,0.06370866298675537,-0.3849281668663025,-0.04268449544906616,-0.8588240151537602,-0.8051935702839158,-2.3974832123947345,-0.4710266888141632,0.757074773311615,-0.4527380168437958,0.08278362452983856,1.1667039394378662,0.20397886633872986
7.4799652099609375,0.07536178827285767,-0.22077703475952148,-0.05423158407211304,-0.8599268299410586,-0.7763035266496164,-2.3918212622413426,-0.4571671187877655,0.7577947974205017,-0.465559184551239,0.1557954102754593,1.244194507598877,0.14026249945163727
7.499813079833984,0.10939863324165344,-0.2369479537010193,-0.08315694332122803,-0.8559785793767447,-0.7480619338712685,-2.3846595471546257,-0.44587013125419617,0.7552127242088318,-0.4804723262786865,0.4469875395298004,1.0210446119308472,-0.032622646540403366
7.519974231719971,0.17717644572257996,-0.20123934745788574,0.008070111274719238,-0.8495495043814851,-0.7205738471346513,-2.3753049542771802,-0.4356907606124878,0.7509829998016357,-0.4961836338043213,0.3481525480747223,0.9839493036270142,-0.02147698402404785
7.5399980545043945,0.16611897945404053,-0.2679140567779541,-0.007609128952026367,-0.8449306133761981,-0.6984142151902524,-2.3705771983270663,-0.4268152713775635,0.7479250431060791,-0.5083668828010559,0.07762737572193146,0.8905911445617676,0.004797844216227531
7.559992074966431,0.22228461503982544,-0.22059369087219238,-0.013858616352081299,-0.8462605853633159,-0.6816914002625154,-2.36976323598617,-0.4176275134086609,0.7488071918487549,-0.5146601796150208,-0.09210476279258728,0.7064999938011169,0.15750940144062042
7.579998016357422,0.22063103318214417,-0.11467790603637695,-0.03364074230194092,-0.8512404760088478,-0.6666053448600378,-2.3670795544928214,-0.4075053036212921,0.7520985007286072,-0.5179645419120789,-0.1535996049642563,0.6421064138412476,0.27832409739494324
7.5999860763549805,0.17344775795936584,-0.050628066062927246,-0.12395411729812622,-0.8564988234503419,-0.6499514351273872,-2.3610987306769418,-0.3964243531227112,0.7555536031723022,-0.5215232968330383,-0.004765467252582312,0.5378648042678833,0.3632453978061676
7.620128154754639,0.1533764898777008,-0.06898754835128784,-0.1182931661605835,-0.8627687441344761,-0.6311924664583951,-2.34758751200923,-0.38376879692077637,0.7596461176872253,-0.5250326991081238,-0.021941673010587692,0.42221489548683167,0.7780914902687073
7.640064239501953,0.03351113200187683,-0.04597562551498413,-0.16181278228759766,-0.8687703000996616,-0.6127094497893978,-2.3304444232169286,-0.3713711202144623,0.7635354399681091,-0.5282965898513794,0.04141142964363098,0.22550706565380096,0.5470759868621826
7.660093069076538,0.08608826994895935,-0.1058540940284729,-0.12020552158355713,-0.8778977284783509,-0.5950465565306551,-2.314321615474097,-0.3580607771873474,0.7693977355957031,-0.5289797186851501,-0.1437743902206421,0.23580551147460938,0.8613483905792236
7.680047988891602,0.05219680070877075,-0.11076956987380981,-0.17541790008544922,-0.8927008473985828,-0.5750267272379425,-2.2933227493644655,-0.3411676585674286,0.7787688374519348,-0.5264255404472351,-0.33122655749320984,0.202633798122406,0.964300811290741
7.699968099594116,0.044702351093292236,0.07750332355499268,-0.23760229349136353,-0.9053358014398006,-0.5572615391965154,-2.2748621512826146,-0.3265320658683777,0.7866325378417969,-0.5240097641944885,-0.06414984166622162,0.08826806396245956,0.6883919835090637
7.729974269866943,-0.015962839126586914,0.40691518783569336,-0.49350273609161377,-0.9074802845723325,-0.5264485839244855,-2.2241946542811473,-0.30938494205474854,0.7879547476768494,-0.5323609709739685,0.7591946125030518,-0.5225319266319275,0.8304367661476135
7.739954948425293,-0.015962839126586914,0.40691518783569336,-0.49350273609161377,-0.9074802845723325,-0.5264485839244855,-2.2241946542811473,-0.30938494205474854,0.7879547476768494,-0.5323609709739685,0.7591946125030518,-0.5225319266319275,0.8304367661476135
7.76840615272522,-0.20741808414459229,0.24340498447418213,-0.23392391204833984,-0.8901221369355066,-0.4719940199438454,-2.1405712905569967,-0.28612735867500305,0.7771486043930054,-0.5605098009109497,1.0721375942230225,-0.06753084808588028,0.9874175190925598
7.788561105728149,-0.11395600438117981,0.13298606872558594,-0.11149603128433228,-0.8786474616712833,-0.4401061565315781,-2.097518919259491,-0.27189287543296814,0.7698764204978943,-0.5773773193359375,1.1234246492385864,-0.12175095081329346,0.9504822492599487
7.808256149291992,-0.07105031609535217,0.08375751972198486,0.014650344848632812,-0.8655582232549995,-0.4145512935036344,-2.0585551696305378,-0.2610876262187958,0.7614572048187256,-0.5933094620704651,1.0775374174118042,-0.26723915338516235,0.8013812303543091
7.828253269195557,-0.05394577980041504,0.05357849597930908,0.07841461896896362,-0.8538175947420545,-0.3953793155058428,-2.0249011496678047,-0.2530914545059204,0.7537944912910461,-0.6064145565032959,0.8830681443214417,-0.38734346628189087,0.7796646952629089
7.847139120101929,-0.017377331852912903,0.04848825931549072,0.1339145302772522,-0.8441321897760711,-0.3799745668768998,-1.9932198242064543,-0.24641652405261993,0.747394859790802,-0.6169926524162292,0.845553994178772,-0.44030681252479553,0.7857987880706787
7.868059158325195,0.002958744764328003,-0.007717728614807129,0.20509827136993408,-0.8344131467971999,-0.3658232718414997,-1.9617294615193075,-0.24024808406829834,0.7409024834632874,-0.6271717548370361,0.8136749863624573,-0.47360584139823914,0.8357710838317871
7.888093948364258,0.007156148552894592,-0.05120992660522461,0.2600269913673401,-0.8243653876878493,-0.3527014723635375,-1.9300415492676264,-0.23455780744552612,0.7341170310974121,-0.6372243762016296,0.8635025024414062,-0.5361344218254089,0.810528576374054
7.906960964202881,-0.005269527435302734,-0.04921382665634155,0.27571606636047363,-0.8119803046599912,-0.34279487403449893,-1.9009629210148757,-0.2312721461057663,0.7256511449813843,-0.6480305790901184,1.0019935369491577,-0.5778927206993103,0.6606826186180115
7.92686128616333,-0.009962409734725952,-0.10366886854171753,0.2852792739868164,-0.7968161914750459,-0.3340193946500617,-1.8731418667751896,-0.22915798425674438,0.7151342630386353,-0.6603556871414185,1.0560264587402344,-0.5511214733123779,0.6507793068885803
7.946587085723877,-0.024653896689414978,-0.1407639980316162,0.29029691219329834,-0.7818902123683562,-0.3271425865907604,-1.8478287777220086,-0.22801631689071655,0.7046219110488892,-0.6719498038291931,0.8694393038749695,-0.5206646919250488,0.5503712892532349
7.9656982421875,-0.05219089984893799,-0.13971346616744995,0.2853107452392578,-0.7695184250352194,-0.32418053348806275,-1.8299505172891304,-0.22878436744213104,0.6957894563674927,-0.6808339357376099,0.7088929414749146,-0.4698989689350128,0.30219486355781555
7.987792015075684,-0.03100360929965973,-0.08281195163726807,0.2816234230995178,-0.7590320681266338,-0.3249359852215006,-1.8181129483118783,-0.2316153198480606,0.6882195472717285,-0.6875377893447876,0.5546401143074036,-0.40558379888534546,0.14437435567378998
8.006097078323364,-0.016415223479270935,-0.0840599536895752,0.27984344959259033,-0.7499388812429628,-0.32840950302738475,-1.8120993432309067,-0.2360108494758606,0.6815940141677856,-0.6926242709159851,0.45449304580688477,-0.3787267208099365,-0.005631504580378532
8.027582168579102,0.0029424428939819336,-0.06857973337173462,0.29034513235092163,-0.7420951244808504,-0.3344542403584108,-1.810951327295867,-0.24194076657295227,0.6758336424827576,-0.6962137222290039,0.29443633556365967,-0.29833555221557617,-0.17490515112876892
8.046343088150024,0.0008839070796966553,-0.0688469409942627,0.22701114416122437,-0.7364890722422713,-0.3434047721212487,-1.815475586141516,-0.249434232711792,0.6716910600662231,-0.6975770592689514,0.09239517152309418,-0.2855478525161743,-0.31880825757980347
8.06805419921875,0.005262523889541626,-0.07959091663360596,0.1902785301208496,-0.735318153543538,-0.355177093228653,-1.8251851234804313,-0.25790220499038696,0.6708231568336487,-0.6953292489051819,-0.23084019124507904,-0.2301677018404007,-0.4005296528339386
8.086584091186523,0.009572088718414307,-0.05954933166503906,0.09426826238632202,-0.7380488348630317,-0.3693435791019419,-1.8400414644037981,-0.26706409454345703,0.6728457808494568,-0.6898952126502991,-0.3670656383037567,-0.17954836785793304,-0.49078744649887085
8.107244968414307,-0.002751857042312622,-0.03315424919128418,-0.0034624338150024414,-0.7414402930617104,-0.383480343857262,-1.8572916335597458,-0.2759346067905426,0.6753508448600769,-0.6839308738708496,-0.3909529149532318,-0.06888524442911148,-0.6124716401100159
8.126451015472412,-0.011698663234710693,-0.025252342224121094,-0.04775655269622803,-0.742333197440423,-0.39741862053255933,-1.8781747604158618,-0.28520676493644714,0.6760090589523315,-0.6794621348381042,-0.282179057598114,0.11914857476949692,-0.7482256293296814
8.146457195281982,0.024192512035369873,-0.03171133995056152,-0.034463703632354736,-0.7409321613807418,-0.40724379072895184,-1.8994968064095339,-0.2922435700893402,0.6749759912490845,-0.6774961948394775,-0.22828790545463562,0.3031858801841736,-0.7554171085357666
