timestamp,acceleration_x,acceleration_y,acceleration_z,attitude_pitch,attitude_roll,attitude_yaw,gravity_x,gravity_y,gravity_z,rotation_x,rotation_y,rotation_z
0.0,0.06385204195976257,0.013767600059509277,0.08374780416488647,-1.4013786468102685,1.527116657802222,0.9839083297345161,0.16844770312309265,0.9856831431388855,-0.0073624225333333015,-0.05776605010032654,0.7785816192626953,-0.45791277289390564
0.016570091247558594,0.08004675805568695,0.041188061237335205,0.11709415912628174,-1.4169250703766296,1.5492014369745306,0.9738315808732869,0.15322954952716827,0.9881851673126221,-0.003309489693492651,-0.08018598705530167,0.8312662839889526,-0.39083462953567505
0.03377103805541992,0.09312006831169128,0.03143852949142456,0.060476064682006836,-1.4323190678753577,1.5721925804037822,0.9652778144264409,0.13803526759147644,0.9904273152351379,0.00019273236102890223,0.11567254364490509,0.7916966080665588,-0.3372459411621094
0.054003000259399414,0.12078169733285904,0.034318506717681885,-0.03189742565155029,-1.45044044636114,1.4747530316115585,0.8254201740268987,0.11951367557048798,0.9927659630775452,-0.011513912118971348,0.46857962012290955,0.6993958950042725,-0.2894916832447052
0.08370423316955566,0.12404103577136993,0.10064888000488281,-0.000177089124917984,-1.4617705853422784,1.2835373347818289,0.5877395437096842,0.10435248911380768,0.994062602519989,-0.030828868970274925,0.5040768980979919,0.7133269906044006,-0.2043437361717224
0.1001288890838623,0.0800817608833313,0.13764160871505737,-0.09576195478439331,-1.457053415297819,1.0978564117238592,0.37693601807685023,0.10104001313447952,0.9935382604598999,-0.051699135452508926,0.6313253045082092,0.5351513624191284,-0.19682659208774567
0.11698698997497559,0.09752045571804047,0.1577160358428955,-0.10031021386384964,-1.451463790171937,0.8980010909748241,0.15651746574612097,0.09310755878686905,0.992888331413269,-0.07418940216302872,0.4194766581058502,0.43190497159957886,-0.08765267580747604
0.2862420082092285,0.14369994401931763,-0.02849256992340088,0.009865455329418182,-1.453319900643144,0.9661585393546411,0.2146808305332146,0.09642760455608368,0.9931075572967529,-0.06662829220294952,-0.7610542178153992,0.14142759144306183,0.09240302443504333
0.3370029926300049,0.07108322530984879,0.05939608812332153,0.05734902620315552,-1.4719986254009902,1.4466527572847994,0.6861459945828912,0.09787728637456894,0.9951234459877014,-0.012213644571602345,-1.787755012512207,0.3485809564590454,-0.1407046616077423
0.3527820110321045,0.029342465102672577,0.1197546124458313,-0.08729588240385056,-1.439132265510693,2.0946720866358985,1.326760774664513,0.11367813497781754,0.9913448095321655,0.06567408889532089,0.6496549844741821,-0.009678292088210583,0.4250304400920868
0.37561607360839844,-0.21453659236431122,0.27119719982147217,-0.05235844850540161,-1.4139779768332734,1.5385836946096898,0.7176353303845338,0.15609540045261383,0.9877291917800903,-0.005029983352869749,1.2654670476913452,0.8388809561729431,-0.0973937138915062
0.39293909072875977,-0.1627635806798935,0.005170762538909912,-0.09911291301250458,-1.3459343749113102,0.8556858114079735,-0.0180262906218803,0.1683482676744461,0.9748249053955078,-0.14620274305343628,1.6626808643341064,0.03595355153083801,0.21980595588684082
0.41324710845947266,-0.11715731024742126,-0.40999406576156616,-0.14445291459560394,-1.3696263827531838,0.8168232520999046,-0.043401514130089545,0.14566068351268768,0.9798334836959839,-0.1367819756269455,-1.0899882316589355,-0.5480817556381226,-0.636082112789154
0.43311190605163574,0.45069655776023865,0.13329637050628662,0.24605146050453186,-1.221221737021642,0.08216273806056916,-0.6958219476307236,0.028108930215239525,0.9395185112953186,-0.3413426876068115,1.8219465017318726,-1.7244882583618164,-0.08003124594688416
0.45327305793762207,0.03225696459412575,-0.18217480182647705,-0.48870372772216797,-0.978564099536303,0.05814706455710726,-0.6208969373977381,0.032440248876810074,0.8296967148780823,-0.5572711229324341,1.2051657438278198,-0.3651452958583832,0.6551920771598816
0.47433018684387207,-0.04119783639907837,0.14640867710113525,0.0859103798866272,-0.8704945155015326,0.03853100392741768,-0.6428192466324629,0.02482510171830654,0.7646477222442627,-0.6439701318740845,1.1475276947021484,-0.08331158757209778,-0.1726650595664978
0.493549108505249,-0.2507054805755615,0.062103986740112305,0.16126489639282227,-0.7929578507388907,-0.09437432357282702,-0.7372328456478435,-0.06612809002399445,0.7124320268630981,-0.698618471622467,-0.17747952044010162,-0.5102155208587646,-0.5501017570495605
0.5131950378417969,-0.3691006898880005,0.5322858691215515,-0.24502551555633545,-0.773602229647289,-0.19530445931928977,-0.8180341026387183,-0.1388339400291443,0.6987168192863464,-0.7017976641654968,1.0162168741226196,-0.2865583598613739,0.0434870645403862
0.5338830947875977,-0.532680094242096,-0.2594678997993469,0.015911519527435303,-0.7400071880794389,-0.0159788865852331,-0.8264034851767189,-0.011799327097833157,0.6742932200431824,-0.7383695244789124,1.0395808219909668,2.5797231197357178,-1.1842724084854126
0.553969144821167,0.12229344248771667,0.5095499753952026,-0.012723982334136963,-0.4775581219414969,-0.04295919502116245,-1.316197841166508,-0.03814118355512619,0.4596118628978729,-0.8873004913330078,2.1372594833374023,0.6553022861480713,-3.468367338180542
0.5731799602508545,0.3587554693222046,0.4673198163509369,0.25572139024734497,-0.2794677709703403,-0.16087488680357043,-1.5740094370166213,-0.15396718680858612,0.27584409713745117,-0.9487909078598022,1.210210919380188,-0.9494020342826843,-0.8546975255012512
0.5929059982299805,0.29316747188568115,-0.3906666040420532,-0.3782612681388855,-0.10139616342606449,-0.2281892205233626,-1.5594727925271554,-0.22505217790603638,0.10122250765562057,-0.969074547290802,0.23506487905979156,-0.3497903347015381,0.7523646354675293
0.6150062084197998,0.025722235441207886,0.07233041524887085,0.17199265956878662,0.06213189848884177,-0.28452765218931786,-1.439391524873882,-0.2801624834537506,-0.06209193170070648,-0.9579423666000366,2.1457555294036865,-0.5832245349884033,0.34835973381996155
0.6334311962127686,-0.09015348553657532,-0.11383163928985596,-0.11097210645675659,0.022797695715890652,-0.29475629000978604,-1.4041987292508797,-0.2904311716556549,-0.022795721888542175,-0.9566243290901184,-2.429534435272217,-0.17736369371414185,1.3556214570999146
0.6530990600585938,0.11469388008117676,0.3670103847980499,0.10045504570007324,-0.1160531235990285,-0.04728038377580711,-1.0547887866193708,-0.04694485291838646,0.11579278856515884,-0.9921634197235107,-0.22134946286678314,1.3784174919128418,3.8569765090942383
0.673037052154541,-0.12326039373874664,0.35074108839035034,0.1412678360939026,-0.10102967255155082,0.0931533388356825,-0.42769089661510423,0.09254435449838638,0.10085789114236832,-0.9905872941017151,0.16687466204166412,-0.1729770302772522,4.399881839752197
0.6952788829803467,-0.27580195665359497,0.052803948521614075,0.06305819749832153,0.005547564958540024,0.08532432322568076,0.1937290153949971,0.08521951735019684,-0.005547536537051201,-0.9963467717170715,0.027891863137483597,-0.3087489604949951,3.069241523742676
0.7155320644378662,-0.17051805555820465,0.137054443359375,-0.00940030813217163,0.05673208169546991,0.0517582646435141,0.5370057149863559,0.05165192484855652,-0.0567016527056694,-0.9970541596412659,-0.036173779517412186,0.04545704275369644,2.0755436420440674
0.7328689098358154,-0.15244005620479584,0.05962798744440079,0.08511871099472046,0.025313645374381025,0.025115987743203394,0.7156503499268915,0.025105301290750504,-0.02531094290316105,-0.9993643164634705,-0.582172155380249,-0.3632427453994751,1.2441011667251587
0.7539341449737549,-0.0032063089311122894,0.07976995408535004,-0.02823406457901001,-0.18754771421524802,0.049270997034990126,0.7883177030154174,0.04838741943240166,0.18645016849040985,-0.9812721610069275,-1.9481537342071533,0.13003051280975342,0.27486008405685425
0.7729151248931885,0.044594261795282364,0.061560600996017456,-0.12264901399612427,-0.30337759013296023,0.05742328479854165,0.9031076030776383,0.0547708161175251,0.2987452447414398,-0.9527599215507507,0.08949007093906403,-0.5794851183891296,0.8781812191009521
0.795820951461792,0.025575997307896614,-0.0033130645751953125,0.050083279609680176,-0.30588181645879464,0.020144779401891678,0.9495215533359185,0.01920839585363865,0.3011341691017151,-0.9533882737159729,-0.007930741645395756,-0.1821889877319336,0.29875776171684265
0.8135569095611572,-0.35236856341362,-0.5939139127731323,0.09651637077331543,-0.2946622891253493,0.001974363480084171,0.9801234070313016,0.0018892677035182714,0.2904167175292969,-0.9568983912467957,-0.16085591912269592,0.0026163682341575623,0.03814847767353058
0.8328559398651123,-0.024404622614383698,-0.08563482761383057,-0.09305161237716675,-0.3941467574685781,0.02888093719662217,1.0108610924839851,0.02666277252137661,0.38402050733566284,-0.9229395389556885,-0.39530256390571594,0.10579042136669159,0.3271152079105377
0.8555071353912354,-0.0036107341293245554,0.2758042514324188,-0.11783754825592041,-0.3720804878181934,0.002385255746200137,1.0179906383359218,0.0022220376413315535,0.36355435848236084,-0.9315703511238098,0.9241412281990051,-0.489833265542984,-0.2182757556438446
0.8748610019683838,-0.016651075333356857,-0.008901447057723999,-0.104250967502594,-0.3353418171841883,0.004754531134109669,1.076243230723928,0.004489676561206579,0.32909196615219116,-0.9442871809005737,0.18926583230495453,-0.04343527927994728,0.5801956057548523
0.8934938907623291,-0.029064830392599106,0.1282358467578888,-0.07398700714111328,-0.21853121215653543,0.03673663288419164,1.1845165922965772,0.03585485741496086,0.21679599583148956,-0.9755582809448242,1.4946296215057373,0.0602429136633873,0.8953585028648376
0.9155690670013428,0.045515477657318115,-0.008860411122441292,0.016218841075897217,0.0032854698239697727,0.08191100107367978,1.33528474938994,0.08181899785995483,-0.003285463899374008,-0.9966418147087097,1.4194648265838623,0.04781624674797058,0.5717311501502991
0.9358341693878174,0.014050662517547607,0.05351576209068298,0.02964574098587036,0.16884927908550895,0.06796093112987094,1.4204785631875971,0.06694288551807404,-0.16804809868335724,-0.9835031628608704,0.954048216342926,-0.002387444954365492,0.8522294163703918
0.9553558826446533,0.008932627737522125,0.09264016151428223,0.027943730354309082,0.2396257726216958,0.04858050477506168,1.5283312983150958,0.04717384651303291,-0.2373391091823578,-0.9702807664871216,0.48836779594421387,-0.10692086815834045,0.9741721153259277
0.9746701717376709,-0.15273156762123108,-0.030284538865089417,0.2206408977508545,0.2264053514038016,0.0319393381726942,1.5907823756507504,0.03111894242465496,-0.22447606921195984,-0.9739826321601868,0.4755122661590576,0.28993353247642517,0.9385110139846802
0.9949030876159668,0.02212606370449066,-0.050614625215530396,-0.005795419216156006,0.20421977382809448,0.03003127759430041,1.6235691280700806,0.02940279245376587,-0.20280320942401886,-0.9787780046463013,-0.3113391697406769,-0.026625584810972214,-0.20820240676403046
1.0140249729156494,-0.0029976144433021545,-0.03304946422576904,0.021827876567840576,0.21237877850427986,0.04257132674597434,1.646049605778696,0.041602276265621185,-0.21078582108020782,-0.9766466021537781,-0.20615656673908234,0.02302621304988861,0.09048411250114441
1.0355021953582764,0.001419760286808014,0.016979053616523743,0.014238059520721436,0.21270143798321928,0.04806710897888224,1.6738276991708279,0.046965789049863815,-0.2111012190580368,-0.9763352274894714,0.01834334060549736,0.06910298019647598,0.23088660836219788
1.0525970458984375,0.012417130172252655,0.00878053903579712,-0.0018015503883361816,0.21129204220802084,0.047931857477839165,1.707492381695594,0.04684794694185257,-0.20972338318824768,-0.9766377806663513,0.09609190374612808,-0.008005117066204548,0.31913667917251587
1.075498104095459,-0.0016556791961193085,-0.009096428751945496,0.021167337894439697,0.17341188005427827,0.026609195931238765,1.7330613207659336,0.026207013055682182,-0.17254406213760376,-0.984653115272522,-0.18145547807216644,-0.040834613144397736,0.011644389480352402
1.094444990158081,0.05556168779730797,-0.21638745069503784,0.15206700563430786,0.10061556315767892,0.01063910897758418,1.7339526981928832,0.010585102252662182,-0.10044588893651962,-0.9948862195014954,-1.3017048835754395,0.013609630987048149,0.48679280281066895
1.113875150680542,0.09272786229848862,-0.27213793992996216,0.365439236164093,-0.07437646922605676,-0.07411006368159107,1.7239399744558423,-0.07383754104375839,0.07430791854858398,-0.9944980144500732,-2.476881980895996,-1.428218960762024,-0.49967169761657715
1.1350572109222412,-0.05056282877922058,-0.015814214944839478,0.14259612560272217,-0.2774949515749283,-0.42216653571080354,1.4712300775555995,-0.3940631151199341,0.2739472985267639,-0.8773067593574524,-2.1501410007476807,-2.848259687423706,-2.0168724060058594
1.1549899578094482,-0.2903512716293335,0.2579030692577362,-0.1355922818183899,-0.4717586769898647,-0.9621285968687558,0.9207937418942964,-0.7307974696159363,0.45445355772972107,-0.5093202590942383,-3.3673620223999023,-1.7727713584899902,-1.969458818435669
1.1746971607208252,-0.05599027872085571,0.23012953996658325,-0.14144077897071838,-0.36616331187454915,-1.2482863656310836,0.6169208003734884,-0.8855685591697693,0.35803574323654175,-0.2959369421005249,-1.2337710857391357,-0.7975991368293762,-0.9388434886932373
1.1949899196624756,0.14948135614395142,0.3078920841217041,-0.15732192993164062,-0.30928966119268914,-1.3354470101495726,0.4831042901346931,-0.9262911081314087,0.3043820858001709,-0.22211819887161255,0.25616759061813354,-0.025880608707666397,0.13313783705234528
1.2153120040893555,-0.02022552490234375,0.1360117495059967,-0.06796860694885254,-0.36054936582501523,-1.2995096861971958,0.5669225471664877,-0.9014816880226135,0.3527883291244507,-0.250741571187973,0.34611186385154724,0.08871281147003174,0.6866637468338013
1.234931230545044,0.046464741230010986,-0.23692560195922852,0.023886948823928833,-0.37567441406210306,-1.185986156039305,0.8168852165695879,-0.862230122089386,0.3668999969959259,-0.34920409321784973,-0.028293777257204056,0.08800068497657776,0.6668341755867004
1.2539870738983154,0.0226631760597229,-0.13972508907318115,0.04252859950065613,-0.40706971855460566,-1.128447862372666,0.9649736042956623,-0.8298988938331604,0.39592018723487854,-0.3930838406085968,1.3059149980545044,-0.2815561592578888,0.4211500883102417
1.2739288806915283,0.0520898699760437,-0.06468042731285095,-0.054002076387405396,-0.3426149967063347,-1.1322114751025039,1.149165157639966,-0.8527337908744812,0.3359512388706207,-0.3999772369861603,0.6102221012115479,-0.7192580103874207,-0.18769408762454987
1.2928190231323242,-0.19684869050979614,0.13222885131835938,-0.2194928228855133,-0.29443115921571866,-1.2312124766253552,1.0977626550697286,-0.9023181796073914,0.2901955246925354,-0.31876078248023987,-0.05576147139072418,-0.4829340875148773,-0.5580911636352539
1.3129379749298096,0.09313833713531494,0.13413327932357788,-0.09105157852172852,-0.2922186102980652,-1.2560065978142707,1.0873623203351914,-0.9105517268180847,0.2880775034427643,-0.29649099707603455,1.403557300567627,-0.10790907591581345,0.5003178715705872
1.3330271244049072,0.02948218584060669,0.13072797656059265,0.15850621461868286,-0.2861081588775621,-1.1997828627405724,1.247518408087386,-0.8940757513046265,0.282220721244812,-0.3478218913078308,0.4514921307563782,0.1926339715719223,0.5242419838905334
1.3534691333770752,0.214910089969635,-0.004157811403274536,0.16251611709594727,-0.3054236511464634,-1.1552354421162805,1.3634195585546196,-0.8725486397743225,0.3006972372531891,-0.3850196301937103,0.5219075679779053,-0.28534939885139465,0.15201620757579803
1.3731091022491455,-0.016858160495758057,0.22967544198036194,0.053791165351867676,-0.2626214467586202,-1.1902844382016982,1.358137917067994,-0.8966397643089294,0.2596130073070526,-0.3586616516113281,0.08499733358621597,-0.1692972481250763,-0.23661541938781738
1.3936679363250732,0.18198919296264648,-0.05779360234737396,0.044369518756866455,-0.22243473066871972,-1.2200587745209182,1.4670034224249415,-0.915982723236084,0.2206050157546997,-0.3351256251335144,0.4515925347805023,-0.5424656867980957,-0.03338662534952164
1.4130799770355225,0.31458616256713867,-0.04601779580116272,-0.07448935508728027,-0.17454260327923385,-1.26928263185807,1.517140853970364,-0.9403796195983887,0.17365771532058716,-0.2924538850784302,0.6916396021842957,-0.08674289286136627,-0.0601009726524353
1.4327619075775146,0.23800355195999146,-0.11608043313026428,-0.0014474093914031982,-0.17260034247792905,-1.2754511715740626,1.5293696451726195,-0.942486584186554,0.17174462974071503,-0.28674519062042236,0.19300752878189087,-0.3227708637714386,0.10709528625011444
1.4520928859710693,0.008017420768737793,-0.04983240365982056,-0.0048940181732177734,-0.1727145134936295,-1.2792456593732293,1.534619834869612,-0.9435490369796753,0.1718571037054062,-0.2831612527370453,0.2693016231060028,-0.035152848809957504,-0.011629818007349968
1.4727060794830322,-0.1584477424621582,-0.0433659553527832,0.020666003227233887,-0.1670360532024725,-1.2747186411623306,1.5379089621980295,-0.9431757926940918,0.16626039147377014,-0.28770992159843445,0.216780886054039,0.3324936032295227,-0.46320125460624695
1.4934170246124268,0.050546228885650635,-0.17271555960178375,0.17783546447753906,-0.15681711054221467,-1.2668960029027418,1.5379594065744975,-0.9424682855606079,0.1561751663684845,-0.2955721616744995,-0.008854685351252556,0.3511801064014435,-0.3528463840484619
1.5132701396942139,0.2489774227142334,-0.16173945367336273,0.11181756854057312,-0.1538466152275822,-1.2665167207758625,1.5333814481216723,-0.9427945017814636,0.15324044227600098,-0.2960672676563263,-0.18614229559898376,-0.1820557415485382,-0.1824144423007965
1.5334200859069824,0.07287472486495972,-0.12516404688358307,0.0903412401676178,-0.14958618388090916,-1.2691377023636028,1.529191972858485,-0.944182276725769,0.1490289568901062,-0.29378658533096313,-0.10139530152082443,0.07251404970884323,-0.3453335464000702
1.5547850131988525,-0.05729043483734131,-0.06966792047023773,0.05657893419265747,-0.14102742491410972,-1.2662435642751426,1.5255910302169844,-0.9445101022720337,0.14056041836738586,-0.2968895137310028,0.025213059037923813,0.21853624284267426,-0.6033520102500916
1.5746350288391113,0.04338651895523071,-0.10996130108833313,0.14466992020606995,-0.12782633439775762,-1.2626395012463647,1.5232099010669022,-0.9451198577880859,0.12747851014137268,-0.3008282482624054,0.11008617281913757,0.17577067017555237,-0.6361787915229797
1.5945560932159424,0.04582113027572632,-0.28412190079689026,0.21021142601966858,-0.12291704479667,-1.2574215696680757,1.5218407737176862,-0.9441213011741638,0.1226077601313591,-0.30594494938850403,-0.23154650628566742,0.3225070834159851,0.1760656088590622
1.6143949031829834,-0.09205418825149536,-0.14324603974819183,0.1955881118774414,-0.13061679974899265,-1.2505007786757376,1.5140925074734368,-0.9410574436187744,0.13024571537971497,-0.31216517090797424,-0.5410852432250977,0.4632434546947479,0.1324760615825653
1.6372950077056885,-0.1767217516899109,-0.021537572145462036,0.1451992690563202,-0.13293660263544907,-1.241631693601229,1.5085547946428683,-0.9379633069038391,0.13254539668560028,-0.32040053606033325,0.015248334035277367,0.49201056361198425,-0.008279126137495041
1.6573951244354248,-0.11406677961349487,0.02253672480583191,0.1866559386253357,-0.12895886722160707,-1.2325625823840496,1.5215382666675947,-0.9355090856552124,0.12860172986984253,-0.32906609773635864,1.3511459827423096,0.25260597467422485,-0.0014013288309797645
1.6778042316436768,-0.19061100482940674,-0.027038447558879852,0.26628902554512024,-0.11753424943163733,-1.220757081690741,1.5535938893811887,-0.9328785538673401,0.11726382374763489,-0.3405687212944031,1.8612192869186401,0.5358397364616394,0.05051038786768913
1.6972370147705078,-0.23316514492034912,-0.2295960783958435,0.27767670154571533,-0.1081332311125113,-1.2047705842721657,1.5878070524925045,-0.9283034205436707,0.10792262107133865,-0.35581687092781067,1.5971300601959229,0.6219481229782104,0.2196843922138214
1.7170898914337158,-0.11138945817947388,-0.10511397570371628,0.27021148800849915,-0.10001651921984614,-1.1917966857763436,1.619849455588482,-0.9243924021720886,0.09984984993934631,-0.3681422770023346,1.7868255376815796,0.3127250373363495,0.18122486770153046
1.73716402053833,-0.15743505954742432,0.006438300013542175,0.18309003114700317,-0.08759165684326999,-1.1858178935048802,1.656794986635834,-0.9232534766197205,0.08747969567775726,-0.374099463224411,2.0437397956848145,0.04961548000574112,0.0070080989971756935
1.7570102214813232,-0.4226568341255188,-0.11527601629495621,0.23815810680389404,-0.07175862536639084,-1.1793069446805278,1.6909332988510506,-0.9219629764556885,0.07169705629348755,-0.3805835545063019,1.4972459077835083,0.3591652512550354,-0.14593522250652313
1.7769181728363037,-0.42936187982559204,-0.28673306107521057,0.3199365735054016,-0.0619039604316334,-1.1698280731933695,1.7073784691144513,-0.9189200401306152,0.06186443194746971,-0.38956236839294434,0.4318828880786896,0.37919601798057556,-0.07946960628032684
1.7968471050262451,-0.3084299564361572,-0.3229103982448578,0.2906714081764221,-0.06269772291885886,-1.163736713381981,1.7107466328684808,-0.9164845943450928,0.06265665590763092,-0.39513301849365234,0.02526114135980606,0.2885912358760834,0.23501095175743103
1.816688060760498,-0.3335118889808655,-0.16741706430912018,0.23034313321113586,-0.06513781559637609,-1.158195507800624,1.7125629365492185,-0.9141382575035095,0.06509176641702652,-0.4001428484916687,0.08028730750083923,0.2711351811885834,0.03336907923221588
1.8363349437713623,-0.29331690073013306,-0.1476316750049591,0.2333204746246338,-0.0655253995703644,-1.153670907634354,1.716772237283236,-0.9122953414916992,0.06547851860523224,-0.4042646288871765,0.2542772591114044,0.15053614974021912,0.12273236364126205
1.8567368984222412,-0.3148110508918762,-0.19247925281524658,0.15006810426712036,-0.06447232676808716,-1.1514595588132255,1.7259848121832762,-0.911461591720581,0.06442767381668091,-0.4063088893890381,0.4452415108680725,0.008529828861355782,0.1693473756313324
1.8765900135040283,-0.38201504945755005,-0.30461743474006653,0.22506821155548096,-0.06930624948920609,-1.1503736649396439,1.7313526934154915,-0.9107248783111572,0.06925077736377716,-0.4071665108203888,-0.18866869807243347,-0.015286998823285103,0.44998839497566223
1.896423101425171,-0.43536412715911865,-0.2547874450683594,0.24929764866828918,-0.0795173521625261,-1.1512419847971114,1.7263795193709284,-0.9103847742080688,0.07943358272314072,-0.40606629848480225,-0.5334494709968567,-0.06156794726848602,0.2737903892993927
1.9165380001068115,-0.46354204416275024,-0.17166896164417267,0.15332138538360596,-0.08844086536094341,-1.1528670181643073,1.7204308944326607,-0.9103593826293945,0.0883256196975708,-0.4042825996875763,-0.3883441090583801,-0.038418062031269073,0.31452709436416626
1.9369220733642578,-0.3897261619567871,-0.2369527518749237,0.36619463562965393,-0.0988232685012065,-1.1540297537356514,1.7109638557029707,-0.9099411964416504,0.09866249561309814,-0.4028308391571045,-0.31567421555519104,0.20366930961608887,0.6243001818656921
1.9566099643707275,-0.30645620822906494,-0.19655677676200867,0.32489579916000366,-0.1102015025229148,-1.1624266917657713,1.707074606391383,-0.9122022986412048,0.109978586435318,-0.394704669713974,-0.39897236227989197,-0.39260923862457275,0.3468368947505951
1.9764440059661865,-0.49788564443588257,-0.21994233131408691,0.04781991243362427,-0.12021043125661453,-1.1718445149109071,1.7028694019610247,-0.9148188233375549,0.11992112547159195,-0.3856493830680847,-0.3285366892814636,-0.3311613202095032,0.4261670410633087
1.9961411952972412,-0.48174625635147095,-0.16416457295417786,0.03431594371795654,-0.1328473622642433,-1.1787576364632517,1.7047763533940434,-0.915989339351654,0.1324569433927536,-0.3787067234516144,-0.06203139200806618,-0.40716344118118286,0.8769130706787109
2.016155958175659,-0.4533526301383972,-0.024307340383529663,0.0379866361618042,-0.15283142061304872,-1.1868001749623796,1.714225661673561,-0.9163678288459778,0.1522371619939804,-0.37026190757751465,0.2656252980232239,-0.46751561760902405,1.346992015838623
2.035288095474243,-0.5792946815490723,-0.02235831320285797,-0.010755479335784912,-0.17853302296323098,-1.1921674506847333,1.7326753619591946,-0.9144034385681152,0.17758610844612122,-0.3637714087963104,0.46239933371543884,-0.44205254316329956,1.6609445810317993
2.0563440322875977,-0.6336950659751892,-0.03073008358478546,-0.038032323122024536,-0.20456300075294626,-1.1982242575414257,1.7568527466143609,-0.9119744300842285,0.2031392902135849,-0.3564225435256958,0.7758104801177979,-0.5654074549674988,1.6345362663269043
2.0760180950164795,-0.6634668111801147,-0.07942716777324677,0.050620466470718384,-0.22875608625753693,-1.202392265116171,1.7844017496642202,-0.908600389957428,0.2267661839723587,-0.35074543952941895,0.7666151523590088,-0.31357213854789734,1.7219629287719727
2.0960052013397217,-0.6136083006858826,-0.2625029981136322,0.09694421291351318,-0.2619327739676423,-1.2057928638996442,1.8022752069245918,-0.9022608399391174,0.25894787907600403,-0.34477734565734863,-0.5759966969490051,-0.391584187746048,1.894912838935852
2.1150310039520264,-0.6131398677825928,-0.2547098398208618,0.18677476048469543,-0.30181276062559853,-1.214476089416338,1.796407367470625,-0.8948253393173218,0.29725152254104614,-0.33306071162223816,-1.0880838632583618,-0.2986876368522644,1.7317543029785156
2.136073112487793,-0.565380334854126,-0.041007548570632935,0.07533636689186096,-0.3375582033963979,-1.2199823271836976,1.7932644397401023,-0.8860966563224792,0.3311840891838074,-0.3242681622505188,-0.28150931000709534,-0.20322254300117493,1.4503124952316284
2.1559150218963623,-0.5179957747459412,0.09893426299095154,-0.026195794343948364,-0.36092317901590826,-1.2209538349048457,1.8056116343048088,-0.8789007067680359,0.3531380891799927,-0.3206669092178345,0.36470240354537964,-0.24934405088424683,1.2600382566452026
2.1797358989715576,-0.5383671522140503,0.04932412505149841,0.036457359790802,-0.3835657511507726,-1.2191313242048278,1.8201466952735035,-0.8705836534500122,0.3742294907569885,-0.31943151354789734,0.10901454836130142,-0.16038036346435547,1.3427554368972778
2.1927449703216553,-0.4678719639778137,0.07750055193901062,-0.060142844915390015,-0.40897985762192574,-1.222501279192371,1.8278407607395009,-0.862434983253479,0.39767351746559143,-0.31314805150032043,-0.2801729440689087,-0.4539586305618286,1.2656986713409424
2.2127280235290527,-0.35274893045425415,0.08443593978881836,-0.004514604806900024,-0.4360411102332846,-1.232211837726656,1.8292655609881978,-0.8549688458442688,0.4223543107509613,-0.3010730445384979,-0.48272204399108887,-0.5415124893188477,1.317280650138855
2.2327301502227783,-0.30309516191482544,0.16155239939689636,-0.05874118208885193,-0.4607651767015218,-1.2435582263046736,1.8301616898532054,-0.84818035364151,0.4446336030960083,-0.2879078984260559,-0.192299485206604,-0.614926278591156,1.0722861289978027
2.253473997116089,-0.19710701704025269,0.13396552205085754,-0.07396519184112549,-0.4807103433180597,-1.2533588762378485,1.8364507043863125,-0.84236741065979,0.4624091386795044,-0.27675798535346985,0.05903123319149017,-0.6608448624610901,1.0220928192138672
2.273329019546509,-0.0705445408821106,0.10353145003318787,-0.04986697435379028,-0.4988066146110008,-1.2642506597660728,1.8448924326776022,-0.8372160792350769,0.47837790846824646,-0.26499807834625244,0.04009906202554703,-0.7904667854309082,0.9231679439544678
2.294558048248291,-0.02976691722869873,0.07684946060180664,-0.055798470973968506,-0.5153128287784545,-1.2765911222153523,1.852132388705269,-0.8327513337135315,0.4928070902824402,-0.2523221969604492,0.0978831797838211,-0.7692049741744995,0.8127424120903015
2.3151440620422363,0.006198227405548096,0.010996401309967041,-0.092815101146698,-0.5285277782004512,-1.286265093177548,1.8601167682418236,-0.8288300037384033,0.5042625665664673,-0.24240516126155853,0.17368996143341064,-0.5917699337005615,0.6359683871269226
2.3346469402313232,0.13104397058486938,-0.037721455097198486,-0.13730978965759277,-0.5364583080480152,-1.2944849163374632,1.8663780545608104,-0.8269209861755371,0.5110950469970703,-0.23448580503463745,0.16952936351299286,-0.5589748024940491,0.28937405347824097
2.356854200363159,0.2702752947807312,-0.0738070011138916,-0.11009836196899414,-0.5398507445023272,-1.3010352018548086,1.8739923902202684,-0.8267633318901062,0.5140079855918884,-0.2286008596420288,0.3806907534599304,-0.48792362213134766,0.2787676155567169
2.374408006668091,0.34315168857574463,-0.08980703353881836,-0.11104290187358856,-0.5436364321390366,-1.3068723891094727,1.8824661040416448,-0.8261991143226624,0.5172516107559204,-0.2232617884874344,0.22159980237483978,-0.5480706691741943,0.20065395534038544
2.3942391872406006,0.34926432371139526,-0.09963256120681763,-0.10685078799724579,-0.5457045645462358,-1.3141130924003044,1.888254608748612,-0.8267574906349182,0.5190204381942749,-0.21700166165828705,0.22856716811656952,-0.4650152623653412,0.17367610335350037
2.4151721000671387,0.4206550121307373,-0.03496056795120239,-0.17089420557022095,-0.5478599167394403,-1.3202899166819169,1.893028956329033,-0.8269965052604675,0.5208615660667419,-0.21161304414272308,0.013770785182714462,-0.42325878143310547,0.08526209741830826
2.4351000785827637,0.4906606078147888,-0.05438995361328125,-0.14239811897277832,-0.5473653250940066,-1.3300293080230179,1.892360307037721,-0.8292683362960815,0.5204392671585083,-0.20361009240150452,0.23033978044986725,-0.4860036373138428,-0.04634476080536842
2.4548099040985107,0.5432806611061096,0.04065626859664917,-0.18343958258628845,-0.5469017389855885,-1.3307918968257542,1.9052915898127125,-0.8296576738357544,0.5200433731079102,-0.20303498208522797,0.7487995028495789,-0.2278636246919632,0.24977222084999084
2.473921060562134,0.4312451481819153,-0.028401970863342285,-0.18346557021141052,-0.5499738003699687,-1.3244437451997593,1.9212176216574546,-0.8267987966537476,0.5226649045944214,-0.2079070657491684,0.34759870171546936,-0.001998534658923745,0.3346576392650604
2.493887186050415,0.3590892553329468,-0.14441776275634766,-0.1816112995147705,-0.5567930513620121,-1.3221672306525158,1.9189351262453724,-0.8228495717048645,0.5284663438796997,-0.20890681445598602,-1.275438666343689,0.5301082134246826,0.25318872928619385
2.51465106010437,0.1440824270248413,-0.3644992709159851,-0.7177025675773621,-0.566316192037268,-1.3326284116329825,1.8763596140255867,-0.820061981678009,0.5365269780158997,-0.19909116625785828,-1.2692111730575562,0.39298030734062195,-0.5094426870346069
2.5351641178131104,-0.2877914309501648,-0.30128371715545654,-0.5367643237113953,-0.5610831406828087,-1.3257471432570591,1.8528839141876075,-0.8213851451873779,0.5321035981178284,-0.20540782809257507,-0.45796632766723633,1.7218043804168701,-0.27350687980651855
2.554764986038208,-0.23510921001434326,-0.4319556951522827,-0.08941179513931274,-0.5491558702718652,-1.2924147321113013,1.845522365503334,-0.8201276063919067,0.5219674110412598,-0.2343948483467102,-0.353488028049469,1.753730058670044,-0.794389545917511
2.574679136276245,0.39305704832077026,-0.3520328998565674,0.42470523715019226,-0.5429453687934392,-1.2792462779004279,1.8270703698919017,-0.8200588822364807,0.5166600346565247,-0.2461010217666626,-0.8196935653686523,0.6165719032287598,-0.19555959105491638
2.594865083694458,0.28202176094055176,-0.2832050323486328,0.22418126463890076,-0.5451979262284095,-1.282516119267216,1.8057868876940883,-0.8197415471076965,0.5185873508453369,-0.2430868297815323,-0.8918871879577637,0.3858126699924469,-0.1134413555264473
2.6143481731414795,0.022743701934814453,-0.1733652949333191,-0.028262242674827576,-0.548351388266731,-1.2819489001965643,1.7879568942656519,-0.8180317282676697,0.5212810635566711,-0.24308466911315918,-0.6743910312652588,0.6072332262992859,-0.033479951322078705
2.634345054626465,0.09700971841812134,-0.18954020738601685,-0.16719304025173187,-0.5522367296459432,-1.2768787671882664,1.7705233501211428,-0.8148440718650818,0.5245927572250366,-0.24664044380187988,-0.9104127287864685,0.7755852937698364,-0.007805537432432175
2.6549952030181885,0.19141656160354614,-0.2762877941131592,-0.20686346292495728,-0.5563839052315085,-1.276566987297329,1.7461962336420123,-0.8126780986785889,0.5281189680099487,-0.24626146256923676,-1.224738597869873,0.6156620979309082,-0.09233510494232178
2.6732490062713623,0.2410396933555603,-0.22599613666534424,-0.1961853802204132,-0.5618214070868213,-1.2805094879041679,1.7167730779668438,-0.8108792304992676,0.5327284932136536,-0.24223005771636963,-1.335152268409729,0.6163678765296936,-0.04018561914563179
2.6942880153656006,0.25920629501342773,-0.2425817847251892,-0.20962148904800415,-0.5686869644206742,-1.2814272717314836,1.6910464936324772,-0.807576596736908,0.5385261178016663,-0.2404363751411438,-0.9474340081214905,0.6924048662185669,0.13496656715869904
2.7131621837615967,0.2964774966239929,-0.25033706426620483,-0.213434100151062,-0.5747880487412829,-1.2766841158472824,1.669845177115116,-0.8032675981521606,0.5436568856239319,-0.24330711364746094,-0.9826471209526062,0.9401600360870361,-0.14768081903457642
2.73432993888855,0.31904298067092896,-0.33822184801101685,-0.31168633699417114,-0.5713307372945132,-1.2713665805864873,1.6447182237875029,-0.8037536144256592,0.5407519340515137,-0.2481280267238617,-0.6458215117454529,0.8872163891792297,-0.6077916026115417
2.7534170150756836,0.38465553522109985,-0.248029887676239,-0.31055834889411926,-0.5644379224578712,-1.2591092834583182,1.6304710353300351,-0.8041806221008301,0.5349410176277161,-0.2590978741645813,-0.2996503412723541,1.0832959413528442,-0.5576838850975037
2.773975133895874,0.35382771492004395,-0.26755332946777344,-0.19223657250404358,-0.5515140790244611,-1.2435828646726956,1.6187554325961973,-0.8065406084060669,0.5239773988723755,-0.27375146746635437,-0.36283284425735474,1.2161433696746826,-1.0912909507751465
2.79404616355896,0.3594319224357605,-0.419605553150177,-0.12239351868629456,-0.5334457684792467,-1.2221176691602682,1.6081569807241567,-0.8092457056045532,0.5085033774375916,-0.2941865622997284,-0.0579259991645813,1.4989742040634155,-0.5111497640609741
2.8139050006866455,0.436880886554718,-0.3876047730445862,-0.35951727628707886,-0.5240582773075558,-1.2062663027930625,1.6002196469825667,-0.8089054226875305,0.5003978610038757,-0.308665007352829,-0.32226964831352234,0.8847412467002869,-0.8937541246414185
2.834210157394409,0.28283655643463135,-0.15365204215049744,-0.20350882411003113,-0.509153451470031,-1.1979639533449662,1.5772462327607841,-0.8131711483001709,0.48743826150894165,-0.3180517554283142,-0.8810282349586487,0.9242256283760071,-1.0815669298171997
2.8539211750030518,0.28648990392684937,-0.2045428454875946,-0.23937997221946716,-0.493392449222498,-1.1922584905833813,1.5541065505119798,-0.8183806538581848,0.47361645102500916,-0.325484961271286,-0.2444319725036621,0.8256524205207825,-1.1710014343261719
2.8736531734466553,0.29592084884643555,0.04836717247962952,-0.1923639476299286,-0.4693644626382791,-1.1760428774779603,1.5504104867267505,-0.8232645392417908,0.45231956243515015,-0.3429904878139496,0.7458969950675964,0.8999311923980713,-1.21285879611969
2.893688917160034,0.2735614776611328,-0.03541344404220581,-0.05046167969703674,-0.44080116308859074,-1.1551640122580986,1.5549785300663992,-0.8274096846580505,0.42666417360305786,-0.36517229676246643,0.5603610277175903,0.9326234459877014,-1.2401463985443115
2.913757085800171,0.28535401821136475,-0.16557344794273376,0.001629471778869629,-0.4177625488675524,-1.1418009629626538,1.548534489712648,-0.8311761617660522,0.4057164490222931,-0.3801846504211426,-0.08207471668720245,0.7056393623352051,-1.1364933252334595
2.933738946914673,0.2417793869972229,-0.020157933235168457,-0.025891005992889404,-0.3985452351392852,-1.1341319638443759,1.5355125609643179,-0.8351479172706604,0.3880780041217804,-0.38977354764938354,-0.10891195386648178,0.6076418161392212,-1.1684874296188354
2.953754186630249,0.17905807495117188,0.13647302985191345,-0.07736936211585999,-0.37432898918145807,-1.1244062228067353,1.5296966287527891,-0.8395500183105469,0.3656480610370636,-0.4018175005912781,0.5992240309715271,0.5710172057151794,-1.2421342134475708
2.973548173904419,0.19153231382369995,0.1901625692844391,0.07491272687911987,-0.3432406095169339,-1.1124773527523504,1.5327383463742894,-0.8444864153862,0.33654043078422546,-0.41663315892219543,1.0123120546340942,0.46912655234336853,-1.4027655124664307
2.993367910385132,0.19651854038238525,0.11248242855072021,0.11142215132713318,-0.31102617377660746,-1.1023801391212364,1.5381761211749752,-0.8494726419448853,0.30603572726249695,-0.42981192469596863,0.7629297971725464,0.3710172176361084,-1.3288936614990234
3.013402223587036,0.11917310953140259,0.06969475746154785,0.13545385003089905,-0.2803691442095912,-1.0982361153072475,1.5350870833407648,-0.8556385040283203,0.2767103910446167,-0.4373946487903595,0.37823376059532166,0.1943890005350113,-1.4745256900787354
3.0334131717681885,0.03429758548736572,0.08608104288578033,0.11873316764831543,-0.2516497362557008,-1.0975461016765957,1.52755460881536,-0.862056314945221,0.24900206923484802,-0.4414258897304535,0.41006404161453247,0.036205489188432693,-1.4028027057647705
3.0527870655059814,0.023887336254119873,0.23344050347805023,0.13650232553482056,-0.2218196787592232,-1.0974660806135959,1.5220408246414372,-0.8682476878166199,0.2200050801038742,-0.4446839690208435,0.4123469293117523,0.14535096287727356,-1.6006544828414917
3.072812080383301,0.020210623741149902,0.1293482631444931,0.1893269419670105,-0.1883063696336183,-1.0975001093833037,1.5149419030803082,-0.8743366003036499,0.18719547986984253,-0.44776493310928345,0.48128557205200195,-0.059847719967365265,-1.5894525051116943
3.0929172039031982,0.0771605372428894,0.12242171168327332,0.24628213047981262,-0.15479190320959363,-1.1008162153475127,1.5136892107531943,-0.8809172511100769,0.15417449176311493,-0.44745388627052307,0.9853988885879517,-0.2820388972759247,-1.5765793323516846
3.112783193588257,-0.10536956787109375,0.11537732183933258,0.10126546025276184,-0.11261336938957961,-1.1055242175325974,1.521393715042449,-0.8880386352539062,0.11237549781799316,-0.4458240568637848,1.4792349338531494,-0.26674604415893555,-1.8290563821792603
3.1330759525299072,-0.22648197412490845,0.0667339637875557,0.22372496128082275,-0.06623390126784039,-1.1078888062281522,1.530600664024929,-0.8927960395812988,0.06618548184633255,-0.4455724060535431,1.5435723066329956,-0.14607767760753632,-1.9640666246414185
3.1530869007110596,-0.16946804523468018,0.10724998265504837,0.3005695343017578,-0.01622499588212392,-1.1109604489929814,1.5436155069528887,-0.8960074782371521,0.01622428372502327,-0.44374266266822815,1.7439430952072144,-0.1328044980764389,-1.8299700021743774
3.1730000972747803,-0.26081711053848267,0.13413077592849731,-0.010905325412750244,0.030390813569029642,-1.118717403295484,1.553962690453864,-0.8991255760192871,-0.03038613498210907,-0.4366348683834076,1.3775484561920166,-0.6417158246040344,-2.026425838470459
3.1928069591522217,-0.41860848665237427,0.07398275285959244,0.27150845527648926,0.07637619569148617,-1.1290436183606731,1.551795728177619,-0.9013683795928955,-0.07630196213722229,-0.4262782633304596,0.7131868600845337,-0.5114368200302124,-2.286778450012207
3.212841033935547,-0.5219739079475403,0.001451253890991211,0.10149985551834106,0.11804279718186984,-1.1352451963538122,1.549073055772835,-0.9003284573554993,-0.11776885390281677,-0.4189741015434265,0.3739946782588959,-0.17240232229232788,-1.4471951723098755
3.2328879833221436,-0.4480398893356323,0.20385514199733734,0.37183642387390137,0.14164507309671268,-1.1339650908054342,1.5374141790567646,-0.8970224261283875,-0.1411719024181366,-0.4188334047794342,-0.3065106272697449,0.1956270933151245,-1.0617315769195557
3.253200054168701,-0.3220866322517395,0.21673691272735596,0.375236839056015,0.14698343262584343,-1.1245106265038471,1.524367628364426,-0.8923299312591553,-0.14645476639270782,-0.42696401476860046,-0.5458720922470093,0.509390115737915,-0.04583708569407463
3.2745039463043213,-0.24432629346847534,0.1647702306509018,0.22381821274757385,0.14180736040930594,-1.1163687493389138,1.518063977955329,-0.8894933462142944,-0.14133256673812866,-0.4345419704914093,-0.15374113619327545,0.1714400053024292,0.15208745002746582
3.2947652339935303,-0.31426090002059937,0.07486824691295624,0.24271160364151,0.14071595027189787,-1.1135233902307886,1.5244685976225278,-0.8883913159370422,-0.140252023935318,-0.43713903427124023,0.5384743809700012,0.2461787760257721,0.1863282024860382
3.3129589557647705,-0.32330894470214844,-0.08572900295257568,0.29904866218566895,0.145511962184543,-1.1130782043585528,1.5363231354466478,-0.8875828981399536,-0.14499899744987488,-0.4372321665287018,0.7308422327041626,-0.19697129726409912,-0.07354506105184555
3.332984209060669,-0.19645601511001587,-0.10489679872989655,0.30934083461761475,0.15140289437810667,-1.1222331948755464,1.548818360359145,-0.8907634019851685,-0.1508251279592514,-0.42871031165122986,0.553730845451355,-0.4672652781009674,0.08419197052717209
3.35276198387146,-0.2982049584388733,-0.11823776364326477,0.29922300577163696,0.15508812612644493,-1.1338405588519234,1.5563244223228485,-0.8951697945594788,-0.1544671654701233,-0.4181041717529297,0.38137465715408325,-0.5395298004150391,-0.09157238900661469
3.372783899307251,-0.32588762044906616,-0.06429596245288849,0.2373337745666504,0.160235146688184,-1.1457080612647956,1.56457707299737,-0.8993322849273682,-0.15955033898353577,-0.4071182906627655,0.577113151550293,-0.598215639591217,-0.05835181102156639
3.39278507232666,-0.2782641053199768,-0.03995649516582489,0.2739269733428955,0.16518504091044336,-1.159726661369604,1.5749719363174919,-0.9042158722877502,-0.16443485021591187,-0.39415088295936584,0.43347111344337463,-0.5773727297782898,0.06427406519651413
3.4127840995788574,-0.31107741594314575,-0.0993412584066391,0.23547399044036865,0.16444502765740449,-1.1735422723185098,1.5821316477300502,-0.909686803817749,-0.16370487213134766,-0.381668359041214,0.18208597600460052,-0.7090556025505066,0.28510692715644836
3.432838201522827,-0.35990893840789795,0.019939735531806946,0.21280410885810852,0.1566420383230889,-1.1885613205582306,1.587362132616485,-0.9164736866950989,-0.1560022383928299,-0.36842846870422363,0.07752873748540878,-0.7033678293228149,0.6495465040206909
3.4557979106903076,-0.46508121490478516,0.11251200735569,0.12968695163726807,0.14040806060800304,-1.201894477980134,1.5943420382043134,-0.9235449433326721,-0.13994717597961426,-0.3570427894592285,-0.07983425259590149,-0.5155991315841675,1.165688395500183
3.4727861881256104,-0.5829841494560242,0.1421588957309723,0.02546614408493042,0.11247325246928194,-1.2135158280200522,1.6010496635752043,-0.9309319853782654,-0.11223626881837845,-0.34751802682876587,-0.24739624559879303,-0.5025032758712769,1.6619846820831299
3.4927852153778076,-0.6605971455574036,0.1654752939939499,0.11356747150421143,0.07495389100125989,-1.2201822512962708,1.6071000117656824,-0.9365251064300537,-0.07488372921943665,-0.3425102233886719,-0.43951866030693054,-0.20137999951839447,2.029917001724243
3.51282000541687,-0.6667430996894836,0.11327663064002991,0.06802284717559814,0.03344872796824162,-1.2247371059138263,1.61372244286161,-0.9401905536651611,-0.03344248980283737,-0.3390035927295685,-0.3739086389541626,-0.18038496375083923,2.0804409980773926
3.532819986343384,-0.6009295582771301,0.09799184650182724,0.06467235088348389,-0.00802645918126886,-1.2290209569550845,1.620286145715508,-0.9421308040618896,0.008026372641324997,-0.33514952659606934,-0.45827314257621765,-0.12380485981702805,2.076505422592163
3.552872896194458,-0.5504912734031677,0.019879572093486786,0.044708430767059326,-0.0520281966375762,-1.2321385177431265,1.6209785272478405,-0.9419251680374146,0.052004728466272354,-0.3317719101905823,-0.949310839176178,-0.23135370016098022,2.058443546295166
3.5728390216827393,-0.5166281461715698,0.03353825956583023,0.06026765704154968,-0.09709226266268119,-1.2380364137707145,1.6140227971091088,-0.9406930208206177,0.09693978726863861,-0.32511433959007263,-0.9435202479362488,-0.28733137249946594,2.028313636779785
3.5929081439971924,-0.4806877374649048,0.20890027284622192,-0.1944625973701477,-0.13922070645420515,-1.2444149102258826,1.6175232150143157,-0.938044011592865,0.1387713998556137,-0.31751543283462524,-0.23337042331695557,-0.31769052147865295,2.068370819091797
3.6128621101379395,-0.4624732732772827,0.19642677903175354,-0.1842939853668213,-0.17976893567956545,-1.2477905239502791,1.6288070403923944,-0.9330040812492371,0.1788022369146347,-0.31230318546295166,-0.06072191521525383,-0.21711838245391846,2.1578710079193115
3.6328160762786865,-0.40912240743637085,0.11514605581760406,-0.19041800498962402,-0.22298583973525468,-1.249003626025088,1.6371121040699956,-0.9251824021339417,0.22114251554012299,-0.3084374666213989,-0.680757999420166,-0.04039563611149788,2.169187307357788
3.652771234512329,-0.39320051670074463,0.06259477138519287,-0.16037285327911377,-0.2687539764447584,-1.250055870725584,1.6310392594226457,-0.9149355292320251,0.2655303478240967,-0.3039519786834717,-1.1745390892028809,0.042995039373636246,1.9850761890411377
3.6727890968322754,-0.3195902705192566,0.11246708035469055,-0.226809561252594,-0.3118758881296867,-1.2518287783288768,1.619940789512273,-0.9037526249885559,0.306844562292099,-0.29845884442329407,-1.1735233068466187,0.10232183337211609,1.8093255758285522
3.692858934402466,-0.22901540994644165,0.15604332089424133,-0.2019023299217224,-0.35262302197590056,-1.253019661503434,1.6086916629000598,-0.8914832472801208,0.3453606069087982,-0.29322996735572815,-1.0527701377868652,0.16389065980911255,1.7308924198150635
3.712801218032837,-0.151076078414917,0.1660822331905365,-0.21208640933036804,-0.3909177051586403,-1.2516395500235051,1.6025512880297939,-0.8778697848320007,0.38103705644607544,-0.2900954484939575,-0.7105919122695923,0.16852526366710663,1.7123299837112427
3.7327840328216553,-0.09071075916290283,0.1852455735206604,-0.19098800420761108,-0.4264894765564551,-1.2491781174810548,1.6003670238022654,-0.8637416958808899,0.41367730498313904,-0.28778690099716187,-0.6461296081542969,0.1639675348997116,1.5961555242538452
3.752784013748169,-0.011528432369232178,0.06715217232704163,-0.13859662413597107,-0.4590558029127682,-1.2480376645542894,1.5987401815561428,-0.8501811027526855,0.4431018531322479,-0.2843463122844696,-0.45611438155174255,0.019417718052864075,1.5163297653198242
3.7728350162506104,0.06270229816436768,0.06960141658782959,-0.1392192840576172,-0.4899770620230646,-1.2462890721420996,1.602025122599371,-0.8362923860549927,0.47060564160346985,-0.2813280522823334,-0.2532510757446289,0.023268382996320724,1.4877469539642334
3.7928779125213623,0.0817718505859375,-0.009436875581741333,-0.12557238340377808,-0.5181359210600988,-1.24477759335805,1.6056811567581086,-0.8229827880859375,0.4952615797519684,-0.27823612093925476,-0.390901654958725,-0.06987940520048141,1.282341718673706
3.812786102294922,0.13159841299057007,-0.0801076889038086,-0.1248980164527893,-0.543660440140824,-1.2457102952668924,1.6076463664974563,-0.8109959959983826,0.5172721147537231,-0.27334097027778625,-0.24297267198562622,-0.08380773663520813,1.2120509147644043
3.8328001499176025,0.14479434490203857,-0.0719568133354187,-0.13240540027618408,-0.5651221260973396,-1.245396067334266,1.611793475393228,-0.8002051115036011,0.5355189442634583,-0.26998400688171387,0.019548101350665092,-0.12234829366207123,0.9048184156417847
3.853518009185791,0.15878421068191528,-0.08510100841522217,-0.13317590951919556,-0.5789950962545262,-1.2384645285802316,1.6263174884509033,-0.7912152409553528,0.547183096408844,-0.2730739414691925,0.6098284125328064,0.06711742281913757,0.8845997452735901
3.8727991580963135,0.16057783365249634,-0.1285330057144165,-0.07562518119812012,-0.5905486279723593,-1.227034232234635,1.644287654267395,-0.7820377349853516,0.556816816329956,-0.27995026111602783,0.3610122501850128,0.004409740678966045,0.6943792700767517
3.8927829265594482,0.20313167572021484,-0.20230567455291748,-0.07653871178627014,-0.5994437962837916,-1.2221568373743286,1.656406637891256,-0.7759771943092346,0.5641833543777466,-0.2820580005645752,0.42764586210250854,-0.14536909759044647,0.541908323764801
3.9127490520477295,0.1944902539253235,-0.08127439022064209,-0.10323119163513184,-0.6052971686774619,-1.2131403281381747,1.6752612765807804,-0.7702958583831787,0.5690065026283264,-0.287882000207901,0.7875523567199707,-0.017973240464925766,0.49971815943717957
3.9328839778900146,0.17226767539978027,-0.1087767481803894,-0.041671931743621826,-0.607347074205768,-1.2000123156241946,1.69778648775209,-0.7653615474700928,0.5706909894943237,-0.2975460886955261,0.8568098545074463,0.028223639354109764,0.39697185158729553
3.9527289867401123,0.22398555278778076,-0.16111516952514648,0.02578073740005493,-0.6101938491043242,-1.184980809976115,1.7221541777523084,-0.7592943906784058,0.5730263590812683,-0.30840393900871277,0.8907528519630432,0.09348519891500473,0.6557332873344421
3.9727299213409424,0.21803832054138184,-0.1288607120513916,0.010358452796936035,-0.6155881343922144,-1.1691786717047283,1.7482949332866489,-0.7514702677726746,0.5774387717247009,-0.319150447845459,0.9266018271446228,-0.041279714554548264,0.6470744013786316
3.992723226547241,0.23473191261291504,-0.08671993017196655,0.15229886770248413,-0.6257595213097696,-1.1582359477589672,1.7632937184751531,-0.7425138354301453,0.5857130289077759,-0.3249824345111847,-0.8428766131401062,0.26483166217803955,0.6490851044654846
4.012786149978638,-0.203460693359375,-1.0196702480316162,-0.5856041312217712,-0.6313022326652853,-1.1695681747557032,1.74504474753754,-0.7431487441062927,0.5901964902877808,-0.3152746558189392,-0.12209311127662659,0.24140870571136475,0.02052862010896206
4.0327842235565186,0.15990132093429565,-0.3065832853317261,-0.3941361606121063,-0.641950371135926,-1.1510538939027806,1.7528836731109745,-0.7314039468765259,0.5987586975097656,-0.3263989984989166,0.08578915894031525,0.8509421944618225,0.45616161823272705
4.052734136581421,0.24723279476165771,-0.44921404123306274,-0.04806295037269592,-0.6441898048780229,-1.1387084873400553,1.7506553238249847,-0.7260992527008057,0.6005508303642273,-0.3348409831523895,-0.5152626037597656,0.47085216641426086,0.08967055380344391
4.072751998901367,0.3654531240463257,-0.30195701122283936,0.020622730255126953,-0.658568378785797,-1.1472408712060038,1.7266404519578478,-0.7209828495979309,0.6119852662086487,-0.3250506818294525,-1.694846749305725,0.2541871964931488,0.30554884672164917
4.0928120613098145,0.25229334831237793,-0.275540828704834,-0.07718390226364136,-0.6803782821169342,-1.1732381475110805,1.6768611875619817,-0.7167097926139832,0.6290871500968933,-0.3009592592716217,-2.745313882827759,0.25491786003112793,0.12334705889225006
4.112836122512817,0.349550724029541,-0.12184500694274902,-0.14868313074111938,-0.7012534199397652,-1.2095603611797983,1.6132486752428552,-0.7147240042686462,0.6451758742332458,-0.2700331509113312,-2.3921260833740234,0.06482505798339844,0.09960397332906723
4.132786989212036,0.43905937671661377,0.015314161777496338,-0.24698194861412048,-0.7135627499651027,-1.2406200463211687,1.5619749672689085,-0.7151976227760315,0.6545314788818359,-0.24511383473873138,-1.4057896137237549,0.09341089427471161,-0.2279384732246399
4.152783155441284,0.4718286395072937,-0.06454861164093018,-0.3028821051120758,-0.7158637436242307,-1.2522997964716227,1.5390594419817536,-0.7165796160697937,0.656269371509552,-0.23627181351184845,-0.47839850187301636,0.2871105670928955,-0.06925421208143234
4.172810077667236,0.5278233289718628,-0.12687993049621582,-0.25640207529067993,-0.717056227299867,-1.2512937285437136,1.5304417018901648,-0.7155978679656982,0.6571686863899231,-0.23674659430980682,-0.2415611743927002,0.4055699408054352,-0.02958434820175171
4.19279408454895,0.6148134469985962,-0.14679592847824097,-0.2503652572631836,-0.7201824898778265,-1.2509089936229498,1.5175485301224376,-0.7135530114173889,0.6595218777656555,-0.23637469112873077,-0.7848865389823914,0.41131988167762756,-0.12692399322986603
4.212853193283081,0.617392361164093,-0.24739325046539307,-0.2389761209487915,-0.7221684211145595,-1.2586020331320729,1.4933844056859547,-0.7141025066375732,0.6610133647918701,-0.23047563433647156,-1.0419789552688599,0.4134785532951355,-0.07560204714536667
4.232784986495972,0.6130890846252441,-0.16487544775009155,-0.3237818777561188,-0.7294947327778218,-1.2663767899300613,1.4681388050111257,-0.7112336158752441,0.6664930582046509,-0.2234591841697693,-0.8584244847297668,0.518426239490509,0.07746028155088425
4.252825975418091,0.5454551577568054,0.041512370109558105,-0.24904733896255493,-0.7319569071779088,-1.2652352182040554,1.4524828366987639,-0.7094108462333679,0.6683266162872314,-0.22377659380435944,-0.37307989597320557,0.6763057112693787,-0.20209455490112305
4.272803068161011,0.5604590773582458,0.0897412896156311,-0.15404340624809265,-0.7281739897250269,-1.2552419142211249,1.4458810818698107,-0.7095373868942261,0.6655078530311584,-0.23163758218288422,-0.012596387416124344,0.6997047662734985,-0.2678135633468628
4.292784929275513,0.6155498623847961,0.04807400703430176,-0.07410037517547607,-0.7244534823863779,-1.24620698139446,1.4397052272608148,-0.7097575664520264,0.6627262830734253,-0.2388267070055008,-0.37442564964294434,0.5545416474342346,-0.23566274344921112
4.312812089920044,0.5838241577148438,-0.040984392166137695,-0.007863223552703857,-0.7246273680758466,-1.24690940504243,1.4247126300030686,-0.7098159193992615,0.6628564596176147,-0.2382914274930954,-0.6588020920753479,0.39085933566093445,-0.05347764119505882
4.332789182662964,0.532844066619873,0.10113656520843506,0.006635263562202454,-0.7280758175206575,-1.2462205606624321,1.4142237387337047,-0.707480788230896,0.6654345393180847,-0.23804989457130432,-0.0476280078291893,0.3294023871421814,0.033674754202365875
4.352863073348999,0.47488951683044434,0.2749074697494507,-0.021627068519592285,-0.7239898897094998,-1.2350007723582337,1.4244081306997034,-0.7073266506195068,0.6623790264129639,-0.24686641991138458,0.8901655077934265,0.14889803528785706,-0.15389205515384674
4.372817039489746,0.38457900285720825,0.2416800856590271,0.02907148003578186,-0.7121284592093303,-1.2146433725994,1.4519502084896423,-0.709469199180603,0.6534464359283447,-0.2639346718788147,1.4493470191955566,0.05513292923569679,-0.2686323821544647
4.392781972885132,0.3115008473396301,0.149081289768219,0.1731550097465515,-0.6942158692893179,-1.190447177189022,1.4889754423597603,-0.7136309742927551,0.6397829651832581,-0.28532224893569946,1.7540197372436523,-0.04436143487691879,-0.39431658387184143
4.412822961807251,0.2547672390937805,0.10569286346435547,0.20408087968826294,-0.6713903699642509,-1.1703977021072667,1.5264253230605231,-0.7210299968719482,0.6220752000808716,-0.3051854372024536,1.856050968170166,-0.38915061950683594,-0.5925846695899963
4.4327850341796875,0.18292278051376343,0.06950759887695312,0.31849876046180725,-0.6449355015629517,-1.1546250294084088,1.5686753857819213,-0.7309269309043884,0.6011468768119812,-0.3230610191822052,2.3561575412750244,-0.5317216515541077,-0.4715934693813324
4.452783107757568,0.005922496318817139,0.1714680790901184,0.21631604433059692,-0.6150957290008814,-1.1362140414297985,1.6169329954592973,-0.7408010363578796,0.5770366787910461,-0.34386417269706726,2.3138582706451416,-0.4739992618560791,-0.7685112953186035
4.472783088684082,-0.1597435474395752,0.10963869094848633,0.19533705711364746,-0.5785491754658336,-1.1239950350417762,1.654105394629239,-0.7550666332244873,0.5468097925186157,-0.361764520406723,1.995721697807312,-0.419758141040802,-1.1634737253189087
4.492784023284912,-0.15338897705078125,0.06473517417907715,0.24091336131095886,-0.5425656821641817,-1.1184122308816804,1.6804853952177963,-0.7702406644821167,0.5163348913192749,-0.3743360936641693,1.5690785646438599,-0.44651296734809875,-1.0873602628707886
4.512847185134888,-0.12230110168457031,0.08309313654899597,0.19874191284179688,-0.5089378564639407,-1.1189985015662098,1.7006036050407722,-0.7856426239013672,0.4872500002384186,-0.3812521994113922,1.562477469444275,-0.5987868905067444,-1.2181504964828491
4.532834053039551,-0.19532591104507446,0.16335377097129822,0.248424232006073,-0.4705494615603768,-1.1186304855533673,1.7217628567890462,-0.8017444014549255,0.4533761143684387,-0.38943055272102356,1.9212944507598877,-0.37354031205177307,-1.461302399635315
4.5527870655059814,-0.25584691762924194,0.12025648355484009,0.31707340478897095,-0.42200443252926173,-1.111662144806052,1.75424932059623,-0.8177919983863831,0.40958985686302185,-0.4042925536632538,2.94510555267334,-0.34919148683547974,-1.577986478805542
4.572179079055786,-0.22070586681365967,0.12599945068359375,0.3819204568862915,-0.36566130405540737,-1.1000371327525316,1.8010554019014196,-0.8323031663894653,0.3575669527053833,-0.42357686161994934,3.1047980785369873,-0.3085457682609558,-1.5626766681671143
4.592785120010376,-0.19824326038360596,-0.08607777953147888,0.4068300724029541,-0.31246655615517727,-1.0977034932356975,1.836451232307304,-0.8470600843429565,0.3074066936969757,-0.43357864022254944,2.349290609359741,-0.6091640591621399,-1.5879542827606201
4.612786054611206,-0.13760972023010254,-0.13408318161964417,0.3143651485443115,-0.2681128467152985,-1.1019624791942877,1.8637975025449771,-0.8602235317230225,0.2649121880531311,-0.43570297956466675,2.089442253112793,-0.6171833276748657,-1.2649383544921875
4.632821083068848,-0.19415497779846191,0.010628268122673035,0.2899717688560486,-0.22321554778540104,-1.1065867500753743,1.8889282229155346,-0.8719918727874756,0.2213665395975113,-0.4366086721420288,2.088277816772461,-0.40650439262390137,-1.6876802444458008
4.652785062789917,-0.22030067443847656,-0.1030806452035904,0.3998926281929016,-0.17404171201676077,-1.107555130395442,1.91004066236162,-0.8810939788818359,0.17316441237926483,-0.44009947776794434,1.7535845041275024,-0.1366187483072281,-1.8633850812911987
4.672783136367798,-0.11452668905258179,-0.21982230246067047,0.36646002531051636,-0.1335183694548527,-1.1100111881688417,1.930963623120342,-0.8877316117286682,0.1331220120191574,-0.4406939446926117,1.4785505533218384,-0.43017029762268066,-1.096046805381775
4.692776918411255,-0.11731714010238647,-0.00988730788230896,0.3828859329223633,-0.09733664611961419,-1.1185503826638012,1.9531594082670272,-0.895210325717926,0.09718301892280579,-0.4349183440208435,2.216811180114746,-0.6948414444923401,-1.0859099626541138
4.71283221244812,-0.15792196989059448,0.07527392357587814,0.5119956731796265,-0.06678944882156596,-1.1245836141792236,1.984558021041491,-0.9000767469406128,0.06673980504274368,-0.4305900037288666,1.8666821718215942,-0.20836767554283142,-0.35600778460502625
4.732785940170288,-0.18788647651672363,-0.19835494458675385,0.5355014801025391,-0.04912865679218149,-1.126419607498738,2.0117574666672153,-0.9017894268035889,0.049108896404504776,-0.4293765425682068,1.4010231494903564,-0.0507473461329937,-0.05573920160531998
4.752784013748169,-0.1819007396697998,-0.16682830452919006,0.41124945878982544,-0.03863372809601005,-1.1248960411458713,2.0342982522484268,-0.9015496373176575,0.0386241190135479,-0.43094852566719055,1.276929259300232,-0.02002209797501564,0.01970702037215233
4.772783994674683,-0.1658850908279419,-0.14706945419311523,0.30801600217819214,-0.026772521430438047,-1.128116014895525,2.0606009498022932,-0.9032829999923706,0.026769323274493217,-0.42820948362350464,1.5591825246810913,-0.34715166687965393,0.04044439271092415
4.79282021522522,-0.17347657680511475,-0.2529395818710327,0.3186020255088806,-0.01664291857162357,-1.1359280163187455,2.08857727534085,-0.9067999720573425,0.016642149537801743,-0.4212326407432556,1.2226406335830688,-0.43587106466293335,0.23047053813934326
4.812807083129883,-0.22041082382202148,-0.33753493428230286,0.28376272320747375,-0.01476647419227053,-1.144644241855017,2.105486338949409,-0.910463809967041,0.014765937812626362,-0.4133250117301941,0.5219644904136658,-0.5408344864845276,0.2833603322505951
4.8327860832214355,-0.26164281368255615,-0.26349934935569763,0.1845203936100006,-0.016307846975144445,-1.1569670070584075,2.1166396278957866,-0.9154659509658813,0.016307124868035316,-0.40206485986709595,0.5601276755332947,-0.6415596008300781,0.3676205575466156
4.852813959121704,-0.360018789768219,-0.14450527727603912,0.18933463096618652,-0.019613530278735004,-1.167858024971829,2.133048021691449,-0.9197359085083008,0.019612273201346397,-0.39204761385917664,0.7992466688156128,-0.523607611656189,0.5415172576904297
4.872782945632935,-0.4520450234413147,-0.15031839907169342,0.19131582975387573,-0.022375479631633603,-1.178678498117003,2.1529097121936562,-0.9238705039024353,0.022373612970113754,-0.38205069303512573,0.8931503295898438,-0.5147525072097778,0.5333216190338135
4.892805099487305,-0.4769914746284485,-0.15636523067951202,0.12833938002586365,-0.02816478079252404,-1.1868672066858366,2.172628304764811,-0.9268323183059692,0.028161058202385902,-0.37441787123680115,0.7078295350074768,-0.46007397770881653,0.7229306697845459
4.9127891063690186,-0.49548840522766113,-0.15643183887004852,0.020743221044540405,-0.03813986173171183,-1.1971441321489842,2.1903518110637963,-0.9303233623504639,0.038130614906549454,-0.3647525906562805,0.527479350566864,-0.5454243421554565,0.9227449893951416
4.932801961898804,-0.4673367142677307,-0.030812639743089676,-0.0026590824127197266,-0.056599861381361374,-1.206349854506944,2.2062796710997277,-0.9328250288963318,0.056569647043943405,-0.3558613955974579,0.24030393362045288,-0.4516984820365906,1.3787760734558105
4.952794075012207,-0.5110066533088684,-0.013562463223934174,-0.011325180530548096,-0.08561239117073571,-1.2131238736693752,2.220141793289207,-0.9332835674285889,0.0855078473687172,-0.3488127291202545,0.12887540459632874,-0.34697315096855164,1.7873353958129883
4.972822904586792,-0.5777959823608398,0.05058771371841431,-0.02143573760986328,-0.11935811294341821,-1.2158032847096942,2.2371950413347292,-0.9309778809547424,0.11907491087913513,-0.3451108932495117,0.3299802541732788,-0.0007060139323584735,2.000842571258545
4.992783069610596,-0.6467112898826599,0.007339417934417725,-0.05044862627983093,-0.1558581650520168,-1.2111759761270533,2.2563060481769748,-0.9246846437454224,0.1552279144525528,-0.34765321016311646,0.07949960976839066,0.17380453646183014,2.091102123260498
5.01280403137207,-0.5959683060646057,-0.05485963821411133,0.09051468968391418,-0.19866588327418921,-1.2071945897271432,2.2677760764574355,-0.9162386655807495,0.19736163318157196,-0.3486475646495819,-0.5463231801986694,0.06441368907690048,2.2985150814056396
5.032786130905151,-0.5558815002441406,-0.010645344853401184,0.17850199341773987,-0.24691134157629951,-1.2069291102051782,2.2708288543299338,-0.9061850905418396,0.24441014230251312,-0.3450974225997925,-0.6874395608901978,-0.028905605897307396,2.3227176666259766
5.052786111831665,-0.5161681771278381,0.0885305106639862,0.02681267261505127,-0.290922304260597,-1.2058449739147568,2.2807777788141332,-0.8948882818222046,0.2868359088897705,-0.34190666675567627,0.01967533305287361,-0.07356645911931992,2.1411681175231934
5.07202410697937,-0.42471909523010254,0.08966436982154846,0.0090256929397583,-0.32805357141084723,-1.2018246234750583,2.2995143616049414,-0.8829590678215027,0.3222010135650635,-0.3414231836795807,0.24628187716007233,-0.17862887680530548,1.965008020401001
5.092820882797241,-0.3037121295928955,-0.05267113447189331,0.03842553496360779,-0.36230346198078855,-1.2016733294481146,2.3163295729776396,-0.8720995783805847,0.35442909598350525,-0.3373757004737854,-0.052726201713085175,-0.36251986026763916,1.8990678787231445
5.112783193588257,-0.24713259935379028,-0.1184181272983551,-0.022503137588500977,-0.39971406546569943,-1.2099917021079423,2.3221397205134786,-0.8618608713150024,0.38915497064590454,-0.32519885897636414,-0.7453509569168091,-0.5871283411979675,1.7728511095046997
5.132784128189087,-0.2786022424697876,-0.07128837704658508,-0.09461158514022827,-0.43689229384273937,-1.2240183609463824,2.3180994858154924,-0.8521350026130676,0.4231257140636444,-0.30794575810432434,-0.7817429304122925,-0.621311604976654,1.6045055389404297
5.152784109115601,-0.28234726190567017,0.042304039001464844,-0.15202003717422485,-0.4697127806251581,-1.2359687182651562,2.315417253686455,-0.8421796560287476,0.4526301920413971,-0.29301774501800537,-0.5829138159751892,-0.45324259996414185,1.4021793603897095
5.1727821826934814,-0.24871587753295898,0.007227808237075806,-0.13779950141906738,-0.4980483706689897,-1.2460504024167267,2.3123814281956294,-0.8325981497764587,0.47771191596984863,-0.28030654788017273,-0.631537675857544,-0.44497400522232056,1.2581244707107544
5.192784070968628,-0.15778833627700806,-0.041972577571868896,-0.1550135314464569,-0.5259741571072071,-1.2593515694709454,2.306996207332325,-0.8232296109199524,0.5020557045936584,-0.2650150954723358,-0.6220816373825073,-0.594011127948761,1.2203365564346313
5.212785959243774,-0.1836574673652649,-0.012117207050323486,-0.12408635020256042,-0.5529611282597825,-1.2713612599389879,2.3030863581759062,-0.8131075501441956,0.525209367275238,-0.2510204315185547,-0.5298929214477539,-0.38348260521888733,1.2904051542282104
5.232784986495972,-0.228643536567688,0.02549344301223755,-0.22648543119430542,-0.5785408880303115,-1.280480033944053,2.299298310075816,-0.8022249341011047,0.5468028783798218,-0.2396705448627472,-0.45416170358657837,-0.28570738434791565,1.0722415447235107
5.2527830600738525,-0.18873709440231323,-0.002037644386291504,-0.25503379106521606,-0.6006128397413665,-1.2867425052481056,2.2983725633077428,-0.7919299006462097,0.5651481747627258,-0.23120273649692535,-0.24920472502708435,-0.4301048815250397,0.9591978192329407
5.272788047790527,-0.1837862730026245,0.0048947930335998535,-0.29555416107177734,-0.6173684157742034,-1.293938243940729,2.298828442505994,-0.7843533158302307,0.5788913369178772,-0.22287844121456146,-0.11304640024900436,-0.2746986150741577,0.7230719923973083
5.292784929275513,-0.11414772272109985,-0.03604888916015625,-0.30984318256378174,-0.6305915371724183,-1.2967074169268278,2.3048729440127396,-0.7775300741195679,0.5896226167678833,-0.21861442923545837,0.17505894601345062,-0.3459220826625824,0.6320278644561768
5.312787055969238,-0.04600846767425537,-0.08015251159667969,-0.1963355541229248,-0.6393929785926212,-1.297547876479545,2.315110901911944,-0.7726864814758301,0.5967084169387817,-0.2165520042181015,0.3092128038406372,-0.3172571659088135,0.5302960872650146
5.3328001499176025,0.03196883201599121,-0.06547272205352783,-0.15010547637939453,-0.6489334999828624,-1.3009660685774411,2.3208441092509555,-0.7679001092910767,0.6043370366096497,-0.21238228678703308,-0.15202830731868744,-0.4354086220264435,0.3894340395927429
5.352751970291138,0.029725968837738037,-0.14652836322784424,-0.3607911765575409,-0.6523481346132213,-1.3096492493829308,2.3271488553010538,-0.7677173018455505,0.6070540547370911,-0.2051725834608078,0.5432649254798889,-0.7615478038787842,0.14207319915294647
5.372873067855835,0.04239392280578613,-0.0026424527168273926,-0.0442163348197937,-0.6556413250604305,-1.3091321419312258,2.3407989219905154,-0.7656757235527039,0.6096677184104919,-0.2050512433052063,-0.40410953760147095,0.11281584203243256,0.4877696633338928
5.392786026000977,-0.09620904922485352,-0.1912059783935547,-0.5268956422805786,-0.6638428064692596,-1.3097869176552825,2.3338069196479387,-0.7609533071517944,0.6161481142044067,-0.2032526582479477,-0.28811120986938477,0.057577088475227356,-0.04927966743707657
5.412784099578857,-0.12913298606872559,-0.15319770574569702,-0.7133238315582275,-0.6648717241588046,-1.2989950563292338,2.3371488236567504,-0.7581044435501099,0.6169582009315491,-0.21128244698047638,0.6909499764442444,0.5732855200767517,0.216718390583992
5.432841062545776,-0.0069501399993896484,0.2018427848815918,-0.4280545711517334,-0.6614072060532544,-1.269099943652818,2.3600766341511035,-0.7534868121147156,0.6142279505729675,-0.2344820201396942,0.750656008720398,0.9922200441360474,-0.19908127188682556
5.452851057052612,0.059646546840667725,-0.1565064787864685,-0.11028790473937988,-0.654768325183256,-1.2521086084522592,2.3585805073906387,-0.7532499432563782,0.6089754700660706,-0.24852250516414642,-0.2728688418865204,0.5386043787002563,-0.2994171679019928
5.47278618812561,0.2349923849105835,-0.18903398513793945,-0.3037838935852051,-0.6535708734773418,-1.2470024081492348,2.361001540809334,-0.7526620030403137,0.6080252528190613,-0.2525973320007324,0.4661799669265747,0.11438275873661041,0.24647898972034454
5.491914987564087,0.13799911737442017,0.16361242532730103,-0.07173928618431091,-0.655339630781249,-1.2307223179358433,2.3743072467738435,-0.7474351525306702,0.6094285249710083,-0.2644576132297516,0.40000149607658386,0.7419944405555725,0.160796657204628
5.512823104858398,0.09291470050811768,-0.10440105199813843,-0.10719454288482666,-0.6537725537234432,-1.2038689305178953,2.393490006379565,-0.7409553527832031,0.608185350894928,-0.28477323055267334,0.9054350256919861,0.7758672833442688,0.38257458806037903
5.532825231552124,0.27227604389190674,-0.01081317663192749,0.03624647855758667,-0.657307121930544,-1.1773989169864878,2.4114253572920568,-0.731168806552887,0.6109873056411743,-0.30345839262008667,0.3311871290206909,0.6876087784767151,0.18078382313251495
5.5527870655059814,0.20769447088241577,-0.3699151873588562,0.1540166735649109,-0.6513860320901679,-1.1608326776226376,2.418656792785412,-0.7293465733528137,0.6062892079353333,-0.316965252161026,0.5819569230079651,0.577269971370697,-0.11788531392812729
5.57187819480896,0.3480662703514099,-0.19662028551101685,0.08239856362342834,-0.6507328610547983,-1.1414683308488578,2.4353836205457187,-0.7234324812889099,0.6057696342468262,-0.33119311928749084,0.6457582712173462,0.38733094930648804,0.3732423484325409
5.592785120010376,0.2180383801460266,-0.24399465322494507,0.05836579203605652,-0.6473374833036699,-1.1223015189283032,2.4544577698744914,-0.7188013195991516,0.6030646562576294,-0.3458871841430664,0.6921090483665466,0.4120914041996002,-0.025408728048205376
5.612475156784058,0.1562686562538147,-0.20837676525115967,0.04854440689086914,-0.638600386843389,-1.1066677378551202,2.4674466360134892,-0.7179903984069824,0.596072256565094,-0.35942697525024414,0.7370476722717285,0.38324686884880066,-0.2549288272857666
5.632786989212036,0.13126355409622192,-0.23194026947021484,0.04342511296272278,-0.6273825553081244,-1.0915430070038894,2.480710707494354,-0.7183607220649719,0.5870277881622314,-0.3733048737049103,0.7191382050514221,0.32645419239997864,-0.30825263261795044
5.65278697013855,0.06516939401626587,-0.25303077697753906,0.12443846464157104,-0.6125375998479156,-1.0797019321955235,2.4916457165756034,-0.721495509147644,0.5749455690383911,-0.38585197925567627,0.7448698878288269,0.2548622786998749,-0.5306091904640198
5.672784090042114,0.0808572769165039,-0.2685038447380066,0.254999577999115,-0.5974742575542713,-1.0710448130309533,2.4993926291274606,-0.7256478667259216,0.5625560879707336,-0.3961891531944275,0.5223222374916077,0.17727410793304443,-0.502392053604126
5.692818880081177,0.10015296936035156,-0.2702624201774597,0.2017248272895813,-0.5858419743214328,-1.0672888561155034,2.5020912405080176,-0.7298373579978943,0.5529011487960815,-0.4020422399044037,0.22174575924873352,0.07228501886129379,-0.4081401526927948
5.712791204452515,0.09449392557144165,-0.148470938205719,0.05073362588882446,-0.5781205028024757,-1.0669677874403787,2.4993377326548822,-0.7334251403808594,0.5464508533477783,-0.40432560443878174,0.008509671315550804,0.09975001960992813,-0.38404181599617004
5.7327868938446045,0.028216302394866943,-0.03745889663696289,-0.10948365926742554,-0.5729677795148961,-1.066008339148895,2.4937386774427313,-0.7354916334152222,0.5421282649040222,-0.4063854515552521,-0.18426284193992615,0.31903931498527527,-0.2922172248363495
5.75279688835144,-0.02785712480545044,-0.008139073848724365,-0.09978821873664856,-0.5703640097870437,-1.0614303136870638,2.4855170277933736,-0.7348532676696777,0.5399384498596191,-0.41043516993522644,-0.32814204692840576,0.5914305448532104,-0.26844996213912964
5.772853136062622,0.01361626386642456,0.022401809692382812,-0.016509979963302612,-0.5711341888340572,-1.054289941451371,2.472186820282039,-0.7315421104431152,0.5405865907669067,-0.41546630859375,-0.7297784090042114,0.8042032718658447,-0.23181390762329102
5.792785882949829,0.053291261196136475,-0.07346951961517334,-0.002685248851776123,-0.577878278831494,-1.051089465697764,2.4477113791597422,-0.7270276546478271,0.5462479591369629,-0.4159853458404541,-1.452760100364685,0.8485539555549622,-0.16891083121299744
5.812807083129883,0.08631926774978638,-0.19397354125976562,-0.04745686054229736,-0.5936142278082156,-1.0562783417977895,2.408092698083318,-0.7216035723686218,0.5593605637550354,-0.40792638063430786,-2.128676414489746,0.8184535503387451,-0.14506755769252777
5.832276105880737,0.07311242818832397,-0.2267891764640808,-0.10054689645767212,-0.6110880076411294,-1.0667983542503177,2.361865123059592,-0.7171857953071594,0.5737589001655579,-0.3955315947532654,-1.9372937679290771,0.7656025886535645,-0.15563124418258667
5.852751970291138,0.03416866064071655,-0.1246027946472168,-0.10580888390541077,-0.6233835526683663,-1.071141920657572,2.3261849651393076,-0.7126505970954895,0.5837856531143188,-0.38900306820869446,-1.1717637777328491,0.9208112359046936,-0.17839474976062775
5.872725009918213,-0.07886749505996704,-0.06743389368057251,-0.028710216283798218,-0.6277766136804862,-1.0597326003550902,2.3053122960056096,-0.7059223651885986,0.5873467326164246,-0.395850270986557,-0.5861286520957947,1.4391456842422485,-0.2672474682331085
5.892736196517944,-0.1378123164176941,-0.07464885711669922,-0.021400928497314453,-0.6252495897089884,-1.0350813317528467,2.292467574056952,-0.6972248554229736,0.5852996706962585,-0.41388648748397827,-0.32014939188957214,1.7152944803237915,-0.4495583772659302
5.912785053253174,-0.07800936698913574,-0.15308809280395508,0.07993680238723755,-0.6217272342920973,-1.009108854971717,2.277990536360477,-0.6879817843437195,0.5824400782585144,-0.43294885754585266,-0.5546965599060059,1.7049168348312378,-0.44337403774261475
5.932898998260498,-0.011285126209259033,-0.17404025793075562,0.05683213472366333,-0.6229313705426573,-0.9896468494211205,2.255901130112613,-0.6788393259048462,0.5834184288978577,-0.44587019085884094,-1.0250487327575684,1.5320841073989868,-0.4444977939128876
5.952877044677734,-0.019367337226867676,-0.1877211332321167,0.21266961097717285,-0.6312338587564155,-0.9806598139679735,2.2207268450692563,-0.6707571148872375,0.5901412963867188,-0.4492418169975281,-1.7383166551589966,1.485268473625183,-0.49311089515686035
5.97278618812561,-0.0751689076423645,-0.11582112312316895,0.11244070529937744,-0.6363459494345483,-0.9714104272287938,2.1843587738737664,-0.6640735864639282,0.594260573387146,-0.45371872186660767,-0.8786274194717407,1.6195292472839355,-0.669480562210083
5.992785215377808,-0.0790526270866394,-0.030579328536987305,0.10759484767913818,-0.6311687646941071,-0.9478459519864236,2.1634900306121523,-0.6556885242462158,0.5900887250900269,-0.471028596162796,-0.32745620608329773,1.9690896272659302,-0.6952491998672485
6.012787103652954,-0.07001221179962158,-0.13762342929840088,0.09118592739105225,-0.6207609650719926,-0.9166222168956702,2.1471533009395927,-0.6455028653144836,0.5816543102264404,-0.4949791729450226,-0.20175999402999878,2.020599126815796,-0.8645023703575134
6.0328850746154785,0.029637277126312256,-0.16862982511520386,0.15480756759643555,-0.6123641812602064,-0.8878950030452,2.127207833661105,-0.634785532951355,0.5748036503791809,-0.5163797736167908,-0.6315464377403259,1.9688823223114014,-0.7928838133811951
6.052793025970459,0.08198463916778564,-0.16766154766082764,0.1916373372077942,-0.6095800305774941,-0.8671433094435013,2.0966694853826993,-0.6251516938209534,0.5725231766700745,-0.5304739475250244,-1.2650272846221924,1.9020403623580933,-1.0865063667297363
6.0723090171813965,0.03689545392990112,-0.31193023920059204,0.12797969579696655,-0.607865013178368,-0.8544820469979637,2.0544699598548104,-0.6191250085830688,0.5711162090301514,-0.5389903783798218,-1.2610292434692383,1.787912130355835,-1.2335501909255981
6.092929124832153,0.11054611206054688,-0.20284253358840942,0.15266376733779907,-0.604148854328424,-0.8429287673120105,2.012754024834667,-0.6144369840621948,0.5680618286132812,-0.547515332698822,-1.0105102062225342,1.7591344118118286,-1.3597739934921265
6.112817049026489,0.10601812601089478,-0.1729157567024231,0.1252286434173584,-0.5930614472664927,-0.8289748136286041,1.9745530944340521,-0.6113434433937073,0.5589022636413574,-0.5602567195892334,-0.6902574300765991,1.8080995082855225,-1.5638301372528076
6.132786989212036,0.11724519729614258,-0.20207971334457397,0.15765780210494995,-0.5797849019955291,-0.8145052240582547,1.9343573241945917,-0.6085171103477478,0.5478439927101135,-0.5740852952003479,-0.9266099333763123,1.8289196491241455,-1.7122529745101929
6.152785062789917,0.19065463542938232,-0.20559710264205933,0.1612350344657898,-0.5689616906146892,-0.8071343418450787,1.8856500154008018,-0.6085165143013,0.5387576222419739,-0.5826216340065002,-1.3351495265960693,1.5359596014022827,-1.8888310194015503
6.172790050506592,0.270224392414093,-0.15138965845108032,0.1302105188369751,-0.5621205302699293,-0.8100109271364612,1.8275217902808178,-0.612845242023468,0.5329816341400146,-0.5833964347839355,-1.637926459312439,1.325047492980957,-2.0014231204986572
6.192806959152222,0.3192101716995239,-0.12448495626449585,0.05060082674026489,-0.5531069873769823,-0.8150944807008963,1.7701821093592673,-0.6192742586135864,0.5253334641456604,-0.5835444331169128,-1.178515076637268,1.2038745880126953,-1.956860899925232
6.212782144546509,0.3834148645401001,0.033480823040008545,-0.0013955235481262207,-0.5369853845462214,-0.8156139472473927,1.725393121846574,-0.6256633996963501,0.5115479826927185,-0.5889516472816467,-0.5402711033821106,1.1710565090179443,-1.86984121799469
6.23279595375061,0.39807480573654175,0.08604815602302551,-0.11765933036804199,-0.5157714873826675,-0.8112014201346268,1.6912527348841202,-0.6307865977287292,0.49320611357688904,-0.5990458726882935,-0.21613170206546783,0.865680456161499,-1.6775444746017456
6.252784967422485,0.4257756471633911,0.10412278771400452,-0.26932305097579956,-0.4978380544341521,-0.8157963144884074,1.6618018625241184,-0.6398717761039734,0.4775271415710449,-0.6021062731742859,-0.5000717639923096,0.11146366596221924,-1.4290754795074463
6.272829055786133,0.345103919506073,0.1411443054676056,-0.31402111053466797,-0.48656235876771164,-0.8332331982367724,1.6310256332778241,-0.654216468334198,0.46758997440338135,-0.594441294670105,-0.6937309503555298,-0.29626619815826416,-1.1866528987884521
6.292818069458008,0.24509692192077637,0.29644253849983215,-0.26756536960601807,-0.4837916691481087,-0.8488304521549912,1.6059807978995002,-0.6643779277801514,0.4651390314102173,-0.5850193500518799,-0.8215606212615967,0.003463963745161891,-0.4791461229324341
6.312787055969238,0.14197582006454468,0.3775758147239685,-0.27984923124313354,-0.49208093009863396,-0.8539799760011961,1.5870975214212366,-0.6644519567489624,0.47246095538139343,-0.5790372490882874,-0.8875191807746887,0.260132759809494,-0.0940733551979065
6.3327860832214355,0.13331526517868042,0.40514835715293884,-0.2943296432495117,-0.5013144499646761,-0.8548229802687942,1.576024741257224,-0.6616202592849731,0.4805786609649658,-0.5755890011787415,-0.45268070697784424,0.12667742371559143,0.18316414952278137
6.35286021232605,0.11949288845062256,0.4424894154071808,-0.40143275260925293,-0.5093853608537586,-0.855657553092194,1.5760841594477268,-0.6591504812240601,0.48764073848724365,-0.5724745988845825,-0.08915265649557114,-0.18415947258472443,0.3637621998786926
6.372797012329102,-0.029394924640655518,0.3149261772632599,-0.41658318042755127,-0.5129015279212594,-0.8583215013335977,1.581821489742638,-0.659371554851532,0.49070748686790466,-0.5695922374725342,0.08783041685819626,-0.2773669958114624,0.2775566279888153
6.392787218093872,-0.11187434196472168,0.2889806628227234,-0.3586481809616089,-0.5218091147547147,-0.8605623060943041,1.5824236584285203,-0.6573059558868408,0.49844929575920105,-0.5652408599853516,-0.46408897638320923,-0.08621745556592941,0.37078380584716797
6.412805080413818,-0.07035452127456665,0.2834285497665405,-0.18016862869262695,-0.5317446940004532,-0.8611394286150794,1.5832788626231615,-0.6538428664207458,0.507037878036499,-0.5616067051887512,-0.011792192235589027,0.05218951404094696,0.5263287425041199
6.432833909988403,-0.08053350448608398,0.3270031213760376,-0.19257938861846924,-0.5409452426733631,-0.8478189507221503,1.5992064799248618,-0.6427789330482483,0.5149465203285217,-0.5671555995941162,0.29916104674339294,0.4434709846973419,0.9968052506446838
6.452784061431885,-0.13871121406555176,0.17261773347854614,-0.13856256008148193,-0.5512802619722805,-0.8265777056727579,1.6202844264921925,-0.6266391277313232,0.5237782597541809,-0.5770439505577087,0.34588244557380676,0.4416068494319916,0.9286512732505798
6.472804069519043,-0.017952919006347656,0.12675964832305908,-0.07634282112121582,-0.5611326847596968,-0.8075060450095477,1.6430572507596433,-0.6117620468139648,0.5321455001831055,-0.5852933526039124,0.37640079855918884,0.192336767911911,1.0764704942703247
6.4928131103515625,0.008514761924743652,0.08494323492050171,-0.06569212675094604,-0.5714477878543388,-0.7936878825494358,1.6665673581472793,-0.5996707677841187,0.5408504009246826,-0.5898100733757019,0.3389151990413666,-0.12875373661518097,1.0013790130615234
6.512786149978638,-0.036060988903045654,-0.002693653106689453,0.006423234939575195,-0.579493743486586,-0.7853305865670352,1.6893298985819496,-0.5916245579719543,0.5476003885269165,-0.5917045474052429,0.4828929901123047,-0.25941604375839233,0.9443137645721436
6.532786130905151,-0.045104265213012695,0.012077927589416504,0.061206281185150146,-0.5839302360860831,-0.775916435978501,1.7157052108022055,-0.5843207836151123,0.551307201385498,-0.5955079197883606,0.729092001914978,-0.19367581605911255,0.9166696071624756
6.552786111831665,-0.0754396915435791,-0.05839425325393677,0.2043396234512329,-0.5845973544525911,-0.7599381155455623,1.7458758153325857,-0.5744779109954834,0.5518636703491211,-0.6045012474060059,0.9124200940132141,0.11376428604125977,0.9761636853218079
6.57283091545105,-0.029025614261627197,-0.09068876504898071,0.19742757081985474,-0.5864731095233225,-0.7392537617236722,1.77665506402327,-0.561153769493103,0.5534269213676453,-0.6154877543449402,0.7562543749809265,0.14623895287513733,0.9526250958442688
6.592786073684692,0.016641199588775635,-0.16270709037780762,0.2415165901184082,-0.584876339279058,-0.7212929087690533,1.8046744848574783,-0.5505919456481934,0.5520963072776794,-0.6261295080184937,0.8068825006484985,0.08121149241924286,0.7166343331336975
6.612784147262573,0.02540487051010132,-0.19062167406082153,0.2525448799133301,-0.5829817160226283,-0.7063758652788802,1.8292502399051929,-0.5418691039085388,0.5505155920982361,-0.6350674033164978,0.716657280921936,0.025464337319135666,0.6674595475196838
6.632822036743164,0.02633523941040039,-0.258449912071228,0.27011680603027344,-0.5792064767825914,-0.6958251785967713,1.8499506269954125,-0.5364670753479004,0.5473600029945374,-0.6423395872116089,0.6383207440376282,-0.08696731179952621,0.42102399468421936
6.652783155441284,0.05513077974319458,-0.23502373695373535,0.31796205043792725,-0.5735055499608395,-0.6922951380045765,1.8632628003662792,-0.5361793637275696,0.5425800681114197,-0.6466209888458252,0.5434445738792419,-0.2597966194152832,0.02238120697438717
6.672816038131714,0.04405057430267334,-0.22980892658233643,0.3759191036224365,-0.5639842387515671,-0.6954971361114153,1.8680770298970515,-0.5415328741073608,0.5345576405525208,-0.648837685585022,0.37472620606422424,-0.3035738170146942,-0.2636715769767761
6.692821025848389,0.025359392166137695,-0.2656633257865906,0.3884042501449585,-0.5559835310484706,-0.7042711783341258,1.8640944964329138,-0.5499565601348877,0.5277789235115051,-0.6473000049591064,0.018130553886294365,-0.3994279205799103,-0.5507675409317017
6.712805986404419,0.015223205089569092,-0.228704035282135,0.39004552364349365,-0.5494367644157809,-0.721129578032191,1.849137123626112,-0.5630595088005066,0.5222069621086121,-0.6405184268951416,-0.34753990173339844,-0.5042576789855957,-0.8193141222000122
6.7327880859375,-0.006936609745025635,-0.18142426013946533,0.3502192497253418,-0.5437117972545402,-0.7442027466394301,1.8253924802853725,-0.5797027349472046,0.5173161029815674,-0.6295464634895325,-0.609898030757904,-0.5358365178108215,-1.0716112852096558
6.752822160720825,-0.008840799331665039,-0.19202160835266113,0.39360707998275757,-0.5407459547111608,-0.7716822011219454,1.7915347727405675,-0.597848653793335,0.5147756338119507,-0.6144779324531555,-1.203510046005249,-0.49180978536605835,-1.1907023191452026
6.77279806137085,0.022004544734954834,-0.3272138833999634,0.5095096826553345,-0.5482731724057187,-0.8011626314467266,1.7503513949557215,-0.6129011511802673,0.5212143063545227,-0.5938754081726074,-1.9176050424575806,-0.42705580592155457,-0.7468062043190002
6.792840003967285,0.009862303733825684,-0.24952995777130127,0.3398350477218628,-0.5659613800685657,-0.8358592888959113,1.7050970130161054,-0.6261953115463257,0.5362275242805481,-0.565985381603241,-1.9010902643203735,-0.7404903769493103,-0.8450701832771301
6.812784910202026,-0.09866052865982056,0.1311967968940735,0.17499148845672607,-0.5644379556988027,-0.8775899724103229,1.6570063432015787,-0.6498898863792419,0.5349410176277161,-0.5398901104927063,-1.0188851356506348,-0.6897357106208801,-1.8749191761016846
6.832787036895752,-0.21136057376861572,0.13752847909927368,0.19737523794174194,-0.5420743461910256,-0.9074478323135645,1.6164815530003347,-0.6749767661094666,0.5159140825271606,-0.5274837613105774,-0.41219213604927063,-0.2806622087955475,-1.932517409324646
6.852809190750122,-0.13986468315124512,-0.04997250437736511,0.11588317155838013,-0.5164425093018752,-0.9370602043962115,1.5795215449488598,-0.7007266879081726,0.4937897324562073,-0.5149309039115906,-0.6819082498550415,-0.8828643560409546,-2.107288360595703
6.872817039489746,-0.12441802024841309,0.005717158317565918,0.062401413917541504,-0.49106199263700695,-0.9800999118012732,1.5353669868820434,-0.7324087619781494,0.4715626537799835,-0.49112749099731445,-0.9576489329338074,-1.132635235786438,-2.153998374938965
6.89281702041626,-0.30292385816574097,0.20205095410346985,-0.04298752546310425,-0.4656071939681869,-1.0209288071896017,1.4918760077145534,-0.761834442615509,0.4489654302597046,-0.4669458270072937,-0.7727562785148621,-0.9768070578575134,-2.130068063735962
6.91286301612854,-0.33382707834243774,0.34499475359916687,-0.21248501539230347,-0.4341400839607844,-1.0537806381162853,1.4595824881657826,-0.7886552214622498,0.42063042521476746,-0.4484340250492096,-0.18810656666755676,-0.928046703338623,-1.9607627391815186
6.932841062545776,-0.4064033031463623,0.40210771560668945,-0.30588746070861816,-0.40614683251595807,-1.0820480255310239,1.4350192722513164,-0.8110955357551575,0.3950725495815277,-0.4313255250453949,-0.6109330654144287,-0.868272602558136,-1.6616450548171997
6.9529430866241455,-0.5943018198013306,0.48376864194869995,-0.3275931179523468,-0.38659919121227165,-1.1081738572745947,1.400669395198273,-0.8288396000862122,0.3770407736301422,-0.41335824131965637,-1.3182249069213867,-0.34968334436416626,-1.486185073852539
6.972954034805298,-0.5568228960037231,0.5424489974975586,-0.3196720778942108,-0.376542477664151,-1.1235435922667276,1.3591149571757173,-0.8384712934494019,0.36770737171173096,-0.40219053626060486,-1.6062597036361694,0.3237971365451813,-1.0730233192443848
6.992971181869507,-0.25271087884902954,0.5171629786491394,-0.3902133107185364,-0.3751668653806933,-1.124585567258887,1.3228844987385249,-0.8393453359603882,0.36642777919769287,-0.4015345573425293,-1.333442211151123,0.8795067071914673,-0.48610490560531616
7.012801885604858,-0.030502498149871826,0.39967405796051025,-0.37440025806427,-0.38280019291448236,-1.1114110102599823,1.3001805249906493,-0.831451416015625,0.3735194504261017,-0.4113052487373352,-0.9156599640846252,1.2252635955810547,0.18697293102741241
7.032787084579468,0.08714920282363892,0.21378087997436523,-0.27127131819725037,-0.3960065563999124,-1.0903693507655614,1.2883536028550742,-0.8181672692298889,0.38573703169822693,-0.4263908565044403,-0.7097731828689575,1.3341106176376343,0.5008797645568848
7.061171054840088,0.04663354158401489,-0.08322623372077942,-0.07489848136901855,-0.4354336585986384,-1.0389556077166342,1.2729994381113896,-0.7814511060714722,0.42180362343788147,-0.4597998261451721,-0.8447408080101013,1.5708705186843872,0.7889537215232849
7.081225156784058,-0.01793903112411499,-0.13326111435890198,-0.006720185279846191,-0.45758037791725886,-1.0094496356152212,1.2657435713089142,-0.7594505548477173,0.44177868962287903,-0.47756311297416687,-0.9011554718017578,1.6836909055709839,0.7591640949249268
7.1010901927948,-0.05435603857040405,-0.1900038719177246,0.060926228761672974,-0.4775233464399644,-0.9786666550264825,1.2584362524387938,-0.736934244632721,0.4595809876918793,-0.49569475650787354,-0.7953604459762573,1.7665482759475708,0.5855309963226318
7.120312929153442,-0.046459078788757324,-0.2005710005760193,0.1642765998840332,-0.4936298303354238,-0.9462930614749726,1.2514097755481395,-0.7144052386283875,0.47382548451423645,-0.5148928761482239,-0.6896637082099915,1.7629082202911377,0.293922483921051
7.141019105911255,-0.034570276737213135,-0.10767188668251038,0.2536383271217346,-0.5037553256994667,-0.9166128028431746,1.2396342571196253,-0.6949676871299744,0.48271775245666504,-0.5329197645187378,-0.7865446209907532,1.7528793811798096,-0.03169770538806915
7.160063028335571,0.027828454971313477,-0.188031405210495,0.2496410608291626,-0.5121631507738619,-0.8931240079707841,1.221988213305244,-0.6790736317634583,0.49006399512290955,-0.5465312004089355,-0.9335159659385681,1.4493354558944702,-0.3046726584434509
7.181030988693237,0.08616727590560913,-0.19556176662445068,0.13111400604248047,-0.5179933216685576,-0.8783544999638293,1.2017388451596607,-0.6687173843383789,0.49513769149780273,-0.5546673536300659,-0.7247449159622192,1.0586504936218262,-0.3485972583293915
7.2007081508636475,0.11339294910430908,-0.10229745507240295,0.14050906896591187,-0.5197651018769269,-0.8653911718260086,1.188716087588463,-0.6608021259307861,0.4966762661933899,-0.5627196431159973,-0.37914973497390747,0.8663243055343628,-0.17598450183868408
7.22083592414856,0.12636125087738037,-0.07356247305870056,0.08039414882659912,-0.521679301764853,-0.8559264530812543,1.1803894765372225,-0.6547273993492126,0.4983367621898651,-0.5683243274688721,-0.28023138642311096,0.5063284039497375,-0.12899361550807953
7.241142988204956,0.1139453649520874,-0.05000239610671997,0.023834288120269775,-0.523932932365642,-0.8498986329454833,1.177684106968594,-0.6504444479942322,0.5002893805503845,-0.571517825126648,-0.06830259412527084,0.2530636489391327,0.07276231795549393
7.260822057723999,0.06770944595336914,-0.006446123123168945,0.0007059574127197266,-0.5248582660805581,-0.8454937799656386,1.1802970197301288,-0.6475740075111389,0.5010903477668762,-0.5740700364112854,0.1765555739402771,0.06954658031463623,0.1639227569103241
7.2806031703948975,0.05042833089828491,0.021187424659729004,-0.05278205871582031,-0.525140611922325,-0.8418169706224324,1.1881991841705681,-0.6453533172607422,0.5013346672058105,-0.5763528943061829,0.28716227412223816,-0.07187357544898987,0.2837521731853485
7.299724102020264,0.0458836555480957,-0.022937297821044922,-0.05597579479217529,-0.5261594484273888,-0.8381199096072696,1.1991103184009393,-0.6428381204605103,0.5022159814834595,-0.5783929228782654,0.3507118225097656,-0.0859556645154953,0.41465726494789124
7.320925951004028,0.06081891059875488,0.0069498419761657715,-0.1014699935913086,-0.5278597663562526,-0.8338114702536952,1.2107223207838473,-0.6397068500518799,0.5036855936050415,-0.5805824398994446,0.2359965741634369,-0.0592573843896389,0.3829804062843323
7.340214014053345,0.07603061199188232,-0.01943659782409668,-0.12317359447479248,-0.5317370779087486,-0.8303410863688937,1.2194442014969726,-0.6362418532371521,0.5070313215255737,-0.5814771056175232,0.08756764233112335,-0.060289714485406876,0.4961923062801361
7.358755111694336,0.12905967235565186,-0.04034072160720825,-0.15044033527374268,-0.5380861275359927,-0.8256090713409066,1.2289660882123976,-0.6311044096946716,0.5124934911727905,-0.5822865962982178,0.10187101364135742,-0.03528085723519325,0.5576636791229248
7.380478143692017,0.15874981880187988,-0.06337440013885498,-0.1868739128112793,-0.5447014086661017,-0.8192111130185938,1.2409076762215483,-0.6248753666877747,0.518162727355957,-0.5839846730232239,0.17524197697639465,0.0006363080465234816,0.6431647539138794
7.399204969406128,0.1526961326599121,-0.04491901397705078,-0.14304184913635254,-0.5497134325816796,-0.8099300118941691,1.2547679669981906,-0.6175399422645569,0.5224428772926331,-0.5879608392715454,0.29103368520736694,0.10078563541173935,0.640972912311554
7.420371055603027,0.20395678281784058,-0.08764666318893433,-0.15818369388580322,-0.5553817310134798,-0.8004873265771755,1.2713862164678862,-0.6098253130912781,0.5272676944732666,-0.5916940569877625,0.31265920400619507,-0.028329119086265564,0.6486051082611084
7.440093040466309,0.14405733346939087,-0.0790223479270935,-0.12473231554031372,-0.5591536879059327,-0.7931803517667692,1.287300929600374,-0.6040641069412231,0.5304689407348633,-0.5947346091270447,0.4023731052875519,-0.09725652635097504,0.5755999088287354
7.459991216659546,0.1452382206916809,-0.036996424198150635,-0.1518104076385498,-0.5599961258029774,-0.7871987844539667,1.3027857304210542,-0.6001790165901184,0.5311829447746277,-0.5980215668678284,0.4391583502292633,-0.13896678388118744,0.43350040912628174
7.480023145675659,0.137545645236969,-0.04501330852508545,-0.20162475109100342,-0.5617151059714741,-0.7833569482345064,1.3141055230234544,-0.5972319841384888,0.5326385498046875,-0.5996751189231873,0.0839858129620552,-0.0739065408706665,0.3295622169971466
7.500195026397705,0.12154203653335571,-0.05535292625427246,-0.24352312088012695,-0.5672709483841125,-0.7824035040925111,1.3170670013759374,-0.5945645570755005,0.5373324751853943,-0.598136305809021,-0.30371761322021484,0.032298363745212555,0.19753091037273407
7.519979000091553,0.10937845706939697,-0.025199532508850098,-0.35107582807540894,-0.5798756954651103,-0.7873502263290267,1.3060832673544427,-0.5926701426506042,0.5479199290275574,-0.5903607606887817,-1.4504969120025635,-0.07851008325815201,0.15461516380310059
7.539345979690552,0.1265457272529602,-0.03087860345840454,-0.4459914565086365,-0.607511716663409,-0.8043196805711958,1.2958843692419943,-0.5914657711982727,0.5708261728286743,-0.5694959759712219,0.2008560746908188,-0.48181822896003723,0.9991551637649536
7.5599939823150635,-0.12465590238571167,0.42794710397720337,-0.5414252877235413,-0.5939237971329496,-0.7891660611362515,1.32189238749784,-0.5882195830345154,0.5596171617507935,-0.5838034749031067,1.8143044710159302,0.34872451424598694,-0.4280684292316437
7.579801082611084,-0.13843274116516113,0.2928997278213501,-0.21410202980041504,-0.5690796599440965,-0.7612789615164296,1.3541088817899776,-0.5811260342597961,0.5388569831848145,-0.6098572015762329,1.5513499975204468,0.5957460403442383,0.433772474527359
7.599791049957275,0.15061211585998535,0.01705068349838257,0.09327459335327148,-0.5584475185508727,-0.7456134361987549,1.373169861929537,-0.5753558278083801,0.5298702120780945,-0.6230596303939819,0.3898690938949585,-0.01876135915517807,0.2107933610677719
7.619648218154907,0.10150146484375,0.10800784826278687,0.07100117206573486,-0.5600141681823305,-0.7368832255005462,1.389844234593295,-0.5693359971046448,0.5311982035636902,-0.627443253993988,0.537564218044281,0.11666056513786316,0.7719365954399109
7.638653993606567,-0.045751214027404785,0.11394655704498291,0.05406010150909424,-0.5593803788774233,-0.7225323129160416,1.4129237832066546,-0.5604957938194275,0.5306611061096191,-0.6358012557029724,0.8546098470687866,0.016491170972585678,0.7129673361778259
7.659382104873657,0.04571348428726196,0.011550307273864746,0.10716915130615234,-0.5549513434696091,-0.7075700841452753,1.444312479467932,-0.5524426698684692,0.5269019603729248,-0.6458958387374878,1.178342342376709,-0.17295661568641663,0.9664621353149414
7.679765939712524,-0.0757284164428711,-0.008927106857299805,0.16428828239440918,-0.5486086021704969,-0.6912704079826928,1.4802607413804643,-0.5439615845680237,0.5215005278587341,-0.6573759317398071,1.218122959136963,-0.08144382387399673,0.9562450051307678
7.699326038360596,-0.19124120473861694,0.01826643943786621,0.16893333196640015,-0.5426971026998102,-0.6736257626155984,1.514131212090401,-0.5341922044754028,0.5164474248886108,-0.6692689061164856,1.0240345001220703,0.07638867944478989,0.8916582465171814
7.71924090385437,-0.3287962079048157,-0.03126460313796997,0.20147085189819336,-0.5396717873649355,-0.655088663910601,1.5410562270241488,-0.5226442813873291,0.513854444026947,-0.6802915334701538,0.6120148301124573,0.38763248920440674,0.7308914065361023
7.739639043807983,-0.45127302408218384,-0.018609344959259033,0.218735933303833,-0.5417653032402733,-0.6351709804991089,1.5573363133058784,-0.5083522796630859,0.5156493186950684,-0.6896982789039612,0.05984533578157425,0.7531145811080933,0.5014018416404724
7.758257150650024,-0.47078555822372437,-0.022830426692962646,0.23206961154937744,-0.5485400223284951,-0.6143761983731696,1.5632770635101643,-0.4918762147426605,0.5214419960975647,-0.6972489356994629,-0.2825908064842224,0.9987668991088867,0.3179488182067871
7.778072118759155,-0.4483720660209656,-0.012720167636871338,0.22758150100708008,-0.5573335640396639,-0.5929589862632488,1.562568378954313,-0.4742506444454193,0.5289251804351807,-0.703792929649353,-0.4615185260772705,1.1884700059890747,0.1475277543067932
7.799121141433716,-0.3961777091026306,-0.03314638137817383,0.23947679996490479,-0.5676449637523896,-0.571185599699638,1.5572985553689584,-0.45584261417388916,0.5376478433609009,-0.7093253135681152,-0.6443867683410645,1.2612301111221313,0.04341733455657959
7.819056034088135,-0.3041439950466156,-0.07199448347091675,0.2826586961746216,-0.5793788298592711,-0.5510715542571667,1.5483976484197752,-0.4381503760814667,0.5475042462348938,-0.7129258513450623,-0.7487517595291138,1.2223118543624878,-0.023660417646169662
7.839379072189331,-0.2224215865135193,-0.11950212717056274,0.30255013704299927,-0.5926654527866855,-0.5343341304308105,1.537617854705327,-0.4224148690700531,0.5585739016532898,-0.7138353586196899,-0.8106916546821594,1.0678253173828125,-0.07872343808412552
7.859049081802368,-0.1649281084537506,-0.15242749452590942,0.33782392740249634,-0.6041302426319798,-0.5209316622647504,1.5269172629094578,-0.4095958471298218,0.568046510219574,-0.713830828666687,-0.6071416139602661,0.8890109062194824,-0.06868284195661545
7.877716064453125,-0.096375972032547,-0.15232402086257935,0.325714111328125,-0.6122221504762508,-0.5109092255307849,1.5187002284887308,-0.4001603126525879,0.5746874213218689,-0.7138670086860657,-0.43602243065834045,0.5823513865470886,-0.13715004920959473
7.8976171016693115,-0.04842972755432129,-0.1898874044418335,0.34325993061065674,-0.616905249661684,-0.5065982025822872,1.5114419857380157,-0.395768940448761,0.5785136222839355,-0.7132244110107422,-0.2746797204017639,0.2680436074733734,-0.14128129184246063
7.917792081832886,-0.020081311464309692,-0.17740869522094727,0.3350003957748413,-0.6181066987811263,-0.5077326324915468,1.5051144867257813,-0.3962395489215851,0.5794932246208191,-0.7121670246124268,-0.06538721919059753,0.009378223679959774,-0.23837028443813324
7.938754081726074,-0.00912579894065857,-0.13322246074676514,0.318545401096344,-0.6157160558238194,-0.5128072390068965,1.499782396708793,-0.4005269408226013,0.5775432586669922,-0.7113522291183472,0.005603442899882793,-0.20977240800857544,-0.27723437547683716
7.957542181015015,0.004742711782455444,-0.13129013776779175,0.28422707319259644,-0.6115421348327412,-0.5232453662618686,1.4927857755431393,-0.40913116931915283,0.5741307735443115,-0.7092146873474121,0.05357465520501137,-0.43629947304725647,-0.39379602670669556
7.978358030319214,0.025187402963638306,-0.0850709080696106,0.2580442428588867,-0.6069459714595336,-0.5392053287687293,1.4837991891207765,-0.4217481315135956,0.5703615546226501,-0.7048519849777222,-0.053853489458560944,-0.6438741087913513,-0.5082314014434814
7.998296022415161,-0.014465481042861938,-0.05996459722518921,0.19406414031982422,-0.6033212882943839,-0.5612471588224774,1.470051192503033,-0.43827810883522034,0.5673805475234985,-0.6971310377120972,-0.19922029972076416,-0.7566356062889099,-0.6274141669273376
8.018275022506714,-0.038770437240600586,0.0008440613746643066,0.1078522801399231,-0.5991365540151393,-0.5854763259438556,1.4547146730172869,-0.4563467800617218,0.5639296174049377,-0.688281238079071,-0.1499926745891571,-0.7723307013511658,-0.6451632976531982
8.037378072738647,-0.06205210089683533,0.08556628227233887,0.05545926094055176,-0.5949600943283587,-0.6084491360890275,1.4393992181501059,-0.47337883710861206,0.5604757070541382,-0.6795436143875122,-0.2288239300251007,-0.6525891423225403,-0.6464336514472961
8.057407140731812,-0.05852013826370239,0.1322374939918518,0.016500115394592285,-0.5924078060795489,-0.6296554926510896,1.4226104050214776,-0.4885227680206299,0.5583601593971252,-0.6705069541931152,-0.38759326934814453,-0.5420591831207275,-0.6340413093566895
8.078161001205444,-0.01868337392807007,0.12351012229919434,-0.025487065315246582,-0.5926277590176273,-0.6513019896639064,1.4030835666623602,-0.5028468370437622,0.5585426092147827,-0.6596781611442566,-0.6053961515426636,-0.5579676628112793,-0.6493497490882874
8.097538232803345,0.026379823684692383,0.11101138591766357,-0.026425063610076904,-0.5946547856080794,-0.6754842108454597,1.381198336846606,-0.5179417133331299,0.5602228045463562,-0.6464415788650513,-0.667414665222168,-0.6436779499053955,-0.6574487686157227
8.116328001022339,0.060595571994781494,0.10621923208236694,-0.02706623077392578,-0.596425368627035,-0.702727577487729,1.3579546339088604,-0.5347167253494263,0.5616886019706726,-0.6313351392745972,-0.6646286249160767,-0.784885048866272,-0.726285457611084
8.137395143508911,0.104877769947052,0.09385734796524048,-0.07352173328399658,-0.5957274835968742,-0.7326680728390321,1.335194293440649,-0.5536388158798218,0.5611110925674438,-0.6153361201286316,-0.5301374197006226,-0.930321216583252,-0.7330371737480164
8.15737509727478,0.13859039545059204,0.07570403814315796,-0.07324248552322388,-0.5933088988606362,-0.7640630683506388,1.31398631204627,-0.5736185312271118,0.5591074824333191,-0.5986323952674866,-0.46466127038002014,-1.0158647298812866,-0.6970732808113098
8.17801809310913,0.1650586724281311,0.09304934740066528,-0.1495005488395691,-0.5893619964801952,-0.794846788648098,1.2960252785041027,-0.5933424234390259,0.5558307766914368,-0.5822345018386841,-0.2964242398738861,-1.064167857170105,-0.6538040637969971
8.198062181472778,0.1343347430229187,0.14558982849121094,-0.2602670192718506,-0.5834759148960142,-0.8234641887401106,1.2817987349821527,-0.6121483445167542,0.5509281158447266,-0.5672323107719421,-0.1609136313199997,-0.9842948317527771,-0.5856457948684692
8.216921091079712,0.09966170787811279,0.14640331268310547,-0.3299039602279663,-0.576611135590765,-0.8470877122651731,1.2711455257584237,-0.6281957030296326,0.5451861619949341,-0.5551056265830994,-0.08352446556091309,-0.7982416749000549,-0.5454992055892944
8.2380211353302,0.04765814542770386,0.06647658348083496,-0.39406126737594604,-0.5846971981751905,-0.8845251052542189,1.2196644346146575,-0.6451007723808289,0.5519468784332275,-0.5283933877944946,-3.5965416431427,0.31734368205070496,-2.446082592010498
8.25792407989502,0.03589147329330444,-0.3673822283744812,-1.4804518222808838,-0.5798626656500293,-0.91333417570941,1.1647441047183147,-0.6621580123901367,0.5479090809822083,-0.5112167000770569,-0.41985610127449036,-0.2999952435493469,-0.9434932470321655
8.276815176010132,0.03771162033081055,0.6416774392127991,-0.06651991605758667,-0.5739871619128847,-0.921045338046331,1.1633816998277253,-0.6686321496963501,0.5429845452308655,-0.5080344676971436,0.4226948022842407,1.2377409934997559,0.0061716921627521515
8.29767394065857,-0.4672592878341675,0.1259479522705078,-0.3467210531234741,-0.5634085873520311,-0.8840487162968095,1.1556483701103906,-0.6537887454032898,0.5340710282325745,-0.5360302329063416,-0.5204796195030212,2.1578054428100586,-1.076717734336853
8.317538022994995,0.05791348218917847,-0.030122339725494385,-0.177459716796875,-0.5664838468529654,-0.8629322779479697,1.1240628290280736,-0.6410739421844482,0.5366684794425964,-0.5486448407173157,-1.4241917133331299,1.70682954788208,-0.33226293325424194
8.337532043457031,0.22810930013656616,0.07198363542556763,-0.05597895383834839,-0.5794744679587667,-0.8448261245607849,1.097495856953711,-0.6257686018943787,0.5475842952728271,-0.5554863214492798,-1.1330397129058838,1.7438727617263794,-0.23933511972427368
8.353382110595703,0.006327152252197266,-0.07445871829986572,-0.005550682544708252,-0.5915626868619834,-0.8174894923488095,1.0755035512945574,-0.6054787635803223,0.557658851146698,-0.5678133368492126,-1.0296558141708374,2.115920066833496,-0.04973110929131508
