timestamp,acceleration_x,acceleration_y,acceleration_z,attitude_pitch,attitude_roll,attitude_yaw,gravity_x,gravity_y,gravity_z,rotation_x,rotation_y,rotation_z
0.0,-0.01415252685546875,0.13339561223983765,-0.274167537689209,-0.7012043237891284,-0.5160421143698724,2.0886019567576835,-0.37702181935310364,0.6451383233070374,-0.6645684242248535,0.10082026571035385,-0.15808457136154175,0.3271329700946808
0.020067930221557617,-0.01677227020263672,0.1043134331703186,-0.22785735130310059,-0.7037018047689593,-0.5131566895513509,2.097590458706337,-0.3743104934692383,0.6470445394515991,-0.6642476916313171,0.00407491996884346,-0.11827262490987778,0.3926195204257965
0.041821956634521484,-0.03466925024986267,0.042117178440093994,-0.14275002479553223,-0.7089789509988906,-0.5084625418621679,2.106818014848448,-0.36952081322669983,0.651059091091156,-0.6630055904388428,-0.11981432139873505,-0.013370532542467117,0.48810702562332153
0.05921196937561035,-0.008112698793411255,0.024260520935058594,-0.09346544742584229,-0.7176810268286697,-0.5021913418045191,2.1164609040222713,-0.36261487007141113,0.6576395034790039,-0.6603187322616577,-0.2717750668525696,-0.011103915981948376,0.555704653263092
0.0791318416595459,0.022249698638916016,0.0016235113143920898,-0.068450927734375,-0.7271498669062605,-0.49647576185874126,2.1266478835055316,-0.3558526337146759,0.6647430658340454,-0.6568755507469177,-0.15951135754585266,-0.10912217944860458,0.5744415521621704
0.09908890724182129,0.0419025719165802,0.022229313850402832,-0.029938220977783203,-0.7330595791272472,-0.4905771764131222,2.1404859323680583,-0.3501148819923401,0.6691464185714722,-0.6554865837097168,0.13980169594287872,-0.23086264729499817,0.614540159702301
0.12001490592956543,0.013953596353530884,0.032247304916381836,-0.006767988204956055,-0.7328226392633213,-0.48438357285730016,2.158654108794915,-0.34612220525741577,0.6689703464508057,-0.6577827334403992,0.5104680061340332,-0.35913291573524475,0.5536907315254211
0.1400158405303955,-0.03560492396354675,0.04353564977645874,0.0322529673576355,-0.7255220023589093,-0.4774979962729923,2.1797293852512327,-0.34382009506225586,0.6635260581970215,-0.6644703149795532,0.8464434742927551,-0.33112019300460815,0.5147886872291565
0.16006207466125488,-0.07377392053604126,0.03444451093673706,0.11685866117477417,-0.714113218070924,-0.4672042841149484,2.202944422450444,-0.34034964442253113,0.6549475789070129,-0.6746894717216492,0.8909483551979065,-0.1606626957654953,0.5182859301567078
0.1791088581085205,-0.06798645853996277,-0.021286427974700928,0.1802150011062622,-0.7052501489491527,-0.4557639659739764,2.222817824670526,-0.33515074849128723,0.6482243537902832,-0.6837244629859924,0.5386831760406494,-0.018781542778015137,0.42821767926216125
0.2002110481262207,-0.036496251821517944,-0.08780407905578613,0.21461093425750732,-0.7025938937463861,-0.44710156038576526,2.2359241697862395,-0.32995885610580444,0.6461994647979736,-0.6881521940231323,0.14105477929115295,0.03439752385020256,0.37010034918785095
0.22007393836975098,0.011655747890472412,-0.1153060793876648,0.26424628496170044,-0.7056244213930695,-0.4407150127677435,2.244147043751269,-0.3247203826904297,0.6485092639923096,-0.6884711384773254,-0.1023591086268425,0.05524244159460068,0.31403470039367676
0.2401411533355713,0.07106724381446838,-0.09474802017211914,0.25593578815460205,-0.7093729816324633,-0.43750905385992184,2.2489296643298946,-0.32147926092147827,0.6513581275939941,-0.687301754951477,-0.013071909546852112,-0.06925981491804123,0.178839772939682
0.2600569725036621,0.1149633526802063,-0.06283247470855713,0.2448669672012329,-0.7070502160382218,-0.43703985331694795,2.2541623602054703,-0.3217962384223938,0.6495939493179321,-0.6888214349746704,0.4049496650695801,-0.2184818685054779,0.10165654122829437
0.2792680263519287,0.13004282116889954,-0.06495827436447144,0.2518894076347351,-0.698079367165286,-0.43755553334885916,2.2619694227329683,-0.32460761070251465,0.6427475214004517,-0.6939059495925903,0.5948982834815979,-0.34386640787124634,0.04771633446216583
0.3000459671020508,0.1317255198955536,-0.07113933563232422,0.26878780126571655,-0.6883211839049052,-0.441488091215226,2.2677256747210928,-0.329998254776001,0.6352415084838867,-0.6982616782188416,0.4632822871208191,-0.41099023818969727,-0.06145797297358513
0.3200109004974365,0.14584031701087952,-0.05671036243438721,0.25646305084228516,-0.6814135291919149,-0.448816510549495,2.269829178847213,-0.3370024561882019,0.6298915147781372,-0.6997613310813904,0.23045149445533752,-0.46037688851356506,-0.07383064180612564
0.33972907066345215,0.14752769470214844,-0.009859740734100342,0.18709862232208252,-0.6776589221137262,-0.4586114631099629,2.2703396761497023,-0.3448849022388458,0.6269709467887878,-0.6985426545143127,0.17275474965572357,-0.56363445520401,-0.05000374838709831
0.3600189685821533,0.12188082933425903,0.08192998170852661,0.1224866509437561,-0.6737958912621201,-0.4697504962192997,2.2717664598277363,-0.35373812913894653,0.6239567995071411,-0.6968121528625488,0.23139238357543945,-0.6184727549552917,-0.039317209273576736
0.3794281482696533,0.08868396282196045,0.14886510372161865,0.09676146507263184,-0.6682304978846539,-0.48067636452116524,2.2729795941755486,-0.36293020844459534,0.6195980310440063,-0.6959741115570068,0.30955013632774353,-0.5448748469352722,-0.14871032536029816
0.4001500606536865,0.09595763683319092,0.11288678646087646,0.09103327989578247,-0.6608428764855191,-0.49008643849403816,2.273407670990087,-0.3716076612472534,0.613782525062561,-0.6965477466583252,0.3134002089500427,-0.42778468132019043,-0.13201655447483063
0.41997694969177246,0.12324193120002747,0.09724390506744385,0.09011846780776978,-0.6567937843049344,-0.4987464258828078,2.2727576469660575,-0.37881138920783997,0.6105808019638062,-0.6954803466796875,0.02222093939781189,-0.42713066935539246,-0.15013310313224792
0.4400370121002197,0.10722467303276062,0.11589014530181885,0.0397108793258667,-0.6558114966381761,-0.5115177351154278,2.267072169664157,-0.3879558742046356,0.6098026037216187,-0.6911085844039917,-0.13455341756343842,-0.49625372886657715,-0.278125137090683
0.4600350856781006,0.0592418909072876,0.15751862525939941,-0.023831486701965332,-0.6559237860761405,-0.5268998276019184,2.2580656036018394,-0.3985058069229126,0.6098915934562683,-0.6850002408027649,-0.20401336252689362,-0.4870961010456085,-0.3413832187652588
0.47954702377319336,0.030289053916931152,0.16366910934448242,-0.03391706943511963,-0.656326763786923,-0.5429216043185842,2.2469465469007575,-0.40930211544036865,0.6102108955383301,-0.6783173680305481,-0.3157239854335785,-0.43029558658599854,-0.39591285586357117
0.5000560283660889,0.03986510634422302,0.14993035793304443,-0.039539456367492676,-0.658782542325181,-0.5591476949146064,2.233073207978865,-0.4194580316543579,0.6121546030044556,-0.6703146696090698,-0.4611082971096039,-0.3602043688297272,-0.40658262372016907
0.5200231075286865,0.0006875395774841309,0.122852623462677,-0.0948944091796875,-0.6626199746774772,-0.5763494351727209,2.21699456078358,-0.42964261770248413,0.615184485912323,-0.6610259413719177,-0.5412954092025757,-0.36821818351745605,-0.4752938449382782
0.5400910377502441,-0.10613560676574707,0.1092633605003357,-0.13882702589035034,-0.6663140093850298,-0.5963107443263004,2.196181325278973,-0.44147181510925293,0.6180925965309143,-0.6504337787628174,-0.6890881061553955,-0.3402593433856964,-0.7102202773094177
0.5596668720245361,-0.16533556580543518,0.1499040126800537,-0.16767537593841553,-0.6696098149332362,-0.6199143010940477,2.168267400442399,-0.4555140435695648,0.6206800937652588,-0.6381717920303345,-0.8594961166381836,-0.28699854016304016,-0.8530113101005554
0.5797688961029053,-0.1680595576763153,0.20177549123764038,-0.2023729681968689,-0.6754724236257774,-0.6436237250072967,2.1369306992380586,-0.4683234989643097,0.6252660751342773,-0.624271810054779,-1.0307207107543945,-0.1091325655579567,-0.7323724031448364
0.6075699329376221,-0.15135431289672852,0.19637584686279297,-0.19935178756713867,-0.6860931327386229,-0.6608626881894907,2.108628784955077,-0.474912166595459,0.633519172668457,-0.6108288168907166,-1.1369295120239258,0.17943096160888672,-0.37117800116539
0.6200079917907715,-0.1072729229927063,0.11559909582138062,-0.17156380414962769,-0.7012304430244793,-0.6687346292768899,2.086712314775776,-0.4737054705619812,0.6451582908630371,-0.5994779467582703,-1.1067389249801636,0.3932249844074249,-0.03250008821487427
0.6390700340270996,-0.06861677765846252,0.01053553819656372,-0.15655171871185303,-0.718055473002182,-0.671262553541374,2.070675877032387,-0.4684010446071625,0.6579214930534363,-0.589694619178772,-0.9142869710922241,0.38686466217041016,0.07703974843025208
0.6601121425628662,-0.08142304420471191,-0.10483580827713013,-0.1288623809814453,-0.7299702668132189,-0.6712738682316494,2.060086024677508,-0.4634988009929657,0.6668474674224854,-0.5835093259811401,-0.5317367911338806,0.3084457516670227,0.054572694003582
0.6800329685211182,-0.09329557418823242,-0.18142294883728027,-0.07381641864776611,-0.7366289312986968,-0.6693440919746731,2.0541402515966487,-0.45960667729377747,0.6717946529388428,-0.5809076428413391,-0.3029838800430298,0.30329060554504395,-0.01999717392027378
0.7000420093536377,-0.09349358081817627,-0.2517635226249695,-0.004368185997009277,-0.740029763025932,-0.6679773664780791,2.0464442298552705,-0.45739448070526123,0.6743099093437195,-0.5797382593154907,-0.3811067044734955,0.3607949912548065,-0.21285703778266907
0.720008134841919,-0.07359921932220459,-0.27988678216934204,0.05724620819091797,-0.7450643305887359,-0.67065036485326,2.0306758827522993,-0.4568268060684204,0.678019106388092,-0.5758466720581055,-0.7351670265197754,0.4339820444583893,-0.38220545649528503
0.7400038242340088,-0.027699768543243408,-0.3132861256599426,0.07795816659927368,-0.7535018081722258,-0.6782081289313686,2.006809468866854,-0.45756030082702637,0.6841968297958374,-0.5679026246070862,-1.0129622220993042,0.42460039258003235,-0.4465939700603485
0.7600629329681396,0.03349661827087402,-0.331379234790802,0.10396015644073486,-0.7645805280767638,-0.6889821556807811,1.9786321704183594,-0.4588048458099365,0.6922343373298645,-0.5570545792579651,-1.1273761987686157,0.4480430781841278,-0.4437117278575897
0.7800118923187256,0.07739400863647461,-0.32842081785202026,0.06252318620681763,-0.7749315432294586,-0.7009947097590655,1.9489724445735421,-0.4608168601989746,0.6996671557426453,-0.5459978580474854,-0.9777056574821472,0.39460161328315735,-0.5552640557289124
0.8000049591064453,0.11512556672096252,-0.30522310733795166,0.018758714199066162,-0.7787768558608605,-0.7135369103982658,1.9215191464299566,-0.46586406230926514,0.7024093270301819,-0.5381373167037964,-0.5955039262771606,0.2934471070766449,-0.6533934473991394
0.8200860023498535,0.1336216926574707,-0.2677536606788635,0.006831765174865723,-0.7767081596299158,-0.724566276607972,1.8986531606498744,-0.4727330207824707,0.700935423374176,-0.534053385257721,-0.3433859050273895,0.20369619131088257,-0.7386476993560791
0.8401029109954834,0.14549341797828674,-0.27593350410461426,0.013237953186035156,-0.7701840854086333,-0.73609626931281,1.8776522124141506,-0.48191922903060913,0.6962673664093018,-0.5319451689720154,-0.22333982586860657,0.11641223728656769,-0.7723636031150818
0.8600599765777588,0.13093388080596924,-0.253947377204895,0.02497619390487671,-0.7646528730891804,-0.7476514041829923,1.858739613318443,-0.49064457416534424,0.6922865509986877,-0.5291570425033569,-0.3010852038860321,0.03992908447980881,-0.6141663193702698
0.8800389766693115,0.06198883056640625,-0.19706261157989502,0.005322754383087158,-0.7611275801343117,-0.7611013859005599,1.839205191163173,-0.49939727783203125,0.6897383332252502,-0.5242741107940674,-0.36496585607528687,-0.030787251889705658,-0.6878447532653809
0.9002110958099365,0.06185460090637207,-0.18367010354995728,-0.04672360420227051,-0.7564240917314399,-0.7768646416312173,1.8189994279251573,-0.5098679065704346,0.6863250732421875,-0.5186449885368347,-0.3204917311668396,-0.17586259543895721,-0.6669191122055054
0.9201610088348389,0.11630070209503174,-0.19201064109802246,-0.07530719041824341,-0.7512881768439936,-0.793684025682764,1.801667936630041,-0.5210249423980713,0.6825807094573975,-0.5124614238739014,-0.2216189205646515,-0.31868961453437805,-0.6165012121200562
0.9401030540466309,0.16266953945159912,-0.2015293836593628,-0.07004529237747192,-0.7446029319243903,-0.8119763024378434,1.7862523218471005,-0.5336107015609741,0.6776798963546753,-0.5059739351272583,-0.11816265434026718,-0.4694991707801819,-0.6510381698608398
0.960162878036499,0.21146458387374878,-0.20500147342681885,-0.030981898307800293,-0.7369429676119305,-0.831616243077068,1.772344749901834,-0.5472647547721863,0.6720272302627563,-0.4988795220851898,-0.1498837023973465,-0.5341732501983643,-0.5969886183738708
0.9799909591674805,0.20360040664672852,-0.19508612155914307,-0.05396628379821777,-0.7306389196000059,-0.8513919324097077,1.7594661102896427,-0.5601983070373535,0.6673455834388733,-0.4907419681549072,-0.108401820063591,-0.5950362682342529,-0.501896858215332
1.0000269412994385,0.14806103706359863,-0.1490708589553833,-0.07066211104393005,-0.7241901021513973,-0.8697254133286291,1.7500232893295733,-0.5723773837089539,0.6625289916992188,-0.48315560817718506,-0.006228144746273756,-0.5819166302680969,-0.484341561794281
1.0200450420379639,0.16660010814666748,-0.13280797004699707,-0.022256076335906982,-0.7158725008260809,-0.8850171435724475,1.742585322059971,-0.583943247795105,0.6562759876251221,-0.47782015800476074,0.04562663659453392,-0.48593008518218994,-0.5058586597442627
1.046349048614502,0.26472556591033936,-0.16638314723968506,-0.041359931230545044,-0.7007110540240772,-0.9199227901937336,1.7255151743656403,-0.6081092953681946,0.6447613835334778,-0.4631260931491852,0.05171426385641098,-0.7531805634498596,-0.459859699010849
1.0594398975372314,0.26472556591033936,-0.16638314723968506,-0.041359931230545044,-0.7007110540240772,-0.9199227901937336,1.7255151743656403,-0.6081092953681946,0.6447613835334778,-0.4631260931491852,0.05171426385641098,-0.7531805634498596,-0.459859699010849
1.0839979648590088,0.24628996849060059,-0.14254647493362427,0.09123718738555908,-0.6730598703313886,-0.9569238142170098,1.7147953782177252,-0.6391580700874329,0.623381495475769,-0.45041388273239136,0.38510942459106445,-0.6897516250610352,-0.955669105052948
1.104010820388794,0.2706194519996643,-0.1835295557975769,0.19216680526733398,-0.6535179823615026,-0.9744894937740863,1.7045488623282081,-0.6569262146949768,0.6079832911491394,-0.4458746910095215,0.07084062695503235,-0.47836804389953613,-1.0820757150650024
1.1223750114440918,0.2083277702331543,-0.13964617252349854,0.02158421277999878,-0.6348932987444522,-0.996204600816528,1.6908032453544997,-0.6758418083190918,0.593091607093811,-0.4375845193862915,0.04930611327290535,-0.9198961853981018,-1.120867133140564
1.1422550678253174,0.09482264518737793,0.1351090669631958,0.006294131278991699,-0.6146439108797336,-1.024122571029538,1.6775337659212584,-0.6979110836982727,0.5766676664352417,-0.4247053563594818,0.14499332010746002,-1.074669361114502,-1.1753648519515991
1.1633450984954834,0.13630443811416626,0.19042104482650757,0.08939382433891296,-0.592497405859123,-1.0510405911297,1.6687070390953067,-0.719998836517334,0.5584344863891602,-0.4120103418827057,0.36274996399879456,-1.0819538831710815,-1.003111720085144
1.179142951965332,0.13630443811416626,0.19042104482650757,0.08939382433891296,-0.592497405859123,-1.0510405911297,1.6687070390953067,-0.719998836517334,0.5584344863891602,-0.4120103418827057,0.36274996399879456,-1.0819538831710815,-1.003111720085144
1.2038869857788086,0.19523394107818604,0.14506220817565918,0.14823681116104126,-0.5638295366967397,-1.0824745290872018,1.6803226146500472,-0.7464271783828735,0.5344268679618835,-0.39652779698371887,0.8887744545936584,-0.7404522895812988,-0.2473244071006775
1.2260310649871826,0.1562657356262207,0.11702477931976318,0.1636524498462677,-0.5504981472311886,-1.0841252630538574,1.6997823989575873,-0.7533115744590759,0.5231118202209473,-0.3985919654369354,1.1485053300857544,-0.4570549428462982,-0.1570255011320114
1.246068000793457,0.14877384901046753,0.04793304204940796,0.14235162734985352,-0.538332876822784,-1.0800005743858478,1.722104348151614,-0.757218062877655,0.512705385684967,-0.404665470123291,1.0593582391738892,-0.3054790794849396,-0.03428931534290314
1.261836051940918,0.14877384901046753,0.04793304204940796,0.14235162734985352,-0.538332876822784,-1.0800005743858478,1.722104348151614,-0.757218062877655,0.512705385684967,-0.404665470123291,1.0593582391738892,-0.3054790794849396,-0.03428931534290314
1.2828729152679443,0.10336828231811523,-0.0005056262016296387,0.12576010823249817,-0.5203446139079081,-1.0705430833881036,1.7559004159964167,-0.7613272070884705,0.49717918038368225,-0.4161653220653534,0.7814257144927979,-0.1435098797082901,-0.18947553634643555
1.3027980327606201,0.09211689233779907,0.005363762378692627,0.14716559648513794,-0.5068085028579717,-1.066345781213606,1.768752355497117,-0.7653957009315491,0.4853894114494324,-0.42257145047187805,0.882143497467041,-0.09408064931631088,-0.46506524085998535
1.3248989582061768,0.06066399812698364,-0.0290144681930542,0.14299720525741577,-0.48779728010074885,-1.0638273723315053,1.7793091160781749,-0.7722576260566711,0.4686812162399292,-0.4289011061191559,0.7722067832946777,-0.17533360421657562,-0.7665671110153198
1.3475899696350098,0.007339835166931152,-0.05301254987716675,0.13288968801498413,-0.46575799731252177,-1.068592156608679,1.7811038144688731,-0.7831577062606812,0.44910019636154175,-0.43008509278297424,0.41275063157081604,-0.3994046151638031,-1.0679246187210083
1.3673679828643799,-0.0630788803100586,-0.029240459203720093,0.13738411664962769,-0.4430705659014531,-1.0822721057566984,1.7729182022315044,-0.7977609634399414,0.4287155568599701,-0.4240051805973053,0.05125742405653,-0.5903195142745972,-1.2837682962417603
1.3882648944854736,-0.11868584156036377,0.07288575172424316,0.13003605604171753,-0.41785154420634896,-1.101464736984985,1.7602263146344617,-0.8151369094848633,0.4057977795600891,-0.4133765399456024,0.22012287378311157,-0.8467679023742676,-1.4893277883529663
1.4078819751739502,-0.15310490131378174,0.1353941559791565,0.15407752990722656,-0.3869462385046594,-1.121797320019464,1.7544343878058848,-0.8342760801315308,0.3773621916770935,-0.40197181701660156,0.6541545391082764,-0.9456815123558044,-1.521494746208191
1.4272329807281494,-0.2606077790260315,0.006703853607177734,0.21467497944831848,-0.3531287452883382,-1.1386005532721122,1.75622550563571,-0.8520172834396362,0.3458351790904999,-0.3930196464061737,0.7827226519584656,-0.7058676481246948,-1.4195133447647095
1.4472520351409912,-0.5373762845993042,-0.005635589361190796,0.13863343000411987,-0.3190822853806514,-1.1530414618138307,1.7519974775176272,-0.8678667545318604,0.3136953115463257,-0.38523074984550476,0.48471906781196594,-0.6298813819885254,-1.9520642757415771
1.4671318531036377,-0.7696726322174072,0.09627529978752136,0.1189081072807312,-0.2758150450019053,-1.1683426658225067,1.7410671602127106,-0.8853261470794678,0.27233126759529114,-0.3768731355667114,0.09595625847578049,-0.6018704175949097,-2.4803128242492676
1.486975908279419,-0.8619140386581421,0.08762742578983307,0.28456106781959534,-0.22723507749821067,-1.1820747377012,1.7197496579975546,-0.9016051888465881,0.22528454661369324,-0.36926257610321045,-0.08762330561876297,-0.19342704117298126,-2.50203275680542
1.5070760250091553,-0.8927745223045349,0.09859585762023926,0.42245861887931824,-0.197407298248608,-1.1863398865659258,1.6958478406929,-0.908998429775238,0.19612763822078705,-0.36777108907699585,-1.0115901231765747,0.3082899749279022,-1.1689649820327759
1.5268018245697021,-0.9084338545799255,0.24767951667308807,0.5429770946502686,-0.19590827615253276,-1.1747653272950414,1.665859494566896,-0.9049511551856995,0.19465751945972443,-0.3783804774284363,-1.6919001340866089,1.4424022436141968,-0.10718610882759094
1.5468130111694336,-0.717238187789917,0.42038455605506897,0.28901153802871704,-0.21210745801992667,-1.1536740644927514,1.6340687853694327,-0.8937695026397705,0.21052059531211853,-0.39605191349983215,-1.5403423309326172,0.9949314594268799,0.2829224169254303
1.5667698383331299,-0.46322309970855713,0.19388452172279358,0.20889148116111755,-0.2254865892154451,-1.1454852714450132,1.6240181218096406,-0.8878510594367981,0.22358065843582153,-0.4021592140197754,0.08436095714569092,0.29155290126800537,0.7508898377418518
1.5856878757476807,-0.6728376746177673,0.00023314356803894043,0.34379225969314575,-0.24376628095632463,-1.1356974295669098,1.6391312445833857,-0.8800187706947327,0.24135926365852356,-0.409038782119751,0.3922552168369293,0.2854689955711365,1.291576862335205
1.6066310405731201,-0.8339919447898865,-0.15476876497268677,0.45680665969848633,-0.2638687612283566,-1.1224453727707402,1.6589672148993162,-0.869972288608551,0.26081734895706177,-0.41847655177116394,0.323824405670166,0.6998489499092102,1.539451241493225
1.626708984375,-0.8932905197143555,-0.1192648708820343,0.35813087224960327,-0.2980987755164997,-1.098035135921395,1.6761234908157112,-0.8510485887527466,0.2937033772468567,-0.43526408076286316,-0.4288186728954315,1.1564472913742065,2.187181234359741
1.6465590000152588,-0.9505686163902283,-0.03108268976211548,0.1810041069984436,-0.34809827593966214,-1.072347465203107,1.6848191136147224,-0.8256459832191467,0.3411107659339905,-0.4493909478187561,-1.0613445043563843,1.0185041427612305,2.660433053970337
1.6666438579559326,-1.0222764015197754,0.13821923732757568,0.18880784511566162,-0.40689753551693025,-1.0521765798242113,1.695799528976057,-0.7975935339927673,0.3957620859146118,-0.45521098375320435,-0.7680786848068237,0.768001914024353,2.9520440101623535
1.6864068508148193,-1.033707857131958,0.17078936100006104,0.2888481020927429,-0.4639812939017948,-1.025241330913303,1.7201618486649242,-0.7644640803337097,0.44751203060150146,-0.46403419971466064,-0.25506940484046936,0.8078895211219788,3.0688939094543457
1.7066309452056885,-0.9636889696121216,0.15556102991104126,0.19027701020240784,-0.5155503899967008,-0.9975348733812552,1.7552474576284436,-0.7309368252754211,0.49301376938819885,-0.47187790274620056,0.1168598160147667,0.25259315967559814,2.9133377075195312
1.7262771129608154,-0.8690798878669739,0.14358645677566528,0.1963852047920227,-0.561443240226025,-0.9774095766654276,1.7920469164893,-0.7017819285392761,0.5324084162712097,-0.47333216667175293,-0.18030650913715363,-0.013442881405353546,2.7220563888549805
1.745516061782837,-0.8325331807136536,0.04918932914733887,0.2008051872253418,-0.6117115844035662,-0.9642618814687,1.8175155716545697,-0.6726395487785339,0.5742695331573486,-0.4666590690612793,-0.8640375733375549,-0.0726802796125412,2.631491184234619
1.7678639888763428,-0.6959080100059509,0.14674317836761475,0.13878405094146729,-0.6649699378280636,-0.9578103917285326,1.8317717159463875,-0.6436610817909241,0.617035448551178,-0.4527336359024048,-1.1767199039459229,-0.15475384891033173,2.3627614974975586
1.7867701053619385,-0.5644405484199524,0.22400999069213867,0.05304276943206787,-0.7121489455270141,-0.9563293701542236,1.8420888511851665,-0.6184970736503601,0.6534619331359863,-0.4364045560359955,-0.8480215072631836,-0.32009488344192505,1.9874308109283447
1.8061730861663818,-0.45056265592575073,0.2902699112892151,0.013844132423400879,-0.7488951838903845,-0.9581018657205796,1.8538084893899767,-0.5992115139961243,0.6808299422264099,-0.4212080240249634,-0.5458780527114868,-0.5913555026054382,1.511912226676941
1.8258700370788574,-0.2984181046485901,0.2150457501411438,0.015787899494171143,-0.7794344167648134,-0.9635259842834659,1.8627062635619622,-0.5841349959373474,0.7028772234916687,-0.40589410066604614,-0.7756747007369995,-0.5702453255653381,1.3953278064727783
1.8460259437561035,-0.26341521739959717,0.19708001613616943,-0.06107139587402344,-0.8111133875367061,-0.9761556055843443,1.8616042158455437,-0.5704776644706726,0.7250543832778931,-0.38581278920173645,-0.9887361526489258,-0.6277088522911072,1.1724321842193604
1.8662309646606445,-0.10164844989776611,0.26072704792022705,-0.05317997932434082,-0.8400928047724745,-0.9940960669058699,1.8536467066326652,-0.5594538450241089,0.744705080986023,-0.3639037311077118,-0.9655241370201111,-0.5881841778755188,0.9403446316719055
1.8847880363464355,0.033017635345458984,0.2626969814300537,-0.023472338914871216,-0.8625043768677287,-1.013774592137045,1.8438165299972487,-0.5521979928016663,0.7594741582870483,-0.3439135253429413,-0.813716471195221,-0.6339311599731445,0.5762497186660767
1.9048779010772705,0.1058950424194336,0.16281819343566895,-0.017523497343063354,-0.8791239062681379,-1.0372158795385367,1.8298353465784634,-0.5491628050804138,0.7701804041862488,-0.32441064715385437,-0.9044032096862793,-0.6673944592475891,0.4390280842781067
1.9256808757781982,0.21785926818847656,0.1110992431640625,0.0441613495349884,-0.897619495164915,-1.0690979965273808,1.8063052588012678,-0.5466403961181641,0.781844973564148,-0.29983755946159363,-1.3139594793319702,-0.728946328163147,0.4254181385040283
1.944612979888916,0.3024085760116577,0.13950473070144653,0.035465508699417114,-0.916980462600749,-1.1112900377923558,1.7720414117668473,-0.54513019323349,0.7937687039375305,-0.2697489559650421,-1.4320838451385498,-0.7836706638336182,0.31320852041244507
1.9657690525054932,0.3581964373588562,0.12151968479156494,-0.06379209458827972,-0.9318685272060797,-1.159090904172351,1.7332687561626714,-0.5465050935745239,0.8027356266975403,-0.2386370748281479,-1.237107753753662,-0.8322570323944092,0.08436935395002365
1.9862010478973389,0.43502044677734375,-0.06132066249847412,-0.12989678978919983,-0.9415692153228036,-1.2052185387214962,1.6946263044058436,-0.549629271030426,0.8084825873374939,-0.21038949489593506,-1.3464810848236084,-0.6680302619934082,-0.054620128124952316
2.002411127090454,0.5879549384117126,-0.22928273677825928,-0.0905333161354065,-0.9505582823485472,-1.2599777959640943,1.6424042182793697,-0.5533785223960876,0.8137401342391968,-0.17776192724704742,-1.8569122552871704,-0.6098287105560303,-0.06377089768648148
2.0255138874053955,0.6965370178222656,-0.17076289653778076,-0.1141376942396164,-0.9608938424746748,-1.326901620515728,1.5773606760336336,-0.5558356642723083,0.8197038769721985,-0.13831894099712372,-1.866153597831726,-0.770639955997467,0.08172877132892609
2.0454299449920654,0.7200278043746948,-0.031326234340667725,-0.21353518962860107,-0.9710612147575785,-1.3871010082195177,1.522933115264646,-0.5549277067184448,0.8254851698875427,-0.10309990495443344,-1.3172575235366821,-0.7823613882064819,0.1563182920217514
2.0655901432037354,0.7328996062278748,-0.17961645126342773,-0.29065823554992676,-0.9762536683414429,-1.4315396657910704,1.4883625421529583,-0.554707407951355,0.8284047842025757,-0.07774993777275085,-0.805018424987793,-0.8181484937667847,0.10403712838888168
2.085685968399048,0.8355326652526855,-0.3641440272331238,-0.2536023259162903,-0.9829391384544155,-1.471667854612915,1.461566216112412,-0.5518564581871033,0.8321309685707092,-0.05488457903265953,-0.7975783348083496,-1.0092788934707642,0.41497769951820374
2.1049869060516357,0.8647916316986084,-0.3870497941970825,-0.37856876850128174,-0.9954423320647204,-1.5182454556348128,1.435759915579817,-0.5433804392814636,0.8389997482299805,-0.02858142927289009,-0.5031309723854065,-1.518273949623108,0.6925853490829468
2.1248619556427,0.8015743494033813,-0.35973089933395386,-0.44528573751449585,-1.0140682754214965,-1.5576930327159804,1.428516893070774,-0.5283656716346741,0.8489885926246643,-0.006923727225512266,-0.036110810935497284,-1.6369614601135254,1.1518573760986328
2.1449220180511475,0.7120682001113892,-0.45932817459106445,-0.5134841203689575,-1.0381946372934185,-1.5873154914829315,1.429746417301032,-0.5077072978019714,0.861488938331604,0.008387663401663303,0.11699964106082916,-1.5254287719726562,1.1875951290130615
2.165814161300659,0.7308757305145264,-0.4799339175224304,-0.459447979927063,-1.0632950938377053,-1.6066713681147105,1.4402271084767528,-0.4856822192668915,0.8739616274833679,0.0174313485622406,0.5628026723861694,-1.2334251403808594,1.4293427467346191
2.1866819858551025,0.7465019226074219,-0.3195520043373108,-0.47561347484588623,-1.0935149920965128,-1.6004903380489564,1.475094836469649,-0.4591636061668396,0.8882470726966858,0.013638418167829514,1.3008224964141846,-1.2676998376846313,1.3655604124069214
2.2048890590667725,0.7804208993911743,-0.30683237314224243,-0.3956565260887146,-1.1176448206261702,-1.5587628883002496,1.5490341461927548,-0.4377696216106415,0.8990718126296997,-0.005268128123134375,1.935784101486206,-1.2996675968170166,0.9597181081771851
2.224724054336548,0.8504552245140076,-0.49137449264526367,-0.22213810682296753,-1.1326237600145532,-1.487445971201881,1.6481662076462409,-0.4228123724460602,0.9055285453796387,-0.03532340005040169,2.1044087409973145,-1.075271725654602,0.9433761835098267
2.2448019981384277,0.8355574011802673,-0.6237068772315979,0.08531367778778076,-1.1397461218306002,-1.4327483571337132,1.7442360280867162,-0.41385024785995483,0.9085274338722229,-0.057496894150972366,1.967864990234375,-1.9532749652862549,0.18431814014911652
2.26495099067688,0.8000400066375732,-0.6069820523262024,0.3005399703979492,-1.1381757698009394,-1.3765662156114986,1.8409181150336544,-0.41136813163757324,0.9078701734542847,-0.08092022687196732,2.0125153064727783,-1.155517816543579,0.22562122344970703
2.2855679988861084,0.6578047275543213,-0.5438592433929443,0.12541764974594116,-1.1235635768071186,-1.3102462016486551,1.9416540150661212,-0.4178754985332489,0.9016473293304443,-0.11141007393598557,2.581342935562134,-1.5445756912231445,-0.6406509876251221
2.3037679195404053,0.613361656665802,-0.47609663009643555,0.12554536759853363,-1.0906105053282593,-1.2508116331164871,2.048410593400364,-0.4384959936141968,0.8869091272354126,-0.14530546963214874,2.790424108505249,-2.062041759490967,-1.2293199300765991
2.324536085128784,0.42922911047935486,-0.5630947947502136,0.2797778844833374,-1.0446742486653522,-1.2386144581167007,2.1183011975322863,-0.4747307598590851,0.8647609949111938,-0.16376528143882751,1.6250331401824951,-2.7651681900024414,-1.8338567018508911
2.3445560932159424,0.14525598287582397,-0.6316920518875122,0.4829237461090088,-1.0103328731651908,-1.2964268348162538,2.1125153292414045,-0.5116958022117615,0.8470088243484497,-0.1440260112285614,-0.5582153797149658,-2.2786710262298584,-1.6735115051269531
2.3648910522460938,-0.5453590154647827,-0.17340803146362305,0.1356039196252823,-0.9721290676594114,-1.3324675135972968,2.1016105402439638,-0.547612726688385,0.8260874152183533,-0.1330403983592987,1.5665595531463623,-0.6100860834121704,-2.321751832962036
2.3848369121551514,-0.7699575424194336,0.5119578838348389,-0.15919522941112518,-0.8961849873063159,-1.2916653597145908,2.1788354553583114,-0.6004189848899841,0.7809497714042664,-0.17208828032016754,4.501594066619873,-1.8486747741699219,-3.9314045906066895
2.404412031173706,-0.946449875831604,0.048226892948150635,-0.07450878620147705,-0.7814881226491973,-1.2639971439047806,2.278069631742955,-0.676719069480896,0.7043365836143494,-0.21438585221767426,4.8929643630981445,-2.554232597351074,-4.916491508483887
2.4242050647735596,-1.549476981163025,-0.2099541425704956,-0.037322282791137695,-0.6655230501878151,-1.2687465761632,2.356247038164544,-0.7509838342666626,0.6174706220626831,-0.23399421572685242,4.078717231750488,-3.163243532180786,-4.196090221405029
2.444108009338379,-1.7034834623336792,-0.10873770713806152,-0.09238559007644653,-0.5772103993527808,-1.3018739048122625,2.407077532471555,-0.807869017124176,0.5456883907318115,-0.22264738380908966,2.380296468734741,-2.915750503540039,-3.2850635051727295
2.464956045150757,-1.6727938652038574,0.25309017300605774,-0.1136898398399353,-0.5090439088257948,-1.343185998217116,2.4194913571035266,-0.8506894111633301,0.48734259605407715,-0.1970401555299759,0.3526884615421295,-1.7810194492340088,-3.1354663372039795
2.483315944671631,-0.9709900617599487,0.25089937448501587,0.07260501384735107,-0.4644234661006576,-1.3709473815444637,2.3969837067896975,-0.8762847185134888,0.447907418012619,-0.1774939000606537,-1.5152145624160767,0.04251936450600624,-1.301411747932434
2.504272937774658,-0.5050840973854065,0.15037620067596436,0.1747075468301773,-0.46944536830315375,-1.3792012625021024,2.349599853104688,-0.875500500202179,0.45239171385765076,-0.16982468962669373,-2.4482390880584717,1.0518635511398315,0.806793212890625
2.5239100456237793,-0.28032517433166504,0.27975553274154663,0.15215493738651276,-0.505473180986077,-1.3825652777684616,2.3020625121911955,-0.8594909906387329,0.484221488237381,-0.16372106969356537,-2.3084335327148438,0.6490480899810791,1.6338597536087036
2.5437800884246826,-0.3030308485031128,0.08899718523025513,0.08396638929843903,-0.5406594348745729,-1.3851964522400049,2.2779983122416803,-0.8426446914672852,0.5147014856338501,-0.15821562707424164,-0.3361569941043854,0.3759460747241974,1.452499270439148
2.5637128353118896,-0.49145299196243286,-0.1066940426826477,0.06374192237854004,-0.5667406249560053,-1.3712022374146118,2.2945935303915848,-0.8269063830375671,0.536885142326355,-0.16727280616760254,1.0310873985290527,0.18396687507629395,1.3788522481918335
2.583317995071411,-0.489094614982605,-0.26896142959594727,0.22881489992141724,-0.5883845735209557,-1.3479807627964424,2.3259596753741025,-0.8112745881080627,0.5550179481506348,-0.18381668627262115,0.9018914103507996,0.44715917110443115,1.3314546346664429
2.6039509773254395,-0.4280938506126404,-0.33445411920547485,0.31060683727264404,-0.6136784928240228,-1.3255221350783493,2.3454311490949302,-0.7930669188499451,0.5758786201477051,-0.19851577281951904,0.1025688648223877,0.7280834913253784,1.4965763092041016
2.6235058307647705,-0.37537145614624023,-0.3196796774864197,0.24582600593566895,-0.6449310580342609,-1.3042210819628501,2.352752861730137,-0.7709144949913025,0.6011433601379395,-0.21051712334156036,-0.34143146872520447,0.9169319272041321,1.67745840549469
2.643604040145874,-0.3221362233161926,-0.27667826414108276,0.15295076370239258,-0.679290029953364,-1.28775659528465,2.3506011111780105,-0.7470623850822449,0.6282408237457275,-0.21728181838989258,-0.6876806020736694,0.8508372902870178,1.5274295806884766
2.661608934402466,-0.3204265832901001,-0.24011707305908203,0.09430420398712158,-0.7098538235051537,-1.2757599527328272,2.343788454720514,-0.7256854176521301,0.6517229080200195,-0.2205401211977005,-0.6711889505386353,0.8514646887779236,1.2936352491378784
2.6833341121673584,-0.3380722403526306,-0.20396780967712402,0.0838378369808197,-0.7370717958059654,-1.261179671758542,2.3371489687023868,-0.7052320837974548,0.6721226572990417,-0.22560718655586243,-0.6006209254264832,1.066182255744934,1.1774030923843384
2.7023539543151855,-0.30980342626571655,-0.19541138410568237,0.03808385133743286,-0.7631270694884541,-1.2427436402614338,2.3307380865739518,-0.684138834476471,0.6911846995353699,-0.23284702003002167,-0.6991828680038452,1.2005118131637573,1.1659438610076904
2.72320294380188,-0.27096420526504517,-0.137315571308136,0.02734561264514923,-0.7893367935517044,-1.2238707292610573,2.321452973746148,-0.6623547673225403,0.7098863124847412,-0.23947326838970184,-0.7795289754867554,1.338410496711731,1.0760594606399536
2.7430050373077393,-0.22213125228881836,-0.10308969020843506,0.004772931337356567,-0.8142409375491458,-1.2061451929424225,2.3084302976331923,-0.6412873268127441,0.7272047996520996,-0.24479368329048157,-0.9725596308708191,1.3473423719406128,0.9398784041404724
2.7623350620269775,-0.15934330224990845,-0.15647244453430176,0.0033733248710632324,-0.8380964575812646,-1.1951030149365587,2.2881163372308317,-0.622227132320404,0.7433712482452393,-0.24542351067066193,-1.1871296167373657,1.2829362154006958,0.8148338794708252
2.783031940460205,-0.0822533369064331,-0.20031499862670898,0.051713764667510986,-0.8623389865587155,-1.190130242446404,2.2604237130589024,-0.6040869951248169,0.759366512298584,-0.2417467087507248,-1.3955328464508057,1.3449161052703857,0.7858284711837769
2.803133010864258,-0.009039700031280518,-0.2149447798728943,0.08620822429656982,-0.8882429831635265,-1.1845779923048547,2.2297140596028244,-0.5843135714530945,0.7759646773338318,-0.23760591447353363,-1.3877413272857666,1.6016242504119873,0.9201523065567017
2.8229219913482666,0.04128611087799072,-0.14586102962493896,0.06097537279129028,-0.914869088281709,-1.1729137661969977,2.201136130474569,-0.562251627445221,0.7924827337265015,-0.2363140881061554,-1.2180979251861572,1.8028614521026611,0.7991017699241638
2.8429219722747803,0.0885171890258789,-0.09598898887634277,-0.04164254665374756,-0.9331913969425644,-1.1591620565085845,2.1749395667520752,-0.5455484390258789,0.8035237789154053,-0.23817312717437744,-0.9075694680213928,1.6054620742797852,0.25106731057167053
2.862884998321533,0.1733790636062622,-0.16930198669433594,-0.10432088375091553,-0.9402909835556402,-1.148113062650588,2.1542919483150533,-0.5376673340797424,0.8077296614646912,-0.24183997511863708,-0.5702799558639526,1.2022343873977661,-0.009508338756859303
2.8828818798065186,0.24362939596176147,-0.2270093560218811,-0.014416560530662537,-0.9453531145894299,-1.1396636089404184,2.135750009950875,-0.5318831205368042,0.810703694820404,-0.2446623593568802,-0.7243062853813171,1.2121533155441284,0.0386810302734375
2.901998996734619,0.24767166376113892,-0.22727328538894653,0.011740714311599731,-0.9524063137597345,-1.137917458395055,2.107416936040137,-0.5262513160705566,0.8148128390312195,-0.24318599700927734,-0.9747612476348877,1.3331596851348877,-0.08142273873090744
2.921795129776001,0.2540658116340637,-0.14956623315811157,-0.05006656050682068,-0.960144357592808,-1.1369143816740237,2.073394942939075,-0.520270586013794,0.819274365901947,-0.24105584621429443,-1.1747045516967773,1.5123605728149414,-0.0351293608546257
2.9426019191741943,0.24388742446899414,-0.02931523323059082,-0.10917745530605316,-0.9658419236808918,-1.1410216057000153,2.0334414933726754,-0.5170044302940369,0.8225280046463013,-0.23696815967559814,-0.9872439503669739,1.4224538803100586,-0.3924250602722168
2.962486982345581,0.2863250970840454,0.009859681129455566,-0.14557400345802307,-0.9648671859818605,-1.139316747910653,2.0006099927047636,-0.5173279643058777,0.8219732642173767,-0.23818452656269073,-0.7410709857940674,1.4357274770736694,-0.4103103280067444
2.9833099842071533,0.29684579372406006,-0.004419803619384766,-0.13026386499404907,-0.9636308739131723,-1.1333455280007763,1.9739340456823886,-0.5168164968490601,0.8212685585021973,-0.24169960618019104,-0.6246638894081116,1.377751111984253,-0.3601493537425995
3.005112886428833,0.278075635433197,-0.011871039867401123,-0.07474176585674286,-0.9623034587144909,-1.1253608184110568,1.9482627124877132,-0.5158532857894897,0.8205104470252991,-0.24628788232803345,-0.7005733251571655,1.560956597328186,-0.3736881613731384
3.022320032119751,0.30040299892425537,-0.0033355355262756348,-0.0746803730726242,-0.9618930044448571,-1.1188614787107745,1.9173726706590595,-0.5145447850227356,0.8202757835388184,-0.2497824728488922,-0.8562905788421631,1.6026726961135864,-0.41862383484840393
3.0427048206329346,0.32479625940322876,0.03601646423339844,-0.1380508840084076,-0.9622676056282689,-1.116286117791864,1.8832267320937248,-0.513623833656311,0.8204900026321411,-0.2509719431400299,-0.8767310976982117,1.4645349979400635,-0.3939830958843231
3.0623419284820557,0.3116810917854309,0.11802870035171509,-0.19408050179481506,-0.962594266755779,-1.1158771916111245,1.8501806333451587,-0.5132801532745361,0.8206766843795776,-0.2510640621185303,-0.8313586115837097,1.3035197257995605,-0.4450088441371918
3.081566095352173,0.30119311809539795,0.11852675676345825,-0.2140728235244751,-0.9603110886097731,-1.1162068781129821,1.818903710903559,-0.5150450468063354,0.8193699717521667,-0.2517169713973999,-0.7185389995574951,1.232208013534546,-0.5209457874298096
3.102169990539551,0.3170875906944275,0.05401343107223511,-0.19121545553207397,-0.9587940985233758,-1.1171458847411475,1.7883090433331663,-0.5163979530334473,0.8184993863105774,-0.251777708530426,-0.8264511823654175,1.1933056116104126,-0.36104750633239746
3.122180938720703,0.2928873300552368,-0.014626562595367432,-0.1624915897846222,-0.9619987630310683,-1.1190189522404592,1.7563642519342622,-0.514505922794342,0.8203362822532654,-0.24966351687908173,-0.9601922631263733,1.2776159048080444,-0.1511327028274536
3.1418941020965576,0.2530561089515686,0.05203467607498169,-0.1952546238899231,-0.9695451897045556,-1.121283805054664,1.7222045542034785,-0.5094800591468811,0.8246285319328308,-0.2458006888628006,-1.0562320947647095,1.2632718086242676,-0.06981947273015976
3.162081003189087,0.25741279125213623,0.04087918996810913,-0.20699149370193481,-0.9758616455248756,-1.1196972518095394,1.6942740148999982,-0.5043915510177612,0.8281850814819336,-0.24433298408985138,-0.6426577568054199,1.2220255136489868,-0.010805158875882626
3.1835620403289795,0.30937305092811584,0.009680032730102539,-0.13153070211410522,-0.98140218994076,-1.1117286385767433,1.6765396768490617,-0.49830737709999084,0.83127760887146,-0.24630743265151978,-0.5221160650253296,1.0080755949020386,0.026293009519577026
3.203655958175659,0.26520153880119324,-0.01648998260498047,-0.11816488206386566,-0.9848168536822861,-1.1086956081137493,1.659977097613594,-0.49501413106918335,0.8331708312034607,-0.24655064940452576,-0.4563823342323303,0.6952386498451233,-0.10338571667671204
3.221092939376831,0.1781775951385498,0.08575725555419922,-0.13139919936656952,-0.9873913538397732,-1.1126712082526233,1.6419559226654779,-0.4940650463104248,0.834591805934906,-0.2436312884092331,-0.5420413613319397,0.4105668067932129,-0.11904773861169815
3.2399799823760986,0.1165931224822998,0.2154233455657959,-0.1402827501296997,-0.989950368555631,-1.1195499592022713,1.6260631301983386,-0.4938056766986847,0.8359987735748291,-0.2392948567867279,-0.3315368890762329,0.2510186731815338,0.024200687184929848
3.25996994972229,0.07258766889572144,0.3133159279823303,-0.0820920318365097,-0.9950452863568215,-1.1146697086549404,1.6253720232313793,-0.48880162835121155,0.8387836217880249,-0.2398225963115692,0.11690521240234375,0.3439216613769531,0.40783876180648804
3.279996156692505,-0.00951617956161499,0.28959113359451294,-0.03710222244262695,-1.000924437868992,-1.0902299749483102,1.644145085886343,-0.4784141182899475,0.8419700860977173,-0.24941205978393555,0.4426998198032379,0.4850687086582184,0.5267348289489746
3.2999770641326904,-0.04012805223464966,0.1811596155166626,-0.02519911527633667,-1.0047018989875796,-1.0598399584896716,1.6692832516428497,-0.46783706545829773,0.8440021276473999,-0.26227647066116333,0.557653546333313,0.4091382920742035,0.4454079866409302
3.3200089931488037,-0.06333214044570923,0.11518257856369019,0.028536587953567505,-1.0066926884230691,-1.0312898858431025,1.6942142712227612,-0.45871680974960327,0.8450682163238525,-0.27466076612472534,0.4639711380004883,0.3576858341693878,0.39363154768943787
3.342992067337036,-0.09129834175109863,0.051185011863708496,0.1029697060585022,-1.0091274347078028,-1.007767997323569,1.7127978072211838,-0.45038866996765137,0.8463674187660217,-0.2842746376991272,0.23951654136180878,0.43567314743995667,0.3380383551120758
3.361534833908081,-0.07016554474830627,-0.005779445171356201,0.15505695343017578,-1.0136769299187454,-0.9885232147865735,1.7239985185015512,-0.4416142404079437,0.8487817049026489,-0.2907685935497284,0.04488599672913551,0.5220252871513367,0.3790142238140106
3.3803508281707764,-0.029435783624649048,-0.020881354808807373,0.18093639612197876,-1.019758870381562,-0.968803667498449,1.7348211953637704,-0.43153226375579834,0.8519818186759949,-0.29649117588996887,0.10935740172863007,0.5240923166275024,0.43480026721954346
3.400524854660034,-0.020869702100753784,-0.019002676010131836,0.17264297604560852,-1.0243186105541275,-0.945427399259745,1.7510660816994486,-0.42132997512817383,0.8543602824211121,-0.30421945452690125,0.33693742752075195,0.4065041244029999,0.4160730242729187
3.4213931560516357,-0.07652881741523743,-0.009743869304656982,0.18147236108779907,-1.0257360675184088,-0.9197724327149654,1.773159983417947,-0.4124238193035126,0.8550960421562195,-0.3141932487487793,0.46590209007263184,0.3195505142211914,0.37358564138412476
3.4410789012908936,-0.1262320578098297,-0.047138094902038574,0.21321111917495728,-1.0260206308320112,-0.8936090560456582,1.7948996428859918,-0.4038735330104828,0.8552435636520386,-0.3247223496437073,0.38865071535110474,0.4416293799877167,0.3596970736980438
3.461536169052124,-0.09079453349113464,-0.12055128812789917,0.24899038672447205,-1.0284459135278166,-0.8675355550592985,1.8134688715763911,-0.39368724822998047,0.8564978837966919,-0.33379870653152466,0.19579485058784485,0.5737758874893188,0.4245334267616272
3.482621908187866,-0.0210321843624115,-0.2239888310432434,0.25532084703445435,-1.0333998320681164,-0.8414922722979574,1.82951592150797,-0.3816930651664734,0.8590443134307861,-0.34110572934150696,0.0823560357093811,0.5943665504455566,0.4918321669101715
3.501235008239746,0.018500059843063354,-0.234735906124115,0.24725309014320374,-1.0387695230818865,-0.8195304430018336,1.8433391149816925,-0.37073397636413574,0.8617807030677795,-0.34625211358070374,0.13900598883628845,0.41888466477394104,0.3316526710987091
3.5209779739379883,0.026627659797668457,-0.17235201597213745,0.20565760135650635,-1.0381562454033562,-0.8034826273221302,1.8551595808150987,-0.36551013588905334,0.8614693880081177,-0.35252344608306885,0.3508791923522949,0.16367818415164948,0.040296655148267746
3.5408570766448975,0.0671590268611908,-0.12322765588760376,0.199570894241333,-1.0312134652298144,-0.7933838516079428,1.8656804053076035,-0.3661855161190033,0.8579230904579163,-0.3603832423686981,0.4684937596321106,-0.058737125247716904,-0.13445743918418884
3.5600368976593018,0.09665524959564209,-0.058564841747283936,0.19547390937805176,-1.022962110585892,-0.7896412308515286,1.87337922861689,-0.3698486387729645,0.8536545634269714,-0.36672329902648926,0.3941592574119568,-0.1902533322572708,-0.1544560045003891
3.580706834793091,0.10766121745109558,0.000883936882019043,0.1874188780784607,-1.0168685494911738,-0.7885980559090846,1.8787299267597097,-0.37314891815185547,0.850464940071106,-0.3707684576511383,0.2193823754787445,-0.15615688264369965,-0.09955403953790665
3.6007440090179443,0.13976725935935974,0.028060317039489746,0.1633351743221283,-1.0130503048016162,-0.7920939378525735,1.8784440598683987,-0.37675148248672485,0.848450243473053,-0.3717396855354309,0.0914376825094223,-0.18587997555732727,-0.18969658017158508
3.6207568645477295,0.21405965089797974,0.011972546577453613,0.13238263130187988,-1.008721617160654,-0.7976830785960811,1.8771315684314793,-0.38144856691360474,0.8461512327194214,-0.3721897304058075,0.1559283435344696,-0.2739068567752838,-0.15181154012680054
3.6405680179595947,0.2688939571380615,0.025154590606689453,0.1165810227394104,-1.0042168616127223,-0.8027062514775011,1.879113492455705,-0.3860509395599365,0.8437418937683105,-0.3729134202003479,0.2606721520423889,-0.391506552696228,-0.11563723534345627
3.6604578495025635,0.2941359877586365,0.06126326322555542,0.08120805025100708,-0.99755912698006,-0.8071727701063053,1.8850119695629879,-0.3917617201805115,0.8401496410369873,-0.3750618100166321,0.4526408612728119,-0.5379581451416016,-0.1480124294757843
3.6804239749908447,0.308108925819397,0.08185869455337524,0.0858948826789856,-0.9889582479719705,-0.8095693027261119,1.8952894383961791,-0.3978763818740845,0.8354539275169373,-0.3790925145149231,0.5004861950874329,-0.5688201785087585,-0.08381630480289459
3.70005202293396,0.30781224370002747,0.06435501575469971,0.08659923076629639,-0.9813972028336313,-0.8140601905061088,1.904130172081866,-0.40415623784065247,0.8312748074531555,-0.3816278874874115,0.36166292428970337,-0.6285510063171387,-0.15234878659248352
3.7200100421905518,0.3175717890262604,0.09342449903488159,0.055138468742370605,-0.9753280363361525,-0.8251284346227091,1.9069755490855052,-0.41205424070358276,0.8278859257698059,-0.3805473744869232,0.16791129112243652,-0.7213011384010315,-0.14883987605571747
3.7401139736175537,0.3147699534893036,0.16742873191833496,0.008079081773757935,-0.9722352930655743,-0.8406769090565537,1.906723631354833,-0.4198266863822937,0.8261472582817078,-0.37580057978630066,0.03689587488770485,-0.8085066080093384,-0.10430952906608582
3.7603728771209717,0.2910391092300415,0.22387820482254028,-0.033935725688934326,-0.9693041728694871,-0.8589215677665465,1.9047967486786521,-0.428444504737854,0.8244921565055847,-0.3696592450141907,0.14228689670562744,-0.8578748106956482,-0.19890832901000977
3.7800099849700928,0.2942284345626831,0.23626506328582764,-0.03925585746765137,-0.9617740522119133,-0.8744864205979099,1.906721427458896,-0.4388970136642456,0.8202077150344849,-0.36691784858703613,0.42759472131729126,-0.8686545491218567,-0.30530405044555664
3.8002099990844727,0.3101910948753357,0.1701420545578003,-0.03407645225524902,-0.9496740291956399,-0.8872671956678226,1.912809406168506,-0.4512128233909607,0.8132258653640747,-0.3675196170806885,0.5753836035728455,-0.9200435280799866,-0.4059237241744995
3.820081949234009,0.31763410568237305,0.0777009129524231,-0.04845696687698364,-0.9352978451754326,-0.9016328864694391,1.9188583383065194,-0.46556806564331055,0.8047758936882019,-0.3682147264480591,0.607374370098114,-1.0117372274398804,-0.49196961522102356
3.840029001235962,0.321535587310791,0.0420069694519043,-0.03930234909057617,-0.9203900861422631,-0.9189002781710826,1.922918920163767,-0.4813408851623535,0.7958378791809082,-0.36735960841178894,0.4892704486846924,-1.0618634223937988,-0.5643604397773743
3.8600099086761475,0.30008476972579956,0.015269875526428223,-0.02372211217880249,-0.9044841999337421,-0.9415681575966792,1.921773985818258,-0.49971550703048706,0.7861064672470093,-0.36375951766967773,0.4287862777709961,-1.1021132469177246,-0.7586408853530884
3.880185842514038,0.2774903178215027,-0.012273430824279785,0.008544176816940308,-0.8860624401904769,-0.9664084419784951,1.9178539672719537,-0.52042555809021,0.7745873928070068,-0.3594047725200653,0.45484480261802673,-1.0828242301940918,-0.8907324075698853
3.9000120162963867,0.2558850646018982,-0.027721703052520752,0.024882018566131592,-0.8642153844142546,-0.9900902995673947,1.9149067968476823,-0.5428113341331482,0.7605860829353333,-0.3561808466911316,0.6352509260177612,-1.062026858329773,-1.038495659828186
3.9200499057769775,0.26636606454849243,-0.05858510732650757,0.0023173391819000244,-0.8379562428800807,-1.0096291296833269,1.9176690523147182,-0.5663843154907227,0.7432774305343628,-0.35601601004600525,0.972540557384491,-1.134893536567688,-1.063002586364746
3.9400088787078857,0.2977313995361328,-0.08100193738937378,0.032559096813201904,-0.8103687539040432,-1.024239017710499,1.928981467576303,-0.5888233184814453,0.7245413661003113,-0.35822737216949463,1.073541522026062,-1.153076171875,-0.8557178974151611
3.960010051727295,0.2457396388053894,-0.1266523003578186,0.04479318857192993,-0.7856211948596659,-1.0380450012164304,1.9438262221447742,-0.6089751124382019,0.7072644829750061,-0.35906317830085754,1.145666241645813,-1.279688835144043,-0.7567209005355835
3.9799959659576416,0.1509016752243042,-0.150604248046875,0.115837961435318,-0.761914082042354,-1.0507400488554508,1.9620366844027015,-0.6278608441352844,0.6903075575828552,-0.3595360517501831,1.1375621557235718,-1.2435150146484375,-0.6725060343742371
4.000365972518921,0.03927755355834961,-0.203810453414917,0.23106947541236877,-0.7391693816096234,-1.0629360689115133,1.976933465702407,-0.6457533240318298,0.6736742854118347,-0.359395831823349,0.9006350040435791,-0.9697535634040833,-0.7971974015235901
4.020013093948364,-0.005081236362457275,-0.2599523663520813,0.228363037109375,-0.7170973840934635,-1.0753467131795436,1.9843032222439538,-0.6630858778953552,0.6571996808052063,-0.3583373725414276,0.678412914276123,-0.8084568381309509,-0.8485472798347473
4.04004693031311,0.012248516082763672,-0.195082426071167,0.14540821313858032,-0.694932912764153,-1.0886575829742178,1.9917991379841755,-0.6805376410484314,0.640333890914917,-0.3561473488807678,0.9720392823219299,-1.046882152557373,-0.8497894406318665
4.060012102127075,0.02303147315979004,0.018574416637420654,0.09345734119415283,-0.6682835977054832,-1.101295320973522,2.0100111692756504,-0.6999571323394775,0.6196396946907043,-0.35511505603790283,1.4902340173721313,-1.3981761932373047,-0.9191378355026245
4.0800111293792725,-0.048671722412109375,0.11256599426269531,0.16974782943725586,-0.6343252692117428,-1.1164600964121758,2.0349181794478723,-0.7237586975097656,0.5926342010498047,-0.35349413752555847,1.7364318370819092,-1.528665542602539,-1.2213735580444336
4.100011110305786,-0.04684406518936157,0.011416971683502197,0.2750718593597412,-0.5991750587165899,-1.12984869815085,2.0580410863425564,-0.7468113303184509,0.5639614462852478,-0.3524491488933563,1.4278484582901,-1.126189947128296,-1.0532864332199097
4.120010137557983,0.03428161144256592,-0.1002923846244812,0.2711229920387268,-0.5744547369359709,-1.1387668325589229,2.076996358634571,-0.7623547315597534,0.5433771014213562,-0.3515062928199768,1.0673182010650635,-0.8491073846817017,-0.5186134576797485
4.140010118484497,0.09237563610076904,-0.06754201650619507,0.30047401785850525,-0.5609838588781896,-1.1441421716540545,2.093660829361613,-0.770827054977417,0.5320194959640503,-0.35040074586868286,0.8256852626800537,-0.6006743311882019,-0.18122605979442596
4.1600470542907715,0.11025881767272949,-0.004916191101074219,0.22463485598564148,-0.5507403465694868,-1.1468115306447006,2.1104699144028847,-0.7766863107681274,0.5233182311058044,-0.3505655825138092,1.019935131072998,-0.6454152464866638,-0.2022484689950943
4.180063009262085,0.17267078161239624,0.041309237480163574,0.16106772422790527,-0.5353515333669675,-1.1502411183123409,2.1363181290480884,-0.7851433157920837,0.5101433992385864,-0.3511464297771454,1.6258912086486816,-1.0185755491256714,-0.29469820857048035
4.2001869678497314,0.18926191329956055,0.05096966028213501,0.21278896927833557,-0.514647390971206,-1.1558804444344628,2.170163027329209,-0.7966074347496033,0.4922279417514801,-0.3508962392807007,1.8143051862716675,-1.2242317199707031,-0.4325914978981018
4.220047950744629,0.12501299381256104,-0.006957292556762695,0.2705037593841553,-0.49273468579634194,-1.1642112633819948,2.2020809595920703,-0.809217095375061,0.4730370342731476,-0.3484303951263428,1.5916976928710938,-1.109182357788086,-0.40876519680023193
4.240025997161865,0.08302003145217896,-0.03154531121253967,0.23532792925834656,-0.47541558326754585,-1.1713788187043115,2.2299631079447746,-0.8191191554069519,0.4577079713344574,-0.3457557260990143,1.3859535455703735,-0.9280674457550049,-0.2479752153158188
4.260074853897095,0.05240863561630249,0.018604278564453125,0.17459526658058167,-0.4585048368442694,-1.1780039131336975,2.256528426044629,-0.8284247517585754,0.4426078796386719,-0.3432353734970093,1.5234204530715942,-0.9738444089889526,-0.42607590556144714
4.280120134353638,0.0008277297019958496,0.060696929693222046,0.16305962204933167,-0.4370303625284653,-1.1858524715345231,2.283552707813943,-0.8397100567817688,0.42325079441070557,-0.3402141332626343,1.5013978481292725,-1.003319263458252,-0.6742804050445557
4.300047159194946,-0.007325589656829834,-0.004931658506393433,0.19133692979812622,-0.41252934924339185,-1.1972971996741313,2.3069108667000044,-0.8529496788978577,0.4009277820587158,-0.3342660069465637,1.2989414930343628,-1.1076323986053467,-0.7450538277626038
4.32005500793457,-0.009094297885894775,-0.034485071897506714,0.32151344418525696,-0.3905442425111894,-1.214347832741621,2.3230342419356735,-0.8665770292282104,0.3806917369365692,-0.3226730525493622,0.9535943269729614,-1.194315791130066,-0.8582894802093506
4.339258909225464,-0.1767333745956421,-0.1007017195224762,0.4192330837249756,-0.3639475925691963,-1.2330642773211924,2.3343809549127617,-0.8817077279090881,0.3559660315513611,-0.3096444606781006,1.0023945569992065,-1.0969679355621338,-1.2997723817825317
4.3600029945373535,-0.4407042860984802,-0.17907235026359558,0.3027424216270447,-0.328938955778366,-1.250755954218203,2.347966134963407,-0.8983307480812073,0.32303905487060547,-0.2977375388145447,1.3531352281570435,-1.203187108039856,-1.5757192373275757
4.380035161972046,-0.7356448173522949,-0.11497095227241516,0.2733749449253082,-0.2877486880953063,-1.269614026183954,2.365043689978711,-0.9157222509384155,0.28379419445991516,-0.28445279598236084,1.392263412475586,-1.0757611989974976,-1.8544589281082153
4.400010824203491,-0.7543244957923889,-0.13924869894981384,0.38295063376426697,-0.24494702958320513,-1.2828756876672482,2.378667511572693,-0.9302152395248413,0.24250493943691254,-0.2754829227924347,1.0740365982055664,-0.6419939994812012,-1.7869383096694946
4.420016050338745,-0.7592688798904419,-0.14450545608997345,0.3057158291339874,-0.20988588611844397,-1.291305945245594,2.3875551268790614,-0.9401025176048279,0.20834828913211823,-0.2698119282722473,0.8233357071876526,-0.381297767162323,-1.2784947156906128
4.440018892288208,-0.7333492040634155,-0.010923579335212708,0.3819355070590973,-0.18853702415913426,-1.2921825386571386,2.396175264309283,-0.9444004893302917,0.18742205202579498,-0.2701496183872223,0.5956140756607056,0.11034315824508667,-0.639741063117981
4.460011959075928,-0.6812032461166382,-0.02017611265182495,0.5193121433258057,-0.17693589893725623,-1.2818629475511722,2.4076536124255075,-0.943583071231842,0.17601414024829865,-0.2804815173149109,0.8339390158653259,0.717409610748291,-0.13698072731494904
4.480059862136841,-0.6648879051208496,-0.23543603718280792,0.49473896622657776,-0.17548326465329223,-1.256270503994939,2.427973676096825,-0.9363387823104858,0.17458400130271912,-0.30461442470550537,1.1654611825942993,1.5154608488082886,0.48938825726509094
4.500012159347534,-0.7203885316848755,-0.33331143856048584,0.21659910678863525,-0.1892983622548891,-1.227316268442685,2.445886550760423,-0.924768328666687,0.18816983699798584,-0.33075007796287537,0.011290913447737694,0.8622616529464722,1.3157074451446533
4.520012140274048,-0.6608548164367676,-0.33809974789619446,0.23957836627960205,-0.21541807354618225,-1.213015762019811,2.449042565713303,-0.9150269627571106,0.21375586092472076,-0.3421021103858948,-0.6320295333862305,0.5026246309280396,1.2511943578720093
4.54000997543335,-0.7256224155426025,-0.3747870922088623,0.13360828161239624,-0.25068011339960344,-1.211770523102862,2.4394717419471466,-0.9069764018058777,0.2480628788471222,-0.34038013219833374,-1.416872501373291,-0.03392445296049118,1.827394723892212
4.560013055801392,-1.021094560623169,-0.24467355012893677,0.2856161594390869,-0.301481202114876,-1.2044070839070093,2.4246329882667412,-0.8915182948112488,0.29693493247032166,-0.3420889377593994,-1.7939462661743164,1.5088443756103516,2.4057722091674805
4.579241991043091,-1.2636816501617432,-0.06672686338424683,0.0276910662651062,-0.3613759007092677,-1.1720321183724682,2.4079592583204774,-0.8620203137397766,0.3535616099834442,-0.3632012903690338,-1.6277936697006226,1.8799774646759033,2.4827513694763184
4.600045919418335,-1.0011177062988281,0.05388385057449341,-0.03194636106491089,-0.4161543395593741,-1.1393996791295447,2.4086094566292635,-0.8308523893356323,0.4042460024356842,-0.38245174288749695,-0.6869012117385864,1.4010974168777466,2.62909197807312
4.620012998580933,-0.9357663989067078,-0.09249356389045715,0.1723218560218811,-0.4705015719824841,-1.109055372718507,2.418254029066473,-0.7979982495307922,0.45333340764045715,-0.3970990478992462,-0.8997808694839478,1.2343655824661255,2.600010871887207
4.639723062515259,-0.9488998651504517,-0.12211182713508606,0.11654418706893921,-0.523523392956987,-1.081477006380552,2.4278890009391403,-0.7644332647323608,0.49993470311164856,-0.4070715010166168,-0.7486816048622131,1.0819976329803467,2.5151290893554688
4.660048961639404,-0.8890824913978577,0.011458218097686768,0.08697527647018433,-0.5718452746965685,-1.0547185071027803,2.4400369736821976,-0.7313857078552246,0.541184663772583,-0.4149630069732666,-0.7291169762611389,0.978062093257904,2.2367913722991943
4.680011034011841,-0.7602185010910034,-0.029306411743164062,0.06704169511795044,-0.6178812714791685,-1.0343922967817238,2.4453031025207443,-0.7006274461746216,0.5793094635009766,-0.41655948758125305,-1.2502577304840088,0.7748200297355652,1.9638372659683228
4.700011968612671,-0.6530691385269165,-0.004579365253448486,0.08818316459655762,-0.6647581671434991,-1.0233332129330894,2.4378031633531996,-0.6720346212387085,0.616868793964386,-0.40968582034111023,-1.685182809829712,0.8117769956588745,1.7763720750808716
4.720082998275757,-0.544414758682251,0.09477049112319946,0.06358054280281067,-0.7108764050196043,-1.018247367992437,2.4213944702412356,-0.6450230479240417,0.6524981260299683,-0.3977327048778534,-1.689133882522583,0.7342896461486816,1.4769566059112549
4.740020990371704,-0.4130997061729431,0.16510754823684692,0.041348397731781006,-0.7474720223732999,-1.0151985688793292,2.4057717932147105,-0.6230941414833069,0.6797869205474854,-0.3868378698825836,-1.1838972568511963,0.6238882541656494,1.0319342613220215
4.760073900222778,-0.2644115686416626,0.0682249665260315,0.057560354471206665,-0.7727217542183633,-1.0139486061028735,2.3930056487324336,-0.6078417301177979,0.6980866193771362,-0.3784221410751343,-1.0545934438705444,0.41488245129585266,0.6449306011199951
4.7800281047821045,-0.16364622116088867,-0.03509187698364258,0.1088469922542572,-0.7947388354861955,-1.023939372237041,2.3696816869512025,-0.5983166098594666,0.7136806845664978,-0.3642485439777374,-1.548865795135498,0.2485482543706894,0.3675912022590637
4.800010919570923,-0.0757647156715393,-0.13218605518341064,0.1464051604270935,-0.8172434949090404,-1.0488235461012285,2.3294275125682367,-0.5931195616722107,0.7292625308036804,-0.3411530554294586,-2.0624523162841797,0.11602660268545151,0.15955382585525513
4.820013046264648,0.0014153122901916504,-0.08757954835891724,0.23922011256217957,-0.8403584312381591,-1.095352707579524,2.2649216801940586,-0.5931968688964844,0.7448822855949402,-0.3053974509239197,-2.8699147701263428,0.012138999998569489,-0.24281468987464905
4.840039968490601,-0.07005524635314941,-0.016484439373016357,0.09742337465286255,-0.8587229471156512,-1.1616957078848882,2.180632922674822,-0.5994851589202881,0.7570087313652039,-0.25991418957710266,-2.8509957790374756,-0.3052307963371277,-0.40134212374687195
4.860116958618164,-0.10100597143173218,0.26204466819763184,0.027299582958221436,-0.8703450873407659,-1.2199294513311076,2.1092458824613822,-0.6052928566932678,0.7645514011383057,-0.22154395282268524,-1.7999008893966675,-0.11400251090526581,-0.28382304310798645
4.880110025405884,-0.010444223880767822,0.408130407333374,-0.0036781132221221924,-0.8704425111747789,-1.2578331513585126,2.0644777835247647,-0.6131824254989624,0.7646142244338989,-0.19842451810836792,-1.0444051027297974,-0.19299018383026123,-0.6713332533836365
4.900019884109497,0.166437566280365,0.21334779262542725,0.007541880011558533,-0.8617342163246597,-1.2878048198696537,2.02793350326514,-0.6252235770225525,0.7589728832244873,-0.18181250989437103,-1.083266019821167,-0.041299548000097275,-0.802825927734375
4.919822931289673,0.29851752519607544,0.04169619083404541,0.09969073534011841,-0.8542060268982185,-1.3211372280545248,1.980490657953802,-0.6364539265632629,0.7540496587753296,-0.16228227317333221,-1.7729113101959229,0.35791459679603577,-0.7500283122062683
4.9400880336761475,0.4154062271118164,0.055584073066711426,0.12604184448719025,-0.8497300095871753,-1.3576743903792157,1.915867520841524,-0.6452493071556091,0.7511022090911865,-0.13963736593723297,-2.214367151260376,0.7662529349327087,-0.6475025415420532
4.960011005401611,0.4726448059082031,0.2610694169998169,0.04632509499788284,-0.846783779587792,-1.3893644479123828,1.8512368712217413,-0.6515235304832458,0.7491538524627686,-0.11952147632837296,-1.915183663368225,0.9144504070281982,-0.5290061235427856
4.980015993118286,0.46475499868392944,0.3870830535888672,0.04989279806613922,-0.8397986026799397,-1.4043759083068716,1.8025144136361606,-0.6583889722824097,0.744508683681488,-0.11059223860502243,-1.0832772254943848,1.2772904634475708,-0.6618842482566833
4.999972105026245,0.546412467956543,0.2377822995185852,0.07924044132232666,-0.8294943180900552,-1.3990018615844024,1.7724330862505397,-0.6653088927268982,0.7375900149345398,-0.11543424427509308,-0.8442460298538208,1.5193887948989868,-0.6654893159866333
5.020051956176758,0.719725489616394,0.04383927583694458,0.16517150402069092,-0.8234411895005622,-1.3885180496164506,1.7402297030047342,-0.6684406399726868,0.7334891557693481,-0.12320980429649353,-1.2834752798080444,1.8888128995895386,-0.29351189732551575
5.040014028549194,0.8337964415550232,0.0698731541633606,0.12949734926223755,-0.8274423788752882,-1.384367040277564,1.6942819584875641,-0.6650341749191284,0.7362028956413269,-0.12543846666812897,-1.6909946203231812,1.8065805435180664,0.057203955948352814
5.060014009475708,0.8469542860984802,0.046160757541656494,0.07675701379776001,-0.8362102793442799,-1.3811613664708984,1.6500825711400087,-0.6582641005516052,0.7421082854270935,-0.126348078250885,-1.4363700151443481,1.8510700464248657,0.2318299263715744
5.079365968704224,0.875108003616333,-0.06867015361785889,0.08725418150424957,-0.8462267982764055,-1.370198141740116,1.6146030747303957,-0.6495220065116882,0.7487848401069641,-0.1320691704750061,-1.007047176361084,1.8565551042556763,0.3345663249492645
5.100011110305786,0.9434601664543152,-0.08422017097473145,0.05303661525249481,-0.8595905861616495,-1.3518915155891085,1.5923822195560575,-0.6371705532073975,0.7575753927230835,-0.14175117015838623,-0.7885082960128784,1.5810520648956299,0.6636866331100464
5.120023012161255,0.9080322980880737,-0.13072645664215088,0.008531764149665833,-0.8769674616378483,-1.33614362467707,1.577135242869636,-0.621960461139679,0.7688031792640686,-0.14868371188640594,-0.611648678779602,1.2697699069976807,0.8252946734428406
5.140020132064819,0.8666852116584778,-0.2322460412979126,-0.029121890664100647,-0.8966042865705535,-1.3236788606209735,1.560379367463861,-0.6053022146224976,0.7812116146087646,-0.15270182490348816,-0.8054280281066895,1.2200696468353271,0.7821573615074158
5.1600120067596436,0.9147289395332336,-0.3542332649230957,-0.1299523115158081,-0.9141659350687111,-1.3179661278641586,1.541934555738931,-0.5910442471504211,0.7920536994934082,-0.1527014970779419,-0.7996639013290405,0.766430675983429,0.6449896693229675
5.180023908615112,0.9821784496307373,-0.37591552734375,-0.16875167191028595,-0.9277074864371516,-1.3245049572285186,1.5229203645168072,-0.5815742611885071,0.800247311592102,-0.14620497822761536,-0.49425068497657776,0.0550796315073967,0.38802194595336914
5.200021982192993,1.0033754110336304,-0.46260613203048706,-0.22848404943943024,-0.9355695130424443,-1.326434751950313,1.5252262906670313,-0.5757326483726501,0.8049371242523193,-0.14355574548244476,0.4468238651752472,-0.24772755801677704,0.4683477282524109
5.220047950744629,0.9073773622512817,-0.602705180644989,-0.2326410412788391,-0.9443792265157764,-1.3068742459823977,1.5491717457470788,-0.5659466981887817,0.810133159160614,-0.1529332846403122,0.3917677104473114,0.3435641825199127,0.6891467571258545
5.240012884140015,0.8009954690933228,-0.7385274171829224,-0.32523345947265625,-0.9574129992087438,-1.3016745197523416,1.542313982753323,-0.5549169182777405,0.8177051544189453,-0.15305323898792267,-1.1454992294311523,0.5579429864883423,0.4077049493789673
5.260028123855591,0.8567871451377869,-0.3194594979286194,-0.4252933859825134,-0.9711450612292878,-1.332844251610733,1.5008107461611206,-0.5484527945518494,0.8255324959754944,-0.13302570581436157,-1.0431557893753052,-0.32327115535736084,0.4226335883140564
5.280012845993042,0.6233832836151123,0.6297779679298401,-0.5674249529838562,-0.9741195519556922,-1.3344859746025381,1.5162116253252131,-0.5462806224822998,0.8272075057029724,-0.1315496265888214,2.187366485595703,-0.9496646523475647,-0.24561306834220886
5.300012826919556,0.14169538021087646,0.21041959524154663,-0.09631657600402832,-0.9381863533689834,-1.260869449664078,1.6200779798421863,-0.5630820989608765,0.8064870834350586,-0.18032528460025787,3.913302421569824,0.07008317112922668,-1.362638235092163
5.32000994682312,0.44309526681900024,-0.3089846968650818,0.24961012601852417,-0.8890174566779442,-1.1805873220980834,1.7119481707073556,-0.5828047394752502,0.7764529585838318,-0.23970715701580048,2.8534369468688965,0.16290907561779022,-1.2872244119644165
5.340101957321167,0.5387779474258423,-0.524522602558136,0.150797039270401,-0.8444962915774198,-1.1504017304920726,1.7591099422181578,-0.6062828898429871,0.7476366758346558,-0.271036297082901,1.8504126071929932,-0.7205788493156433,-1.541355848312378
5.360061883926392,0.2835928797721863,-0.36350470781326294,0.11975890398025513,-0.8072765724937703,-1.1640877655454551,1.7776866246957783,-0.6350638270378113,0.7224066853523254,-0.2735369801521301,0.8893526196479797,-1.7489826679229736,-1.4937107563018799
5.380016088485718,-0.21059107780456543,-0.2931702733039856,0.25832802057266235,-0.7675011109139959,-1.1969735726282609,1.7760614685193694,-0.6699478626251221,0.6943390965461731,-0.26279881596565247,0.4290969967842102,-1.3178212642669678,-2.2561166286468506
5.400012969970703,-0.4874405264854431,-0.27014458179473877,0.4163994789123535,-0.7191429412607082,-1.2346704334979124,1.755519925160976,-0.7102675437927246,0.6587401032447815,-0.24815607070922852,-0.003191329538822174,-1.0916705131530762,-2.8245673179626465
5.420015096664429,-0.7202731370925903,0.006055653095245361,0.33238595724105835,-0.6562565319261833,-1.2589819804838092,1.7450293604324194,-0.7540767788887024,0.6101552248001099,-0.24306096136569977,1.4642910957336426,-0.7437773942947388,-3.3723697662353516
5.4400341510772705,-0.8859124183654785,0.25500625371932983,0.16087153553962708,-0.57345793899031,-1.266309046391948,1.769644077576895,-0.8013891577720642,0.5425400733947754,-0.2518443763256073,2.8579235076904297,-1.5461496114730835,-3.9375648498535156
5.460026979446411,-1.1372215747833252,0.1513899862766266,0.14971515536308289,-0.47837231725437096,-1.2810431772112767,1.8135260824962847,-0.8507391214370728,0.46033480763435364,-0.253642737865448,3.354515790939331,-1.982556939125061,-3.8820555210113525
5.480018854141235,-1.5360443592071533,0.2846112549304962,0.19685125350952148,-0.3928341246690403,-1.3006273375888593,1.8552227821401015,-0.8903167843818665,0.3828081786632538,-0.24656438827514648,2.4475085735321045,-1.6504943370819092,-3.3688814640045166
5.500064134597778,-1.0612552165985107,0.25692811608314514,-0.03242611885070801,-0.3285886562814338,-1.316992287678054,1.8770107814675245,-0.916176974773407,0.32270750403404236,-0.2376544177532196,1.0364482402801514,-0.6767855882644653,-2.04272723197937
5.520013093948364,-0.4990748167037964,0.15585732460021973,0.03343100845813751,-0.3094137995251415,-1.3236220812623543,1.8650328343198963,-0.9235630631446838,0.3045003116130829,-0.23304644227027893,-1.7221747636795044,0.29723837971687317,-0.23987844586372375
5.540014982223511,-0.15078848600387573,0.13079878687858582,0.09887701272964478,-0.33062083002111525,-1.3282275333146212,1.8111962226783698,-0.9181507229804993,0.3246302902698517,-0.22718816995620728,-3.4375507831573486,0.8294633626937866,1.079944133758545
5.560042142868042,-0.04828000068664551,0.2718966007232666,-0.08088546991348267,-0.3781167460938268,-1.3346244097584996,1.752329761813901,-0.9035632610321045,0.3691709041595459,-0.21745437383651733,-2.7456374168395996,0.4815176725387573,2.088392496109009
5.580065965652466,-0.20059096813201904,0.248683899641037,-0.22376471757888794,-0.430372801711753,-1.3387944995084062,1.7252977481411542,-0.8844614624977112,0.4172096252441406,-0.20895926654338837,-0.9279565811157227,0.2735667824745178,2.3583617210388184
5.600031137466431,-0.3870616555213928,0.033935546875,-0.2793557643890381,-0.4757013288992104,-1.3303427795536238,1.7316276839991065,-0.8633961081504822,0.4579620361328125,-0.21170252561569214,0.27443721890449524,0.3002176582813263,2.1702964305877686
5.620013952255249,-0.394292414188385,-0.1422123908996582,-0.21488624811172485,-0.5157412034614653,-1.313143366569163,1.7513609456246397,-0.84121173620224,0.4931797683238983,-0.22166767716407776,0.2201826423406601,0.5431233048439026,2.17580246925354
5.640014886856079,-0.3926399350166321,-0.2869044542312622,-0.15800851583480835,-0.5568469345517508,-1.2958115850071648,1.7593529527976466,-0.8170310854911804,0.5285121202468872,-0.23051072657108307,-0.6733548641204834,0.7631052732467651,1.975667119026184
5.660017967224121,-0.26291173696517944,-0.3381824493408203,-0.19567584991455078,-0.5997359300551247,-1.2856064802745806,1.7474517172336217,-0.7921419739723206,0.5644245147705078,-0.23224157094955444,-1.3943639993667603,0.9013105034828186,1.8610482215881348
5.6800148487091064,-0.13930463790893555,-0.2410697340965271,-0.17977643013000488,-0.6428555543590652,-1.2810393285865198,1.722687274148344,-0.767021656036377,0.5994834303855896,-0.22868609428405762,-1.759990930557251,0.9603676199913025,1.7080588340759277
5.700016975402832,-0.03556942939758301,-0.18960195779800415,-0.18304145336151123,-0.68381626484527,-1.2814037943704415,1.69127447088767,-0.742933988571167,0.6317558884620667,-0.2212096005678177,-1.6860229969024658,0.9601717591285706,1.5504536628723145
5.720013856887817,0.051528215408325195,-0.10473620891571045,-0.2832501232624054,-0.7222867089776845,-1.278795446069029,1.6683580055762244,-0.7185356020927429,0.6611021161079407,-0.21598687767982483,-1.0117428302764893,0.6813309192657471,1.645869493484497
5.740041971206665,0.03462421894073486,-0.008903026580810547,-0.370429664850235,-0.7557837662154627,-1.2702621571010633,1.667039665188611,-0.6951161623001099,0.6858592629432678,-0.21543154120445251,-0.19133460521697998,0.349153071641922,1.5305930376052856
5.760011911392212,-0.03343486785888672,-0.06644934415817261,-0.25344741344451904,-0.7820346067301355,-1.2535861969439597,1.6794617121791593,-0.6740846037864685,0.7047243714332581,-0.22129927575588226,0.21413779258728027,0.5243847966194153,1.237200379371643
5.780014991760254,-0.06742006540298462,-0.18448609113693237,-0.1989205926656723,-0.8035946756744798,-1.228272545564424,1.6942023184083033,-0.6538017988204956,0.7198559045791626,-0.2331319898366928,-0.0737280622124672,0.9310217499732971,1.1739494800567627
5.80003809928894,-0.014270305633544922,-0.21874523162841797,-0.17636726796627045,-0.8262682063706348,-1.2068352059239624,1.6958769857699616,-0.6332363486289978,0.7354077696800232,-0.24121996760368347,-0.5127753019332886,1.0868135690689087,0.9923363924026489
5.820013999938965,0.042840421199798584,-0.189833402633667,-0.1981959342956543,-0.8485679086227773,-1.189115649061523,1.6899694774487575,-0.6134886145591736,0.7503345012664795,-0.24623152613639832,-0.6736883521080017,1.1148568391799927,0.9686638116836548
5.840039968490601,0.02117687463760376,-0.1643790602684021,-0.15971408784389496,-0.870892085125516,-1.173088820889663,1.6806650459237604,-0.593869686126709,0.7649038434028625,-0.24948081374168396,-0.7056325078010559,1.2291358709335327,0.8589828610420227
5.860016107559204,-0.03344351053237915,-0.13713765144348145,-0.10441747307777405,-0.8905158328419777,-1.1539067847258504,1.6712558230236751,-0.5751379728317261,0.7773963212966919,-0.25469809770584106,-0.6081604957580566,1.4250584840774536,0.7085888981819153
5.880016088485718,-0.013260722160339355,-0.13588792085647583,-0.04722204804420471,-0.906097553140109,-1.1269909394241333,1.6659135014382487,-0.5570670962333679,0.7871026396751404,-0.2648506760597229,-0.35860732197761536,1.683943510055542,0.6028233170509338
5.900053024291992,0.06275469064712524,-0.15263330936431885,-0.052431076765060425,-0.919960334360136,-1.0954789048001599,1.6635804549689148,-0.538691520690918,0.7955775856971741,-0.2772502899169922,-0.409036785364151,1.5776715278625488,0.5434948801994324
5.920014142990112,0.08638525009155273,-0.17342787981033325,-0.03347441554069519,-0.9318860580993521,-1.0669131901955944,1.6597340517165684,-0.522206723690033,0.802746057510376,-0.2879214286804199,-0.39921849966049194,1.584505319595337,0.45657989382743835
5.940037965774536,0.0972604751586914,-0.14321690797805786,-0.04116871953010559,-0.9443003330663672,-1.0417868449389487,1.6539914434803318,-0.5061654448509216,0.8100869059562683,-0.29589787125587463,-0.5378724932670593,1.383813500404358,0.42733412981033325
5.959990978240967,0.08868128061294556,-0.10793799161911011,-0.04211229085922241,-0.9542312477143176,-1.0235875483202723,1.644352366102512,-0.49380216002464294,0.8158694505691528,-0.3008594810962677,-0.4346988797187805,1.2538028955459595,0.19165465235710144
5.979971170425415,0.1186608076095581,-0.10205000638961792,-0.020504027605056763,-0.9617692848473607,-1.0062420408659922,1.636143792304925,-0.4833001494407654,0.82020503282547,-0.3060798645019531,-0.3918741047382355,1.1712909936904907,0.2158157229423523
5.9999730587005615,0.09311878681182861,-0.05020970106124878,-0.020835131406784058,-0.9685935287876654,-0.9876695435796061,1.6299739067945562,-0.4728490710258484,0.8240898251533508,-0.31191328167915344,-0.26571983098983765,1.1991307735443115,0.15614846348762512
6.0200560092926025,0.08928468823432922,0.006291747093200684,-0.03470602631568909,-0.9725947745482856,-0.9676673961460687,1.6260999621495016,-0.46379637718200684,0.8263497352600098,-0.31943514943122864,-0.14243213832378387,1.1281582117080688,0.06712235510349274
6.039721965789795,0.11027780175209045,0.0015990734100341797,-0.01718190312385559,-0.9749436203424945,-0.94659309560754,1.624784207722124,-0.45538580417633057,0.8276702761650085,-0.328002393245697,-0.08032038807868958,1.0976417064666748,0.08346406370401382
6.060089826583862,0.10803645849227905,-0.03225255012512207,-0.005345970392227173,-0.9779001143080057,-0.9260622791792418,1.6227457728730994,-0.44659847021102905,0.8293258547782898,-0.33581000566482544,-0.25906312465667725,1.1171176433563232,0.09975370764732361
6.080080032348633,0.1071324348449707,-0.04600018262863159,-0.0013611316680908203,-0.9843750927180258,-0.9138935786324156,1.6117159374874372,-0.4382176697254181,0.8329264521598816,-0.3379333019256592,-0.5821197628974915,1.0334776639938354,0.027536943554878235
6.100039005279541,0.13185492157936096,-0.06308454275131226,-0.01142016053199768,-0.9936114445564191,-0.909450536220349,1.5928277386827538,-0.4306219816207886,0.83800208568573,-0.33513739705085754,-0.8506242632865906,0.965698778629303,0.08222422003746033
6.12001895904541,0.15234261751174927,-0.04883992671966553,0.0026138722896575928,-1.006247322594401,-0.914367573444329,1.5664274727551564,-0.42384231090545654,0.8448299765586853,-0.3265274167060852,-0.9954140782356262,0.7753412127494812,0.01759326085448265
6.139961004257202,0.11742532253265381,0.055816650390625,-0.019112050533294678,-1.0158231014064436,-0.9246825016466884,1.5384920793711543,-0.4207090437412262,0.84991455078125,-0.31725263595581055,-0.7346994280815125,0.5515832304954529,-0.1961059719324112
6.160015821456909,0.09668391942977905,0.1341186761856079,-0.03395557403564453,-1.0165300347247668,-0.937657493283188,1.51319969388303,-0.42430537939071655,0.8502868413925171,-0.3114118278026581,-0.390500545501709,0.30288392305374146,-0.5075174570083618
6.180068016052246,0.08173972368240356,0.18093103170394897,-0.06052589416503906,-1.0122858579412468,-0.9526150431720465,1.4917409365734142,-0.43185263872146606,0.8480454087257385,-0.30711930990219116,-0.3341916501522064,0.03286176547408104,-0.4591246247291565
6.200016975402832,0.017167329788208008,0.21110892295837402,-0.049042195081710815,-1.010912689011192,-0.9699818507463319,1.4718050444332644,-0.4380809962749481,0.8473169207572937,-0.3002314269542694,-0.4703621566295624,-0.045282572507858276,-0.2387433499097824
6.22002387046814,0.011203378438949585,0.17366927862167358,0.008837640285491943,-1.0143309165430274,-0.9851165750437776,1.4536847574103435,-0.440158486366272,0.8491273522377014,-0.29196444153785706,-0.49025461077690125,0.09465997666120529,-0.03283073008060455
6.239967107772827,0.08001893758773804,0.07040292024612427,0.023762881755828857,-1.0190189009313573,-0.9937354401806315,1.440584469600698,-0.4393176734447479,0.8515941500663757,-0.28598517179489136,-0.3229672312736511,0.09029807150363922,0.017611872404813766
6.2599828243255615,0.13157996535301208,0.030044138431549072,-0.005142390727996826,-1.0202995694599861,-0.9978134683111677,1.4364191582668502,-0.4395633935928345,0.8522647619247437,-0.28359970450401306,0.0928029790520668,-0.15065079927444458,-0.04528583213686943
6.280049085617065,0.12504681944847107,0.059834420680999756,-0.01646372675895691,-1.0150036893197836,-0.9955077997483346,1.4449805827460083,-0.44268903136253357,0.8494824767112732,-0.2870640158653259,0.5228959321975708,-0.3375832438468933,-0.14610861241817474
6.299980878829956,0.10083559155464172,0.04162973165512085,0.03168180584907532,-1.0066172929978001,-0.9913559477203095,1.458726562966969,-0.4474389851093292,0.8450278639793396,-0.29279014468193054,0.47846683859825134,-0.38761672377586365,-0.14906194806098938
6.320020914077759,0.05216309428215027,0.006139516830444336,0.07317641377449036,-1.0009324703834264,-0.9900265149629646,1.4680390676963708,-0.45105835795402527,0.8419744372367859,-0.29601573944091797,0.23431745171546936,-0.24287492036819458,-0.04430806636810303
6.340044021606445,0.017130106687545776,0.037927865982055664,0.08698871731758118,-0.9988631334640634,-0.9885218817308483,1.4731197108125986,-0.4520666003227234,0.8408561944961548,-0.2976515293121338,0.1496642529964447,-0.038100555539131165,-0.006943870335817337
6.360037088394165,0.047745585441589355,0.03811389207839966,0.08363118767738342,-0.9966065149195276,-0.9828058301203048,1.478829369940254,-0.45193561911582947,0.8396326303482056,-0.30128252506256104,0.24496117234230042,0.09137017279863358,-0.012085238471627235
6.380017042160034,0.11078807711601257,-0.03291678428649902,0.0856185257434845,-0.9930502789891053,-0.9727037530635614,1.4885085658920252,-0.4513337314128876,0.8376957178115845,-0.3075118362903595,0.3664659559726715,0.09866954386234283,0.006220236420631409
6.400014162063599,0.14342084527015686,-0.08767706155776978,0.0959649384021759,-0.9883668526467639,-0.9605181882867292,1.5007930796987847,-0.4507633447647095,0.8351287841796875,-0.31523367762565613,0.4394051730632782,0.07752794772386551,0.004309299401938915
6.4200990200042725,0.1580674648284912,-0.11571550369262695,0.09386259317398071,-0.983379373942807,-0.9487766102219035,1.5140098642063318,-0.4504106044769287,0.8323749899864197,-0.3229275345802307,0.4536541998386383,0.0029280134476721287,0.006332671735435724
6.440016031265259,0.169297456741333,-0.12645024061203003,0.10230791568756104,-0.9785925078137395,-0.9392733096769998,1.5258557698772095,-0.4505322277545929,0.8297125697135925,-0.32954180240631104,0.33458030223846436,-0.050491269677877426,-0.011399625800549984
6.4600160121917725,0.16712555289268494,-0.12958472967147827,0.1036304235458374,-0.9749236105715561,-0.9344464418196202,1.5330938741687512,-0.45138153433799744,0.827659010887146,-0.3335193395614624,0.21699762344360352,-0.05256924778223038,-0.04354945197701454
6.480046987533569,0.17358624935150146,-0.10639560222625732,0.08958333730697632,-0.9715952071073894,-0.9325533466203957,1.5371765416902032,-0.45295944809913635,0.8257864117622375,-0.33601272106170654,0.20043198764324188,-0.11009414494037628,-0.09803562611341476
6.500056982040405,0.1789584457874298,-0.05374622344970703,0.06498908996582031,-0.9662744083404513,-0.931752664217644,1.5420494858426632,-0.4562106430530548,0.8227739334106445,-0.3389911651611328,0.35698941349983215,-0.22239777445793152,-0.16516023874282837
6.5200440883636475,0.15987619757652283,0.006245255470275879,0.04693526029586792,-0.9574285827870336,-0.9289023941328993,1.5515916058255648,-0.4610542058944702,0.8177140951156616,-0.3446342349052429,0.5955658555030823,-0.2717137634754181,-0.20714135468006134
6.5400168895721436,0.13904333114624023,0.030322372913360596,0.033406615257263184,-0.9465403159351152,-0.9249074971110347,1.5639911535940603,-0.46675634384155273,0.8113982081413269,-0.3518117666244507,0.5957847833633423,-0.32906094193458557,-0.23568671941757202
6.560042142868042,0.11807394027709961,0.02076476812362671,0.03726711869239807,-0.9368254343921936,-0.9234824029191532,1.573121921490303,-0.4725203216075897,0.8056817054748535,-0.3572133779525757,0.3922145962715149,-0.2519376575946808,-0.20682480931282043
6.580016851425171,0.12007921934127808,0.02108985185623169,0.03226640820503235,-0.9310697969011867,-0.925838792531776,1.5753835649666597,-0.4770585894584656,0.8022590279579163,-0.35888075828552246,0.07286788523197174,-0.17472738027572632,-0.1844937801361084
6.600016832351685,0.13720646500587463,0.01826179027557373,0.01321062445640564,-0.9286032378661929,-0.9326034062681722,1.5706675658396498,-0.48106324672698975,0.8007841110229492,-0.35682326555252075,-0.13527634739875793,-0.1386682689189911,-0.1847686469554901
6.620023965835571,0.1296508014202118,0.059636592864990234,-0.022182732820510864,-0.9268084195686451,-0.9417997943492706,1.5630349327201079,-0.4854857623577118,0.79970782995224,-0.35322922468185425,-0.08455528318881989,-0.177436962723732,-0.2365729957818985
6.640053033828735,0.0916147232055664,0.10199236869812012,-0.041667401790618896,-0.9229849373453122,-0.9495543134905076,1.5580696948630426,-0.4906931221485138,0.7974064350128174,-0.3512311279773712,0.046850331127643585,-0.18404355645179749,-0.2543725371360779
6.660015821456909,0.035827577114105225,0.09296822547912598,-0.03625589609146118,-0.9179044554919027,-0.9569048193997384,1.5525920860074056,-0.4965667128562927,0.794330358505249,-0.3499440550804138,-0.05375908687710762,-0.11527319252490997,-0.3603932857513428
6.680016040802002,0.01674717664718628,0.06262326240539551,-0.04294660687446594,-0.913263661345327,-0.9670518042120014,1.5414953602739787,-0.503121018409729,0.7915025949478149,-0.34697645902633667,-0.235073059797287,-0.025724759325385094,-0.4051068425178528
6.700026035308838,0.03010880947113037,0.07448112964630127,-0.059308409690856934,-0.9092020268641003,-0.9792113214684744,1.5262932874911936,-0.5099672675132751,0.7890137434005737,-0.34262335300445557,-0.2713128924369812,-0.010561785660684109,-0.44611889123916626
6.720033884048462,-0.0013179183006286621,0.11314612627029419,-0.07419544458389282,-0.9039556506278748,-0.9919261584741187,1.5113938088446182,-0.5177403688430786,0.7857796549797058,-0.3383716940879822,-0.18001940846443176,-0.07118864357471466,-0.5349223613739014
6.7400171756744385,-0.13156336545944214,0.19083774089813232,-0.10250785946846008,-0.8948897726072994,-1.003478891545274,1.4979700866761667,-0.5276011228561401,0.7801401019096375,-0.3361823558807373,-0.08580975979566574,-0.04225526750087738,-0.6982749700546265
6.760017156600952,-0.2502066493034363,0.3271423578262329,-0.11050912737846375,-0.8809884343946023,-1.0155770361682117,1.482533250097125,-0.5407936573028564,0.7713682651519775,-0.33545947074890137,0.035237085074186325,0.058365348726511,-0.9787667393684387
6.780027151107788,-0.15099018812179565,0.3208731412887573,-0.09599381685256958,-0.8651910079345164,-1.022537696885505,1.4695161015323186,-0.5534471273422241,0.7612191438674927,-0.3379966914653778,0.042743273079395294,0.23060573637485504,-0.7262619733810425
6.800049066543579,-0.03220033645629883,0.19202494621276855,-0.06666445732116699,-0.8570461071223772,-1.0217978022005665,1.4623643757722031,-0.5584673881530762,0.7559120059013367,-0.341630220413208,-0.012184597551822662,0.39513424038887024,-0.22735470533370972
6.820014953613281,-0.017011821269989014,0.08453881740570068,-0.058986127376556396,-0.8555373968164698,-1.0129302768066506,1.462181516975268,-0.556382954120636,0.7549234628677368,-0.3471722900867462,0.1086094006896019,0.47754743695259094,0.02935505285859108
6.840009927749634,-0.003862917423248291,-0.024065911769866943,-0.09885445237159729,-0.8528776547312338,-0.9974448339735986,1.470899712900332,-0.5526251196861267,0.7531765103340149,-0.3568339943885803,0.5878077149391174,0.37491950392723083,0.008106816560029984
6.860052824020386,-0.008621037006378174,-0.10760653018951416,-0.10740256309509277,-0.8426138290723563,-0.9747827233575255,1.4928909871927716,-0.5507661700248718,0.7463852167129517,-0.37358495593070984,1.1579194068908691,0.257700651884079,-0.08628533035516739
6.8800270557403564,-0.05875265598297119,-0.1594395637512207,-0.04360455274581909,-0.8250159086644616,-0.9479421864306063,1.521066948360646,-0.5511258840560913,0.7345585823059082,-0.395833283662796,1.3244343996047974,0.3761347830295563,-0.2782008945941925
6.900025129318237,-0.05216383934020996,-0.21173542737960815,0.0129985511302948,-0.8063202968877863,-0.9226554684657261,1.5427707355485063,-0.5517942309379578,0.7217451333999634,-0.4178599417209625,0.9061180353164673,0.5663368105888367,-0.3166349232196808
6.9200170040130615,0.00983518362045288,-0.23225802183151245,0.01571759581565857,-0.7952068616246358,-0.9043327977534188,1.55099690291481,-0.5503166913986206,0.7140084505081177,-0.4328317940235138,0.24242816865444183,0.6344691514968872,-0.2186824381351471
6.94003701210022,0.08557862043380737,-0.2141479253768921,-0.04134011268615723,-0.7920765100263586,-0.8947262511307595,1.5486577533208425,-0.5478741526603699,0.7118132710456848,-0.4394948482513428,-0.12137830257415771,0.46719351410865784,-0.16877233982086182
6.960016965866089,0.13329625129699707,-0.19184094667434692,-0.07380640506744385,-0.7897350431328813,-0.8911362212846898,1.5432556774696868,-0.5475876927375793,0.7101667523384094,-0.44250524044036865,0.034104205667972565,0.2728395462036133,-0.23900485038757324
6.980018854141235,0.1767597794532776,-0.22762036323547363,-0.028713107109069824,-0.7839399526886182,-0.8864955233592302,1.543648974164343,-0.5487080216407776,0.7060748934745789,-0.4476357400417328,0.32888853549957275,0.2111964374780655,-0.16373254358768463
6.999986886978149,0.19250375032424927,-0.2696712017059326,0.025188982486724854,-0.7792501325581852,-0.8772523921140052,1.5495614974512533,-0.5470874905586243,0.7027461528778076,-0.45480018854141235,0.23594899475574493,0.28419217467308044,0.07380235940217972
7.0200231075286865,0.1730966567993164,-0.2677222490310669,0.014036208391189575,-0.7796849376218319,-0.8668299890195188,1.5561099112072696,-0.5420846343040466,0.7030553817749023,-0.4602794051170349,0.12733376026153564,0.2712286114692688,0.23497655987739563
7.040050983428955,0.14153695106506348,-0.20698660612106323,0.0034686923027038574,-0.7804713277928003,-0.8578968965263215,1.564129387477169,-0.5375331044197083,0.7036144137382507,-0.46474185585975647,0.30613943934440613,0.06565672904253006,0.1476861983537674
7.060035943984985,0.08162045478820801,-0.22635453939437866,0.03570723533630371,-0.7772617212265255,-0.8488303558442283,1.5757069418499074,-0.534989595413208,0.7013301253318787,-0.4710862636566162,0.41389134526252747,0.05069313943386078,0.2033391296863556
7.080018997192383,0.038352131843566895,-0.22934460639953613,0.034436047077178955,-0.7761482904399547,-0.8420611067022192,1.5856904794994933,-0.5323707461357117,0.7005359530448914,-0.47521668672561646,0.263369619846344,-0.10462721437215805,0.1458885222673416
7.100020170211792,0.022822082042694092,-0.12768954038619995,0.026468545198440552,-0.774523038341024,-0.8391040808674216,1.5946171599192756,-0.5318095088005066,0.6993752717971802,-0.4775488078594208,0.285972535610199,-0.20663613080978394,0.17861834168434143
7.120039939880371,-0.020161867141723633,-0.10700154304504395,0.07361352443695068,-0.7729273150605352,-0.8369572526852431,1.6033717756664037,-0.5316112041473389,0.6982337832450867,-0.4794362783432007,0.28047800064086914,-0.16952480375766754,0.10418642312288284
7.140038013458252,0.00031435489654541016,-0.14960139989852905,0.10709848999977112,-0.7720286445333941,-0.8356675380069682,1.6089426184666438,-0.5314575433731079,0.697590172290802,-0.48054203391075134,0.06262743473052979,-0.12057536840438843,0.11331706494092941
7.1600401401519775,0.06056416034698486,-0.1509498953819275,0.09165126085281372,-0.7744033637064128,-0.8372333566412853,1.6113285913887634,-0.5309774279594421,0.6992896795272827,-0.4785988926887512,-0.11239475011825562,-0.21387167274951935,0.17509107291698456
7.180017948150635,0.07866734266281128,-0.08499473333358765,0.08483368158340454,-0.7790151812691426,-0.8433641250573408,1.610349936685285,-0.531487226486206,0.7025789618492126,-0.47318509221076965,-0.19220708310604095,-0.3347490131855011,0.11775173246860504
7.200016021728516,0.12341779470443726,-0.07298451662063599,0.06166553497314453,-0.7833322216789272,-0.8515483676380854,1.6099496712969974,-0.533055305480957,0.705644428730011,-0.46681690216064453,-0.11789620667695999,-0.4517558813095093,0.2019212692975998
7.220047950744629,0.16247856616973877,-0.05416291952133179,0.09145873785018921,-0.787205364042173,-0.858231465231978,1.61374995993843,-0.5340911149978638,0.7083835005760193,-0.4614538252353668,0.06800948083400726,-0.4837516248226166,0.24409589171409607
7.240020990371704,0.1850915551185608,-0.0236051082611084,0.10084795951843262,-0.7889008640813722,-0.8630338674341349,1.6212094049615136,-0.5353875756263733,0.7095792293548584,-0.4581019878387451,0.20537373423576355,-0.5433300137519836,0.22687828540802002
7.260015964508057,0.1807321310043335,0.017245769500732422,-0.0010551810264587402,-0.7890480846561595,-0.8690011724380525,1.6304327894006136,-0.5380319356918335,0.7096829414367676,-0.45483162999153137,0.2574808895587921,-0.7514773607254028,0.17818903923034668
7.280056953430176,0.10786396265029907,0.18501102924346924,-0.08332857489585876,-0.7848623267209991,-0.880476408202398,1.639252640409617,-0.5455012321472168,0.7067278027534485,-0.45051535964012146,0.5855729579925537,-0.9615259170532227,-0.10323091596364975
7.300019025802612,0.10030508041381836,0.21622008085250854,0.0027695894241333008,-0.770677878464613,-0.884684929391637,1.6571470728186275,-0.5550933480262756,0.6966217160224915,-0.4545212984085083,1.3053584098815918,-0.6510027647018433,-0.14532345533370972
7.320122003555298,0.14454370737075806,0.19313359260559082,0.03619164228439331,-0.7490602946489717,-0.8747854465260337,1.6856811552983708,-0.5619937181472778,0.6809508800506592,-0.4695412218570709,1.6045973300933838,-0.392809122800827,-0.2708796262741089
7.340029954910278,0.15103691816329956,0.07871192693710327,0.030869126319885254,-0.7222368089780771,-0.8643292366133896,1.7117071178903043,-0.5707451701164246,0.6610646843910217,-0.48707637190818787,1.484771490097046,-0.2898280620574951,-0.5020832419395447
7.360018014907837,0.09978622198104858,-0.018410801887512207,0.057486534118652344,-0.6985469283298742,-0.8611769426073723,1.7235362529702716,-0.5809264183044434,0.6431056261062622,-0.49893856048583984,0.7417784333229065,-0.21657735109329224,-0.7503828406333923
7.380048036575317,0.1924838423728943,-0.04809153079986572,0.05916166305541992,-0.6788847934649681,-0.8678463181723064,1.7213752113345082,-0.5937747359275818,0.627925455570221,-0.5031313300132751,0.5052792429924011,-0.3276115357875824,-0.7684150338172913
7.400017976760864,0.30335932970046997,0.03240865468978882,0.11539202928543091,-0.6610982331095414,-0.877079780189334,1.72078140238067,-0.6068871021270752,0.6139840483665466,-0.5046894550323486,0.6699551939964294,-0.5650194883346558,-0.6779515147209167
7.4200170040130615,0.25571006536483765,0.004841268062591553,0.20544850826263428,-0.6401316905579739,-0.8858859929239558,1.725899404219806,-0.6211428642272949,0.5973010659217834,-0.5073589086532593,0.9283268451690674,-0.5556751489639282,-0.6450430750846863
7.44003701210022,0.21872150897979736,-0.03496617078781128,0.24587088823318481,-0.6201278629150812,-0.8921536677885131,1.7317493802863744,-0.6334858536720276,0.5811392068862915,-0.510854959487915,0.6623713374137878,-0.46283090114593506,-0.6610721349716187
7.460017919540405,0.3131444454193115,-0.023529469966888428,0.19699180126190186,-0.6026946656139242,-0.9027452739076489,1.7326068332273854,-0.646716833114624,0.5668644309043884,-0.5103157162666321,0.5342615842819214,-0.6971046924591064,-0.6303930282592773
7.480023145675659,0.3445253372192383,0.04240298271179199,0.1821671724319458,-0.5856249242059853,-0.9192329718278434,1.7342306757017034,-0.6626405715942383,0.552720308303833,-0.5053788423538208,0.6312959790229797,-1.0424466133117676,-0.6913886070251465
7.500383138656616,0.2588072419166565,0.04906606674194336,0.2263762354850769,-0.5645916563398238,-0.9405364697571027,1.7368367141339502,-0.682498037815094,0.5350708961486816,-0.49789106845855713,0.8224971294403076,-1.160797357559204,-0.8261711001396179
7.520020961761475,0.1798328161239624,0.05166804790496826,0.22282302379608154,-0.5418772823055724,-0.9582324924645115,1.7435032675568933,-0.7009662389755249,0.515745222568512,-0.49259838461875916,0.9140214323997498,-0.9750869870185852,-0.7028318047523499
7.540081024169922,0.08859944343566895,0.08263587951660156,0.12247717380523682,-0.519610364177343,-0.9734273194195596,1.7507628083082274,-0.717688798904419,0.49654197692871094,-0.48823028802871704,0.8810396194458008,-0.9604853391647339,-0.8206532001495361
7.560078859329224,0.015361905097961426,0.15612798929214478,0.08232343196868896,-0.4938614874966419,-0.9915129352049434,1.7558203485617168,-0.7368584871292114,0.4740294814109802,-0.4820120930671692,0.9280973672866821,-1.0947200059890747,-1.0907999277114868
7.580080032348633,-0.022684931755065918,0.21080565452575684,0.09059286117553711,-0.46207958146780903,-1.0131670518332547,1.7601569468563303,-0.7595263719558716,0.44581055641174316,-0.4736800193786621,1.1380730867385864,-1.2774901390075684,-1.3805477619171143
7.600188970565796,-0.054483890533447266,0.2509065270423889,0.1473981738090515,-0.42278582247918456,-1.0359913844478328,1.7668056734317166,-0.7846121788024902,0.4103025794029236,-0.4647962152957916,1.4654897451400757,-1.2318052053451538,-1.6439732313156128
7.620085000991821,-0.07238101959228516,0.21996724605560303,0.1809152364730835,-0.37710298842324225,-1.0542162557251287,1.7796525092662885,-0.8084173202514648,0.368228554725647,-0.4592049717903137,1.8239294290542603,-1.0938327312469482,-1.6654468774795532
7.640048027038574,-0.13137662410736084,0.22573250532150269,0.15466177463531494,-0.3326126445819123,-1.0696865388700443,1.7949130480663062,-0.8289810419082642,0.3265135884284973,-0.45406970381736755,1.448103904724121,-0.9926760196685791,-1.550461769104004
7.668554067611694,0.17088991403579712,0.25951865315437317,0.12844246625900269,-0.25711406797041425,-1.0963334946649168,1.8224393281672802,-0.8602972626686096,0.25429055094718933,-0.4418427050113678,1.7886412143707275,-0.807580828666687,-1.092645287513733
7.680000066757202,0.17088991403579712,0.25951865315437317,0.12844246625900269,-0.25711406797041425,-1.0963334946649168,1.8224393281672802,-0.8602972626686096,0.25429055094718933,-0.4418427050113678,1.7886412143707275,-0.807580828666687,-1.092645287513733
7.70000696182251,0.26212137937545776,0.2051125019788742,0.08744344115257263,-0.21988819749897384,-1.1070998001103902,1.8489276008590019,-0.872869610786438,0.2181205153465271,-0.43648818135261536,2.2118782997131348,-0.9075291752815247,-1.0913482904434204
7.728286981582642,0.004667699337005615,0.06131884455680847,0.09575185179710388,-0.13903404540267655,-1.1305887763865865,1.9143330586879883,-0.8959335088729858,0.13858655095100403,-0.4220152199268341,2.180116891860962,-0.7885023355484009,-1.180850863456726
7.7482569217681885,-0.12057960033416748,0.036654338240623474,0.16510111093521118,-0.10078427607730404,-1.1434158642676109,1.94103029626051,-0.9054365754127502,0.10061374306678772,-0.4123849868774414,1.8474398851394653,-0.8127671480178833,-1.1701735258102417
7.768630027770996,-0.2486080527305603,0.06230119615793228,0.27923452854156494,-0.06559924614771788,-1.1575119674385073,1.9623854395017448,-0.9138370156288147,0.06555220484733582,-0.40075552463531494,1.5210059881210327,-0.7369356751441956,-1.1922990083694458
7.787963151931763,-0.3259050250053406,-0.05259723588824272,0.3737967014312744,-0.032430814700641505,-1.1708188994100264,1.9771667764639589,-0.9205854535102844,0.032425131648778915,-0.3891927897930145,1.1626670360565186,-0.6968792676925659,-1.3149781227111816
7.808030843734741,-0.44921761751174927,-0.1741354912519455,0.3027019798755646,0.004789073097494306,-1.1861665067319331,1.9847286189184008,-0.9269267320632935,-0.004789054859429598,-0.3752117156982422,0.9372994303703308,-0.8586737513542175,-1.956583023071289
7.827922105789185,-0.5177128911018372,-0.2170458883047104,0.4010932147502899,0.03865525375344701,-1.2046928287412124,1.9778157656103377,-0.9330318570137024,-0.038645628839731216,-0.3577125072479248,-0.2532167136669159,-0.8692769408226013,-1.2696253061294556
7.847820997238159,-0.6859824061393738,-0.1879962980747223,0.473021537065506,0.05163538381814652,-1.2153462753188709,1.9577984737010574,-0.9362403750419617,-0.05161244049668312,-0.3475484549999237,-1.1394349336624146,-0.35021311044692993,-0.6953120827674866
7.8678529262542725,-0.8024172186851501,0.16031691431999207,0.5026252865791321,0.05091811562029014,-1.2135974542557504,1.9316572559568197,-0.9356656670570374,-0.050896115601062775,-0.3491981029510498,-1.1737306118011475,0.384357213973999,-0.162187859416008
7.8877341747283936,-0.7556444406509399,0.23972848057746887,0.48397406935691833,0.043483622406946566,-1.2013811672745633,1.9149889011123964,-0.9316571354866028,-0.04346992075443268,-0.36072880029678345,-0.5373227000236511,0.7946339845657349,0.28806260228157043
7.907006025314331,-0.7563207149505615,-0.04066134989261627,0.31661397218704224,0.027106239996342384,-1.179001112590094,1.9100455239017518,-0.9238855838775635,-0.027102921158075333,-0.38170796632766724,-0.6480617523193359,1.2207201719284058,0.9666743278503418
7.927610158920288,-0.7074863910675049,-0.2050301432609558,0.14784395694732666,0.0027029920511617146,-1.15926622181336,1.9067250797065314,-0.9165064692497253,-0.0027029886841773987,-0.40001070499420166,-0.6211506724357605,0.7255380749702454,1.1686540842056274
7.947513818740845,-0.720117449760437,-0.24759405851364136,0.16962766647338867,-0.028390112759593723,-1.1493498131459527,1.9057406719519443,-0.9121303558349609,0.028386298567056656,-0.4089159369468689,-0.704363226890564,0.36041373014450073,1.6334041357040405
7.965713977813721,-1.0130133628845215,-0.24780666828155518,0.16087782382965088,-0.06690260494036304,-1.1363946049565206,1.9076225645734903,-0.9050926566123962,0.06685270369052887,-0.4199262261390686,-0.6987950801849365,0.983930766582489,1.9496946334838867
7.988025903701782,-1.132473349571228,-0.13479313254356384,-0.0009593963623046875,-0.11032811163987247,-1.1128952042541145,1.9148940912041932,-0.8915287256240845,0.11010442674160004,-0.43937867879867554,-0.4937862753868103,1.2033135890960693,2.2803046703338623
8.008447885513306,-1.0887048244476318,-0.11324521899223328,0.01631346344947815,-0.1571035616463516,-1.0875424179903967,1.9286019090360282,-0.8745824694633484,0.15645809471607208,-0.45894038677215576,-0.4544526934623718,1.212074875831604,2.532949447631836
8.027480840682983,-1.0832382440567017,-0.1438722163438797,0.03029775619506836,-0.20770997424491416,-1.0615987696024844,1.9457547686409777,-0.8543685674667358,0.2062196433544159,-0.47699880599975586,-0.42952534556388855,1.0653727054595947,2.704449415206909
8.047312021255493,-1.0331952571868896,-0.07700279355049133,-0.004060983657836914,-0.25980144813324385,-1.0350213307394012,1.9665261984296754,-0.8310167789459229,0.25688865780830383,-0.4933754801750183,-0.4527246952056885,1.0823451280593872,2.7750134468078613
8.066416025161743,-1.0503982305526733,-0.07759186625480652,0.0026030540466308594,-0.31084512178002294,-1.008730980042689,1.98559686220836,-0.8056045770645142,0.3058633506298065,-0.5073942542076111,-0.7132875323295593,1.0455087423324585,2.589843511581421
8.085439920425415,-0.9396304488182068,-0.08257418870925903,0.003919124603271484,-0.36530308012992474,-0.9856628499860544,1.9967777680759993,-0.7786312699317932,0.35723239183425903,-0.515866756439209,-1.3253178596496582,0.8652352094650269,2.5189461708068848
8.10755205154419,-0.8075903654098511,0.014797985553741455,-0.05552405118942261,-0.42105665008207793,-0.9694015748329294,1.9992914611026593,-0.7525293827056885,0.4087250530719757,-0.5163753628730774,-1.584326982498169,0.6809264421463013,2.212653398513794
8.12735104560852,-0.6623857021331787,0.10871255397796631,-0.11623895168304443,-0.47164474559823427,-0.9584406013346642,1.9970925737667349,-0.7289565205574036,0.45435208082199097,-0.5120417475700378,-1.421578049659729,0.5848076939582825,1.9020168781280518
8.146903991699219,-0.5365331768989563,0.16710048913955688,-0.18181169033050537,-0.5162828073278052,-0.9476185525261427,1.9964556120743306,-0.7061883807182312,0.4936508536338806,-0.5075498223304749,-1.2341309785842896,0.4625323414802551,1.6503574848175049
8.167438983917236,-0.376350998878479,0.15298664569854736,-0.13927435874938965,-0.554122525298314,-0.9423088181414048,1.9937906885787642,-0.6878732442855835,0.5261973142623901,-0.49994680285453796,-1.1885485649108887,0.3252486288547516,1.3329224586486816
8.187320947647095,-0.2867400050163269,0.10592114925384521,-0.05890679359436035,-0.5882505958740117,-0.9370190765609852,1.9885277484990376,-0.6703523397445679,0.5549065470695496,-0.49265265464782715,-1.1013067960739136,0.37370723485946655,1.1096374988555908
8.205960988998413,-0.14310616254806519,0.11943447589874268,-0.0621454119682312,-0.6175277837148608,-0.936066197798979,1.981680612475997,-0.6565154194831848,0.5790212750434875,-0.483447790145874,-1.2137181758880615,0.22022561728954315,0.9766194224357605
8.227421045303345,-0.08737283945083618,0.06653618812561035,-0.012078702449798584,-0.6478356710759442,-0.9377863176138033,1.9685448134589987,-0.6428975462913513,0.6034619808197021,-0.47171643376350403,-1.3599495887756348,0.3258921205997467,0.7811654210090637
8.24689793586731,0.018987178802490234,0.10564732551574707,0.029731541872024536,-0.6727938319519313,-0.9405045676967599,1.9533090383763076,-0.6318106055259705,0.6231734156608582,-0.4609448313713074,-1.0393307209014893,0.35749638080596924,0.5472257137298584
8.265702962875366,0.07733052968978882,0.13213777542114258,0.03819027543067932,-0.68899367026336,-0.9379759850172994,1.9448818472908749,-0.6224201917648315,0.6357607245445251,-0.45650991797447205,-0.37797608971595764,0.36026912927627563,0.3502676784992218
8.286653995513916,0.08959507942199707,0.08144724369049072,0.13239163160324097,-0.6916268449244496,-0.9303241391271238,1.9483833951912235,-0.6175644397735596,0.6377910375595093,-0.4602572023868561,0.267385333776474,0.28309354186058044,0.01004890725016594
8.306659936904907,0.028479695320129395,-0.1396997570991516,0.18996599316596985,-0.6832378160135808,-0.9245520913603754,1.9499750551446007,-0.6191473603248596,0.6313073635101318,-0.4670197367668152,0.465512752532959,0.08983228355646133,-0.6787711977958679
8.326924085617065,0.048096656799316406,-0.20179730653762817,0.27091580629348755,-0.6623733211725652,-0.9237278370321087,1.94829318836356,-0.6291360855102539,0.6149900555610657,-0.47536832094192505,0.5080721378326416,0.21571014821529388,-1.0402779579162598
8.346710920333862,0.254131555557251,-0.30201685428619385,0.3146454691886902,-0.6419070761369309,-0.9260145343842018,1.9329517386886312,-0.640148401260376,0.5987240076065063,-0.4813935160636902,-0.32689550518989563,0.41385579109191895,-1.320962905883789
