timestamp,acceleration_x,acceleration_y,acceleration_z,attitude_pitch,attitude_roll,attitude_yaw,gravity_x,gravity_y,gravity_z,rotation_x,rotation_y,rotation_z
0.0,-0.013469036668539047,-0.083232581615448,0.05410647392272949,-0.9044461105663878,-3.1070925783954104,2.8379761094473674,-0.021320991218090057,0.786082923412323,0.6177532076835632,0.281048059463501,-0.4804379343986511,0.26756197214126587
0.026284217834472656,-0.021887432783842087,-0.02528560161590576,0.06100344657897949,-0.9172239834695173,3.1362870170532244,2.8195010230622906,0.003225953783839941,0.7939167618751526,0.608018159866333,0.035226285457611084,-0.4513065814971924,0.15586698055267334
0.04314613342285156,-0.054385699331760406,-0.026758313179016113,0.056403398513793945,-0.91071424594274,3.1152561731190307,2.813926555628049,0.016147181391716003,0.7899419069290161,0.6129690408706665,-0.18473070859909058,-0.38760972023010254,0.0638866052031517
0.059716224670410156,-0.017720991745591164,-0.0036340951919555664,0.004240214824676514,-0.9053706050282984,3.094731889400295,2.80949991351194,0.028920957818627357,0.786653995513916,0.6167160272598267,-0.13276255130767822,-0.4613203704357147,0.0831080973148346
0.08053112030029297,-0.029541827738285065,0.00016319751739501953,0.0021645426750183105,-0.8974312879349108,3.0667469897682214,2.802954720406371,0.04663168266415596,0.7817276120185852,0.6218740344047546,-0.06960555911064148,-0.35040584206581116,0.08361693471670151
0.10031795501708984,-0.036674078553915024,-0.01611471176147461,-0.0059182047843933105,-0.8981608113350608,3.0496858789354344,2.797921551199504,0.057181909680366516,0.7821823358535767,0.6204201579093933,0.06897499412298203,-0.3088909685611725,0.08464213460683823
0.18676114082336426,-0.045777805149555206,-0.01701408624649048,0.008295118808746338,-0.8984533324302937,3.0287020366213406,2.7910550191457735,0.0701613798737526,0.782364547252655,0.6188563108444214,-0.04043104499578476,-0.18719293177127838,0.05541157349944115
0.2398381233215332,-0.032699987292289734,-0.021084189414978027,-0.009468913078308105,-0.896708969286821,3.0204103099981485,2.78824906805591,0.07545509934425354,0.7812769412994385,0.619606614112854,-0.026652926579117775,-0.12488872557878494,0.04688602685928345
0.2787811756134033,-0.027280084788799286,-0.027124345302581787,-0.017537474632263184,-0.8932659948731541,3.016645009961655,2.7869716493935752,0.07812237739562988,0.7791232466697693,0.6219837665557861,-0.1302577257156372,-0.028671368956565857,0.03205149993300438
0.3145022392272949,-0.022109344601631165,-0.012550055980682373,-0.02375316619873047,-0.8908806820659028,3.016572428962902,2.786867109527604,0.07839903235435486,0.7776257395744324,0.6238202452659607,-0.08009485900402069,0.005399160552769899,0.026776019483804703
0.3231220245361328,-0.008790448307991028,-0.0002598762512207031,-0.03272056579589844,-0.8897301619169643,3.016479062305452,2.7865314203248506,0.07856892794370651,0.77690190076828,0.6247006058692932,-0.032170213758945465,-0.007512643467634916,0.030699921771883965
0.33838796615600586,-0.005956739187240601,-0.011180877685546875,-0.004105269908905029,-0.8871826844828686,3.0166952321025158,2.7859121560443536,0.07868015021085739,0.7752954363822937,0.6266790628433228,-0.09516257047653198,0.05347578600049019,0.01716543920338154
0.3587651252746582,-0.010169290006160736,-0.022590339183807373,0.004326045513153076,-0.8804155048135301,3.0248929562238374,2.7866796627973645,0.07414941489696503,0.7710035443305969,0.6324995160102844,-0.18035078048706055,0.11676128208637238,-0.0033377865329384804
0.3811171054840088,0.007354699075222015,-0.004195034503936768,5.9664249420166016e-05,-0.8765536275568089,3.040970160344929,2.788554305967964,0.06427006423473358,0.7685384750366211,0.6365674734115601,-0.04215196520090103,0.12088625878095627,-0.00790271908044815
0.3985011577606201,0.028427354991436005,-0.0003768801689147949,0.027055442333221436,-0.8666141999503709,3.0523604087701988,2.7876289049622027,0.057693254202604294,0.7621412873268127,0.6448346972465515,-0.36344218254089355,0.15872818231582642,0.04043436050415039
0.41944122314453125,-0.03831057623028755,0.07825326919555664,-0.06120520830154419,-0.8351589195599233,3.0530082556351252,2.7591583547008804,0.059367723762989044,0.7414031624794006,0.6684286594390869,0.150443434715271,0.19809821248054504,0.20553304255008698
0.4386720657348633,0.02218572050333023,-0.06392621994018555,0.05999809503555298,-0.884594674600454,3.0701743915539335,2.7198929906111684,0.04521236941218376,0.7736582159996033,0.6319878697395325,-0.20756162703037262,0.3084268569946289,0.0951504334807396
0.45871806144714355,0.03629842400550842,-0.020246148109436035,-0.020159780979156494,-0.8857851637698709,3.1046807322788204,2.701886055349989,0.023348204791545868,0.7744119763374329,0.6322510242462158,0.1034955307841301,0.1471940279006958,-0.0177085530012846
0.479201078414917,0.06473323702812195,-0.012657463550567627,0.019249260425567627,-0.8447812138700765,3.136613348931863,2.7634350595490083,0.0033057210966944695,0.7478258609771729,0.6638866066932678,-0.21418137848377228,-0.48808833956718445,-0.45419272780418396
0.4988901615142822,-0.012395920231938362,0.06146448850631714,0.022249937057495117,-0.8096234008074429,3.108993454405115,2.8854780823809767,0.022482004016637802,0.7240274548530579,0.6894046068191528,0.13722282648086548,-0.911699652671814,-0.515483021736145
0.5189080238342285,-0.11801743507385254,0.07162308692932129,-0.04632359743118286,-0.8373332610801062,3.058063679827515,2.9741459274998037,0.05585314333438873,0.7428604960441589,0.6671120524406433,0.20953206717967987,-0.22834444046020508,-0.13427573442459106
0.539405107498169,-0.09828930348157883,-0.002579629421234131,-0.005236327648162842,-0.903393193013897,3.062683823295702,2.8859889994463304,0.048789799213409424,0.7854316234588623,0.6170220971107483,0.6670839190483093,1.0368869304656982,0.6852233409881592
0.5600442886352539,-0.00865248404443264,-0.08268499374389648,0.052845656871795654,-0.9559229030995346,3.1236561267285454,2.683975228532627,0.010346224531531334,0.816846489906311,0.5767624378204346,0.3578735291957855,1.5258077383041382,0.7633724808692932
0.5781111717224121,0.14703083038330078,-0.14267688989639282,0.03341078758239746,-0.958510308569915,-3.06215911183176,2.572918509400431,-0.04560564085841179,0.8183363080024719,0.5729277729988098,-0.3327016830444336,0.890383243560791,-0.019466688856482506
0.6001172065734863,0.2357032746076584,0.03561103343963623,0.026159703731536865,-0.8993152087100326,-2.9594613637783125,2.7393381690020258,-0.11268690228462219,0.7829010486602783,0.6118560433387756,-0.16925005614757538,-1.2654973268508911,-1.106356143951416
0.6184029579162598,0.032931528985500336,0.11953544616699219,0.055530846118927,-0.8517867460351461,-3.0226690339701667,2.963193564667755,-0.07814329862594604,0.7524584531784058,0.653987467288971,0.17432564496994019,-1.8484094142913818,-0.8951705098152161
0.6393210887908936,-0.2385374903678894,0.08085006475448608,-0.012465834617614746,-0.9067126323184358,3.13738903412717,3.0863242619454994,0.0025908418465405703,0.7874818444252014,0.6163323521614075,0.5915629267692566,-0.532211184501648,-0.03308628499507904
0.6591391563415527,-0.23860381543636322,-0.02681642770767212,-0.06427210569381714,-1.006808534441189,3.0969872758026162,2.9645869425032756,0.02383638545870781,0.8451301455497742,0.5340291857719421,0.6459484100341797,1.253167986869812,0.7563137412071228
0.6795120239257812,-0.12523692846298218,-0.15472739934921265,0.10137856006622314,-1.0937825518863382,3.129012198654785,2.6846027152928618,0.005775890778750181,0.8883699178695679,0.45909199118614197,0.16436347365379333,1.9117162227630615,0.8655256628990173
0.6983451843261719,0.16742663085460663,-0.11489784717559814,0.10148060321807861,-1.062479595320079,-3.1318275731718948,2.5083554401751105,-0.004752666689455509,0.8735650181770325,0.48668473958969116,-0.534882128238678,0.5079253911972046,0.2918558418750763
0.7190611362457275,0.13407783210277557,0.06426060199737549,0.036479413509368896,-0.9540674572757947,3.102640333201339,2.5202909756236056,0.022523142397403717,0.8157747387886047,0.5779308676719666,-0.5213761925697327,-1.1820889711380005,-0.4303854703903198
0.7385730743408203,0.03828613460063934,0.16193288564682007,0.0022118091583251953,-0.8890403558234405,3.0310748056300354,2.7260070462486414,0.06950195133686066,0.7764673829078674,0.6263129115104675,-0.05719789117574692,-1.494429111480713,-0.9141154289245605
0.7575349807739258,-0.10266226530075073,0.02022099494934082,-0.0207785964012146,-0.8768363550240387,3.011319766107077,2.9014647290793123,0.08308523893356323,0.7687193155288696,0.634166419506073,-0.4301522970199585,-0.5376816987991333,-0.6371556520462036
0.7816910743713379,-0.18007409572601318,0.009109556674957275,-0.10356855392456055,-0.8113310738925581,3.0861758044583647,2.965145600792145,0.03813682496547699,0.7252042889595032,0.6874764561653137,0.46806180477142334,0.668320894241333,0.15043744444847107
0.7997441291809082,-0.05457299202680588,-0.2170378565788269,0.08530944585800171,-0.9010482663685248,-3.0936068887407533,2.947897661937239,-0.02977757342159748,0.7839781045913696,0.6200737357139587,0.014459836296737194,1.1727209091186523,0.04624214023351669
0.819310188293457,0.18171797692775726,0.0019677281379699707,0.0714414119720459,-0.8515532463544013,-2.939221863338798,2.9187410667285465,-0.132416769862175,0.7523046135902405,0.645370602607727,0.17499038577079773,0.6737174987792969,-0.18836744129657745
0.8390669822692871,0.19858726859092712,0.019408226013183594,0.06681191921234131,-0.8205299982492525,-2.8773278623386407,3.010816901325944,-0.17809469997882843,0.7315073013305664,0.6581636071205139,-0.05578773468732834,-0.7766437530517578,-0.5257158279418945
0.8598489761352539,-0.12461742758750916,0.010174930095672607,-0.025638878345489502,-0.8408976724572276,-2.9867591551457173,3.066935862289149,-0.10283007472753525,0.7452419996261597,0.6588175892829895,0.06902938336133957,-0.6738799214363098,0.15062621235847473
0.877845287322998,-0.16934502124786377,-0.007630288600921631,-0.03186386823654175,-0.8526660798832667,-3.068226464543193,2.9972683293187354,-0.048230018466711044,0.7530372738838196,0.6562076807022095,-0.11318259686231613,0.2894638180732727,0.3478786051273346
0.900029182434082,0.10081926733255386,0.023896217346191406,-0.039674460887908936,-0.7933707663614238,-3.01742592759983,2.9637383396377466,-0.08687271177768707,0.7127217054367065,0.6960463523864746,-0.35039541125297546,0.3466487228870392,-0.3128975033760071
0.9196162223815918,0.19411695003509521,0.10356158018112183,-0.007831931114196777,-0.7153120529599504,-2.9381676999487425,3.1088647042428446,-0.15250618755817413,0.6558530330657959,0.7393227815628052,-0.2506527602672577,-0.6754726767539978,-1.0404454469680786
0.9384920597076416,0.05902606248855591,0.09343492984771729,0.02949237823486328,-0.694113120598874,-2.9698356220675857,-2.9991899445596615,-0.13136795163154602,0.6397039890289307,0.7573116421699524,0.3838672637939453,-1.357854962348938,-0.6204778552055359
0.9576601982116699,-0.17213955521583557,-0.20775145292282104,0.05793994665145874,-0.7682006457985457,-3.102422359759225,-2.916313249312208,-0.028162572532892227,0.6948423385620117,0.7186100482940674,0.3278636336326599,-1.2425134181976318,-0.32901880145072937
0.9782462120056152,-0.09754292666912079,-0.10864675045013428,-0.009377241134643555,-0.7441016625323057,-3.139986769355911,-2.8295697803455684,-0.0011814427562057972,0.6773111820220947,0.735695481300354,-0.5294265747070312,-0.11719910800457001,-0.4268202483654022
0.9996771812438965,0.00218779593706131,0.021180808544158936,0.03218740224838257,-0.661230284613811,-3.0981096771418235,-2.802784752226007,-0.0343075655400753,0.6140882968902588,0.7884910702705383,-0.40554118156433105,0.26614439487457275,0.14997999370098114
1.0176200866699219,0.0268637053668499,-0.0032514333724975586,0.030641555786132812,-0.6297148092113081,-3.0999020365296515,-2.8454733015095894,-0.03368440642952919,0.5889142751693726,0.8074931502342224,-0.17389743030071259,0.165251225233078,0.24755491316318512
1.0384531021118164,0.036025986075401306,-0.012543857097625732,-0.0027360916137695312,-0.6228027798354318,-3.086390425427946,-2.881148878578931,-0.04481504112482071,0.5833140015602112,0.8110091686248779,-0.0011172592639923096,0.20144128799438477,0.09211641550064087
1.0587482452392578,0.021772079169750214,-0.016953766345977783,0.0352245569229126,-0.617309696447134,-3.077986579334169,-2.8996887133346774,-0.051831893622875214,0.5788434743881226,0.8137897849082947,0.08348971605300903,0.12014748901128769,0.08101967722177505
1.0792512893676758,0.06636656820774078,-0.03202366828918457,0.022160351276397705,-0.6080144353553668,-3.0701555154333358,-2.921988504060813,-0.05858460068702698,0.5712388753890991,0.8186905384063721,-0.37093955278396606,0.18746048212051392,0.23610635101795197
1.0981950759887695,-0.013411402702331543,0.10339111089706421,0.0719100832939148,-0.6250041518946576,-3.078479226926531,-2.992643888032248,-0.05114851891994476,0.5851006507873535,0.8093457818031311,0.6536408066749573,0.2980819046497345,0.6907621026039124
1.1171910762786865,-0.05392204970121384,-0.021927356719970703,-0.051029205322265625,-0.6795968772415238,-3.1038172953953596,-3.0864319103908224,-0.029375670477747917,0.628479540348053,0.7772711515426636,0.3621198832988739,0.29057276248931885,0.5149944424629211
1.1374592781066895,-0.05318727716803551,-0.04903292655944824,-0.08740156888961792,-0.730705660709616,-3.1288821480824662,3.1214181355955026,-0.009465302340686321,0.667395293712616,0.7446433305740356,0.25011318922042847,0.14693595468997955,0.3919958174228668
1.1604020595550537,-0.02713397890329361,-0.005295097827911377,-0.016521990299224854,-0.7807063214698755,-3.132147334205838,3.0453918171187024,-0.006710011046379805,0.7037813663482666,0.7103847861289978,0.3335930407047272,0.28361666202545166,0.24392791092395782
1.1782960891723633,-0.027636751532554626,-0.017012715339660645,0.0055651068687438965,-0.8271077978964095,-3.1146828755091946,2.9921138964934912,-0.01821591705083847,0.7359763979911804,0.6767621636390686,0.12099660933017731,0.4046044945716858,0.26351064443588257
1.199984073638916,0.04571859538555145,-0.049944281578063965,0.025890886783599854,-0.82021859435374,-3.096045988266344,2.9459517712685286,-0.031054871156811714,0.7312949299812317,0.6813538074493408,-0.1484781801700592,0.187621608376503,-0.07417844235897064
1.2179601192474365,0.06961207091808319,0.05331546068191528,-0.022719621658325195,-0.813792580461226,-3.0806061565313994,2.9936301260997755,-0.0418563075363636,0.7268969416618347,0.6854698061943054,0.23610059916973114,-0.43118783831596375,-0.40830376744270325
1.2397222518920898,0.041349995881319046,0.008733630180358887,0.07296961545944214,-0.83300220039865,-3.1003881957775925,3.138372394330511,-0.027708644047379494,0.7399541735649109,0.6720865368843079,0.40607672929763794,-1.3238499164581299,-0.8259470462799072
1.2581610679626465,-0.048334889113903046,0.028669774532318115,-0.001401364803314209,-0.8782049824542308,3.117534227601985,-3.0017013324622366,0.015360635705292225,0.7695939540863037,0.6383489966392517,0.2564551830291748,-1.0297369956970215,-0.4487554728984833
1.2778372764587402,-0.1497819721698761,0.008931457996368408,-0.008688271045684814,-0.9274952013338821,3.0763202295660492,-2.926819261044201,0.03912520036101341,0.8001199960708618,0.5985624194145203,-0.2956722378730774,-0.25877612829208374,-0.16969271004199982
1.2995352745056152,-0.07481049746274948,0.012856602668762207,-0.02846318483352661,-0.8930912667273431,3.076819191768723,-2.9389860997450925,0.04058502987027168,0.7790136933326721,0.6256922483444214,-0.1925053745508194,0.425584077835083,0.24588505923748016
1.3196461200714111,-0.035441864281892776,0.032217442989349365,0.020167291164398193,-0.8942881783344587,3.0973983706158164,-3.0163076452724025,0.02765987627208233,0.7797636389732361,0.6254624724388123,0.22413946688175201,0.665091872215271,0.44483956694602966
1.3382301330566406,0.05515749007463455,-0.003102123737335205,0.07472306489944458,-0.9478076744753116,3.1076617648195723,-3.1207064661271007,0.019793681800365448,0.8121383190155029,0.5831289887428284,0.8400287628173828,0.6397127509117126,0.4371744394302368
1.3574042320251465,0.007332341745495796,-0.005930006504058838,-0.023623287677764893,-1.0373865153980761,3.095708653006769,3.0668529552098085,0.023322556167840958,0.8610782623291016,0.5079371333122253,0.42750588059425354,0.4369414150714874,0.30663079023361206
1.3785851001739502,0.019462825730443,-0.06923413276672363,0.01523655652999878,-1.0867227085733484,3.0841676218589726,3.005845473082203,0.026710286736488342,0.8851064443588257,0.46462178230285645,-0.11254151165485382,0.11853432655334473,0.04237380251288414
1.398085117340088,0.058722928166389465,-0.023027122020721436,0.03780987858772278,-1.0624526310149074,3.1002140461694396,3.0221194068914943,0.020134493708610535,0.8735519051551819,0.4863141179084778,-0.3278488218784332,-0.06765995919704437,-0.11927906423807144
1.419222116470337,0.036724288016557693,-0.01940739154815674,0.019646883010864258,-1.04591815311953,3.0966563580944757,3.0454435569337415,0.02251032181084156,0.8653849959373474,0.5006013512611389,-0.13297362625598907,-0.1515394151210785,-0.015249595046043396
1.4386310577392578,-0.025561071932315826,-0.012585878372192383,0.014722049236297607,-1.0403108836718808,3.0691738777577005,3.0345334994017916,0.03660842776298523,0.8625615835189819,0.5046261548995972,-0.08034501224756241,-0.07230548560619354,0.018231334164738655
1.4591469764709473,-0.015614990144968033,0.00895017385482788,-0.0035195350646972656,-1.035702545552522,3.071713239456941,3.0435571913843398,0.03560401126742363,0.8602207899093628,0.5086768269538879,-0.009317398071289062,0.004735145717859268,0.006975098513066769
1.4786009788513184,-0.00618787482380867,-0.0018927454948425293,-0.004675388336181641,-1.042341287044441,3.077040547175988,3.0406629323162417,0.03252454847097397,0.8635870814323425,0.5031494498252869,0.03877336531877518,0.0859178826212883,0.019732888787984848
1.4991450309753418,0.002764252945780754,0.003069281578063965,0.004024326801300049,-1.038054022993507,3.084454480044535,3.038030393986824,0.02900455892086029,0.8614174723625183,0.5070688128471375,-0.002505458891391754,0.0334736704826355,-0.0010378776350989938
1.5177860260009766,0.007892908528447151,0.008054971694946289,-0.004173696041107178,-1.0356329547607104,3.1016764533313554,3.0565687197268625,0.020351113751530647,0.8601853251457214,0.5095751285552979,-0.04350293055176735,-0.03239038214087486,-0.05698966607451439
1.537905216217041,-0.022212302312254906,-0.02049177885055542,-0.021490395069122314,-1.0387480049367397,3.0901446171958926,3.0465196639443772,0.0260880496352911,0.8617697954177856,0.5066282153129578,0.05274277552962303,0.05504785105586052,0.021788133308291435
1.5576982498168945,0.019912241026759148,0.017114341259002686,0.021483182907104492,-1.0357313359311386,3.123396154818963,3.0750502819649346,0.0092778280377388,0.8602355122566223,0.5098125338554382,-0.22816313803195953,-0.05005175992846489,-0.08108997344970703
1.5773661136627197,0.03626159578561783,-0.042113661766052246,0.02523171901702881,-1.0395314725888403,3.1150080915603926,3.0670113249794198,0.013466808013617992,0.8621669411659241,0.5064456462860107,-0.10096581280231476,0.012801150791347027,0.0003632152220234275
1.598973274230957,-0.029460584744811058,-0.034040987491607666,-0.01816326379776001,-1.0335361460392811,3.1046217970202044,3.0485385029092416,0.018916772678494453,0.8591141104698181,0.511434018611908,-0.037056922912597656,0.10121721029281616,0.027670353651046753
1.617462158203125,0.005182186607271433,0.007029533386230469,0.0012962818145751953,-1.0204246786304103,3.135950701611359,3.0702348027119397,0.0029507477302104235,0.852330207824707,0.52299565076828,0.06257352977991104,-0.01294398307800293,-0.1292140632867813
1.638772964477539,-0.0007747369818389416,0.014774084091186523,-0.0061484575271606445,-1.0152666952866645,-3.1299839449276985,3.110531136548807,-0.0061222221702337265,0.8496212363243103,0.5273581743240356,0.05775340646505356,-0.12566325068473816,-0.06054851412773132
1.6577081680297852,-0.03404874727129936,0.004854798316955566,-0.028842926025390625,-1.0219294684967426,-3.1378612781560875,3.10781529702048,-0.0019467307720333338,0.8531162738800049,0.5217169523239136,0.06290043145418167,0.08757561445236206,0.03089478798210621
1.6774191856384277,0.015374835580587387,0.010096311569213867,0.007921397686004639,-1.0309013933509281,-3.102560402568467,3.113151286859249,-0.02005927823483944,0.8577626943588257,0.5136544704437256,0.035171546041965485,0.26440170407295227,0.002919497201219201
1.6985392570495605,0.014581728726625443,0.012271344661712646,0.008404076099395752,-1.0261837854843503,-3.0883583714280967,3.0866058624586845,-0.02756694331765175,0.8553280830383301,0.5173527002334595,0.012556660920381546,0.17134417593479156,0.13009938597679138
1.718325138092041,-0.02128473110496998,-0.027918756008148193,-0.007411301136016846,-1.0349327810929934,-3.088070514121699,3.0554683818397708,-0.02731449529528618,0.8598280549049377,0.5098527073860168,0.058395106345415115,0.1515188217163086,0.029879743233323097
1.7398581504821777,0.035704899579286575,0.0017088651657104492,0.01710796356201172,-1.027104128081536,-3.0334833831574306,3.0888933869690223,-0.05581597983837128,0.8558045625686646,0.514279305934906,-0.11694928258657455,0.08862480521202087,-0.22179031372070312
1.757641077041626,0.03424742817878723,0.028568387031555176,0.01534503698348999,-1.021693262075358,-3.0037651334397992,3.12990656531453,-0.07170774787664413,0.8529930114746094,0.5169730186462402,-0.01878269948065281,-0.024814311414957047,-0.09620651602745056
1.7786321640014648,-0.046741925179958344,0.014079570770263672,-0.001017749309539795,-1.0185011242097772,-3.0636927961798777,3.0704673149828476,-0.04082823917269707,0.851322591304779,0.5230512619018555,-0.21087618172168732,-0.031952206045389175,0.3240036964416504
1.7982182502746582,-0.01858757622539997,-0.04778569936752319,-0.04098767042160034,-0.9245762728497844,-3.1160769357700846,3.0239041417675008,-0.015363211743533611,0.7983656525611877,0.6019771099090576,-1.48469877243042,-0.26935532689094543,-0.17767341434955597
1.8200292587280273,-0.055030468851327896,0.04722416400909424,0.04642176628112793,-0.6946984113031541,-3.0903361735725965,-3.132397492571798,-0.03936038538813591,0.6401537656784058,0.7672378420829773,-0.09792114049196243,-0.3435271382331848,-0.895578920841217
1.8390700817108154,-0.04920338839292526,0.12476730346679688,0.051029324531555176,-0.7094703896984224,-3.0492417197290758,-3.0405126161423097,-0.06996773928403854,0.6514320373535156,0.7554739117622375,0.12652398645877838,0.29679593443870544,0.1608298122882843
1.8583831787109375,-0.033846281468868256,-0.024244964122772217,-0.0062184929847717285,-0.747563736952327,-2.994480130875164,-3.069644052179286,-0.10749588161706924,0.679854154586792,0.7254262566566467,0.44858837127685547,0.5329392552375793,0.14617398381233215
1.8784980773925781,0.006120368838310242,-0.015521228313446045,-0.024252653121948242,-0.6964094503928503,-2.9349556188961774,-3.1160221146538722,-0.15739600360393524,0.6414673328399658,0.7508305311203003,-0.8376884460449219,0.5519470572471619,0.09921357780694962
1.8978180885314941,0.1063241958618164,0.12829840183258057,0.02366739511489868,-0.6180723417205264,-2.8959995380660586,-3.1208209499887456,-0.19815154373645782,0.5794652104377747,0.7905414700508118,0.586192786693573,0.14168961346149445,-0.3235008716583252
1.9177322387695312,-0.00548921525478363,0.11293792724609375,0.02782386541366577,-0.7071045861417234,-2.8740956250277767,-3.119102387119113,-0.20094691216945648,0.6496352553367615,0.7332081198692322,2.0130631923675537,0.1609373539686203,0.24722671508789062
1.937704086303711,-0.030040740966796875,0.02037709951400757,0.010256826877593994,-1.086861713920245,-2.6421990316654127,-2.9156552708698484,-0.22281265258789062,0.885171115398407,0.40844428539276123,3.7162466049194336,0.705686092376709,0.20332688093185425
1.9585201740264893,0.20935770869255066,0.11281496286392212,0.18309438228607178,-1.3148768690432049,-1.137370563143507,-1.3301003524831412,-0.22972819209098816,0.9674309492111206,-0.10631220787763596,4.161387920379639,-1.0425010919570923,-0.024433940649032593
1.9790949821472168,0.1221534013748169,0.09953838586807251,0.02466493844985962,-1.0460942348864886,-0.5346832724902726,-0.5763071720058146,-0.2552710771560669,0.865473210811615,-0.431037038564682,1.3132392168045044,-0.372094064950943,-0.05289333313703537
1.9990272521972656,-0.01342475414276123,-0.06099879741668701,0.21316170692443848,-0.9211358791313534,-0.45158385434077136,-0.4069016979231051,-0.263979971408844,0.7962892651557922,-0.5442774295806885,-0.8748590350151062,-0.20101703703403473,0.6477080583572388
2.0187580585479736,0.3193039298057556,-0.24026834964752197,-0.25729548931121826,-1.079295858780528,-0.5571591817043483,-0.5780266542958639,-0.24955600500106812,0.8816257119178772,-0.4005720019340515,-1.4269003868103027,0.8586397767066956,-0.6517290472984314
2.039093017578125,0.2649132013320923,-0.18033480644226074,0.05568552017211914,-1.0264676848757421,-0.5962505330573721,-0.850466736762497,-0.2907920777797699,0.855475127696991,-0.42848828434944153,0.7349653244018555,1.2918015718460083,-1.2914966344833374
2.0594329833984375,-0.09684833884239197,-0.08747172355651855,-0.05981987714767456,-0.8485130752091102,-0.7229684542835086,-1.1265084085244415,-0.43739232420921326,0.7502982020378113,-0.4957222044467926,0.5637556314468384,-0.0759597048163414,-1.942800521850586
2.078183174133301,-0.15541356801986694,0.009189069271087646,0.09650546312332153,-0.528535341660237,-0.835825215199246,-1.2184271540878573,-0.640622079372406,0.5042690634727478,-0.5790647268295288,1.9526985883712769,-0.7051506042480469,-1.8410756587982178
2.097367286682129,-0.16692984104156494,-0.01585426926612854,0.17806875705718994,-0.28028230670708804,-0.8834967606478025,-1.2155159392577382,-0.7427991032600403,0.27662694454193115,-0.6096941828727722,0.6246595978736877,-0.05963434278964996,-0.7893148064613342
2.118178129196167,-0.13496452569961548,-0.08230390399694443,0.015588700771331787,-0.12521812085046619,-0.8107970759123893,-1.086884454731331,-0.719161331653595,0.12489114701747894,-0.6835269331932068,0.3235284984111786,0.4247046411037445,-0.1764598935842514
2.138366222381592,-0.1596928834915161,-0.07250203937292099,0.050999999046325684,-0.09604132169336287,-0.790243717306124,-1.0772186852020114,-0.7072503566741943,0.0958937406539917,-0.7004293203353882,-0.6021738052368164,0.0004294357495382428,0.05282802879810333
2.158600091934204,-0.4795414209365845,0.12588933110237122,-0.25102347135543823,-0.38804887143421996,-0.6139214033330128,-1.0644808184354142,-0.533245325088501,0.378383070230484,-0.7566211819648743,-2.1441667079925537,2.8240244388580322,2.636486053466797
2.1793761253356934,-0.3294132947921753,0.1438528299331665,-0.33627480268478394,-0.8864750156819754,0.06196408832990703,-0.6843992707005694,0.039145369082689285,0.7748482823371887,-0.6309340596199036,-1.7530295848846436,2.9569761753082275,4.11099100112915
2.199942111968994,-0.4258785843849182,0.22228628396987915,-0.1594657301902771,-0.6649351660746999,1.0506586695842617,0.13367551733448924,0.6828823685646057,0.6170080900192261,-0.3911172151565552,0.11812908202409744,2.3927717208862305,4.83914852142334
2.2183961868286133,-0.3954118490219116,0.1109473779797554,0.08695715665817261,-0.11122083985677066,1.3446515719443632,0.26149248384911894,0.9685166478157043,0.11099167913198471,-0.2228367030620575,0.9937131404876709,1.300726056098938,4.162225723266602
2.2382431030273438,-0.42250949144363403,-0.07001760601997375,0.3225961923599243,0.3370867737467852,1.457117202714627,0.12112587991218546,0.937630832195282,-0.33073922991752625,-0.1070505902171135,1.5501148700714111,0.04219410568475723,2.056532144546509
2.258906126022339,-0.184769868850708,-0.188601553440094,0.06560279428958893,0.48476502015648865,1.4514944645283172,0.03808585757503541,0.8784953355789185,-0.4660004675388336,-0.10530620813369751,-0.28499898314476013,-0.27944767475128174,0.3011784851551056
2.2791762351989746,-0.16136199235916138,0.010922402143478394,0.19833005964756012,0.469477314640585,1.3068352436096167,0.1715517286804182,0.8609163165092468,-0.4524202048778534,-0.2326776534318924,-1.3443697690963745,-0.9057967066764832,-0.3213549256324768
2.299164295196533,-0.7036650776863098,-0.050133854150772095,0.4837602972984314,0.14882498802237518,1.0418813185837945,0.27472586586280845,0.8538115620613098,-0.1482762098312378,-0.4990190863609314,-0.019131707027554512,-3.259558916091919,-4.194807052612305
2.319697141647339,-0.2529235780239105,0.08463975787162781,0.052381038665771484,-0.37838045487827837,0.5532933655777172,0.1395255815716113,0.488320916891098,0.3694159686565399,-0.790616512298584,-2.1265149116516113,-3.636232614517212,-3.430295705795288
2.337644100189209,0.04116477072238922,-0.19756031036376953,-0.7498457431793213,-0.951242060237941,-0.3735120028224805,-0.5527795842439165,-0.21188008785247803,0.81413733959198,-0.540635883808136,-1.3311090469360352,-4.089717388153076,-6.01052188873291
2.3585472106933594,-1.0926812887191772,0.1345553994178772,0.08408600091934204,-0.5799722938678731,-1.4859130316416067,-1.49385214016547,-0.8334661722183228,0.5480007529258728,-0.0709177628159523,-9.579689025878906,2.6368229389190674,0.8499058485031128
2.379002094268799,0.046180903911590576,0.17614465951919556,-0.07401520013809204,-0.5164982497036719,-1.5134827673768063,-1.768991587457485,-0.8681260943412781,0.49383822083473206,-0.04980994760990143,0.6185764074325562,-1.059442162513733,-1.2185852527618408
2.3977999687194824,0.21236002445220947,-0.11401033401489258,0.03434234857559204,-0.5937895385604999,0.8607143488554968,0.9424863417194528,0.628506064414978,0.5595058798789978,-0.5403085947036743,1.3861814737319946,0.6513607501983643,1.018027901649475
2.418649196624756,-0.22934120893478394,2.1570258140563965,-0.34772753715515137,-0.6351832435801019,0.8238199675330581,0.9182889345521638,0.5906388163566589,0.5933250188827515,-0.5469105839729309,2.2472243309020996,1.8408626317977905,1.5878623723983765
2.4392170906066895,-1.2166082859039307,3.1183669567108154,-0.514912486076355,-0.6273495195460278,0.6316889130752913,0.6889984167087554,0.47806763648986816,0.5870010256767273,-0.653361439704895,3.177685499191284,1.7509286403656006,-0.48825836181640625
2.460078239440918,0.5775533318519592,0.4712499678134918,0.09627771377563477,-0.4459413600203421,0.7604823617828584,0.5995170375006154,0.6218637824058533,0.4313073754310608,-0.6536508202552795,1.5016660690307617,-0.18647751212120056,0.9317296147346497
2.4776110649108887,0.13249045610427856,-0.13581234216690063,0.07610064744949341,-0.2558742656388376,0.6905559006145887,0.4682304106065963,0.6162277460098267,0.25309130549430847,-0.7457936406135559,0.8598954081535339,0.5086861252784729,1.340518593788147
2.497669219970703,-0.01377934217453003,-0.02250801771879196,-0.020419716835021973,-0.04936822309820418,0.8339677162215557,0.40727396935778243,0.7397009134292603,0.049348171800374985,-0.6711238622665405,2.045581340789795,1.3243192434310913,0.7220271825790405
2.5175771713256836,-0.12287873029708862,0.03464280068874359,-0.029625654220581055,0.15016628955381925,0.966667728962691,0.3245914249067029,0.8137356042861938,-0.14960254728794098,-0.5616524815559387,0.6762694120407104,0.5292460322380066,1.4337401390075684
2.540109157562256,0.06937426328659058,0.15601861476898193,-0.021512627601623535,0.22939048162003553,0.9627993660061129,0.40388414779698484,0.7992933392524719,-0.22738401591777802,-0.556261420249939,-0.9196771383285522,-1.4839850664138794,0.6251912117004395
2.5576601028442383,-0.10701853036880493,-0.012864872813224792,0.021494388580322266,0.1993600887877893,0.9254086842042302,0.6256463586312455,0.7830438613891602,-0.1980421394109726,-0.5895943641662598,0.16719406843185425,0.3210572600364685,1.3176922798156738
2.579674243927002,-0.022160470485687256,-0.04017162322998047,0.03096109628677368,0.3510424327278125,0.9901147903254264,0.5842300680731687,0.7850998044013977,-0.3438768684864044,-0.5151377320289612,1.3863449096679688,0.2318258285522461,0.3124593198299408
2.5993151664733887,-0.08459502458572388,-0.08748060464859009,0.08312928676605225,0.35967767160079217,1.0239276569440463,0.5005824511689524,0.7994997501373291,-0.3519725501537323,-0.48673948645591736,-0.053552597761154175,-0.02224942296743393,-0.05997046083211899
2.6196370124816895,0.015397429466247559,-0.302550733089447,0.10009035468101501,0.348049581865838,1.0240941134410153,0.49306936300773896,0.8030228614807129,-0.341064989566803,-0.488701194524765,-0.3252045810222626,-0.004294301848858595,-0.42894411087036133
2.637294292449951,-0.42922067642211914,-0.7035418748855591,0.39587289094924927,0.19814280336463236,1.1400868442385028,0.36338191339802695,0.8908905386924744,-0.1968488097190857,-0.40934640169143677,-0.07440374046564102,0.8024853467941284,-3.2172391414642334
2.660137176513672,-0.16764074563980103,-0.39488598704338074,0.24155211448669434,-0.48810397685584866,0.8658812106275645,0.03096334095402103,0.6727219223976135,0.46895211935043335,-0.5723016858100891,0.35261645913124084,-2.755051612854004,-5.330629825592041
2.678002119064331,-0.6764817833900452,0.5512181520462036,0.14222240447998047,-0.8916790571956826,0.24000553892731866,-0.4427115711991019,0.14930590987205505,0.7781274914741516,-0.6101027131080627,-1.9783135652542114,-2.048513650894165,-3.8878977298736572
2.6981201171875,-0.23290538787841797,0.4016505479812622,-0.04439723491668701,-0.7525587917481238,-0.7416447456662124,-1.318435477278641,-0.49307721853256226,0.6835087537765503,-0.53822922706604,0.259549617767334,-1.1251273155212402,-2.35801100730896
2.717555046081543,-0.1234094500541687,0.09406977891921997,-0.1155773401260376,-0.6081321253383764,-0.9126278288146743,-1.4188120449085955,-0.649280309677124,0.5713354349136353,-0.5020069479942322,0.07182712107896805,-0.542614758014679,-0.8108832240104675
2.7378339767456055,-0.23447281122207642,0.18076026439666748,-0.04846745729446411,-0.5384579234652974,-0.9353795589783018,-1.3780815143384577,-0.6909422278404236,0.5128127336502075,-0.5095312595367432,1.6683796644210815,-0.4814194142818451,0.04578624293208122
2.758106231689453,-0.07010602951049805,-0.1046065092086792,-0.018337488174438477,-0.43109891214077944,-0.9200685342240954,-1.2444251540511329,-0.7228474020957947,0.4178694188594818,-0.5503423810005188,1.7517999410629272,0.8133528828620911,-1.5678645372390747
2.7782230377197266,-0.12155818939208984,-0.24285772442817688,0.011969029903411865,-0.4068686209789299,-0.894255095973121,-1.1863394072538922,-0.7160882353782654,0.3957355320453644,-0.5749878883361816,0.09606451541185379,-0.504227876663208,0.24890507757663727
2.801173210144043,-0.2804526686668396,0.009767234325408936,-0.017399370670318604,-0.8723656948407884,-1.1976132907389183,-1.7481566153676493,-0.5987586975097656,0.7658522725105286,-0.23443174362182617,-6.043773174285889,0.3516709804534912,1.939843773841858
2.819794178009033,-0.3137165904045105,0.11431747674942017,0.10061942785978317,-1.1495963042818385,-1.7616466310706898,-2.430643892080755,-0.4014322757720947,0.9125989675521851,0.07755741477012634,-1.7597854137420654,-0.35264313220977783,2.797968864440918
2.838322162628174,-0.5019821524620056,-0.005353033542633057,0.12675917148590088,-1.4303613765294674,-2.314681671702042,-2.943714379643449,-0.1029982939362526,0.9901552200317383,0.09478311240673065,0.9123053550720215,-0.8460499048233032,3.104966640472412
2.8601412773132324,-0.16141800582408905,-0.14278244972229004,0.0825820118188858,-1.3258254826642353,1.1417494948197913,0.6466452057912092,0.22054579854011536,0.9701443910598755,-0.10089261829853058,1.636184573173523,-1.6112021207809448,2.3957643508911133
2.8782410621643066,-0.0002452433109283447,-0.17367476224899292,0.17075851559638977,-1.100766815828243,0.9351645528287147,0.6135721540824612,0.36445724964141846,0.8915549516677856,-0.26888781785964966,0.9364987015724182,-2.2512779235839844,1.470622181892395
2.900297164916992,-0.03931766748428345,-0.3101634979248047,0.1533549427986145,-0.9677139869782597,0.6986476969644385,0.6472895508990708,0.36480292677879333,0.8235912919044495,-0.43429988622665405,-0.028555966913700104,-2.02426815032959,0.3873444199562073
2.918638229370117,0.08066064119338989,-0.18863248825073242,-0.1341579556465149,-1.0082021224833833,0.5699178404383198,0.7358943117573353,0.2877933382987976,0.8458742499351501,-0.4490787982940674,-0.454525887966156,-2.1166458129882812,-0.10326002538204193
2.9410340785980225,-0.037378087639808655,0.10766589641571045,-0.34932979941368103,-1.0387497488936248,0.25162534456819413,0.625698338889459,0.12630626559257507,0.8617706298828125,-0.49132269620895386,0.3859848082065582,-2.16452693939209,-0.5478692650794983
2.9592690467834473,0.26071035861968994,0.005194962024688721,-0.18416762351989746,-0.9491490266691209,0.08783596617803809,0.5197899432334981,0.051087722182273865,0.8129202127456665,-0.5801299214363098,1.6200977563858032,-1.1813256740570068,0.2745347023010254
2.9773740768432617,-0.022115327417850494,-0.08959716558456421,-0.1505739688873291,-0.8300625646034829,0.04126265993286617,0.4825722842657285,0.027837364003062248,0.7379735708236694,-0.6742551922798157,1.1350066661834717,0.197893425822258,-0.12930956482887268
2.9999241828918457,-0.2117277979850769,0.07356429100036621,0.015187442302703857,-0.7049867745962964,0.09375503790988148,0.412881717979418,0.0713011622428894,0.648023784160614,-0.7582752704620361,0.6756633520126343,1.142521619796753,-0.5281388163566589
3.0190629959106445,-0.2583637535572052,-0.0677308440208435,0.02356618642807007,-0.690548205438636,0.16997548156301204,0.33464217945756597,0.130403533577919,0.6369599103927612,-0.7597874999046326,-0.19012804329395294,1.2886595726013184,-0.6330416202545166
3.0375022888183594,-0.19532333314418793,0.01301509141921997,0.004931747913360596,-0.7941130177022132,0.2854003148508221,0.29068564335477315,0.19733747839927673,0.7132421731948853,-0.6725648641586304,-0.5848629474639893,1.4202253818511963,-0.708401620388031
3.0595879554748535,-0.096837118268013,-0.13236576318740845,0.06749480962753296,-1.0359805053119464,0.4214782982650602,0.23172806358911946,0.2085161954164505,0.8603625297546387,-0.46507787704467773,-2.9457273483276367,1.660994529724121,-1.3030025959014893
3.078658103942871,0.08519496023654938,-0.00036257505416870117,0.211863711476326,-1.344001152874105,0.6136317743740735,0.31096942805109573,0.12948092818260193,0.9743919968605042,-0.18383339047431946,-3.358354330062866,0.9187487363815308,-1.2015796899795532
3.1012730598449707,0.12345138937234879,0.04192996025085449,-0.26330602169036865,-1.4191688588781748,-3.1411371754479736,2.734550851293121,-6.879861757624894e-05,0.9885265827178955,0.151047021150589,-0.30325329303741455,0.6315227150917053,-0.8014715909957886
3.1197800636291504,0.4486895799636841,-0.013743400573730469,0.037950098514556885,-1.1460867962278207,-2.95146892610183,2.858015710292601,-0.07787046581506729,0.9111584424972534,0.4046308994293213,-2.7203853130340576,-0.11193528026342392,-0.3665293753147125
3.138209104537964,0.3321678936481476,-0.03014892339706421,0.20574736595153809,-0.9382351181229912,-3.012472590598483,2.893612738292509,-0.0761253759264946,0.8065159320831299,0.5862903594970703,-1.487531065940857,-1.352832317352295,-0.5876100659370422
3.1607532501220703,0.04014706611633301,0.02983725070953369,0.19457978010177612,-0.8365921917201022,3.135308638424535,2.9211409141715503,0.00421023927628994,0.742364227771759,0.6699830293655396,-0.479053795337677,-1.5088595151901245,-0.1759227067232132
3.179671287536621,0.062201373279094696,-0.22478580474853516,0.10909157991409302,-0.7815559696041953,3.0051908171070214,2.961515985970203,0.0965205505490303,0.7043847441673279,0.7032251358032227,-0.907291829586029,-1.5921802520751953,-0.23696593940258026
3.1989521980285645,-0.11543238908052444,-0.29061973094940186,-0.03971618413925171,-0.7776616470113413,2.986815358829945,3.056014846092618,0.10984765738248825,0.7016151547431946,0.7040379047393799,-0.7299860715866089,-0.2813813090324402,-0.8252971172332764
3.217715263366699,-0.22068578004837036,0.11762529611587524,0.16536402702331543,-0.6609678368175796,3.0739479740356983,-3.1061126082612196,0.05335789918899536,0.6138811707496643,0.7875932455062866,-0.8515588641166687,0.4385354220867157,-0.7100614905357361
3.240159034729004,-0.01756361499428749,0.3350721001625061,0.0059784650802612305,-0.6914770111394121,-3.1202381654524505,-3.09409764689717,-0.016448214650154114,0.6376756429672241,0.7701291441917419,1.0484447479248047,1.0792196989059448,0.5167286396026611
3.258687973022461,0.1570344716310501,-0.05627715587615967,0.16114646196365356,-0.8359911383531893,-3.126470582573903,3.0696163481400256,-0.010138094425201416,0.7419613599777222,0.6703659296035767,0.9715388417243958,0.5784525275230408,1.0520339012145996
3.27774715423584,0.07870201021432877,-0.4662855863571167,0.04119521379470825,-0.8146277284679325,3.083602165842162,2.9470576446583663,0.03976723924279213,0.7274702191352844,0.6849856376647949,-1.3972041606903076,-0.10033010691404343,0.3111515939235687
3.300152063369751,0.03757404163479805,-0.23797070980072021,0.321730375289917,-0.6239978582875326,-3.125827379606779,2.942348005031255,-0.0127937663346529,0.5842843055725098,0.8114483952522278,-1.390689730644226,1.403554081916809,0.005069022066891193
3.319139003753662,-0.1291075050830841,0.02343982458114624,-0.22057044506072998,-0.5977728578326839,-3.0807702284481158,2.9438198636890536,-0.0502442866563797,0.5628029108047485,0.8250626921653748,0.06047321483492851,-0.028407271951436996,-0.12170468270778656
3.338372230529785,-0.006771862506866455,-0.05365556478500366,0.028383910655975342,-0.9046839137127147,3.0532041753684456,2.888911479972378,0.05454714223742485,0.7862298488616943,0.6155216097831726,2.536526918411255,-1.0120503902435303,0.848717212677002
3.3576581478118896,-0.13989955186843872,0.09667783975601196,0.10260310769081116,-1.1578472889608338,2.4745351297092664,2.3628682854636294,0.2482827752828598,0.9159412980079651,0.31528934836387634,4.697315216064453,-1.0430721044540405,1.8216054439544678
3.3790061473846436,-0.22756433486938477,-0.3949512839317322,0.2422274947166443,-1.1732670838337045,1.3396040866348298,1.1694193309048155,0.37684106826782227,0.9220203161239624,-0.08870887756347656,2.8010318279266357,0.20620886981487274,0.206338569521904
3.3988471031188965,-0.10176438093185425,-0.4526575207710266,0.21761047840118408,-1.2689137970819573,1.1316539056886752,0.9515376216729079,0.26910752058029175,0.9547784924507141,-0.12640877068042755,-1.4627997875213623,-0.58502596616745,-1.7807252407073975
3.420657157897949,-0.16942466795444489,0.22926408052444458,0.1154167652130127,-1.5287012378774414,2.7734768941928953,2.679392670789387,0.015143043361604214,0.9991141557693481,0.03926149755716324,-1.2447178363800049,-0.8943853378295898,-1.8770835399627686
3.439826011657715,-0.1446751058101654,0.589900016784668,-0.18014276027679443,-1.4329467353188419,-2.5579614560674306,-2.5885071680834724,-0.075722835958004,0.990513801574707,0.11466716229915619,0.722258985042572,-0.346727192401886,-0.07040199637413025
3.459102153778076,0.03660484775900841,0.39775919914245605,-0.18632572889328003,-1.561979634087068,-1.3686944447996958,-1.375106758304041,-0.00863549392670393,0.9999611377716064,-0.0017694059060886502,1.7657732963562012,-0.0735398679971695,1.4847710132598877
3.477530002593994,-0.04904009401798248,0.005550265312194824,-0.0848625898361206,-1.2995161039499552,0.8378648770332772,0.810304528898069,0.19915606081485748,0.9634286165237427,-0.17928239703178406,2.594536304473877,0.6267814040184021,2.1975836753845215
3.5006942749023438,-0.115183025598526,-0.5525766611099243,0.293229341506958,-1.0022354374577147,0.7788763522806186,0.6442665012713054,0.3782292604446411,0.8426766991615295,-0.3831951916217804,1.080580711364746,0.7465850114822388,0.2586272656917572
3.519008159637451,-0.11507013440132141,-0.3917587399482727,0.24920275807380676,-1.108656244424107,0.7177212001514094,0.5751397603726487,0.293231725692749,0.8951003551483154,-0.33587270975112915,-1.559566617012024,-0.3141287565231323,-1.8063191175460815
3.5375900268554688,-0.28871896862983704,0.37630701065063477,0.09267796576023102,-1.3720052101983005,0.5602467637733454,0.46780142964732807,0.10494209825992584,0.9803060293197632,-0.1672935038805008,-2.4624032974243164,-0.30270957946777344,-1.4220407009124756
3.5602660179138184,0.010171927511692047,0.41959714889526367,-0.19082844257354736,-1.5482114060732077,0.9764480839132373,0.9302755933568818,0.018712952733039856,0.9997449517250061,-0.012647554278373718,1.90386164188385,-0.043954893946647644,0.15227340161800385
3.5788991451263428,-0.06587854027748108,0.1646241545677185,0.0036890506744384766,-1.3741690216496758,0.6284942580696425,0.5587637809977474,0.11485924571752548,0.9807310700416565,-0.15803177654743195,0.7376046776771545,0.3798084557056427,1.3618735074996948
3.5978479385375977,-0.047458767890930176,-0.020486533641815186,-0.08488410711288452,-1.1918110500829167,0.8024072191381357,0.7052075911408417,0.2660256624221802,0.9290405511856079,-0.25712648034095764,1.6100329160690308,0.2642477750778198,1.3914469480514526
3.6195461750030518,-0.06842780113220215,-0.35751259326934814,0.20983350276947021,-0.9974436432741174,0.7278200432030426,0.5703219439532977,0.36086252331733704,0.8400870561599731,-0.4050087332725525,0.7863078117370605,0.35221177339553833,-0.015113134868443012
3.6388840675354004,0.009909719228744507,-0.3137742877006531,0.26657336950302124,-1.081963034404895,0.6431876204433817,0.47367551023441307,0.281639963388443,0.8828813433647156,-0.37576529383659363,-1.2406463623046875,-0.3609063923358917,-1.4476372003555298
3.657276153564453,-0.03481584042310715,0.16232740879058838,0.03556114435195923,-1.291237203092935,0.4148558041951686,0.2838128174505727,0.11121659725904465,0.9611771702766418,-0.2525259256362915,-1.7819057703018188,-0.661983072757721,-1.4941377639770508
3.6788330078125,0.07511921972036362,0.4866655468940735,-0.2719566226005554,-1.4035794214537958,0.16475487748000753,0.0809948614186813,0.02729778364300728,0.9860517978668213,-0.16418538987636566,0.6325266361236572,-0.05011381208896637,0.4217049479484558
3.6974382400512695,-0.026428088545799255,0.13893431425094604,-0.01762610673904419,-1.2584870660396263,0.4690249673095072,0.3714958569247358,0.13888536393642426,0.9516265988349915,-0.2740762531757355,1.111223816871643,0.44384485483169556,1.5128172636032104
3.7197751998901367,-0.07936954498291016,-0.20494163036346436,0.08134546875953674,-1.0601360998875902,0.7013341131061861,0.5651567148283541,0.31536194682121277,0.8724219799041748,-0.37339872121810913,0.9611217975616455,0.3030286133289337,0.9986147880554199
3.7378902435302734,-0.033169716596603394,-0.46691662073135376,0.2692299485206604,-1.018808449724609,0.6735731196422629,0.5172572892794385,0.3270997703075409,0.8514838218688965,-0.4098550081253052,-0.537132978439331,-0.30936720967292786,-0.9034032225608826
3.7603061199188232,-0.14019620418548584,-0.04009699821472168,0.03814968466758728,-1.2588846281670396,0.5560076394778614,0.4503150553139867,0.16197049617767334,0.9517486691474915,-0.26065343618392944,-1.0858631134033203,-0.3024202585220337,-1.7120712995529175
3.778219223022461,-0.07355678826570511,0.2523579001426697,0.037871524691581726,-1.4289149971581072,0.11872000133620442,0.033866600837056685,0.01674831472337246,0.9899517297744751,-0.1404106616973877,-1.727513074874878,-0.3733392655849457,-1.0271472930908203
3.8007240295410156,0.09191030263900757,0.32687950134277344,-0.19470983743667603,-1.4988858075020008,-0.23020742092860438,-0.3002556147808572,-0.01639455370604992,0.9974155426025391,-0.06995392590761185,0.37730035185813904,-0.026562677696347237,0.5275063514709473
3.81882905960083,0.02542976289987564,0.10635298490524292,-0.034867823123931885,-1.412541217862852,0.580389374806608,0.49523133933496827,0.08641716837882996,0.9875037670135498,-0.1317887157201767,0.6687144637107849,0.3760872781276703,1.3998430967330933
3.8401401042938232,-0.08058039844036102,-0.21838879585266113,0.09828121960163116,-1.2566313383913341,0.803902739038612,0.6743021981760953,0.22251765429973602,0.9510547518730164,-0.21443118155002594,0.83309006690979,0.3997483253479004,0.5670270323753357
3.8590450286865234,-0.010963588953018188,-0.33011913299560547,0.15827079117298126,-1.2508734255842135,0.7240196370047015,0.566707830564511,0.2083207666873932,0.9492596387863159,-0.23560237884521484,-0.6961236596107483,-0.12263967841863632,-0.8905227780342102
3.877397060394287,-0.051243171095848083,0.03671085834503174,0.016294538974761963,-1.3809165468874465,0.5216969469566742,0.38874236318075567,0.09405935555696487,0.9820269346237183,-0.16363348066806793,-0.8704179525375366,-0.4856533706188202,-1.2133855819702148
3.8999199867248535,-0.005327478051185608,0.31457066535949707,-0.07704431563615799,-1.4808891571932032,0.05970962557851879,-0.020726222869476656,0.005357993301004171,0.99596107006073,-0.08962749689817429,-0.16770359873771667,-0.377514123916626,-0.102406345307827
3.918490171432495,0.051633309572935104,0.1339641809463501,-0.081515833735466,-1.4325260365230916,0.23818151570349022,0.17366271195083685,0.0325189083814621,0.9904558658599854,-0.13393832743167877,0.7644509077072144,0.05059158429503441,0.6288314461708069
3.9391610622406006,-0.02071734517812729,-0.10900503396987915,0.04408349096775055,-1.3419736565968492,0.4539424432938095,0.36925805134781176,0.0994679406285286,0.9739341139793396,-0.20385834574699402,0.25055134296417236,0.2237643301486969,0.32063257694244385
3.9603710174560547,-0.05919100344181061,-0.03981512784957886,0.057853370904922485,-1.3472513131658745,0.4891931154198474,0.3883428800917632,0.10417390614748001,0.9751176834106445,-0.19568607211112976,-0.04678187146782875,0.08676991611719131,-0.271016925573349
3.97792911529541,0.0006877928972244263,0.010625243186950684,0.02048449218273163,-1.3822594228443275,0.42789961814600996,0.32495400337173974,0.07777292281389236,0.9822794795036316,-0.1705242544412613,-0.2943781316280365,-0.06653352826833725,-0.2607218325138092
3.9996261596679688,0.05430583655834198,0.023709893226623535,-0.03581969439983368,-1.4085343472492735,0.3513698587629426,0.26263345321284876,0.055603232234716415,0.9868643879890442,-0.1516803503036499,-0.06824075430631638,-0.1724095493555069,-0.0480695478618145
4.019879102706909,-0.004629593342542648,0.009306013584136963,-0.012344881892204285,-1.4063735794753156,0.36953262894482963,0.3004840012106926,0.059118736535310745,0.9865130186080933,-0.1526331901550293,-0.02012474462389946,-0.06982936710119247,0.07358080893754959
4.037825107574463,-0.034915708005428314,-0.024997293949127197,0.003543555736541748,-1.401242116118715,0.3897874614953037,0.32489995038062214,0.06412103772163391,0.9856600761413574,-0.1560857594013214,-0.03765458986163139,0.006983031518757343,-0.015265369787812233
4.057605266571045,-0.011676393449306488,0.015345871448516846,0.0018676966428756714,-1.4108319214525167,0.28442845876881656,0.2211775952683003,0.04469641298055649,0.9872329831123352,-0.15288399159908295,-0.016889924183487892,-0.012283075600862503,-0.14022381603717804
4.078563213348389,0.023400451987981796,0.002168893814086914,0.010787725448608398,-1.4156517586373192,0.21205907961124,0.1443880516675551,0.032523009926080704,0.9879891872406006,-0.15106181800365448,-0.033056747168302536,0.057625699788331985,-0.032954804599285126
4.097544193267822,-0.0033093728125095367,0.007281005382537842,0.002555370330810547,-1.4238630166775839,0.25873168980063144,0.18552262415477808,0.03745854273438454,0.9892247319221497,-0.14153248071670532,-0.004512456711381674,0.007549663074314594,0.010633396916091442
4.120445251464844,0.0020293109118938446,0.011469483375549316,0.0013242363929748535,-1.4287917357923063,0.24958718769474808,0.18161286366138285,0.03495800122618675,0.9899342656135559,-0.13714277744293213,-0.011791594326496124,-0.05492924898862839,0.005226430483162403
4.139027118682861,-0.002873718738555908,-0.008130669593811035,-0.00663912296295166,-1.429279482935907,0.26907910259363216,0.20371598001007576,0.037495922297239304,0.9900031685829163,-0.1359696090221405,-0.044673845171928406,0.010267774574458599,0.048989951610565186
4.159196138381958,-0.010827425867319107,-0.06910961866378784,0.006994843482971191,-1.4276999873067622,0.24077275228577838,0.17274534027099178,0.034005533903837204,0.9897791743278503,-0.13849517703056335,-0.021681908518075943,0.03188873827457428,-0.1587671935558319
4.178872108459473,-0.039719562977552414,0.02234548330307007,0.03872179985046387,-1.4625694395542228,-0.030226401767108536,-0.10195468622212304,-0.0032644260209053755,0.9941492080688477,-0.10796626657247543,-0.41154441237449646,-0.052395518869161606,-0.37350383400917053
4.200358152389526,-0.027680248022079468,0.0901648998260498,0.00815439224243164,-1.4524965998729231,-0.26568701179692183,-0.3354261370664835,-0.03098977543413639,0.9930107593536377,-0.1138826310634613,0.5228950381278992,0.10701411217451096,0.0522083155810833
4.218055248260498,-0.028566665947437286,0.15837424993515015,-0.017765939235687256,-1.402928962328956,0.02366891580230746,-0.08120338084495794,0.0039542363956570625,0.9859433174133301,-0.1670333296060562,0.31766995787620544,0.5541436672210693,0.6245962977409363
4.240042209625244,0.02263800799846649,-0.07237750291824341,-0.04600709676742554,-1.2885195045461995,0.3960018944456643,0.22636944138783666,0.1074431762099266,0.9604237079620361,-0.2569867670536041,1.5257155895233154,0.5592156052589417,0.6571745276451111
4.258151054382324,0.0007720291614532471,-0.4092535376548767,0.16000664234161377,-1.1559392595313367,0.3618662747462986,0.1362144193461951,0.14269112050533295,0.9151739478111267,-0.37695616483688354,0.7172754406929016,0.27016621828079224,-0.612652063369751
4.281231164932251,-0.44982028007507324,0.44566476345062256,0.001995980739593506,-1.2484674964189448,0.16038723305192062,-0.03830680788367843,0.05058934912085533,0.9485002756118774,-0.3127107620239258,-1.2645875215530396,0.1273873746395111,-0.5098885297775269
4.29983115196228,0.1426098346710205,0.07466018199920654,-0.22317300736904144,-1.3094188308687986,0.40275989190000894,0.18876610302262423,0.1012866348028183,0.9660349488258362,-0.23773400485515594,0.8554211258888245,0.43454307317733765,0.9767699837684631
4.318871021270752,0.19392156600952148,-0.40190428495407104,0.11326968669891357,-1.1968579417414844,0.5512447081352794,0.3034629196565073,0.1913170963525772,0.9308959245681763,-0.31117624044418335,-0.3671495318412781,0.11428490281105042,0.6903504133224487
4.340407133102417,-0.14276887476444244,-0.11449885368347168,0.10143643617630005,-1.2998887263786754,0.5481084884659655,0.34410970591168555,0.13944247364997864,0.9635283946990967,-0.22840486466884613,-0.5488383769989014,-0.7153187990188599,-1.2845443487167358
4.359117031097412,-0.32359930872917175,0.3270561099052429,0.09007366001605988,-1.394486830738132,0.23973643067140443,0.12075722803697721,0.04164740815758705,0.9844977259635925,-0.17038069665431976,-1.0529364347457886,-0.6895126700401306,-0.5241160988807678
4.380725145339966,0.055614374577999115,0.2536267042160034,-0.23594558238983154,-1.3954706329245588,0.2262421466549968,0.16979440176212773,0.03912743553519249,0.9846698045730591,-0.16998405754566193,1.1302798986434937,0.06609188765287399,0.6218242049217224
4.399176120758057,0.08443042635917664,-0.1325923204421997,-0.09372586011886597,-1.2400314153695255,0.44734062195966257,0.35567185992695083,0.14048410952091217,0.9457942247390747,-0.2928098440170288,1.089396357536316,0.538630485534668,1.012363076210022
4.419670104980469,-0.07528673112392426,-0.457965612411499,0.19858866930007935,-1.1666466831179063,0.5404117031640608,0.40810995817708023,0.20231616497039795,0.9194371104240417,-0.3371995687484741,-0.04644971713423729,0.15374086797237396,-0.33229219913482666
4.438575267791748,-0.2489231675863266,0.06834882497787476,0.1330324113368988,-1.1998559963240334,0.4155582150204473,0.29100925906483993,0.1463383436203003,0.9319868683815002,-0.3316408693790436,-0.0051018544472754,-0.2834533154964447,-0.791347324848175
4.45995306968689,-0.219324991106987,0.272013783454895,0.03280156850814819,-1.2567290688033548,0.2402113331758424,0.12963355089918235,0.0734967440366745,0.9510849714279175,-0.30005934834480286,-0.2890016436576843,-0.05476723983883858,-0.3991425931453705
4.480319023132324,0.02413535863161087,0.21991068124771118,-0.20208364725112915,-1.2793833265326464,0.28690343843988286,0.16360951782617075,0.08130287379026413,0.9578388929367065,-0.27556225657463074,-0.5641125440597534,0.6280108690261841,0.6304342150688171
4.500051975250244,0.10818135738372803,-0.09636616706848145,-0.1795032024383545,-1.189337918686721,0.5826427984332188,0.35618935187479434,0.20483745634555817,0.9281226992607117,-0.3108532726764679,1.2443366050720215,1.3681869506835938,1.0749213695526123
4.521327018737793,-0.006551802158355713,-0.41060227155685425,0.2335922122001648,-1.09468126381292,0.7030920915855047,0.38526332724276774,0.2963467240333557,0.8887822031974792,-0.34963536262512207,0.3009888529777527,0.37014535069465637,0.07374390214681625
4.541064262390137,-0.01840078830718994,-0.46581971645355225,0.40024399757385254,-1.1007673820278498,0.43948464137137283,0.174628961027652,0.19270195066928864,0.8915551900863647,-0.4098723530769348,0.03788945823907852,-1.8609075546264648,-1.7402502298355103
4.560461044311523,-0.04876251146197319,0.6991358399391174,0.03667464852333069,-1.234339815262984,-0.10261417775869223,-0.15252689817066886,-0.033818043768405914,0.943930447101593,-0.32840749621391296,-1.6705230474472046,-2.32231068611145,-0.4184454381465912
4.578549146652222,0.3793294131755829,0.5453996658325195,-0.3837335407733917,-1.2765159244317,-0.16273361392923882,-0.09765359232113267,-0.046992991119623184,0.9570111036300659,-0.2862188518047333,0.6021338701248169,-0.7010273933410645,1.4011168479919434
4.601065158843994,0.17812073230743408,-0.26149582862854004,0.10072541236877441,-1.152340448024708,0.3118456667674026,0.4520660525101476,0.12467466294765472,0.91371750831604,-0.3867515027523041,0.29679691791534424,-0.38787880539894104,2.05500864982605
4.61809515953064,-0.026843681931495667,-0.572035014629364,0.2925451993942261,-1.1524340786897094,0.5126501477816152,0.7316732684336257,0.19926799833774567,0.9137555360794067,-0.35403820872306824,-0.6247009634971619,-1.2528351545333862,0.06566276401281357
4.638513088226318,-0.4945417642593384,0.14819097518920898,0.3734591603279114,-1.13646759850611,0.1132423302675203,0.45693144102044986,0.04755079001188278,0.9071527123451233,-0.4181064963340759,0.009877560660243034,-1.58538019657135,-1.6563290357589722
4.657945156097412,-0.0879867672920227,0.4768974184989929,0.05580437183380127,-1.2192561692102475,-0.3062082767213409,0.18208512117529413,-0.10380097478628159,0.9388434886932373,-0.32832640409469604,-1.4423269033432007,-1.6448484659194946,-0.536401629447937
4.6801230907440186,0.49563196301460266,0.30344730615615845,-0.28269118070602417,-1.2659467306206014,-0.20949084301922358,0.4058802328421775,-0.06241971254348755,0.9538921117782593,-0.2935875654220581,0.9112929701805115,-0.42042937874794006,2.020470380783081
4.698707103729248,0.01572813093662262,-0.1561335325241089,0.06849923729896545,-1.1889246576751997,0.37680235690941755,1.0476717179917985,0.1371190994977951,0.9279687404632568,-0.34651440382003784,-0.16564521193504333,-0.12677404284477234,2.2188432216644287
4.717926979064941,-0.35863837599754333,-0.5584439039230347,0.2651103734970093,-1.1891629065513734,0.6024298011342692,1.3231209502297567,0.21104006469249725,0.9280575513839722,-0.30687370896339417,-0.16511748731136322,-0.4660851061344147,-0.5909597873687744
4.739188194274902,-0.48026952147483826,0.35395175218582153,0.3531155288219452,-1.2524163133096478,-0.045059160877321244,0.7736123683812669,-0.014100007712841034,0.9497437477111816,-0.3127102851867676,-0.8290367126464844,-1.1316735744476318,-1.135753870010376
4.758272171020508,0.1478564292192459,0.6088401079177856,-0.4653106927871704,-1.428654478423531,-0.599831838051623,0.2884591011567761,-0.07997012138366699,0.9899148344993591,-0.11693418771028519,0.4445219039916992,-0.49541494250297546,0.0024412423372268677
4.780428171157837,0.16017983853816986,-0.07413196563720703,-0.18483462929725647,-1.3220745347865919,0.12606898041487086,1.0401643737574806,0.030951714143157005,0.9692278504371643,-0.2442120462656021,0.30455148220062256,0.03596150875091553,1.595858097076416
4.799018144607544,-0.1131281852722168,-0.44393205642700195,-0.02984851598739624,-1.3053437308096663,0.586392619379928,1.5126812112824546,0.14517159759998322,0.9649738669395447,-0.21851883828639984,-0.7682399153709412,0.03249087557196617,0.3868691325187683
4.81807804107666,-0.0821446031332016,-0.267326295375824,0.21813148260116577,-1.3916775916633524,0.2994540002777697,1.2492841403452213,0.052557773888111115,0.984001100063324,-0.17023415863513947,-0.2062527984380722,-0.955584704875946,-2.0655953884124756
4.839269161224365,-0.12742763757705688,0.21225851774215698,-0.0006971359252929688,-1.4253919441345342,-1.1161099670904393,-0.043592356982944475,-0.1301712542772293,0.9894474148750305,-0.06363397091627121,-2.069018602371216,-1.412530779838562,-0.687379002571106
4.860367059707642,0.40673741698265076,0.4072025418281555,-0.22496646642684937,-1.4518031668603535,-1.2487264603148707,-0.02754232269826686,-0.11260902881622314,0.992928683757782,-0.03757629916071892,0.5792102217674255,-1.0934854745864868,1.240136742591858
4.878918170928955,0.1277228593826294,-0.14875727891921997,-0.10113571584224701,-1.4561730758581255,0.4294012234391032,1.763987777387274,0.04761583358049393,0.9934379458427429,-0.10398820042610168,0.9783676266670227,-1.1343778371810913,1.7947499752044678
4.897511005401611,-0.056138888001441956,-0.48819810152053833,0.3585807681083679,-1.347061255193326,0.5012487989228244,1.9571103401663732,0.10661491751670837,0.9750755429267883,-0.1945793777704239,0.1433955281972885,-1.6685463190078735,-0.6966033577919006
4.92064905166626,-0.3842107355594635,-0.00938493013381958,0.3604663014411926,-1.4036862753612749,-0.2916511295888185,1.3671865016324503,-0.04782667011022568,0.9860695600509644,-0.1593097299337387,-1.8527437448501587,-1.3933005332946777,-0.8505129218101501
4.939295291900635,0.05451076477766037,0.16909193992614746,0.13634759187698364,-1.4787203611292006,-1.2542616009581367,0.5772346494268058,-0.08737823367118835,0.9957640171051025,-0.028620563447475433,-0.10312545299530029,-1.671696662902832,0.029514264315366745
4.957455158233643,0.0843905583024025,0.31908947229385376,-0.07266902923583984,-1.5202058486511423,-2.686202074465093,-0.7170808514495881,-0.02224155142903328,0.9987205862998962,0.04541678726673126,-0.46784502267837524,-1.1097450256347656,1.2212525606155396
4.980290174484253,-0.16452786326408386,-0.002908766269683838,-0.1234164834022522,-1.4129855102358275,1.2111536489236268,-3.0503762499829343,0.14710229635238647,0.9875736832618713,-0.0553097203373909,1.8947304487228394,0.12866222858428955,1.2574706077575684
4.999307155609131,-0.1522258222103119,-0.4617539048194885,0.18452054262161255,-1.29333488483162,0.83558389307352,2.8020224335012687,0.2031596153974533,0.9617539048194885,-0.18372710049152374,0.17688581347465515,0.48128482699394226,-0.4874565005302429
5.01847505569458,-0.2862759232521057,-0.216056227684021,-0.11247502267360687,-1.3543937232906924,0.9237528171288069,2.8647730942665466,0.17131613194942474,0.9766761660575867,-0.1294378638267517,-2.59755277633667,0.29980939626693726,0.1527583748102188
5.040466070175171,0.21957458555698395,-0.27876222133636475,-0.0009210705757141113,-1.2588926135797769,0.8845827372366682,2.7917076016991973,0.23741082847118378,0.9517511129379272,-0.1944371610879898,1.9806700944900513,0.6199510097503662,1.0120244026184082
5.059563159942627,-0.019785672426223755,0.08053195476531982,0.38517534732818604,-1.207833285848253,1.0234246232573143,2.8946720569135183,0.30317187309265137,0.9348489046096802,-0.18478165566921234,-3.691269874572754,-0.2543666362762451,0.606063723564148
5.078693151473999,-0.09805959463119507,-0.03346741199493408,0.03986619412899017,-1.2600057621632876,1.7800543329056033,-2.6169866093405467,0.2991397976875305,0.9520921111106873,0.06352738291025162,-3.813284397125244,-0.09752384573221207,-0.5165038108825684
5.0975000858306885,0.19943484663963318,-0.1240544319152832,-0.23077534139156342,-1.2490037596855303,2.0477430799688943,-2.264540753765337,0.28097283840179443,0.9486700296401978,0.1451888382434845,-0.9251409769058228,-0.9315023422241211,-0.2098984569311142
5.1188530921936035,-0.1681167185306549,0.1924816370010376,0.21718476712703705,-1.2020012762746997,2.3086439706602553,-1.899003943015521,0.26673421263694763,0.9327623844146729,0.24250151216983795,-0.9933455586433411,-0.44201961159706116,-0.1253690868616104
5.138124942779541,-0.15833312273025513,-0.041226208209991455,0.24678169190883636,-1.2441544348716087,2.0592083850378824,-2.1058236918551883,0.28334829211235046,0.9471251964569092,0.15055716037750244,1.55559241771698,-0.7063268423080444,0.32943713665008545
5.160071134567261,-0.10662132501602173,0.038239896297454834,0.031304359436035156,-1.2776880486092996,1.6045195722160281,-2.5793472821254864,0.28876546025276184,0.9573504328727722,0.009741801768541336,0.8311586380004883,0.14308805763721466,0.02175051160156727
5.178850173950195,-0.08632907271385193,-0.024856925010681152,-0.032012939453125,-1.2719390803957422,1.4310881568543417,-2.7844769528423785,0.29155972599983215,0.9556735754013062,-0.041000377386808395,0.5026463866233826,0.2642025947570801,0.06683527678251266
5.2001142501831055,-0.01962125301361084,0.05178213119506836,0.06312686204910278,-1.2806325964447296,1.4582906867606658,-2.8037010314285804,0.28430014848709106,0.9581970572471619,-0.03212101012468338,0.2765308618545532,0.4456683397293091,-0.12436865270137787
5.217785120010376,0.06264501810073853,0.07063329219818115,0.08663148432970047,-1.2882808879334462,1.2415862942641536,-3.061014663920426,0.2638014256954193,0.9603572487831116,-0.09012576937675476,1.5630109310150146,0.10110597312450409,-0.3309480547904968
5.238203048706055,-0.09826993942260742,0.18549716472625732,0.09997446835041046,-1.2601526662478906,0.9703281316067054,2.890025166312809,0.25220051407814026,0.9521369934082031,-0.17271305620670319,0.6987379193305969,0.5674590468406677,-0.4270021915435791
5.2605061531066895,0.10295239090919495,-0.14321547746658325,0.08173331618309021,-1.1449062940524606,0.44582979082070284,2.303538755794141,0.17814496159553528,0.9106714129447937,-0.3727489411830902,2.118833541870117,0.06329743564128876,-0.7019134759902954
5.278830051422119,0.012039858847856522,-0.08333861827850342,0.0826714038848877,-0.99041396627942,0.11327423812187302,1.8992683553106202,0.0619804784655571,0.8362530469894409,-0.5448296070098877,2.4965856075286865,-0.041394975036382675,-1.696925401687622
5.298112154006958,-0.11689750850200653,-0.25668907165527344,0.19955778121948242,-0.9836505214093574,-0.07493375846061896,1.6331537813115218,-0.041473500430583954,0.8325252532958984,-0.5524325370788574,0.13130390644073486,0.5239168405532837,-1.612813949584961
5.317604064941406,-0.24196159839630127,-0.13715273141860962,0.0026520490646362305,-0.8997625800393506,-0.3142201387220664,1.3005137563618239,-0.1921815127134323,0.7831792831420898,-0.5913513898849487,-0.2846861183643341,0.24368435144424438,-2.458617687225342
5.34042501449585,-0.14271312952041626,0.10889452695846558,0.17583900690078735,-0.7860358045574269,-0.657702225679871,0.8763480400149117,-0.431978702545166,0.7075574994087219,-0.5592466592788696,-0.8950827121734619,-0.4435105323791504,-2.394211530685425
5.358817100524902,-0.030280768871307373,0.07332980632781982,0.06482625007629395,-0.7286756472793019,-0.9884814472042082,0.4944803531903661,-0.6231005787849426,0.6658821702003479,-0.41030052304267883,-2.521991491317749,-0.6383562088012695,-2.197538137435913
5.3800482749938965,-0.08008962869644165,0.49067890644073486,0.09527641534805298,-0.6015066935032665,-1.2900720676741324,0.11801173799840141,-0.7922096252441406,0.5658853650093079,-0.22842463850975037,-0.9028791785240173,-0.7075756192207336,-1.715446949005127
5.399796962738037,-0.16935324668884277,0.43125537037849426,-0.16400468349456787,-0.5004453935764048,-1.383743463132061,0.07847757972345538,-0.8620645999908447,0.47981634736061096,-0.16315901279449463,0.7773585915565491,-0.7976595759391785,-0.5312904715538025
5.41748309135437,-0.18293583393096924,0.11131122708320618,-0.1344154328107834,-0.487151550694809,-1.3951480555600968,0.17034324541038476,-0.870073139667511,0.46811071038246155,-0.15441817045211792,0.793158233165741,-0.3516991138458252,0.2789575755596161
5.440286159515381,0.0996098518371582,0.07466012239456177,-0.14081794023513794,-0.5032445658599098,-1.3309826286477027,0.3317231520795178,-0.850952684879303,0.48227038979530334,-0.20807430148124695,1.3424681425094604,0.3310428559780121,0.5583620667457581
5.456820964813232,0.5554235577583313,-0.14525479078292847,-0.06912362575531006,-0.5136093446166287,-1.2440458481423766,0.4462593802359324,-0.8248937726020813,0.4913240969181061,-0.27955496311187744,0.8007091879844666,0.5316336154937744,0.07625006139278412
5.4776880741119385,0.21866536140441895,0.24797290563583374,0.12619373202323914,-0.590664224969346,-1.2107151014263553,0.4492370332982895,-0.7773048877716064,0.5569128394126892,-0.29265186190605164,-1.365849256515503,0.33426138758659363,1.1388911008834839
5.500884056091309,-0.21056997776031494,-0.27990293502807617,-0.01979556679725647,-0.6762992466152015,-1.2024097259114215,0.5293992202073755,-0.7275708317756653,0.6259111166000366,-0.28084832429885864,1.3299838304519653,-0.3388361632823944,-0.6109062433242798
5.520319938659668,-1.0984923839569092,0.8519160151481628,-0.34700050950050354,-0.7303044280511399,-1.196442233048319,0.5492574933133733,-0.6933777332305908,0.6670964360237122,-0.27241477370262146,0.6415232419967651,0.9241417050361633,0.6231379508972168
5.539328098297119,0.7252411246299744,-0.3655908703804016,0.33701634407043457,-0.7923581788710119,-1.1918971516357195,0.548944251839251,-0.6523651480674744,0.7120110988616943,-0.25973060727119446,0.5468878149986267,-0.6133942604064941,-0.27306631207466125
5.558458089828491,0.32195138931274414,-0.12728619575500488,0.21021875739097595,-0.7043446895574859,-1.2345684256369343,0.6200458879395153,-0.7193666100502014,0.6475346088409424,-0.25141748785972595,0.6128090620040894,-2.2901101112365723,-1.0346094369888306
5.577934265136719,-0.6706265807151794,0.05714380741119385,-0.16966691613197327,-0.6767748483727692,-1.1861177385884214,0.7597293506124247,-0.7226228713989258,0.6262819766998291,-0.29255232214927673,2.5398495197296143,1.014027714729309,0.44522303342819214
5.6010422706604,0.15974539518356323,0.2290046513080597,-0.3572338819503784,-0.36704134754297246,-0.8308284001450701,1.2611374031442564,-0.6893017292022705,0.3588554263114929,-0.6293536424636841,3.2947916984558105,1.1639734506607056,0.5633065700531006
5.619623184204102,0.006014764308929443,-0.11659610271453857,0.041120707988739014,-0.10356702658127014,-0.5572301838120264,1.5495537081256943,-0.5260037779808044,0.10338198393583298,-0.8441754579544067,2.005734920501709,1.7109205722808838,0.9739162921905518
5.640153169631958,-0.1569223701953888,-0.10596948862075806,0.3633599281311035,0.08312155033979066,-0.37067231416200525,1.6939507512722816,-0.3609914779663086,-0.08302586525678635,-0.928865909576416,1.5388559103012085,1.5853346586227417,0.3072815239429474
5.659769058227539,-0.11526244878768921,0.036693722009658813,0.1894000768661499,0.17748613811471534,-0.26352761543344344,1.7185326403525123,-0.2563959062099457,-0.17655576765537262,-0.9503100514411926,0.6432484984397888,0.8487117290496826,-0.04462292417883873
5.677175998687744,-0.19255828857421875,0.014834389090538025,0.10887032747268677,0.21436357792601438,-0.18856472917459147,1.7246972095964517,-0.18315891921520233,-0.21272560954093933,-0.9597919583320618,0.31719696521759033,1.0788252353668213,-0.09409820288419724
5.699186086654663,-0.16697368025779724,-0.07139232754707336,0.03521728515625,0.2524002540445241,-0.11573674302486721,1.7419381054972076,-0.11181969195604324,-0.24972887337207794,-0.9618377685546875,0.2348208725452423,0.6647186875343323,0.05750200152397156
5.717461109161377,0.05276056379079819,-0.10044997930526733,0.018574953079223633,0.28266307356584264,-0.0667007658775764,1.7179632260638091,-0.06400632858276367,-0.27891403436660767,-0.9581806659698486,-0.25883305072784424,-1.6534461975097656,-0.8228221535682678
5.740244150161743,0.1278480440378189,-0.1592617630958557,-0.03510075807571411,0.36504231930701553,-0.04319784605498659,1.6955166811727829,-0.04033893346786499,-0.3569888174533844,-0.9332372546195984,0.7338100075721741,0.37395045161247253,-0.1003367230296135
5.7585649490356445,-0.042361289262771606,0.02996009588241577,0.036303699016571045,0.44408689243932975,0.005900521617421069,1.6972260127152936,0.0053281597793102264,-0.4296335279941559,-0.9029875993728638,0.7065613865852356,0.3681543469429016,0.21090398728847504
5.780875205993652,0.015363325364887714,0.10422956943511963,-0.019559621810913086,0.47808502974887923,0.005261357433777651,1.6780821033800954,0.004671419970691204,-0.46007975935935974,-0.8878653049468994,-0.08196038007736206,-0.2294785976409912,0.03611338883638382
5.798673152923584,-0.03219091147184372,-0.00033783912658691406,0.07568502426147461,0.5115335283946505,0.011770969243390368,1.685975125930095,0.010263987816870213,-0.4895150363445282,-0.8719344735145569,0.10235726833343506,0.0559508390724659,-0.13024680316448212
5.820878028869629,0.003562445752322674,0.0904073417186737,0.005836904048919678,0.4990144331084722,0.009619343053957648,1.6693543755235032,0.008446178399026394,-0.4785603880882263,-0.8780140280723572,0.03646324574947357,-0.06827319413423538,-0.18484732508659363
5.839017152786255,0.08415190875530243,0.052778780460357666,-0.008850276470184326,0.49866645829909295,0.01332705915101035,1.6456181885800418,0.01170375756919384,-0.4782548248767853,-0.8781431317329407,0.08010469377040863,-0.3638041019439697,-0.34418758749961853
5.860433101654053,-0.02371610887348652,-1.6033649444580078e-05,-0.0660862922668457,0.49457129415142886,7.378593390638183e-05,1.605872574716414,6.494433182524517e-05,-0.47465434670448303,-0.8801722526550293,0.005470322445034981,-0.1583472490310669,-0.26226159930229187
5.878462076187134,0.023160459473729134,0.02408045530319214,0.016983985900878906,0.5052324525989083,-0.0002588918431210527,1.5702685567166492,-0.00022654641361441463,-0.48401087522506714,-0.8750619888305664,0.18393774330615997,-0.3518087565898895,-0.41106367111206055
5.899470090866089,-0.07902369648218155,0.0511624813079834,0.0347902774810791,0.5253436413096978,-0.016334572266178536,1.5453829205319176,-0.014131253585219383,-0.5015103220939636,-0.8650361895561218,0.7273846864700317,-0.0029027112759649754,-0.1506357342004776
5.918217182159424,-0.04795120656490326,0.17017140984535217,-0.0197751522064209,0.5125048773359528,-0.022806014798977918,1.52436357767668,-0.019874151796102524,-0.4903618395328522,-0.8712922930717468,0.5716869235038757,-0.3831199109554291,-0.5098232626914978
5.938916206359863,0.06042962148785591,0.01380869746208191,0.05031764507293701,0.4815971964511772,-0.016672443679705322,1.4849965564959309,-0.014775373041629791,-0.4631952941417694,-0.886133074760437,-0.3035253882408142,-0.014277249574661255,-0.2790148854255676
5.960878133773804,-0.12267030775547028,0.03133058547973633,0.049797654151916504,0.4207737334335257,-0.01151291266938214,1.4478699768016263,-0.010508446022868156,-0.40846681594848633,-0.9127126932144165,-0.5157753229141235,-0.0008981500286608934,-0.3232458233833313
5.978500127792358,-0.07887475192546844,0.016758352518081665,0.17106425762176514,0.34607388724519683,-0.004474704527722242,1.390124121584643,-0.004209393169730902,-0.33920708298683167,-0.9407023191452026,-1.1149189472198486,-0.2576938271522522,-0.688934326171875
6.000863075256348,-0.15705640614032745,-0.020068231970071793,0.3812512755393982,0.021620480221430437,7.395806567951394e-05,1.2420265818267133,7.394078420475125e-05,-0.02161879651248455,-0.9997662901878357,-4.325011730194092,-0.11670712381601334,-1.5450245141983032
6.019420146942139,-0.133071631193161,0.11291593313217163,0.106914222240448,-0.5123925907428569,-0.06662936873082692,1.0271825774960215,-0.05802946910262108,0.490263968706131,-0.869640052318573,-6.271223068237305,0.37420454621315,-2.1434483528137207
6.037521123886108,0.18886777758598328,0.48018479347229004,-0.2940216660499573,-0.9970686063001916,-0.325937161814688,0.5751691469596497,-0.17379213869571686,0.8398835062980652,-0.5141906142234802,-2.0021536350250244,0.7013716697692871,-2.152461528778076
6.059463977813721,0.3508327007293701,0.22404766082763672,-0.3942107558250427,-1.0216365244762402,-0.697665287643318,0.14686680476858843,-0.3353298008441925,0.852963387966156,-0.4000092148780823,-0.5896973013877869,-0.5266231894493103,-0.8653496503829956
6.077953100204468,0.29400435090065,0.16071754693984985,-0.354062557220459,-1.0110980888533878,-0.8080532984093299,0.0723685509612077,-0.3838328719139099,0.8474153876304626,-0.3668237328529358,0.0796453058719635,-0.3810754716396332,0.009378993883728981
6.100376129150391,-0.09765753149986267,0.22315078973770142,-0.1639929711818695,-0.9980808281289822,-0.7817019868308914,0.18700752822912856,-0.38177359104156494,0.8404325246810913,-0.384606271982193,0.6702194213867188,-0.05581439658999443,0.5407379269599915
6.119335174560547,0.00044968724250793457,-0.062388598918914795,0.08212476968765259,-1.0102216865248463,-0.6950769727424079,0.29526777622413164,-0.34050706028938293,0.8469497561454773,-0.4083271920681,0.47085848450660706,-0.22907868027687073,0.37892651557922363
6.137481212615967,-0.002017199993133545,-0.1391817331314087,0.25573837757110596,-0.9993724932063782,-0.6409110013913527,0.3805643912487391,-0.32337647676467896,0.8411317467689514,-0.43350329995155334,0.11218854039907455,-0.14169707894325256,0.22539541125297546
6.159321069717407,0.06474366784095764,0.008299827575683594,0.23569661378860474,-0.995284552505198,-0.6939492261158756,0.35301366438881054,-0.34809941053390503,0.8389138579368591,-0.41839009523391724,0.07064764946699142,-0.30409497022628784,-0.32363250851631165
6.181133270263672,0.06781384348869324,0.1253640055656433,0.05632728338241577,-0.9969430646234814,-0.8133815464268404,0.26643116473520323,-0.3944587707519531,0.8398153781890869,-0.37297770380973816,-0.5096055865287781,-0.3189987242221832,-0.28196582198143005
6.199126243591309,-0.010442525148391724,0.17390656471252441,-0.11726069450378418,-1.0167462932818188,-0.9688671681791059,0.11306570825588946,-0.43366456031799316,0.8504006266593933,-0.2979156970977783,-0.8214631080627441,-0.23925843834877014,-0.5612729787826538
6.2174482345581055,0.05864077806472778,-0.05916762351989746,-0.2207484245300293,-0.9913308903208633,-1.1206457643571965,-0.07549098967749338,-0.49302801489830017,0.8367554545402527,-0.2382512390613556,0.09743096679449081,-0.07032498717308044,-0.5196834802627563
6.240122079849243,-0.1014675498008728,-0.21657001972198486,0.003714621067047119,-0.962174097581602,-1.0750289149550631,-0.10411493561031089,-0.502902626991272,0.8204365372657776,-0.2719794511795044,-0.7884748578071594,1.2299805879592896,-0.05316705256700516
6.259037017822266,0.17154914140701294,-0.4104797840118408,0.09201255440711975,-0.9531599829590365,-1.088970118075114,-0.23470515428920558,-0.5131781101226807,0.8152495622634888,-0.26835840940475464,-0.8718081712722778,0.43005120754241943,-0.9405519366264343
6.27814507484436,0.053452491760253906,0.0722198486328125,-0.033568307757377625,-0.9062815613313636,-1.1845408048981927,-0.363560578445463,-0.5712441802024841,0.7872161269187927,-0.23231613636016846,-0.22223934531211853,0.004418141208589077,-0.26285386085510254
6.298556089401245,0.3395184874534607,0.02833247184753418,-0.07372067868709564,-0.8753920517624711,-1.274803670322496,-0.4049669592151734,-0.6128338575363159,0.7677947282791138,-0.18688420951366425,0.18000979721546173,-1.0555901527404785,-0.3897421956062317
6.319120168685913,0.20785564184188843,0.14902406930923462,0.04045309126377106,-0.8000854491070745,-1.3520129484609795,-0.2608413156810552,-0.6800388097763062,0.7174156308174133,-0.15120139718055725,1.3015031814575195,-1.4936827421188354,-0.2518436014652252
6.341242074966431,0.2868019938468933,0.02516961097717285,0.13681496679782867,-0.7106017381516154,-1.3020992245238607,0.006764219305766878,-0.7307716012001038,0.6522899866104126,-0.20122231543064117,1.6728202104568481,-0.6037145853042603,-0.3442286252975464
6.3592352867126465,0.235035240650177,0.0012404918670654297,0.12446117401123047,-0.604115490492045,-1.2264550197408088,0.2015777669349931,-0.7746928334236145,0.5680343508720398,-0.27782729268074036,1.851169228553772,-0.37941163778305054,-1.0465611219406128
6.378337144851685,0.249009370803833,-0.14282536506652832,0.25532546639442444,-0.4445387254228611,-1.2126883634227568,0.23131122361373868,-0.8455363512039185,0.43004149198532104,-0.31643715500831604,-0.14951281249523163,-0.21827255189418793,-1.2922961711883545
6.397816181182861,-0.48452359437942505,-0.11901479959487915,0.07063740491867065,-0.28029384263370727,-1.263609719757911,0.23942854973900568,-0.915989100933075,0.2766380310058594,-0.29057759046554565,1.5565444231033325,-1.1808550357818604,-2.4892568588256836
6.4203972816467285,-0.5372928380966187,-0.244846373796463,0.4732441008090973,-0.1345032031808562,-1.243857118847517,0.22621912357214477,-0.9384761452674866,0.13409802317619324,-0.3182452917098999,-0.5303106307983398,0.8622799515724182,1.322499394416809
6.4393391609191895,-1.0474839210510254,-0.06067138910293579,0.14543482661247253,-0.2682057455025801,-1.1969461272395003,0.266100984577908,-0.8976454734802246,0.26500174403190613,-0.35214564204216003,-0.2224978357553482,0.9420140981674194,2.3435585498809814
6.460209131240845,-0.9190289378166199,-0.09850263595581055,0.09591162204742432,-0.5650985680065299,-1.0625494577754462,0.3103011191728712,-0.7377856373786926,0.5354990363121033,-0.4109903872013092,-1.9489089250564575,0.8986457586288452,2.493359088897705
6.4810662269592285,-0.3258664011955261,0.09845340251922607,-0.05889663100242615,-0.7803142210918593,-1.0579937502684342,0.19814140349486167,-0.6192783117294312,0.7035027742385864,-0.34868088364601135,-1.8585461378097534,0.6558161973953247,0.6763808727264404
6.4987711906433105,0.0976070761680603,0.16399651765823364,0.00042623281478881836,-0.8679026742426796,-1.107147725459336,0.07588902726568537,-0.5781826376914978,0.7629748582839966,-0.2890920341014862,-1.376132845878601,0.7256166338920593,0.2218712866306305
6.517613172531128,0.5947051644325256,-0.09674614667892456,-0.06177997589111328,-0.9391008522737777,-1.187076141240473,-0.10064825563773797,-0.5475707650184631,0.8070274591445923,-0.22107228636741638,-0.4615042805671692,0.21941380202770233,0.49716416001319885
6.5406622886657715,1.1593159437179565,-0.985253632068634,0.21125531196594238,-0.9905780960829385,-0.9702979612813333,0.10606467759041222,-0.45229998230934143,0.8363430500030518,-0.30976608395576477,-0.46972545981407166,-0.4671555161476135,0.4518054723739624
6.559968948364258,0.9086790680885315,-0.39745426177978516,-0.09056821465492249,-0.9430963585288984,-0.8947210457431598,0.23572451374772888,-0.4581023156642914,0.8093804121017456,-0.367485374212265,0.6451511979103088,-0.9842014908790588,-0.3520088791847229
6.579084157943726,0.09304887056350708,0.13099610805511475,-0.23858410120010376,-0.8751022616910993,-0.9252932165407589,0.2894356978469012,-0.5119636654853821,0.7676090598106384,-0.38557663559913635,1.6287882328033447,-1.0088305473327637,-1.0593124628067017
6.598666191101074,-1.106094241142273,-0.11880791187286377,0.2218184471130371,-0.6080047761573201,-1.136208304976758,0.29815528518273415,-0.744491696357727,0.571230947971344,-0.3455824553966522,1.2046962976455688,-2.87257719039917,-2.890563488006592
6.618159294128418,-0.28611594438552856,0.023872435092926025,0.24887347221374512,-0.547650940467604,-1.2089442666071684,0.2190544700461208,-0.7984635829925537,0.5206831693649292,-0.3022334575653076,-0.7203254103660583,0.8177395462989807,1.0933475494384766
6.638292074203491,-0.3497602343559265,-0.17178362607955933,0.2375940978527069,-0.7012487493373043,-1.1361457528582724,0.15915693754770655,-0.6929949522018433,0.6451722979545593,-0.3217311203479767,-1.9397579431533813,1.3984476327896118,1.2526384592056274
6.6612091064453125,-0.3081952929496765,-0.023892343044281006,0.024570375680923462,-0.9205610180112802,-1.1456600516520279,-0.15980673038571486,-0.5514849424362183,0.7959413528442383,-0.24968336522579193,-2.4153175354003906,2.4233107566833496,0.559908926486969
6.679788112640381,0.06275391578674316,-0.04179346561431885,-0.03560900688171387,-0.9955905635540779,-1.0961346882750023,-0.4082613599530014,-0.48386597633361816,0.8390803933143616,-0.2486317902803421,-0.9530608654022217,2.614173650741577,-0.25573423504829407
6.6981260776519775,0.3262889087200165,-0.10380971431732178,0.06133490800857544,-0.9917953895299697,-1.0038351118482318,-0.5921460625439631,-0.4615733325481415,0.8370097279548645,-0.293878972530365,-0.5880162119865417,2.2358202934265137,-0.7390085458755493
6.719572067260742,0.31757745146751404,0.008816897869110107,0.01568731665611267,-1.0020798105505222,-0.9878169654940065,-0.8387826754589064,-0.4495964050292969,0.8425928950309753,-0.29647961258888245,-1.4654381275177002,1.6312462091445923,-0.5835475921630859
6.738419055938721,-0.12898126244544983,0.5109378695487976,-0.1023111343383789,-1.0019383007200056,-1.0980933310022538,-1.0758765583038912,-0.4796002209186554,0.8425166606903076,-0.24525366723537445,-0.2823221981525421,0.799188494682312,-0.4071044623851776
6.760806083679199,-0.07915151119232178,-0.056233227252960205,0.12050214409828186,-1.0162372028922084,-1.0248456313751062,-1.1231899300262278,-0.45002320408821106,0.8501327037811279,-0.27341049909591675,-0.10849208384752274,0.7037010192871094,0.07021287083625793
6.778524160385132,-0.014341861009597778,-0.13862162828445435,0.058546096086502075,-1.0156117789927834,-0.980798850421971,-1.1373190947362881,-0.43798962235450745,0.8498032093048096,-0.29325681924819946,0.016047412529587746,0.37373557686805725,-0.33917236328125
6.8003740310668945,0.20038920640945435,0.1376369595527649,0.01948249340057373,-0.9770301351523925,-0.9769844091992131,-1.203478158908998,-0.46371012926101685,0.8288394212722778,-0.3130463659763336,-0.00043057650327682495,0.5299586057662964,-0.48712393641471863
6.818943023681641,0.29765185713768005,-0.051020026206970215,0.03912976384162903,-0.9521186769990023,-0.9497506092994172,-1.2287192302943926,-0.4716629981994629,0.8146460652351379,-0.3374696373939514,-0.15982261300086975,0.21855279803276062,-0.09725182503461838
6.837480068206787,0.10427162051200867,0.09728741645812988,0.23188111186027527,-0.9468372805140609,-0.9923580609034451,-1.333020637924625,-0.4892049729824066,0.8115717172622681,-0.31942081451416016,-0.8703787326812744,0.47774264216423035,-0.6617107391357422
6.859579086303711,0.3048030734062195,-0.09638911485671997,-0.07375787198543549,-0.8847990334356124,-1.1939583605202473,-1.517102462465043,-0.5889979004859924,0.7737876772880554,-0.2330964207649231,-0.33948296308517456,-1.1104042530059814,-1.3262779712677002
6.881509065628052,0.22206246852874756,-0.22847789525985718,-0.1809031367301941,-0.7654109310139598,-1.3451709629851738,-1.5743057877485933,-0.7028211355209351,0.6928333640098572,-0.16132105886936188,1.0648958683013916,-0.831196665763855,-0.9732545614242554
6.900522232055664,-0.05389529466629028,-0.1036418080329895,-0.05475813150405884,-0.6500147757266392,-1.3518372683063689,-1.4903134128306086,-0.7770677804946899,0.6051981449127197,-0.17291831970214844,0.6352882981300354,-0.31871604919433594,-0.7394343018531799
6.919137954711914,0.15597957372665405,-0.18198025226593018,0.06841117143630981,-0.6288686846036855,-1.2522504313177327,-1.4158531395250067,-0.7680095434188843,0.5882302522659302,-0.2532714307308197,0.8020561933517456,0.5859901905059814,0.1599491536617279
6.940515041351318,0.18404221534729004,0.07411748170852661,0.19508618116378784,-0.5736165384049279,-1.1484402528202018,-1.2752070149913632,-0.7661344408988953,0.5426732897758484,-0.3443019390106201,1.1906681060791016,-0.15772949159145355,-0.3218339681625366
6.959573268890381,-0.08373129367828369,0.22679728269577026,0.21611288189888,-0.5264132221049047,-1.2003454170749634,-1.2590017873702264,-0.805962860584259,0.5024353861808777,-0.3130214512348175,0.34489354491233826,-0.9680012464523315,-0.2963577210903168
6.978270053863525,-1.3340578079223633,0.2072226107120514,0.3598767817020416,-0.3181844376281723,-1.2897474008688847,-1.2352288428886853,-0.9125393629074097,0.31284263730049133,-0.2634412944316864,1.4999146461486816,-0.2589114010334015,-2.9024336338043213
7.000708103179932,-0.7973806858062744,-0.1704484522342682,0.013312876224517822,-0.36451783478132754,-1.233548409077844,-1.1882008886782351,-0.8816658854484558,0.3564988374710083,-0.3091503381729126,2.2802186012268066,0.01229665894061327,1.6140170097351074
7.019037246704102,-0.8248049020767212,-0.11498492956161499,0.021854013204574585,-0.6279519448749329,-1.1440929877101151,-1.1489251672850196,-0.7366727590560913,0.5874886512756348,-0.33491867780685425,-1.3683552742004395,0.755107045173645,2.511512279510498
7.037707090377808,-0.3603637218475342,0.2708154320716858,0.13116472959518433,-0.8798729868683441,-1.1771873431622535,-1.246089719221036,-0.5885193347930908,0.7706579566001892,-0.244400292634964,-0.5988619327545166,-0.25993645191192627,1.3553128242492676
7.0605010986328125,0.20731902122497559,0.17581576108932495,0.08735936880111694,-1.0116019259296862,-1.348143455841193,-1.4245235276742851,-0.5174081325531006,0.847682774066925,-0.1171446144580841,-1.0929453372955322,-0.18813496828079224,0.2792992889881134
7.079816102981567,0.5679640173912048,-0.12416261434555054,-0.03378981351852417,-1.027579524837143,-1.5308875182495256,-1.6514822572738088,-0.5164808034896851,0.8560503721237183,-0.020623084157705307,-1.2139651775360107,0.4223388433456421,-0.12313415855169296
7.097774028778076,0.7560220956802368,-0.2165987491607666,-0.15346932411193848,-1.02486661245701,-1.565528714106084,-1.7496759297247249,-0.5192055702209473,0.8546449542045593,-0.0027349991723895073,0.1788213849067688,0.517772376537323,0.17805734276771545
7.120567083358765,0.9441702365875244,-0.5728979110717773,-0.026300013065338135,-0.9999659485004252,-1.4022153845619956,-1.6080656988884596,-0.5326712131500244,0.8414525985717773,-0.09065867215394974,0.05793556571006775,-0.2226840853691101,0.16951563954353333
7.139512062072754,0.32049793004989624,-0.19559437036514282,-5.555152893066406e-05,-0.9731317913547337,-1.308866737241749,-1.4483145561311161,-0.5435203909873962,0.8266520500183105,-0.14571170508861542,2.862743377685547,-1.415830135345459,-0.7010287046432495
7.158133029937744,-0.6430615782737732,-0.27616363763809204,0.16219504177570343,-0.6701696924530065,-1.2504277669125536,-1.1110057160756446,-0.743840217590332,0.62111896276474,-0.24680505692958832,2.904492139816284,-1.8371937274932861,-3.2618446350097656
7.180981159210205,-0.06717407703399658,0.20382368564605713,-0.022872179746627808,-0.47330335720981925,-1.2826556672636686,-1.2368203941000357,-0.8533732891082764,0.4558289647102356,-0.2529304623603821,-1.7201815843582153,0.42288172245025635,1.292671799659729
7.199219226837158,-0.19562804698944092,-0.4425482153892517,0.09557768702507019,-0.577494628392319,-1.1561083124607145,-1.0547809116672568,-0.7668201327323914,0.545926570892334,-0.33756667375564575,-0.3698258697986603,0.7304205298423767,1.3870289325714111
7.218405246734619,-0.09761416912078857,-0.19834399223327637,-0.016208380460739136,-0.7378436955412389,-1.2249827526049464,-1.262721892311678,-0.6961175799369812,0.6726939678192139,-0.25080522894859314,-2.473242998123169,1.1289348602294922,0.7151333689689636
7.241150140762329,-0.05856478214263916,0.027628183364868164,-0.09712772071361542,-0.8290121096810896,-1.2543450619716479,-1.5072083613491953,-0.6420577168464661,0.7372643351554871,-0.21024535596370697,-1.534844160079956,1.3482321500778198,0.02726833149790764
7.260444164276123,0.07415586709976196,0.04433184862136841,-0.08241283893585205,-0.8836367021423824,-1.2618320386183006,-1.7301854138192825,-0.6043071746826172,0.7730509042739868,-0.1928863376379013,-1.4033209085464478,1.7432760000228882,0.022036608308553696
7.278055191040039,0.21840351819992065,0.030438005924224854,0.003397524356842041,-0.9098085490602053,-1.2512960802602526,-1.9317758146408475,-0.5828291177749634,0.7893862128257751,-0.19282019138336182,-1.5044326782226562,1.5206350088119507,-0.27304723858833313
7.300323009490967,0.09521400928497314,0.18579518795013428,-0.01645474135875702,-0.8838065014056046,-1.3236611491033226,-2.139079580467591,-0.6149435043334961,0.773158609867096,-0.15514566004276276,-0.39516136050224304,0.6935396194458008,-0.06864254176616669
7.318464279174805,-0.06569057703018188,0.014522135257720947,0.1117672473192215,-0.8868568995418349,-1.2911941135150595,-2.1854550841400324,-0.6073134541511536,0.7750896215438843,-0.1743740737438202,-0.5391661524772644,0.7549468874931335,-0.08712735027074814
7.340707063674927,0.25192779302597046,-0.16193854808807373,0.12897491455078125,-0.9036830425128255,-1.2569914576035337,-2.276697884503337,-0.5885061621665955,0.7856110334396362,-0.19098667800426483,-0.3214191794395447,0.37419530749320984,-0.12479962408542633
7.359237194061279,0.06298941373825073,-0.08879053592681885,0.0795527845621109,-0.8838366230849865,-1.2929333267899588,-2.336532631722252,-0.6098642945289612,0.7731776833534241,-0.1739589273929596,-0.5744410157203674,0.34371960163116455,-0.40201643109321594
7.377654075622559,0.08973968029022217,0.03470408916473389,-0.0034114718437194824,-0.8549086450854577,-1.3417510832481983,-2.4542925080493982,-0.6391475796699524,0.7545109391212463,-0.1490086317062378,-0.6356557011604309,0.22539818286895752,-0.572007417678833
7.399593114852905,0.11162549257278442,0.13323307037353516,-0.15356099605560303,-0.7601112258842688,-1.413505021316858,-2.54611691936037,-0.7158124446868896,0.6890020370483398,-0.11352887749671936,0.029963228851556778,-0.2677096128463745,-1.1853221654891968
7.418405055999756,-0.03693467378616333,-0.05827146768569946,-0.16663587093353271,-0.6295787024686147,-1.418801879233197,-2.562206613920663,-0.7989569902420044,0.588804304599762,-0.12238090485334396,0.04284605756402016,0.22382506728172302,-1.053247094154358
7.441084146499634,0.5337396264076233,-0.5184269547462463,-0.3151264786720276,-0.44115163241002,-1.385866695446653,-2.5649534416982087,-0.8888422846794128,0.426981121301651,-0.1662730723619461,0.9790224432945251,-1.3971017599105835,-2.284432888031006
7.459722995758057,0.032654523849487305,0.06058633327484131,-0.11178122460842133,-0.23620541661076658,-1.4030628348316274,-2.4817812181695413,-0.9585883021354675,0.2340151071548462,-0.16231241822242737,1.1026157140731812,0.03716721013188362,-1.4603755474090576
7.477626085281372,0.04062604904174805,0.03218171000480652,0.0675780177116394,-0.09022461263829083,-1.362711260293275,-2.445440926405198,-0.9744486808776855,0.09010224789381027,-0.2057463824748993,1.1732163429260254,0.4341292083263397,-1.6609954833984375
7.499948978424072,-0.1824018955230713,0.12838132679462433,0.27385392785072327,0.05478504117021033,-1.2683297329319905,-2.575401048969356,-0.9531725645065308,-0.05475763976573944,-0.29742884635925293,-3.3017098903656006,0.8301727771759033,0.19318121671676636
7.518430233001709,-0.6772628426551819,-0.31516924500465393,0.5967047214508057,0.05214864546574032,-1.2533991044558148,-2.382991680695195,-0.9487594366073608,-0.05212501063942909,-0.31167060136795044,1.8197885751724243,0.8798695802688599,1.1357215642929077
7.540396213531494,-0.6944483518600464,-0.4463866353034973,0.6060611605644226,-0.010504273483558752,-1.2189452119427207,-2.3715345942129376,-0.9386845231056213,0.010504079982638359,-0.3446170687675476,-1.4235447645187378,0.8749478459358215,1.852337121963501
7.560814142227173,-0.7701355218887329,-0.2777774930000305,0.4891514480113983,-0.05736526522168893,-1.203251110213564,-2.3850622741481793,-0.9316770434379578,0.0573338083922863,-0.3587345778942108,-1.5023860931396484,0.6981583833694458,2.0265932083129883
7.581062078475952,-0.7270688414573669,-0.17836356163024902,0.36856409907341003,-0.10500907324669258,-1.1933315291491964,-2.39517644981206,-0.9244813919067383,0.10481619089841843,-0.3665347099304199,-1.1153559684753418,0.3765547573566437,2.062154769897461
7.601081132888794,-0.7548201084136963,-0.0238962322473526,0.22124630212783813,-0.15062485512400414,-1.1886483454150416,-2.393622496428623,-0.9173600077629089,0.15005594491958618,-0.3686920404434204,-0.4150700867176056,0.08616005629301071,2.265627384185791
7.620789051055908,-0.7700180411338806,-0.0017177313566207886,0.05705881118774414,-0.19496717129159083,-1.1858454059770291,-2.375743013930357,-0.9092574715614319,0.1937343329191208,-0.3683992028236389,0.4169487953186035,-0.09079039841890335,2.534682512283325
7.641197204589844,-0.7978760600090027,-0.017602548003196716,-0.08562353253364563,-0.23955267305095065,-1.1806086918983143,-2.3392137590500526,-0.8984281420707703,0.2372680902481079,-0.36950039863586426,1.1091670989990234,-0.14134997129440308,2.944051742553711
7.662238121032715,-0.830122172832489,-0.031957805156707764,-0.07914066314697266,-0.28701126278570593,-1.169924353490934,-2.2927592695524512,-0.8830583095550537,0.28308701515197754,-0.3742590546607971,1.086650013923645,0.04356536641716957,3.1415317058563232
7.682086944580078,-0.9278631210327148,-0.11492249369621277,-0.009329497814178467,-0.33786678075759413,-1.1542403661726006,-2.251755463174863,-0.8627862930297852,0.33147522807121277,-0.3817380666732788,0.37690287828445435,0.21715109050273895,3.0749189853668213
7.702184200286865,-0.9611666798591614,-0.21951940655708313,0.04818683862686157,-0.393770907353232,-1.1419455422217295,-2.2290525080077974,-0.8398433923721313,0.38367345929145813,-0.38400229811668396,-0.7598603367805481,0.20853079855442047,2.901736259460449
7.721662998199463,-0.8984748721122742,-0.297024130821228,0.050657719373703,-0.4546631994595466,-1.1382100174941734,-2.228806239236369,-0.8156515955924988,0.4391597509384155,-0.3766312599182129,-1.6885266304016113,0.15786212682724,2.634154796600342
7.744940280914307,-0.7728286385536194,-0.23602882027626038,-0.03666755557060242,-0.5155194904267305,-1.143447391788885,-2.2465302066823356,-0.7917923927307129,0.49298688769340515,-0.36059510707855225,-2.238211154937744,0.15083935856819153,2.2248940467834473
7.764828205108643,-0.6883955597877502,-0.10410958528518677,-0.16832435131072998,-0.5680185105176169,-1.1540440523515374,-2.273245002973052,-0.7708176374435425,0.537962794303894,-0.3412276804447174,-1.7910329103469849,0.20050233602523804,1.6470867395401
7.784765243530273,-0.6099808812141418,0.061167001724243164,-0.2979370951652527,-0.6040350117439759,-1.154163749806261,-2.286301826389805,-0.7526441812515259,0.5679681301116943,-0.3330748677253723,-0.6763810515403748,0.5381046533584595,1.2146135568618774
7.804541110992432,-0.5002009272575378,0.18990129232406616,-0.32737141847610474,-0.6253518299070543,-1.1406624852752008,-2.287301622033792,-0.7369053363800049,0.5853825807571411,-0.33807966113090515,-0.5325695872306824,0.8277278542518616,0.6630948781967163
7.824532985687256,-0.35098105669021606,0.05817711353302002,-0.29855582118034363,-0.6403139497826218,-1.1322241625545066,-2.3036046868667053,-0.7260147333145142,0.5974472165107727,-0.34052807092666626,-1.3615286350250244,1.0397772789001465,0.2830156981945038
7.844573974609375,-0.23013359308242798,-0.052764177322387695,-0.22183847427368164,-0.6645224811211967,-1.1334066059292394,-2.3441889807330347,-0.7131035923957825,0.616683304309845,-0.33344414830207825,-2.5449471473693848,1.280409812927246,0.5214365124702454
7.8645172119140625,-0.21528100967407227,0.10964113473892212,-0.14984706044197083,-0.6958795587254251,-1.1439052613818101,-2.402554105747765,-0.6986135244369507,0.6410607695579529,-0.31777381896972656,-2.6930699348449707,1.3122650384902954,0.3719137907028198
7.884449005126953,-0.12536674737930298,0.3248542547225952,-0.13819944858551025,-0.7187407066522943,-1.1509009057290807,-2.4514902227244577,-0.6872552633285522,0.6584374308586121,-0.30682313442230225,-1.4823890924453735,1.136249303817749,0.24073462188243866
7.904430150985718,0.026556789875030518,0.3642672300338745,-0.1631644070148468,-0.7310124506056986,-1.1457711689214896,-2.4695024324711468,-0.6782596707344055,0.66762375831604,-0.306989461183548,-0.4179183840751648,0.5521789789199829,0.3109776973724365
7.924332141876221,0.06172138452529907,0.23059827089309692,-0.015488386154174805,-0.7390783883762898,-1.1405693765774627,-2.4727750261175667,-0.6717372536659241,0.6736070513725281,-0.3082573711872101,-0.2624737024307251,0.23081381618976593,0.3212282359600067
7.944213151931763,0.06648588180541992,0.07392209768295288,0.12929195165634155,-0.7489486484357797,-1.141439395075953,-2.4792023094255162,-0.6659273505210876,0.6808691024780273,-0.30489012598991394,-0.5902494192123413,0.13088864088058472,0.4059433341026306
7.964091062545776,0.14116829633712769,0.03170496225357056,0.18826842308044434,-0.7629097008950174,-1.1516463718109802,-2.4932539371060325,-0.6602570414543152,0.6910275816917419,-0.2941797375679016,-0.842962920665741,-0.1818077564239502,0.44459468126296997
7.984086036682129,0.18618202209472656,0.015995562076568604,0.20351466536521912,-0.7781899163315519,-1.1699840889774642,-2.5111719101905448,-0.6557406187057495,0.7019914388656616,-0.27787071466445923,-0.9198411703109741,-0.3901563286781311,0.40387362241744995
8.004204273223877,0.24685454368591309,-0.028258681297302246,0.17093977332115173,-0.7901136783924044,-1.1936162200904845,-2.5301446724945085,-0.6542946100234985,0.710433304309845,-0.25919660925865173,-0.7694404721260071,-0.6363170742988586,0.21146060526371002
8.023319244384766,0.40350449085235596,-0.13440388441085815,0.17445196211338043,-0.7978699908194049,-1.2202824310049578,-2.5477667429434927,-0.6557779312133789,0.7158704996109009,-0.23975960910320282,-0.6536219120025635,-0.74931401014328,0.06116785854101181
8.044234275817871,0.5703833103179932,-0.26596206426620483,0.18410195410251617,-0.8031025907796414,-1.246618908407445,-2.5632209822278313,-0.6583043336868286,0.7195142507553101,-0.22121134400367737,-0.5893400311470032,-0.8193407654762268,0.12035606056451797
8.063937187194824,0.7056372761726379,-0.2643965482711792,0.13652771711349487,-0.8090181003106041,-1.2745880403236032,-2.575864087109608,-0.6601507663726807,0.7236098051071167,-0.20146915316581726,-0.3998798131942749,-1.0508224964141846,0.2356949895620346
8.084079265594482,0.7809940576553345,-0.09365630149841309,-0.05709540843963623,-0.819317734402044,-1.3020969311042334,-2.5807984778070767,-0.6582217812538147,0.7306802272796631,-0.18124690651893616,-0.10319860279560089,-1.3740735054016113,0.6284171938896179
8.104096174240112,0.7591568827629089,0.04575115442276001,-0.20099197328090668,-0.8330478622729635,-1.323231340767321,-2.5714033504686067,-0.6521164178848267,0.7399848699569702,-0.1648222655057907,0.27984219789505005,-1.389603853225708,0.8257286548614502
