timestamp,acceleration_x,acceleration_y,acceleration_z,attitude_pitch,attitude_roll,attitude_yaw,gravity_x,gravity_y,gravity_z,rotation_x,rotation_y,rotation_z
0.0,0.06836575269699097,0.05103260278701782,0.1147032380104065,-0.7054604273241185,-0.8267537895375062,-1.86782559651691,-0.560126006603241,0.6483844518661499,-0.515612781047821,0.25886550545692444,-0.8348256349563599,0.2285720407962799
0.019028186798095703,0.06761014461517334,0.04772239923477173,0.15954279899597168,-0.7052988207822923,-0.8391595248955133,-1.8586412718321608,-0.5665572881698608,0.6482613682746887,-0.5086945295333862,0.313283771276474,-1.009758472442627,0.20413640141487122
0.03966999053955078,0.0343400239944458,0.056388258934020996,0.22200095653533936,-0.7007999696402354,-0.8510649787206986,-1.8449167634277726,-0.5747604966163635,0.6448293328285217,-0.5038308501243591,0.6821852326393127,-1.0496556758880615,0.19594937562942505
0.05971097946166992,-0.015549540519714355,0.08183294534683228,0.25841325521469116,-0.6954508048483263,-0.8601265667993343,-1.8275534665825954,-0.5819082856178284,0.6407316327095032,-0.5008449554443359,0.7165508270263672,-0.9826453924179077,0.2350683957338333
0.07901191711425781,-0.0688207745552063,0.05331176519393921,0.25119155645370483,-0.6889134034655806,-0.8662563174584856,-1.808751770164802,-0.5881463885307312,0.6356987953186035,-0.4999710023403168,0.7830907702445984,-0.8225213885307312,0.23610255122184753
0.09985017776489258,-0.05536764860153198,0.05034059286117554,0.2657134532928467,-0.6825595199315527,-0.8676770595032597,-1.7882024660441782,-0.5919253826141357,0.6307811737060547,-0.5017365217208862,0.8070570826530457,-0.6931596994400024,0.28168484568595886
0.12048101425170898,-0.03252643346786499,0.019634485244750977,0.2631967067718506,-0.6777776094192985,-0.8688161486595225,-1.7693184375017779,-0.5947929620742798,0.6270633935928345,-0.5030039548873901,0.6113587021827698,-0.5928645133972168,0.30633676052093506
0.1402139663696289,0.03805744647979736,-0.034783780574798584,0.32540690898895264,-0.6752797671718476,-0.8700743525384671,-1.7537154316031194,-0.5966206789016724,0.625115692615509,-0.5032634735107422,0.5103328824043274,-0.5265377759933472,0.27974486351013184
0.1596541404724121,0.08364158868789673,-0.05013704299926758,0.301968514919281,-0.6728618197638787,-0.8724925744701408,-1.7399542782002837,-0.5989919900894165,0.6232265830039978,-0.5027896165847778,0.4746238887310028,-0.591688871383667,0.22459594905376434
0.17971301078796387,0.11172014474868774,-0.01674509048461914,0.2596530318260193,-0.6688609500878142,-0.8778128785537419,-1.7274371050990656,-0.6035719513893127,0.6200927495956421,-0.5011845231056213,0.5536942481994629,-0.701844334602356,0.08543842285871506
0.1997690200805664,0.09979784488677979,0.0028031468391418457,0.2562069296836853,-0.662185590205744,-0.8836436019099453,-1.7154236196253452,-0.6096702814102173,0.6148419976234436,-0.5002713203430176,0.5357341170310974,-0.6023537516593933,0.04141838103532791
0.2197420597076416,0.10407871007919312,-0.01764613389968872,0.2673615515232086,-0.657495776647498,-0.8900476968847897,-1.7073140738692016,-0.6150955557823181,0.6111366152763367,-0.4981660842895508,0.39291924238204956,-0.5531812310218811,0.01081748679280281
0.23968100547790527,0.1101541519165039,-0.000995337963104248,0.22211402654647827,-0.6543722512784196,-0.8960940539735829,-1.700603996812817,-0.6195840835571289,0.6086612939834595,-0.4956279695034027,0.28897109627723694,-0.561632513999939,0.024701787158846855
0.25887203216552734,0.11272335052490234,0.0825074315071106,0.11249005794525146,-0.6497372560562337,-0.9057372297438393,-1.693691068951184,-0.6265478134155273,0.6049771904945374,-0.4913659691810608,0.32578596472740173,-0.7604225873947144,-0.034523721784353256
0.279691219329834,0.08048945665359497,0.1594247817993164,0.10700613260269165,-0.6437172556184322,-0.9164588728457876,-1.687511586685977,-0.6346582174301147,0.6001728773117065,-0.4868280291557312,0.4297986328601837,-0.6570184230804443,-0.12830036878585815
0.29968905448913574,0.06037026643753052,0.10708886384963989,0.08916163444519043,-0.6380993454090202,-0.9251792545459138,-1.681759867075416,-0.6415623426437378,0.5956698656082153,-0.4832962453365326,0.2952529788017273,-0.584728479385376,-0.005284928251057863
0.3196868896484375,0.07552564144134521,0.08483171463012695,0.0772935152053833,-0.63735189473931,-0.9319920248946371,-1.676756754266729,-0.6451972723007202,0.5950692892074585,-0.47917959094047546,-0.03235654532909393,-0.40728673338890076,0.13726364076137543
0.33968496322631836,0.01712578535079956,0.13975292444229126,0.04187387228012085,-0.640311018221228,-0.9389027905368007,-1.6784357254580753,-0.6470696330070496,0.5974448919296265,-0.4736672043800354,-0.08655993640422821,-0.22835391759872437,0.025378581136465073
0.3597121238708496,-0.01455467939376831,0.13757938146591187,-0.12895101308822632,-0.6418997194857313,-0.9437904944885573,-1.6779630734666966,-0.6486075520515442,0.5987181067466736,-0.4699413478374481,-0.01221507415175438,-0.28900766372680664,0.11974778771400452
0.37967801094055176,0.032980144023895264,0.18012410402297974,-0.0484907329082489,-0.6430963795450502,-0.9482661860139884,-1.677102852774019,-0.650121808052063,0.5996761918067932,-0.46661555767059326,-0.04001795873045921,-0.24090895056724548,-0.007283609360456467
0.3996860980987549,0.014163613319396973,0.1559811234474182,-0.04025810956954956,-0.6433869532167819,-0.9529957400794474,-1.6780132063938884,-0.6521793603897095,0.5999086499214172,-0.463434636592865,-0.031901974231004715,-0.1316988319158554,0.018787140026688576
0.4196748733520508,-0.008899867534637451,0.15129810571670532,-0.053686708211898804,-0.6444153487766072,-0.9552563021230231,-1.6793700888324452,-0.6527212262153625,0.6007311344146729,-0.46160265803337097,-0.10787675529718399,0.01717480458319187,-0.007030252367258072
0.4396800994873047,0.0018444657325744629,0.0719103217124939,-0.05762195587158203,-0.6463399699233839,-0.9568496679998145,-1.6824726530101766,-0.6525097489356995,0.6022686958312988,-0.45989522337913513,-0.2253296971321106,-0.04435238242149353,0.032776229083538055
0.459683895111084,0.00792229175567627,0.05488622188568115,-0.07325416803359985,-0.6490702939694116,-0.9613714358908405,-1.687746078799971,-0.6532317996025085,0.6044459939002991,-0.4559970498085022,-0.2883058190345764,-0.11055342108011246,-0.1325746327638626
0.4796781539916992,-0.03828275203704834,0.0806201696395874,-0.09576588869094849,-0.6483521174922863,-0.9699048515422113,-1.698231454215768,-0.6574569940567017,0.6038737297058105,-0.45065149664878845,-0.32017531991004944,-0.12974664568901062,-0.3649701476097107
0.49968814849853516,-0.035373687744140625,0.026232540607452393,-0.0860586166381836,-0.645261202741767,-0.9804910989378185,-1.7105569757226398,-0.6637383103370667,0.6014071702957153,-0.44470319151878357,-0.28045400977134705,-0.19462603330612183,-0.5337687730789185
0.519705057144165,-0.031411707401275635,0.11187511682510376,-0.12920638918876648,-0.6369851388740883,-0.9923318995339553,-1.7225662985314458,-0.6731017827987671,0.5947745442390442,-0.4395192861557007,-0.08660510182380676,-0.2288249433040619,-0.6096873879432678
0.5396840572357178,0.017528176307678223,0.09386128187179565,-0.13581126928329468,-0.6276322688305811,-1.000660420379103,-1.729107888947273,-0.6813923716545105,0.5872299075126648,-0.43688175082206726,0.1906173825263977,-0.22380869090557098,-0.4454289972782135
0.5596871376037598,0.10026544332504272,0.03218734264373779,-0.08699333667755127,-0.6182358843568769,-1.0037842519232654,-1.726208632655728,-0.6873778700828552,0.5795984864234924,-0.4376955032348633,0.45135417580604553,-0.3016968369483948,-0.23578734695911407
0.5797119140625,0.12455129623413086,-0.0226706862449646,-0.09327855706214905,-0.6098193379118559,-1.0066857140716914,-1.7172225802140113,-0.6927428245544434,0.572719395160675,-0.4382919669151306,0.6408979892730713,-0.47113192081451416,-0.04574336111545563
0.5997281074523926,0.07084149122238159,-0.06795316934585571,-0.09754881262779236,-0.6023676560503414,-1.010332191093419,-1.705176049029895,-0.6979319453239441,0.5665950179100037,-0.4380195140838623,0.5902096629142761,-0.5338997840881348,-0.12384431809186935
0.6196780204772949,-0.06831163167953491,-0.09060126543045044,-0.06552243232727051,-0.5935108033170352,-1.013411026089292,-1.6965480069631858,-0.7035084366798401,0.5592748522758484,-0.43850600719451904,0.46825894713401794,-0.2708441913127899,-0.2282850444316864
0.6398220062255859,-0.0963171124458313,-0.15725338459014893,-0.022231638431549072,-0.5862782437578856,-1.014411579989752,-1.6925157952384804,-0.7073633670806885,0.5532646179199219,-0.4399266839027405,0.16196946799755096,-0.09615610539913177,-0.22683827579021454
0.6597089767456055,-0.031116366386413574,-0.16971677541732788,0.010829567909240723,-0.5825607310169585,-1.018050261721947,-1.6955722949535532,-0.7107049822807312,0.5501641035079956,-0.4384267032146454,-0.20017696917057037,-0.0991470143198967,-0.22610364854335785
0.679685115814209,0.01803576946258545,-0.14401280879974365,0.008037716150283813,-0.5816922861554932,-1.0251030664606648,-1.7058256390769406,-0.714187502861023,0.5494387149810791,-0.4336511790752411,-0.4001515507698059,-0.03106738068163395,-0.2809782326221466
0.6996769905090332,0.07462000846862793,-0.14057999849319458,0.0040753185749053955,-0.5814918935204579,-1.0306569695853685,-1.716292358189384,-0.7166792750358582,0.5492712259292603,-0.42973455786705017,-0.3364449441432953,-0.004332795273512602,-0.2129259556531906
0.719688892364502,0.11668163537979126,-0.07414042949676514,-0.06073525547981262,-0.578752014281869,-1.0356447412496266,-1.722331074275529,-0.7201056480407715,0.5469796061515808,-0.42692050337791443,0.06434349715709686,-0.1452784687280655,-0.2944122850894928
0.7410721778869629,0.10687965154647827,-0.015851914882659912,-0.08510911464691162,-0.5715873079535728,-1.0385660458534498,-1.721825540519839,-0.7247080206871033,0.5409677028656006,-0.42679277062416077,0.29503270983695984,-0.16961504518985748,-0.3180091679096222
0.7596569061279297,0.12140429019927979,-0.060398638248443604,-0.04310983419418335,-0.562062738687553,-1.0404195843317323,-1.71822818506661,-0.7299095392227173,0.5329327583312988,-0.4280359148979187,0.3910534977912903,-0.22777512669563293,-0.3170389235019684
0.7796380519866943,0.1746465563774109,-0.061394333839416504,-0.03640285134315491,-0.553219469494706,-1.043858840796757,-1.7142237187236944,-0.7354223132133484,0.5254291892051697,-0.42787641286849976,0.3558870851993561,-0.3373855948448181,-0.30395376682281494
0.799685001373291,0.21144789457321167,-0.04899412393569946,-0.01728680729866028,-0.5444972184495755,-1.048561706339397,-1.7096068070940484,-0.7413703799247742,0.5179880857467651,-0.4266829788684845,0.400755912065506,-0.3939252197742462,-0.22771941125392914
0.8196890354156494,0.24389421939849854,-0.0556492805480957,-0.012729614973068237,-0.5367760593223997,-1.055497910353883,-1.7042064120521785,-0.7477698922157288,0.5113680958747864,-0.4234887659549713,0.40324896574020386,-0.5678907632827759,-0.23883569240570068
0.8396780490875244,0.2518589496612549,-0.018038928508758545,0.0037346482276916504,-0.5270943023522991,-1.0642333692328239,-1.6965209653339968,-0.7557346820831299,0.503024160861969,-0.4193231165409088,0.6668984293937683,-0.6984159350395203,-0.2760782837867737
0.8597068786621094,0.23553216457366943,0.008775651454925537,-0.017276883125305176,-0.5140729090616912,-1.072928984987519,-1.6839939125156973,-0.7650427222251892,0.4917277991771698,-0.4158287048339844,0.933976411819458,-0.7999407052993774,-0.3565918505191803
0.8796892166137695,0.22910231351852417,-0.01477140188217163,0.014986813068389893,-0.49783522077497727,-1.0809338642284483,-1.6663815676944855,-0.775290846824646,0.47752463817596436,-0.4133939743041992,1.1520495414733887,-0.8571274876594543,-0.31182152032852173
0.8997049331665039,0.23668187856674194,-0.03379032015800476,0.037087440490722656,-0.4812788686468943,-1.0899191006963016,-1.6463819313276604,-0.7858762741088867,0.4629131555557251,-0.4100123345851898,1.168259859085083,-0.9747920632362366,-0.3475329875946045
0.9196770191192627,0.23051631450653076,-0.041927725076675415,0.05590552091598511,-0.46440142185551647,-1.10097007592663,-1.6265057731620511,-0.7972124814987183,0.44788768887519836,-0.4047825336456299,1.194429874420166,-1.0364269018173218,-0.3449586033821106
0.9396770000457764,0.24614202976226807,-0.045541346073150635,0.06353026628494263,-0.4473867133542497,-1.113242563372959,-1.606597475074217,-0.8088404536247253,0.4326109290122986,-0.3982776701450348,1.1349915266036987,-1.0804460048675537,-0.3696456253528595
0.9597358703613281,0.27084946632385254,-0.06136077642440796,0.09909588098526001,-0.4321042107192663,-1.1278657167851918,-1.5880219955293553,-0.8204558491706848,0.4187825322151184,-0.3891960382461548,1.064003348350525,-1.1518337726593018,-0.27977484464645386
0.9796791076660156,0.27221840620040894,-0.0441114604473114,0.1423684060573578,-0.4188286976860765,-1.1436499952257273,-1.5698999747862386,-0.8314834833145142,0.40669065713882446,-0.37846770882606506,0.9669843316078186,-1.1999931335449219,-0.24227753281593323
0.9996800422668457,0.25878292322158813,-0.005744218826293945,0.16046461462974548,-0.40639554778521075,-1.1612373963658766,-1.5528160136873161,-0.8425843715667725,0.3953010141849518,-0.36577168107032776,0.9947938323020935,-1.2555160522460938,-0.2658931612968445
1.0197019577026367,0.2565886974334717,0.032367706298828125,0.16243889927864075,-0.39298312543239033,-1.179779976860589,-1.5343534495310964,-0.8540465831756592,0.38294583559036255,-0.35207512974739075,1.1306980848312378,-1.3264344930648804,-0.3038921654224396
1.0397648811340332,0.26152563095092773,0.04865741729736328,0.18214744329452515,-0.3789245928358769,-1.1997829603902193,-1.5139433929527613,-0.8658499717712402,0.36992156505584717,-0.3368411362171173,1.108276605606079,-1.4876741170883179,-0.2994467318058014
1.0596342086791992,0.25019747018814087,0.045750826597213745,0.2764532268047333,-0.3663011407565024,-1.2225820569446435,-1.4926059090639912,-0.8776236176490784,0.3581644296646118,-0.31858277320861816,1.1306450366973877,-1.5206199884414673,-0.1338745355606079
1.0797309875488281,0.16532063484191895,-0.014795631170272827,0.3586447834968567,-0.35918481873757074,-1.2457729305992205,-1.4738605357929138,-0.8871682286262512,0.3515111804008484,-0.29895246028900146,0.8102445006370544,-1.431981086730957,-0.009238725528120995
1.0997281074523926,0.009199380874633789,0.0439734160900116,0.32219287753105164,-0.3528603893480669,-1.2673174752320224,-1.4593014934280528,-0.8955063223838806,0.34558337926864624,-0.2804296910762787,0.8109782934188843,-1.3028273582458496,-0.2269885241985321
1.119678020477295,-0.11471003293991089,0.1493520438671112,0.19121703505516052,-0.34070649715984874,-1.285917582943092,-1.4420095519009932,-0.9045313000679016,0.33415305614471436,-0.2648864984512329,1.063921570777893,-1.2049143314361572,-0.4145126938819885
1.1396880149841309,0.02159518003463745,0.08270686864852905,0.23555085062980652,-0.32763365754499174,-1.3030630674746335,-1.4197877012336924,-0.9130746722221375,0.3218034505844116,-0.2504740059375763,1.2453601360321045,-1.1918895244598389,-0.22944793105125427
1.159703016281128,0.11304998397827148,0.03687354922294617,0.2265753298997879,-0.3163694378322991,-1.3172875255644878,-1.3945540858448489,-0.9199958443641663,0.3111182451248169,-0.2383551448583603,1.4344254732131958,-1.0150392055511475,-0.34001412987709045
1.1796810626983643,0.06678110361099243,0.060269564390182495,0.10279698669910431,-0.30250781743219984,-1.3259027148456415,-1.3650925594490122,-0.9261102676391602,0.2979150712490082,-0.2314438819885254,1.5775703191757202,-0.7396560907363892,-0.2596435844898224
1.1997199058532715,0.1346580982208252,0.019410312175750732,0.1338687539100647,-0.28913628632327304,-1.3291770148928912,-1.3357857555917367,-0.9306480884552002,0.2851244807243347,-0.22934302687644958,1.404415488243103,-0.45022478699684143,-0.3802098333835602
1.2197351455688477,0.14744484424591064,-0.08904087543487549,0.16723370552062988,-0.27693911505805124,-1.328994220844748,-1.3153894824696482,-0.9339134097099304,0.27341267466545105,-0.23032879829406738,0.6922307014465332,-0.10508550703525543,-0.33607736229896545
1.2398681640625,0.1173776388168335,-0.20369002223014832,0.17333322763442993,-0.26840932693063985,-1.3288850988469416,-1.3134453845708094,-0.936118483543396,0.2651980519294739,-0.2309810072183609,-0.19797222316265106,0.0518682487308979,-0.5263881683349609
1.2596831321716309,0.038362741470336914,-0.21030771732330322,0.09844297170639038,-0.25739065954555695,-1.328917062017226,-1.322562849748207,-0.9389060139656067,0.2545580267906189,-0.23163697123527527,-0.35287749767303467,0.16496701538562775,-0.754967212677002
1.2796759605407715,0.05222731828689575,-0.12980547547340393,0.08075310289859772,-0.24067306022474796,-1.3309232491792138,-1.3334827414310075,-0.9433711171150208,0.2383563369512558,-0.2307317703962326,-0.2615603506565094,-0.2065390646457672,-1.1659600734710693
1.2996799945831299,0.05011218786239624,-0.04697348177433014,-0.01690344512462616,-0.21205697432358017,-1.34433511774013,-1.3393341853745147,-0.9526390433311462,0.2104712426662445,-0.21950101852416992,0.40321072936058044,-0.8418575525283813,-1.6841139793395996
1.319709062576294,0.08635538816452026,-0.006561905145645142,0.11300656199455261,-0.17521200763677847,-1.3594250827279826,-1.3341801782451836,-0.9627746343612671,0.1743168979883194,-0.2065887153148651,0.831881046295166,-0.7623611092567444,-1.8375473022460938
1.3396868705749512,-0.03232395648956299,-0.009559184312820435,0.08631768822669983,-0.13142751774283815,-1.3704789837146678,-1.3242052036849894,-0.9715517163276672,0.1310494840145111,-0.19726428389549255,1.0284748077392578,-0.48304983973503113,-2.2331197261810303
1.359687089920044,-0.11451506614685059,-0.03254201263189316,-0.01952749490737915,-0.0813988029794479,-1.3846118620974248,-1.3120264174421492,-0.9794638752937317,0.08130894601345062,-0.18449774384498596,1.08998441696167,-1.0238399505615234,-2.4673209190368652
1.3797330856323242,-0.2068483829498291,0.07323767244815826,0.049638643860816956,-0.02771785102167787,-1.4036633033448176,-1.3018608228710657,-0.9856869578361511,0.027714302763342857,-0.16629210114479065,0.8242160081863403,-0.7957759499549866,-2.5719692707061768
1.3997011184692383,-0.38529396057128906,0.11753842979669571,0.20141790807247162,0.02295139254415706,-1.410938630642121,-1.2966383051747223,-0.9869900941848755,-0.022949377074837685,-0.1591358184814453,0.3504551947116852,0.015288043767213821,-2.3687520027160645
1.4196810722351074,-0.48048269748687744,0.16885434091091156,0.2017773985862732,0.06587476819293488,-1.404903450049697,-1.2996949452164608,-0.9841322302818298,-0.0658271312713623,-0.16477486491203308,0.06670795381069183,0.449782133102417,-1.852294921875
1.439673900604248,-0.44192904233932495,0.44815096259117126,0.14349138736724854,0.09623356103875763,-1.395558211142132,-1.3056641130335098,-0.9801290035247803,-0.0960850939154625,-0.17353594303131104,-0.05511486902832985,0.43641218543052673,-1.2016780376434326
1.459686040878296,-0.377361536026001,0.64986652135849,0.23218373954296112,0.11037198167780561,-1.3847555885842084,-1.3070671270478684,-0.9767645597457886,-0.11014802753925323,-0.1838439255952835,0.20772522687911987,0.6184066534042358,-0.2751655578613281
1.4796969890594482,-0.34028875827789307,0.5392293930053711,0.2721790075302124,0.11180429809755481,-1.3706581248501086,-1.300024122385779,-0.9739202260971069,-0.11157151311635971,-0.1975635439157486,0.5134034156799316,0.8242610096931458,0.19069111347198486
1.4996790885925293,-0.2948176860809326,0.3098362684249878,0.2894057631492615,0.11072169223306125,-1.3561392670137826,-1.2844214549762167,-0.9710666537284851,-0.11049560457468033,-0.21170802414417267,0.9525601267814636,0.8686903715133667,0.23192618787288666
1.5196800231933594,-0.2784794569015503,0.2043352723121643,0.3416215479373932,0.11285423505572212,-1.3422341855807614,-1.2644076364172228,-0.9677973389625549,-0.11261483281850815,-0.22513596713542938,1.0077537298202515,0.6659370064735413,-0.010475256480276585
1.5397429466247559,-0.26702576875686646,0.09428596496582031,0.3061426281929016,0.1181970434548031,-1.3346232318831155,-1.2449745371046432,-0.9654571413993835,-0.11792202293872833,-0.232351154088974,0.9574306011199951,0.3486217260360718,-0.05647706985473633
1.5597820281982422,-0.24074381589889526,0.1686284840106964,0.35380733013153076,0.12145694890215601,-1.3310527286001645,-1.2282033672681782,-0.9642427563667297,-0.12115854769945145,-0.23570427298545837,0.7012253403663635,0.22888801991939545,0.14540211856365204
1.5796852111816406,-0.2880638837814331,0.18586161732673645,0.354145884513855,0.11920356842691819,-1.328900954061777,-1.2162515723266807,-0.9639960527420044,-0.11892146617174149,-0.23784339427947998,0.412867933511734,0.17126981914043427,0.37745749950408936
1.5996809005737305,-0.3366444706916809,0.21374642848968506,0.4169290065765381,0.11090068945253573,-1.3274680915525043,-1.2061447555201061,-0.9645792841911316,-0.11067350208759308,-0.23945404589176178,0.452138751745224,0.05484433099627495,0.6631333827972412
1.6196300983428955,-0.4290146827697754,0.2693307399749756,0.377414345741272,0.09791749972244863,-1.3284474470705585,-1.1936558030296307,-0.9661269187927246,-0.09776110202074051,-0.23883400857448578,0.48804381489753723,-0.03681075572967529,0.9015523791313171
1.63969087600708,-0.4685838222503662,0.21147027611732483,0.39216214418411255,0.07881582024330759,-1.332340036721723,-1.1789139160831363,-0.9686872959136963,-0.07873424887657166,-0.23546963930130005,0.3960869014263153,-0.19599837064743042,1.302201747894287
1.6596250534057617,-0.5260576009750366,0.09749273210763931,0.3989400267601013,0.051602099954400266,-1.33972778222394,-1.164334689946959,-0.9721266031265259,-0.051579203456640244,-0.22871297597885132,0.36599355936050415,-0.32852381467819214,1.7218073606491089
1.6796889305114746,-0.631727397441864,0.03409840911626816,0.41252848505973816,0.015956539158821757,-1.344577718890835,-1.1513552984286641,-0.9743974208831787,-0.015955861657857895,-0.22426553070545197,0.18059605360031128,-0.11581893265247345,2.046567916870117
1.6996212005615234,-0.6997318267822266,-0.018060481175780296,0.3301357626914978,-0.02787532544322941,-1.34498260097367,-1.1364654028872956,-0.9742336273193359,0.027871714904904366,-0.223812535405159,0.32294201850891113,0.014775296673178673,2.554248094558716
1.719682216644287,-0.750369131565094,-0.023681752383708954,0.24925273656845093,-0.07919953721291068,-1.3425232909661502,-1.114761642406215,-0.9710054397583008,0.07911676913499832,-0.22558635473251343,0.6053550839424133,0.1749923974275589,2.890387535095215
1.7396340370178223,-0.8930773735046387,-0.08279190957546234,0.20432937145233154,-0.13503587808696282,-1.335254033845548,-1.0880746502618557,-0.9635358452796936,0.1346258670091629,-0.23124586045742035,0.7095527648925781,0.3652235269546509,3.0781970024108887
1.7596960067749023,-0.9379416704177856,-0.22999843955039978,0.17652252316474915,-0.19320360689303143,-1.323821857473588,-1.0609233826283355,-0.9516151547431946,0.19200387597084045,-0.23992273211479187,0.5349938869476318,0.30179688334465027,3.129279136657715
1.7796790599822998,-0.9445886015892029,-0.31589800119400024,0.12101143598556519,-0.2510680948866306,-1.3132439154127267,-1.036556180559134,-0.9366980791091919,0.24843870103359222,-0.2467285692691803,0.2697741687297821,0.22476457059383392,3.037999153137207
1.7996270656585693,-0.8554402589797974,-0.35653209686279297,0.12351438403129578,-0.3063067096409895,-1.305463090898096,-1.0185525768842854,-0.9200879335403442,0.3015393316745758,-0.25002503395080566,-0.023102808743715286,0.1079130545258522,2.7743492126464844
1.8196449279785156,-0.7760029435157776,-0.38288936018943787,0.10691758990287781,-0.358523037119639,-1.3006286599890855,-1.0091263729456126,-0.902448832988739,0.3508915603160858,-0.2499229609966278,-0.48163363337516785,0.055421438068151474,2.482286214828491
1.8397421836853027,-0.7204648852348328,-0.3566407859325409,0.05012995004653931,-0.40768086470003767,-1.3015127148219683,-1.010147973310688,-0.8849581480026245,0.39648133516311646,-0.24423697590827942,-0.8676077723503113,-0.09214316308498383,2.2236416339874268
1.8597300052642822,-0.6446011066436768,-0.2649816572666168,0.018026486039161682,-0.4530852060920714,-1.3084545854447172,-1.0196381929562075,-0.868338406085968,0.4377415180206299,-0.2331753969192505,-1.0673871040344238,-0.15631629526615143,1.9756159782409668
1.8796792030334473,-0.5639743804931641,-0.19053584337234497,-0.03500865399837494,-0.49386064043097566,-1.319415169495725,-1.0316306103056785,-0.8528347611427307,0.47402873635292053,-0.21901960670948029,-0.877052903175354,-0.3182348906993866,1.6837444305419922
1.8998510837554932,-0.5482592582702637,0.001035928726196289,-0.06806555390357971,-0.5275518912151929,-1.3309029040286937,-1.0404989796403303,-0.8392989039421082,0.5034195780754089,-0.20529566705226898,-0.6742939352989197,-0.3575178384780884,1.4177830219268799
1.9197001457214355,-0.5022101402282715,0.024600982666015625,-0.07187609374523163,-0.5580367202111808,-1.341602548000646,-1.0474372102905631,-0.8261132836341858,0.5295217633247375,-0.19272653758525848,-0.5986436605453491,-0.3592180013656616,1.4004381895065308
1.9396839141845703,-0.42271918058395386,0.08973342180252075,-0.11780010163784027,-0.5874229962071024,-1.354282173717841,-1.055225798713595,-0.8129375576972961,0.5542178153991699,-0.17881545424461365,-0.6888036131858826,-0.4372555613517761,1.3030421733856201
1.9596810340881348,-0.31659865379333496,0.11239445209503174,-0.1037210077047348,-0.6147488005229524,-1.3676265177039737,-1.0648109605268936,-0.8001158237457275,0.5767533183097839,-0.16483363509178162,-0.5771405100822449,-0.3558085262775421,1.1961431503295898
1.9796991348266602,-0.1885206699371338,0.09906339645385742,-0.1489378809928894,-0.6380224819656991,-1.3774095710982222,-1.0700774116633636,-0.7883013486862183,0.595608115196228,-0.1543763279914856,-0.31410709023475647,-0.3329923450946808,1.0132430791854858
1.9997329711914062,-0.08429825305938721,0.12420815229415894,-0.19229672849178314,-0.6586999158198573,-1.3855492347945317,-1.073505628826765,-0.7772588729858398,0.6120892763137817,-0.14565488696098328,-0.42982015013694763,-0.244289830327034,0.9543018937110901
2.0196781158447266,0.01891160011291504,0.06685012578964233,-0.19654391705989838,-0.6793392787406075,-1.398281876461778,-1.0860681679278237,-0.76643967628479,0.6282791495323181,-0.13354942202568054,-0.8448874950408936,-0.22676506638526917,0.8864428400993347
2.0391111373901367,0.20705366134643555,0.024790823459625244,-0.1929377317428589,-0.6989599715009729,-1.4141699831674026,-1.1038201419201745,-0.7561412453651428,0.6434218883514404,-0.11940968781709671,-0.7311874032020569,-0.23923638463020325,0.8175081014633179
2.0596790313720703,0.4037441611289978,0.033350229263305664,-0.19784539937973022,-0.7162698978965462,-1.4257029373548593,-1.112909816153408,-0.7463346123695374,0.6565757989883423,-0.1090545728802681,-0.20125579833984375,-0.3654012680053711,0.7857710123062134
2.0800130367279053,0.4509781002998352,0.04472529888153076,-0.2825334072113037,-0.7311659183476368,-1.430334421849282,-1.1096421755136086,-0.7370652556419373,0.6677380204200745,-0.10421586781740189,0.1420329362154007,-0.26371803879737854,0.7464017271995544
2.0998659133911133,0.48828816413879395,-0.09276795387268066,-0.24780245125293732,-0.7457906868921451,-1.4313738281616617,-1.1044045537422573,-0.7274240851402283,0.6785528063774109,-0.10208158195018768,0.027021557092666626,-0.16877837479114532,0.7987659573554993
2.119786024093628,0.5131027102470398,-0.10214829444885254,-0.26447248458862305,-0.7625551856559346,-1.4335459420721646,-1.1021307830639047,-0.7162736654281616,0.6907712817192078,-0.09893082082271576,-0.02103015035390854,-0.15922287106513977,0.8710940480232239
2.1399850845336914,0.49058204889297485,-0.08069366216659546,-0.2902032136917114,-0.7812501363009016,-1.4347469653088518,-1.1022603109963358,-0.7034727334976196,0.7041676044464111,-0.09630191326141357,-0.1955605149269104,-0.0037990091368556023,0.9750258326530457
2.159759044647217,0.5311378836631775,-0.13889753818511963,-0.25834667682647705,-0.8033595410362343,-1.4326466969279605,-1.1016201314157925,-0.6876779198646545,0.7196926474571228,-0.09561148285865784,-0.06052496284246445,0.13861379027366638,1.161403775215149
2.1800031661987305,0.5776848196983337,-0.14534986019134521,-0.1730775237083435,-0.8270106091045191,-1.423595341516074,-1.0937579809703386,-0.6697564721107483,0.7359105944633484,-0.0993071123957634,0.3074202537536621,0.20779046416282654,1.2634674310684204
2.200129985809326,0.6279342770576477,-0.26383352279663086,-0.10034316778182983,-0.8503393373822568,-1.40419460094338,-1.073232264935332,-0.6505936980247498,0.7515043020248413,-0.10940412431955338,0.6581282615661621,0.17456522583961487,1.2389615774154663
2.219770908355713,0.7044528126716614,-0.4414783716201782,-0.008674263954162598,-0.8708678992239774,-1.3807798388509887,-1.043432673873737,-0.6325687766075134,0.7648882865905762,-0.12166634202003479,0.8466712236404419,-0.08671635389328003,1.0888400077819824
2.2398509979248047,0.7634254097938538,-0.6033919453620911,0.13233791291713715,-0.8864373983164269,-1.3586898712576012,-1.0087506062426064,-0.6180093288421631,0.7748245000839233,-0.13308557868003845,1.0780142545700073,-0.3592412769794464,0.9304047226905823
2.259721040725708,0.7879728674888611,-0.6562246680259705,0.19477327167987823,-0.8977746559925229,-1.3355303854560132,-0.96693839433182,-0.6061797738075256,0.7819416522979736,-0.14530426263809204,1.206602692604065,-0.5730971693992615,0.7358779311180115
2.279772996902466,0.7635747194290161,-0.7278621196746826,0.241555854678154,-0.9033223200366334,-1.3137896556154196,-0.9226329698081351,-0.5986732244491577,0.7853877544403076,-0.15734265744686127,1.3700968027114868,-0.7545529007911682,0.411228746175766
2.299736976623535,0.7996466755867004,-0.7477478981018066,0.22711551189422607,-0.8996144203528281,-1.2961115648498818,-0.8754997905067666,-0.59859699010849,0.7830871939659119,-0.16868960857391357,1.5983399152755737,-1.1553955078125,0.04360348731279373
2.319705009460449,0.7994050979614258,-0.7084049582481384,0.25010281801223755,-0.888712503531528,-1.2827732216634171,-0.8269830060121639,-0.6044437289237976,0.7762607336044312,-0.17907316982746124,1.6392382383346558,-1.226050615310669,-0.2099173367023468
2.34832501411438,0.6367276906967163,-0.6155679225921631,0.28120431303977966,-0.8459160083187086,-1.2676958509478053,-0.7400682460443673,-0.6328216195106506,0.7485787868499756,-0.1979065239429474,1.8591474294662476,-1.4835784435272217,-0.999559760093689
2.367978096008301,0.5956175923347473,-0.5350521206855774,0.291585773229599,-0.8139982587255413,-1.2673774348772808,-0.6972976850825776,-0.6552338600158691,0.7270381450653076,-0.2051447331905365,1.7880791425704956,-1.5993175506591797,-1.1400049924850464
2.3877670764923096,0.4895429015159607,-0.5466755628585815,0.3343082070350647,-0.7791161389805006,-1.2774166921735497,-0.6638635126757246,-0.6811323761940002,0.702650785446167,-0.20576812326908112,1.5648584365844727,-1.726808786392212,-1.443560004234314
2.408031940460205,0.31240665912628174,-0.366149365901947,0.26965808868408203,-0.7404097680879359,-1.2880265153461679,-0.6334835754558432,-0.7088758945465088,0.6745904684066772,-0.20596782863140106,1.6622570753097534,-1.474439263343811,-1.709455132484436
2.4278030395507812,0.23858851194381714,-0.2278352975845337,0.18126006424427032,-0.6974083559928653,-1.3011044667667007,-0.6064614405974782,-0.7388021945953369,0.6422333121299744,-0.20422445237636566,1.3233673572540283,-1.7691357135772705,-1.8676729202270508
2.4466309547424316,0.2525869607925415,-0.29642605781555176,0.18098831176757812,-0.658443100609451,-1.3361984289648157,-0.5965540047208284,-0.769280195236206,0.6118861436843872,-0.18385687470436096,0.25896137952804565,-2.358851909637451,-1.8210340738296509
2.467711925506592,-0.0754278302192688,-0.23137915134429932,0.19835495948791504,-0.6215370062662106,-1.3870418653859964,-0.605002301463525,-0.7992976307868958,0.5822854042053223,-0.14855024218559265,0.0297637190669775,-2.1169543266296387,-1.8868221044540405
2.4876351356506348,-0.3058282136917114,0.07994621992111206,0.12236379086971283,-0.582050754906969,-1.4279735256308934,-0.6048562084101683,-0.8268319368362427,0.5497381687164307,-0.11890000849962234,0.7312780022621155,-2.0767033100128174,-2.0362722873687744
2.5077080726623535,-0.2644563317298889,0.26296770572662354,0.03282320499420166,-0.5403865396534665,-1.4599047367427687,-0.5869930638565297,-0.8522430062294006,0.5144674777984619,-0.0948958769440651,1.2325081825256348,-2.0888266563415527,-1.9415892362594604
2.52640700340271,-0.2469967007637024,0.08761358261108398,0.02898532897233963,-0.5005479906758582,-1.4885836807445085,-0.5609426863962197,-0.8743564486503601,0.4799063801765442,-0.07204554975032806,1.292693018913269,-2.1310791969299316,-1.883668065071106
2.547344207763672,-0.370073139667511,0.02650916576385498,-0.009566549211740494,-0.45726205504975104,-1.5205391010605112,-0.5364617393115758,-0.8961319327354431,0.44149309396743774,-0.045075058937072754,1.252712368965149,-2.1717331409454346,-2.1958630084991455
2.5673398971557617,-0.49055397510528564,-0.06860142946243286,-0.0898749828338623,-0.4117907551069346,-1.5530133427773465,-0.5115239323665778,-0.9162604808807373,0.40025103092193604,-0.01629556342959404,1.1164932250976562,-2.113847017288208,-2.3413660526275635
2.5863828659057617,-0.6769446134567261,-0.07310280203819275,-0.0744696855545044,-0.36225434987227273,-1.5858818978457176,-0.4896397609932118,-0.9349938631057739,0.3543831706047058,0.014105986803770065,0.9291068315505981,-1.9533807039260864,-2.548720359802246
2.6073689460754395,-0.851542592048645,-0.07385832071304321,-0.07737469673156738,-0.31421754469925,-1.6150263151908755,-0.47156986849387295,-0.9501084685325623,0.30907243490219116,0.04205071181058884,0.593483030796051,-1.5591810941696167,-2.294166088104248
2.626349925994873,-0.979536235332489,-0.06634169816970825,-0.09560442715883255,-0.27258552735585084,-1.6383983263033786,-0.46281977501087523,-0.9608781337738037,0.2692224085330963,0.06505641341209412,-0.034037187695503235,-1.0289032459259033,-1.9039238691329956
2.646972179412842,-0.9900951981544495,-0.009050995111465454,-0.06543684005737305,-0.2412424333066465,-1.6551140945837426,-0.4666242821914053,-0.9675922393798828,0.2389092594385147,0.0817791149020195,-0.5340842604637146,-0.5643826723098755,-1.1925139427185059
2.6669411659240723,-0.797893762588501,0.06914395093917847,-0.020061969757080078,-0.22152748310974765,-1.6644631134221795,-0.475722638946759,-0.9712865352630615,0.2197200357913971,0.09124428778886795,-0.38516765832901,-0.18779760599136353,-0.6535541415214539
2.687352180480957,-0.5834932327270508,0.07954485714435577,-0.07199442386627197,-0.2137195181918461,-1.6669430343523333,-0.4769211289845127,-0.9727354645729065,0.21209625899791718,0.09381456673145294,0.1597551703453064,-0.011981838382780552,-0.17607611417770386
2.7071709632873535,-0.4922559857368469,-0.019262582063674927,-0.03642929345369339,-0.2140855755504875,-1.6635658914428633,-0.47158755168028627,-0.9729692339897156,0.2124539613723755,0.09052176028490067,0.32162219285964966,0.19587211310863495,0.13119062781333923
2.726818084716797,-0.4282689094543457,-0.17217309772968292,-0.007586002349853516,-0.2190405562467109,-1.6576517096312304,-0.4661238081225348,-0.9724269509315491,0.21729320287704468,0.08467354625463486,0.2292020320892334,0.28835171461105347,0.3194136321544647
2.7482550144195557,-0.34788715839385986,-0.22879289090633392,0.036437273025512695,-0.22718676084294082,-1.6515559116073293,-0.46360410929799456,-0.9711284041404724,0.22523747384548187,0.07859887927770615,0.104493148624897,0.26522162556648254,0.45383286476135254
2.763927936553955,-0.3536057472229004,-0.2342572659254074,0.040897734463214874,-0.2379771583844021,-1.6461827339747566,-0.4639535977186459,-0.9690567851066589,0.23573727905750275,0.07319241762161255,-0.0826617181301117,0.2971024215221405,0.5928152203559875
2.7867579460144043,-0.3868560791015625,-0.20839005708694458,0.1012357547879219,-0.2509320811982109,-1.6419207886319271,-0.47043386117618585,-0.9662324786186218,0.24830695986747742,0.06883887946605682,-0.44881317019462585,0.3051941692829132,0.7534646391868591
2.8067870140075684,-0.34271031618118286,-0.2569105625152588,0.17879068851470947,-0.26742609465078243,-1.6393205265004438,-0.48516433698289374,-0.9621908664703369,0.26424989104270935,0.06603675335645676,-0.8846409916877747,0.31953752040863037,0.9519988894462585
2.825627088546753,-0.29892975091934204,-0.2542429566383362,0.1776663064956665,-0.28330105175908615,-1.6396877809519599,-0.5074362789604515,-0.9578604102134705,0.27952662110328674,0.06609299033880234,-1.0217347145080566,0.2957248389720917,0.7971878051757812
2.845500946044922,-0.268939733505249,-0.21838712692260742,0.1793808937072754,-0.2992014226548903,-1.6366186017775592,-0.5286150316811368,-0.953502893447876,0.294757217168808,0.06285253167152405,-0.9197662472724915,0.6186527609825134,0.905629575252533
2.8665390014648438,-0.2966204285621643,-0.19125905632972717,0.19837510585784912,-0.3156775279277521,-1.6274467677259192,-0.546158627861739,-0.9490614533424377,0.3104605972766876,0.053822338581085205,-0.6253196001052856,0.8631205558776855,0.878581702709198
2.8867621421813965,-0.3338853120803833,-0.09633687138557434,0.1854797601699829,-0.3331797776041244,-1.611972581507428,-0.558868844186164,-0.9442060589790344,0.32704958319664,0.03890085592865944,-0.5745286345481873,1.0499235391616821,0.9213551878929138
2.9064390659332275,-0.2623217701911926,-0.13957980275154114,0.23725533485412598,-0.35182544284076844,-1.5950705903816085,-0.5744400599604301,-0.9384686350822449,0.3446120023727417,0.022785110399127007,-0.8403306603431702,1.165000081062317,1.0321818590164185
2.926137924194336,-0.16296815872192383,-0.19937995076179504,0.2004702091217041,-0.37320532190119216,-1.5807266807562743,-0.5967293407688229,-0.931117594242096,0.3646019697189331,0.009246631525456905,-1.1881836652755737,0.9600909352302551,1.0765691995620728
2.9460480213165283,-0.1905563473701477,-0.07001730799674988,0.12968504428863525,-0.39329542219924746,-1.575603154606089,-0.6256410370646284,-0.9236404299736023,0.38323432207107544,0.004439814947545528,-1.4648443460464478,0.7374247908592224,0.9861529469490051
2.9662089347839355,-0.26668626070022583,-0.0597974956035614,0.13630449771881104,-0.4130070719879114,-1.5730645360783906,-0.6591866891471311,-0.9159157276153564,0.40136536955833435,0.0020774921867996454,-1.6271957159042358,0.8668764233589172,1.021805763244629
2.986191987991333,-0.1917596459388733,-0.11905261874198914,0.16913336515426636,-0.43440567765478455,-1.5682173267111006,-0.695851103171398,-0.9071174263954163,0.4208713471889496,-0.0023394611198455095,-1.6935633420944214,1.112424373626709,1.1111114025115967
3.0061049461364746,-0.0823548436164856,-0.05212089419364929,0.11367130279541016,-0.45614164852354405,-1.561183720564494,-0.7320267205689526,-0.8977174162864685,0.4404875338077545,-0.008629669435322285,-1.5433286428451538,1.1445847749710083,1.0365715026855469
3.0258359909057617,-0.03215992450714111,0.021407753229141235,-0.012160420417785645,-0.47540979628495217,-1.5552632709027874,-0.7670723381325861,-0.8889979720115662,0.4577028453350067,-0.013809965923428535,-1.6126471757888794,1.0606191158294678,0.8492589592933655
3.046748161315918,0.05434137582778931,-0.006970018148422241,-0.09558767080307007,-0.49304335375035807,-1.5520779222272578,-0.8030311865829142,-0.8807421326637268,0.4733089506626129,-0.01648801378905773,-1.6576409339904785,0.9555007219314575,0.9131572246551514
3.0645999908447266,0.2023547887802124,-0.08170053362846375,-0.10160821676254272,-0.5149746360954783,-1.5542622477495642,-0.8439995114416027,-0.8701863288879395,0.4925127625465393,-0.014389040879905224,-2.0795488357543945,0.8702298998832703,1.2245216369628906
3.08569598197937,0.2585243582725525,-0.09042072296142578,-0.046979546546936035,-0.5417690118527235,-1.5614616159855608,-0.8956257193624294,-0.8567605018615723,0.5156524777412415,-0.007997843436896801,-2.464729070663452,1.21326744556427,1.346954584121704
3.103886127471924,0.26082462072372437,0.001208484172821045,-0.04719966650009155,-0.564941835560583,-1.5594015453567016,-0.9455046005923158,-0.8445649743080139,0.5353667140007019,-0.009624049998819828,-1.7147573232650757,1.448957920074463,0.9549344182014465
3.125669002532959,0.38463979959487915,0.10260266065597534,-0.220960795879364,-0.5820175606456496,-1.5497866440056791,-0.9756119618964092,-0.8351709246635437,0.5497104525566101,-0.01754925772547722,-0.8612092137336731,1.0298980474472046,0.6550369262695312
3.1452829837799072,0.4949255585670471,0.16015350818634033,-0.25159454345703125,-0.590468279959246,-1.5417232902052314,-0.9879864259544714,-0.8303291201591492,0.5567500591278076,-0.024146992713212967,-0.2669026851654053,0.5314006805419922,0.2978856563568115
3.165440082550049,0.5092557072639465,0.03669518232345581,-0.18898892402648926,-0.5987382071170049,-1.5347047928356998,-0.9937389507465042,-0.8255094289779663,0.5636005997657776,-0.029806844890117645,-0.27779555320739746,0.5957965850830078,0.4537527859210968
3.1855058670043945,0.46172910928726196,-0.07373988628387451,-0.21988564729690552,-0.6075478200962939,-1.5320087579804478,-1.0092162613901876,-0.820432722568512,0.5708557963371277,-0.031838558614254,-1.0551551580429077,0.4930410087108612,0.31876420974731445
3.2053990364074707,0.4974849224090576,0.028826117515563965,-0.24752366542816162,-0.6131198600265167,-1.5368472562368305,-1.0347405879890503,-0.817385733127594,0.5754218697547913,-0.027760149911046028,-0.9713719487190247,0.48166534304618835,0.2440679669380188
3.2253899574279785,0.5259063839912415,0.11625444889068604,-0.27305763959884644,-0.6199516883463334,-1.5411916005079669,-1.0581862430886508,-0.8135501146316528,0.5809958577156067,-0.024091966450214386,-0.668013870716095,0.45761021971702576,0.19313496351242065
3.2453010082244873,0.4713643789291382,0.139926016330719,-0.35412275791168213,-0.6227226467528498,-1.538871544783752,-1.0681761485664156,-0.8118796348571777,0.5832489132881165,-0.025927890092134476,-0.3144562840461731,0.3441736102104187,0.10080430656671524
3.265166997909546,0.4808584451675415,0.12511491775512695,-0.3226688504219055,-0.6244642776227024,-1.53385631100642,-1.0687574811228662,-0.8107230067253113,0.5846627354621887,-0.02996174991130829,0.0025466668885201216,0.16352669894695282,0.13487477600574493
3.285346031188965,0.4727919101715088,0.08902919292449951,-0.257363498210907,-0.6284747090043203,-1.5330155814409523,-1.0701836819624748,-0.8083480596542358,0.5879116058349609,-0.030554531142115593,-0.09062656760215759,0.015093544498085976,0.23048509657382965
3.3051869869232178,0.40716272592544556,0.05615156888961792,-0.23243176937103271,-0.6343284407577522,-1.5336320496130247,-1.0709480741684605,-0.8049136400222778,0.5926367044448853,-0.02992781437933445,0.07210251688957214,-0.025123650208115578,0.33239760994911194
3.3242270946502686,0.36220812797546387,0.0574951171875,-0.25739771127700806,-0.6402318798073989,-1.531587345326942,-1.0647601860624227,-0.8013408780097961,0.5973814129829407,-0.03143586963415146,0.4983989894390106,-0.13292191922664642,0.2710396647453308
3.343971014022827,0.37379831075668335,0.05597949028015137,-0.20967578887939453,-0.6439344396083782,-1.5251860676434872,-1.0481438761844444,-0.7989082336425781,0.6003466248512268,-0.036463700234889984,0.8222030997276306,-0.19675150513648987,0.17608162760734558
3.3650660514831543,0.36354273557662964,-0.0558658242225647,-0.1408511996269226,-0.6468740077044783,-1.5142000051845965,-1.0233300760919546,-0.7966940402984619,0.6026949286460876,-0.0451381579041481,1.0888935327529907,-0.16971279680728912,0.22482162714004517
3.3850269317626953,0.33984315395355225,-0.0846247673034668,-0.07217187434434891,-0.6487254164797543,-1.4986934476220881,-0.9934375998200713,-0.7947841882705688,0.6041712164878845,-0.0574057437479496,1.3254350423812866,-0.08617919683456421,0.1209975928068161
3.4050841331481934,0.30032122135162354,-0.09222829341888428,-0.09602154046297073,-0.6488843966172665,-1.4799117175095842,-0.9604929938619415,-0.7934702634811401,0.604297935962677,-0.07231345027685165,1.2127010822296143,-0.030498618260025978,0.04983101040124893
3.4249448776245117,0.2772459387779236,-0.1120031476020813,-0.04458355903625488,-0.6463390345479816,-1.4630479030537602,-0.9327265901435622,-0.7936645150184631,0.6022679209709167,-0.08584858477115631,1.0319336652755737,0.054529547691345215,-0.029266778379678726
3.44281005859375,0.27828001976013184,-0.10629308223724365,-0.00750356912612915,-0.6418506571632859,-1.446149357259097,-0.9078624448294697,-0.7947748899459839,0.5986788272857666,-0.09958254545927048,1.1130365133285522,0.12834233045578003,-0.22193172574043274
3.4636130332946777,0.2720577120780945,-0.05769091844558716,-0.00564981997013092,-0.6318828832046417,-1.424808911383763,-0.8761058901156623,-0.7983335852622986,0.5906651616096497,-0.1173817366361618,1.5834085941314697,0.12380217760801315,-0.4769037365913391
3.483376979827881,0.27168214321136475,-0.012972533702850342,0.06636148691177368,-0.613125730275694,-1.3985794621484278,-0.8362979040100355,-0.8057551980018616,0.5754266381263733,-0.1401529610157013,1.8532315492630005,0.16410237550735474,-0.8425202369689941
3.504824161529541,0.2551180124282837,-0.06327694654464722,0.16135495901107788,-0.5861163591640044,-1.3704288909511189,-0.7935073446151191,-0.8164279460906982,0.5531297326087952,-0.1658104807138443,2.1072001457214355,0.25370267033576965,-1.169268250465393
3.5234808921813965,0.25826525688171387,-0.025760114192962646,0.22140493988990784,-0.5509197429765732,-1.342105052623759,-0.7509888989721134,-0.8298594951629639,0.5234711170196533,-0.19316084682941437,2.1167988777160645,0.307888388633728,-1.5117480754852295
3.543471097946167,0.3492928743362427,-0.04203641414642334,0.21978527307510376,-0.5091558512617772,-1.3169418217045068,-0.7092444708076521,-0.8451731204986572,0.4874403476715088,-0.21928168833255768,2.445845127105713,0.025236016139388084,-1.6249723434448242
3.5643019676208496,0.4722900986671448,-0.06864425539970398,0.23928716778755188,-0.4618923710808351,-1.3025260071157936,-0.6637752601420467,-0.8631897568702698,0.44564297795295715,-0.23728814721107483,2.700718402862549,-0.694161057472229,-1.9879704713821411
3.584273099899292,0.28152137994766235,-0.03862482309341431,0.19341719150543213,-0.40448362478835137,-1.300540585796824,-0.6167158472202442,-0.8859373331069946,0.39354410767555237,-0.24543431401252747,2.922044277191162,-1.0463860034942627,-2.43060040473938
3.6044440269470215,-0.013831555843353271,0.018146097660064697,0.15130892395973206,-0.3371262382902346,-1.306200157981857,-0.5726886333444994,-0.9108663201332092,0.3307764530181885,-0.2467983365058899,2.7971673011779785,-1.1267595291137695,-2.966257333755493
3.6244049072265625,-0.1837024688720703,0.04971367120742798,0.18272322416305542,-0.2637428077950642,-1.3186304750432007,-0.5350260189177011,-0.9348889589309692,0.26069575548171997,-0.24087437987327576,2.573699712753296,-1.2534936666488647,-3.2061209678649902
3.644163131713867,-0.33149921894073486,0.14391785860061646,0.1745528131723404,-0.18754757463507432,-1.3366510854798723,-0.5020279723677398,-0.9556559324264526,0.1864500343799591,-0.22794318199157715,2.3725976943969727,-1.3120851516723633,-3.377859592437744
3.6638870239257812,-0.49088728427886963,0.21503940224647522,0.19147534668445587,-0.11325108522381426,-1.3590780643477307,-0.4738702341340825,-0.9714082479476929,0.11300914734601974,-0.20879393815994263,1.9399865865707397,-1.3613250255584717,-3.2190663814544678
3.683980941772461,-0.6590070128440857,0.22965265810489655,0.15576225519180298,-0.04885479154000806,-1.3807537078100607,-0.45728498089196773,-0.9808245897293091,0.04883535951375961,-0.18867537379264832,0.8963390588760376,-0.8898478746414185,-2.77457857131958
3.7034239768981934,-0.6936123371124268,0.2268419861793518,0.17428405582904816,0.0016986994404362766,-1.3899741376578427,-0.4605639911590794,-0.9836947321891785,-0.001698698615655303,-0.1798381507396698,-0.3001076579093933,0.05434383451938629,-2.1965067386627197
3.7238080501556396,-0.40024882555007935,0.2024918496608734,0.2301405966281891,0.033568255040931166,-1.3807900365922379,-0.48445642587196325,-0.9814499020576477,-0.03356195241212845,-0.18875868618488312,-1.4059704542160034,0.722009003162384,-1.3956947326660156
3.7437620162963867,0.022388160228729248,0.2283957153558731,0.27850180864334106,0.04883458300914144,-1.3602410198825612,-0.51773851809735,-0.9767491221427917,-0.048815175890922546,-0.2087538093328476,-1.1859631538391113,0.9545342922210693,-0.8112863302230835
3.7638700008392334,0.33710455894470215,0.2607816457748413,0.06057603657245636,0.05937012281017947,-1.3479258241205323,-0.5256089729394019,-0.9735485911369324,-0.05933525040745735,-0.22064058482646942,0.7790041565895081,0.3618966042995453,-0.45074328780174255
3.7835280895233154,0.2922214865684509,0.36063897609710693,-0.11765889823436737,0.07579955557210555,-1.3438401161751596,-0.4916857598077066,-0.9715580344200134,-0.07572699338197708,-0.22436673939228058,2.6845314502716064,0.259299099445343,-0.5176705121994019
3.8036909103393555,0.011523842811584473,0.29186511039733887,-0.13100546598434448,0.10711821854022001,-1.342808352608681,-0.4381997408540245,-0.968539834022522,-0.1069134846329689,-0.22472257912158966,3.049126148223877,0.3218945860862732,-1.3748197555541992
3.8234810829162598,-0.09296482801437378,0.09936375916004181,-0.03464150428771973,0.15029838215610136,-1.3455578520184646,-0.3925798123185839,-0.9637521505355835,-0.14973315596580505,-0.22082100808620453,2.1731503009796143,-0.06482312828302383,-1.6702989339828491
3.8433690071105957,-0.10096752643585205,0.006895989179611206,0.0174294114112854,0.1862082603243442,-1.3551921639973257,-0.369727533985802,-0.9599608778953552,-0.18513403832912445,-0.21023936569690704,0.6569395661354065,-0.4875202178955078,-1.3267006874084473
3.862349033355713,-0.18695372343063354,0.027668491005897522,0.02433788776397705,0.2119921616926784,-1.3653710053030577,-0.37610991417240497,-0.9570587277412415,-0.21040788292884827,-0.1994171291589737,-0.4671064615249634,-0.6332785487174988,-1.4393768310546875
3.883296012878418,-0.3073968291282654,0.14849935472011566,0.010651051998138428,0.23619990412285857,-1.3713642303781521,-0.3935330946024243,-0.9529638886451721,-0.2340097427368164,-0.19261197745800018,-0.7288408875465393,-0.236434206366539,-1.2390265464782715
3.9024810791015625,-0.30893468856811523,0.4055914878845215,0.16623593866825104,0.25725078767599036,-1.3697355679843588,-0.410941710365946,-0.9476113319396973,-0.25442278385162354,-0.1931370347738266,-0.4161964952945709,-0.11956564337015152,-1.1208113431930542
3.9233169555664062,-0.2865360975265503,0.503517210483551,0.2751430869102478,0.2740554163999201,-1.369119492733122,-0.41867521184232886,-0.9431697130203247,-0.27063772082328796,-0.19283704459667206,0.06909479200839996,0.10329947620630264,-0.661648690700531
3.9430880546569824,-0.22208112478256226,0.5288170576095581,0.4232940077781677,0.2832455833941602,-1.364601510991732,-0.410969218144868,-0.9398146271705627,-0.27947336435317993,-0.1965787708759308,0.8012171387672424,0.41205933690071106,-0.11352790892124176
3.962998867034912,-0.2685876488685608,0.3362162113189697,0.23081815242767334,0.2869776180767906,-1.365495586034288,-0.3904697480196236,-0.9389623999595642,-0.28305473923683167,-0.1955244392156601,1.1432150602340698,0.07010672986507416,0.08526939153671265
3.983126163482666,-0.30627572536468506,0.1597568690776825,0.3193981647491455,0.28853006439777534,-1.368273832815679,-0.36682016759344005,-0.9390704035758972,-0.28454336524009705,-0.19282639026641846,1.0704705715179443,0.2946293354034424,0.23132994771003723
4.0031750202178955,-0.33234184980392456,-0.09963101148605347,0.37997257709503174,0.2847719584963715,-1.3691859724263242,-0.347875317780704,-0.9402869343757629,-0.28093859553337097,-0.1921825259923935,0.6101769804954529,0.23009586334228516,0.5607641935348511
4.02207088470459,-0.3054102659225464,-0.16564613580703735,0.5202500224113464,0.2718324691755977,-1.3661038360435036,-0.33870221787236493,-0.9431706666946411,-0.2684970796108246,-0.19580227136611938,0.1091257780790329,0.22775956988334656,0.8145456314086914
4.043555021286011,-0.3379439115524292,-0.15342405438423157,0.37943416833877563,0.25425980639135065,-1.3665446183084886,-0.33022769486680054,-0.9477311372756958,-0.2515290677547455,-0.19631332159042358,0.2544757127761841,-0.04808533564209938,1.0371533632278442
4.0615081787109375,-0.3321012854576111,-0.23570701479911804,0.3772037625312805,0.2360688823219413,-1.3713642156101131,-0.3193223951459133,-0.9529939293861389,-0.2338823527097702,-0.19261807203292847,0.42647600173950195,-0.12577277421951294,1.0036723613739014
4.08276104927063,-0.37289959192276,-0.40826737880706787,0.3321005702018738,0.21726306565552553,-1.3753283042435025,-0.3080100409621028,-0.9578956961631775,-0.21555784344673157,-0.18965964019298553,0.2627919018268585,-0.027064651250839233,1.0706462860107422
4.101845026016235,-0.4313550591468811,-0.40995389223098755,0.22309452295303345,0.19323634289279826,-1.377279848851055,-0.3014042700439602,-0.9630693793296814,-0.1920360028743744,-0.1887316107749939,-0.04970941320061684,0.05900134891271591,1.4429304599761963
4.123673915863037,-0.5044539570808411,-0.32126444578170776,0.15394969284534454,0.15977655821148434,-1.3745311499451078,-0.2967389547863184,-0.9683091044425964,-0.1590976119041443,-0.19252373278141022,-0.06574024260044098,0.31333863735198975,1.9270669221878052
4.142866134643555,-0.5862128138542175,-0.18537278473377228,0.12534528970718384,0.1164805147159254,-1.3676155103474146,-0.28820818459242276,-0.97279292345047,-0.11621730029582977,-0.2004183977842331,0.05391981452703476,0.554233729839325,2.4252212047576904
4.162430047988892,-0.6474908590316772,-0.17317873239517212,0.1929844617843628,0.0644759180028395,-1.35636702418679,-0.27775751133392396,-0.9750677943229675,-0.06443125754594803,-0.21234770119190216,-0.09526979178190231,0.7031445503234863,2.864626169204712
4.1823201179504395,-0.7216361165046692,-0.2427537888288498,0.29725182056427,0.005659455570997528,-1.340573933015344,-0.2626198222800656,-0.9736001491546631,-0.005659425165504217,-0.22819042205810547,0.39785799384117126,0.8691879510879517,3.1418979167938232
4.202600002288818,-0.7705110907554626,-0.14802879095077515,0.1631455421447754,-0.05132574480798621,-1.3231392090409224,-0.23287254356246861,-0.9682127237319946,0.051303211599588394,-0.24481041729450226,1.09251070022583,0.8226457238197327,3.133331775665283
4.222825050354004,-0.7519707083702087,-0.2159515917301178,0.18350714445114136,-0.10664117862833719,-1.3053775057459738,-0.19844923258389888,-0.9595009088516235,0.10643916577100754,-0.2608233094215393,0.6833633780479431,0.7495915293693542,3.1100521087646484
4.2423858642578125,-0.736756443977356,-0.4298211336135864,0.2774391174316406,-0.16540698548111676,-1.2881685162183403,-0.1769412366704365,-0.9472188949584961,0.16465377807617188,-0.2750738561153412,-0.18522994220256805,0.7144601345062256,3.137117624282837
4.262273073196411,-0.6372095942497253,-0.4121432602405548,0.26961055397987366,-0.22718759791977405,-1.2738171990567262,-0.16918859854331955,-0.9316535592079163,0.22523827850818634,-0.2851133644580841,-0.8182843923568726,0.5787599682807922,2.9753098487854004
4.28261399269104,-0.5409561991691589,-0.3047827184200287,0.2141340970993042,-0.2876611273121524,-1.263324355400895,-0.16979763571092568,-0.9139389395713806,0.283710241317749,-0.29021430015563965,-0.9696640968322754,0.47507408261299133,2.7793500423431396
4.3022620677948,-0.44419753551483154,-0.2228568196296692,0.11462587118148804,-0.3428456510860245,-1.2550696273407678,-0.1704719664525868,-0.8952495455741882,0.336168497800827,-0.2924363911151886,-0.8239505887031555,0.35780394077301025,2.4878406524658203
4.322134971618652,-0.3354642987251282,-0.1612851619720459,0.12959209084510803,-0.39222732432938645,-1.2491251565885637,-0.17095730918207983,-0.8766633868217468,0.38224753737449646,-0.2921437919139862,-0.7988729476928711,0.26902249455451965,2.2529680728912354
4.345503091812134,-0.2707158327102661,-0.18965423107147217,0.11545416712760925,-0.4384119403784988,-1.2459344444179903,-0.17464724075840796,-0.8580683469772339,0.4245021343231201,-0.2889922559261322,-0.9612586498260498,0.2134511023759842,2.013112783432007
4.35997200012207,-0.2146972417831421,-0.15900632739067078,0.08474430441856384,-0.481384809949183,-1.2454376454904874,-0.1820875513296316,-0.8398529887199402,0.4630070626735687,-0.2833220660686493,-1.06672203540802,0.14943279325962067,1.8596585988998413
4.380274057388306,-0.08520948886871338,-0.18422001600265503,0.06857296824455261,-0.5219615652201892,-1.2489664385630668,-0.19363012642641175,-0.8223375678062439,0.4985814690589905,-0.2741850018501282,-1.1503772735595703,0.037751540541648865,1.670311689376831
4.583111047744751,-0.031914710998535156,-0.14704442024230957,0.020409703254699707,-0.5590435757705038,-1.2566201573915194,-0.20809786312266135,-0.8062660098075867,0.530375599861145,-0.26198676228523254,-1.2055275440216064,-0.00572056882083416,1.4697340726852417
4.612110137939453,0.10167551040649414,-0.109275221824646,-0.06674075126647949,-0.6511689685957456,-1.2986560073638682,-0.27418331694074366,-0.7661043405532837,0.6061165928840637,-0.21379196643829346,-1.511897325515747,-0.07218854129314423,1.0793730020523071
4.619602203369141,0.14737921953201294,-0.1525384783744812,-0.07168769836425781,-0.6772983773584524,-1.3203333284904513,-0.30713718394790607,-0.7549538016319275,0.6266900300979614,-0.19314374029636383,-1.5700807571411133,-0.03666437044739723,0.8366339802742004
4.643647193908691,0.4723097085952759,-0.20322763919830322,-0.16652511060237885,-0.7355579100044294,-1.4137766132012188,-0.45042653837937985,-0.7323347926139832,0.6710008978843689,-0.11594545841217041,-1.1799288988113403,0.03341209888458252,0.11060547828674316
4.660788059234619,0.955547034740448,-0.30972880125045776,-0.10836582630872726,-0.6525494415462804,-1.463020329346713,-0.5799630137222386,-0.7899281978607178,0.6072140336036682,-0.08546647429466248,-0.5192145109176636,0.6522826552391052,-1.685861587524414
4.679646968841553,0.9806211590766907,-0.30663001537323,0.050244808197021484,-0.6213050428167026,-1.4605337465955675,-0.5965239160228082,-0.8081817030906677,0.5820968151092529,-0.08947509527206421,-0.3390684723854065,0.5003493428230286,-1.5107439756393433
4.699629068374634,1.0825443267822266,-0.1221192479133606,0.02488309144973755,-0.5937788825464748,-1.4592263526159668,-0.6020262808902257,-0.8236791491508484,0.559497058391571,-0.09228108078241348,0.2539784610271454,0.03549948334693909,-1.323167085647583
4.719655990600586,0.906337320804596,0.0325624942779541,-0.06854391098022461,-0.5655414652964893,-1.4553643780817545,-0.5932417011859799,-0.8386799693107605,0.5358730554580688,-0.09724275022745132,0.6869314312934875,-0.22679205238819122,-1.3997098207473755
4.739645004272461,0.8898324370384216,-0.0482325553894043,-0.08070653676986694,-0.5367927394410769,-1.4599700120860688,-0.5809388296920942,-0.8540812134742737,0.5113824605941772,-0.09504412114620209,0.6519160866737366,-0.9828645586967468,-1.402649998664856
4.759679079055786,0.831088662147522,-0.09618952870368958,0.0013005658984184265,-0.5105191389125363,-1.4760714887353796,-0.568618515790125,-0.8685797452926636,0.4886302649974823,-0.08252304047346115,0.6677548885345459,-1.1782759428024292,-1.2096128463745117
4.779645919799805,0.5491120219230652,-0.12099120020866394,-0.016200125217437744,-0.4841178100416629,-1.492130580648507,-0.5515452069877056,-0.8823488354682922,0.4654277265071869,-0.0695541650056839,1.0576094388961792,-1.2302672863006592,-1.2644442319869995
4.800760984420776,0.4019862413406372,-0.13517263531684875,-0.14292222261428833,-0.45579963691045083,-1.5102543108411026,-0.5298297395959766,-0.8962643146514893,0.4401804506778717,-0.05432804301381111,1.0247392654418945,-1.5931193828582764,-1.431846022605896
4.820617198944092,0.3463671803474426,-0.19024747610092163,-0.14898806810379028,-0.42468503656009077,-1.5366452662287122,-0.511004570891512,-0.9106372594833374,0.4120338261127472,-0.031111324205994606,0.8363445401191711,-1.8521314859390259,-1.6763049364089966
4.840854167938232,0.18771576881408691,-0.1655624806880951,-0.13459664583206177,-0.38926204080063603,-1.5692944143924257,-0.4947271627762897,-0.9251882433891296,0.3795057535171509,-0.001389552722685039,0.6601440906524658,-2.0485734939575195,-1.8787730932235718
4.859673976898193,-0.018203020095825195,-0.16738831996917725,-0.10768473148345947,-0.349915564601203,-1.607989178976691,-0.4840227525319505,-0.9387519955635071,0.3428184986114502,0.03493097424507141,0.20700044929981232,-2.2969822883605957,-2.0542802810668945
4.880573987960815,-0.25276654958724976,-0.1886746883392334,-0.14241540431976318,-0.3074798834375483,-1.6531364454898834,-0.4820545017743399,-0.9498701095581055,0.3026576638221741,0.07838965952396393,-0.1992555409669876,-2.23453950881958,-2.2109906673431396
4.900351047515869,-0.5441014170646667,-0.10535097122192383,-0.13212765753269196,-0.2637951816833606,-1.6959888616603596,-0.4821245520208914,-0.9578516483306885,0.2607463300228119,0.12054631859064102,-0.2344653606414795,-2.11130690574646,-2.12556529045105
4.920489072799683,-0.6988009810447693,-0.013661950826644897,-0.11761069297790527,-0.22423059287950167,-1.7335086204179981,-0.4775396806171596,-0.9620877504348755,0.22235628962516785,0.15793980658054352,0.2099938839673996,-1.728166103363037,-1.8607985973358154
4.9402570724487305,-0.7739756107330322,0.1239146739244461,-0.0805974006652832,-0.19464904999038432,-1.7592717058630554,-0.45914659152543275,-0.9637411236763,0.19342222809791565,0.18382330238819122,1.087241291999817,-1.3071421384811401,-1.374570369720459
4.960105895996094,-0.6474718451499939,0.017979592084884644,-0.25498366355895996,-0.1785701882657341,-1.774969427163679,-0.42453676471686685,-0.9636579155921936,0.17762267589569092,0.1995333880186081,1.884279489517212,-0.7970763444900513,-0.813937783241272
4.980053901672363,-0.5660800933837891,-0.10680781304836273,-0.27260148525238037,-0.1748821958132485,-1.7743204274412656,-0.38646074611137105,-0.9644222259521484,0.1739921271800995,0.19903898239135742,1.5821584463119507,0.15211789309978485,-0.36264827847480774
5.000227928161621,-0.5392169952392578,-0.2422935515642166,-0.18932771682739258,-0.17744247640177982,-1.7595820954509944,-0.3571289184444648,-0.9668102860450745,0.17651279270648956,0.1847197264432907,1.3215426206588745,0.7790750861167908,-0.03267267718911171
5.019838094711304,-0.4647477865219116,-0.21932274103164673,0.04477371275424957,-0.18345418984717807,-1.736628865796636,-0.3315260092723834,-0.9697310924530029,0.18242688477039337,0.16230350732803345,1.3406579494476318,0.9414033889770508,0.17416398227214813
5.040477991104126,-0.4076213240623474,-0.351725697517395,0.14534150063991547,-0.19165713136604065,-1.7143645107011887,-0.3074884916297671,-0.9715900421142578,0.19048593938350677,0.14045576751232147,1.0226621627807617,0.8808890581130981,0.18922260403633118
5.061327934265137,-0.4871416687965393,-0.4019821882247925,0.31177377700805664,-0.19749873176080446,-1.6924995308905795,-0.2914357880812146,-0.9733074903488159,0.19621729850769043,0.11904296278953552,0.597277820110321,0.9724042415618896,0.22735725343227386
5.079710960388184,-0.48688310384750366,-0.45476624369621277,0.2967578172683716,-0.2012232422831542,-1.6752582520859762,-0.2861598585141866,-0.9744815826416016,0.19986803829669952,0.10216812044382095,0.007308918051421642,0.6397585868835449,0.0958578959107399
5.099677085876465,-0.4876798987388611,-0.38084346055984497,0.23784160614013672,-0.20451644187174253,-1.6650421914260651,-0.2914490761631305,-0.9748139381408691,0.20309370756149292,0.0921451672911644,-0.4943819046020508,0.5492719411849976,0.31662115454673767
5.119899034500122,-0.5127894878387451,-0.34394073486328125,0.2114849090576172,-0.21282261970021632,-1.655856044917073,-0.30747568356634514,-0.9739048480987549,0.2112196683883667,0.08304043859243393,-1.032315731048584,0.6689425706863403,0.647658109664917
5.139733076095581,-0.4944673776626587,-0.19027604162693024,0.19741976261138916,-0.22588332231157704,-1.643897644794267,-0.3313021159867582,-0.9719938635826111,0.22396732866764069,0.07118087261915207,-1.1711477041244507,1.0727208852767944,0.9289392828941345
5.1596620082855225,-0.5008435249328613,-0.08230721950531006,0.17588210105895996,-0.24471542915169037,-1.6253879284613417,-0.3573192339339941,-0.9687610268592834,0.2422802448272705,0.05293881520628929,-1.1710139513015747,1.382811427116394,1.111903429031372
5.179682016372681,-0.5038177967071533,-0.11510694026947021,0.17284774780273438,-0.26789693359177663,-1.600837347968382,-0.3821615161163328,-0.9638946652412415,0.2647039592266083,0.028965093195438385,-1.194940447807312,1.6756925582885742,1.3937902450561523
5.19967794418335,-0.40505456924438477,-0.26624006032943726,0.17147111892700195,-0.2972394497110531,-1.5758788294759347,-0.41078118339397884,-0.9561364650726318,0.2928818166255951,0.004859608132392168,-1.5064239501953125,1.6559677124023438,1.5361697673797607
5.219706058502197,-0.40438681840896606,-0.3104301691055298,0.15613865852355957,-0.3275149031493111,-1.5534762920113947,-0.44386609112383235,-0.9467027187347412,0.32169103622436523,-0.016398563981056213,-1.6134577989578247,1.5532785654067993,1.4757157564163208
5.240725040435791,-0.3363472819328308,-0.2943674921989441,0.13403862714767456,-0.35615525884044646,-1.5360411347173042,-0.476240308433191,-0.9366782903671265,0.34867334365844727,-0.032567545771598816,-1.4871914386749268,1.2820850610733032,1.3520609140396118
5.259151935577393,-0.27402907609939575,-0.3179534673690796,0.12143546342849731,-0.38395878518391874,-1.523474727767424,-0.5062479336933602,-0.9261509776115417,0.37459394335746765,-0.04385969042778015,-1.4685335159301758,1.0986902713775635,1.2987573146820068
5.279713153839111,-0.2525041699409485,-0.27277693152427673,0.14512109756469727,-0.4077289903374103,-1.5149752945910606,-0.5397610013825862,-0.9165937304496765,0.396525502204895,-0.051218416541814804,-1.7869876623153687,1.1703861951828003,0.8736522197723389
5.2996790409088135,-0.221574068069458,-0.2325311005115509,0.18383312225341797,-0.4225776698809433,-1.5050369011379345,-0.5763074235886217,-0.9100635051727295,0.41011273860931396,-0.059931665658950806,-1.557879090309143,1.2651255130767822,0.5223173499107361
5.319676876068115,-0.1271386742591858,-0.2620294392108917,0.11156845837831497,-0.4342227971591736,-1.491412369266152,-0.6062472101619166,-0.9043402671813965,0.4207054376602173,-0.07194129377603531,-1.309965968132019,1.2670464515686035,0.37681037187576294
5.339677095413208,-0.09079551696777344,-0.2176823616027832,0.07823146134614944,-0.4423565661811594,-1.479394963179652,-0.6340396202775459,-0.8999729752540588,0.42807039618492126,-0.08248858898878098,-1.1782772541046143,1.177141785621643,0.2426845133304596
5.35968017578125,-0.02513408660888672,-0.20629477500915527,0.10368619859218597,-0.44554513403955054,-1.466186074127647,-0.6588813020810231,-0.8974430561065674,0.430949866771698,-0.09422570466995239,-1.1776072978973389,1.248284101486206,-0.10264433920383453
5.380120038986206,0.009201765060424805,-0.16394954919815063,0.12127476930618286,-0.4438017875641859,-1.4537156977677823,-0.6845655028432779,-0.8969429731369019,0.4293760657310486,-0.10549713671207428,-1.078667402267456,1.098961591720581,-0.31955429911613464
5.399679183959961,0.08072769641876221,-0.17429113388061523,0.08817221224308014,-0.4390382628712535,-1.4428281812165702,-0.7087534994189765,-0.8977595567703247,0.425069123506546,-0.11551587283611298,-1.089095115661621,1.06138014793396,-0.39600589871406555
5.419710159301758,0.13372331857681274,-0.21647080779075623,0.1089525818824768,-0.43345375952425264,-1.4335135006829895,-0.7369297978129281,-0.8989822268486023,0.4200076460838318,-0.12419602274894714,-1.4332741498947144,1.029977560043335,-0.45253264904022217
5.439713954925537,0.16075295209884644,-0.23660433292388916,0.11905217170715332,-0.4295979686244013,-1.4286588900405135,-0.7731289593803868,-0.8999651074409485,0.4165053367614746,-0.12878720462322235,-1.7344733476638794,0.9722433686256409,-0.41425538063049316
5.459843158721924,0.1301175355911255,-0.15902099013328552,0.05318666994571686,-0.4252132465754612,-1.425196523245555,-0.8100184656465659,-0.901311993598938,0.4125150442123413,-0.13216611742973328,-1.499198317527771,0.9262846112251282,-0.5077164769172668
5.479894161224365,0.06211709976196289,0.011355489492416382,0.003329142928123474,-0.4184599596274213,-1.4178124981401365,-0.8417561862698533,-0.9030444622039795,0.40635377168655396,-0.1392391473054886,-1.3702409267425537,1.1494414806365967,-0.5570317506790161
5.5009660720825195,0.11731100082397461,-0.050796329975128174,0.03653848171234131,-0.4133252791967933,-1.407120256883121,-0.8742160182152676,-0.9035507440567017,0.4016568064689636,-0.14922459423542023,-1.5333869457244873,1.2164300680160522,-0.3699296712875366
5.519798994064331,0.21946847438812256,-0.07041937112808228,0.04080630838871002,-0.4123426611049833,-1.397921991522396,-0.9109246713159285,-0.9025281667709351,0.40075674653053284,-0.15759705007076263,-1.677208423614502,1.1655514240264893,-0.3176688253879547
5.539944171905518,0.2835511565208435,-0.04983922839164734,0.029026567935943604,-0.4104491736305967,-1.3890384360241559,-0.94597127330488,-0.9018374085426331,0.3990212380886078,-0.16574528813362122,-1.4460644721984863,1.1111699342727661,-0.4281984269618988
5.559766054153442,0.3258974552154541,-0.004379689693450928,0.03966832160949707,-0.40603959647637045,-1.3796631125932737,-0.9767553397953511,-0.9019625782966614,0.3949740529060364,-0.1745254546403885,-1.3072158098220825,1.0260725021362305,-0.5115693211555481
5.579938888549805,0.3650406002998352,-0.0486426055431366,0.06349633634090424,-0.39941883579572335,-1.3725849184807934,-1.0075158969309055,-0.9032487869262695,0.38888299465179443,-0.18141627311706543,-1.3947725296020508,0.8716303706169128,-0.5596744418144226
5.599689960479736,0.3679876923561096,-0.04290759563446045,0.06777520477771759,-0.3934000912560373,-1.3693244099768407,-1.0398716237171914,-0.9049292206764221,0.3833310008049011,-0.1848253607749939,-1.4335066080093384,0.6668992638587952,-0.6337189078330994
5.619699954986572,0.3210880756378174,0.03153872489929199,-0.004746139049530029,-0.38462836800318634,-1.370708483693879,-1.0726937830559231,-0.9084447026252747,0.37521469593048096,-0.18423393368721008,-1.3455744981765747,0.4480515420436859,-0.8508833050727844
5.639671087265015,0.2987591028213501,0.10221892595291138,-0.019960999488830566,-0.37267142776444057,-1.374012183137643,-1.1020730824802294,-0.9133832454681396,0.3641047775745392,-0.18209591507911682,-1.1033780574798584,0.331351637840271,-0.7953998446464539
5.659677028656006,0.2516655921936035,0.15805771946907043,-0.02261531352996826,-0.3609926971284256,-1.3763171410644435,-1.1261263119419207,-0.9179101586341858,0.3532031178474426,-0.18079960346221924,-0.8959969878196716,0.3020850121974945,-0.8168402910232544
5.679678916931152,0.1458849310874939,0.19586756825447083,-0.06720811128616333,-0.34736105951227747,-1.3776287617912848,-1.1451651261347393,-0.9227862358093262,0.34041765332221985,-0.18050305545330048,-0.5851544141769409,0.19682995975017548,-0.8572353720664978
5.699705123901367,0.1460113525390625,0.1995851695537567,-0.020042479038238525,-0.33307408567362007,-1.3792890479074704,-1.158288317882338,-0.9277650117874146,0.32694971561431885,-0.17987816035747528,-0.3650720715522766,0.0711255669593811,-0.7872991561889648
5.719677925109863,0.1392342448234558,0.16244292259216309,-0.001978561282157898,-0.3190307648105376,-1.381535503101314,-1.1673638815784688,-0.9325844049453735,0.3136463761329651,-0.1786397397518158,-0.2438724935054779,0.050831567496061325,-0.7407873272895813
5.739677906036377,0.10435932874679565,0.14989334344863892,0.030307933688163757,-0.3047691477453596,-1.3808356963496613,-1.1739984689277059,-0.93675696849823,0.30007296800613403,-0.18011870980262756,-0.09899552166461945,0.17608961462974548,-0.790323793888092
5.759704113006592,0.12343502044677734,0.11742326617240906,0.02545340359210968,-0.290037797671835,-1.378265939998015,-1.1786697127731671,-0.9405279159545898,0.285988450050354,-0.1833513081073761,-0.036370545625686646,0.16956451535224915,-0.7284906506538391
5.7796790599823,0.1996890902519226,0.12118545174598694,0.08771395683288574,-0.2766315097336675,-1.3777114217417474,-1.181943199131016,-0.9441044330596924,0.2731167674064636,-0.18459200859069824,-0.012254196219146252,0.030920887365937233,-0.6646690368652344
5.7997589111328125,0.16376423835754395,0.1701047420501709,0.1323782205581665,-0.26293758845939674,-1.3772086517761193,-1.182943633532474,-0.9475930333137512,0.25991830229759216,-0.18576878309249878,0.12263550609350204,0.04260506480932236,-0.6870582103729248
5.819675922393799,0.18695008754730225,0.18743033707141876,0.13686661422252655,-0.24960145839897654,-1.3771359901302735,-1.1831802702537877,-0.9508967995643616,0.2470177859067917,-0.18648821115493774,0.12304440140724182,-0.024756310507655144,-0.6098204255104065
5.839756011962891,0.2843501567840576,0.175430566072464,0.18272288143634796,-0.23820786767975485,-1.377975434214386,-1.1816028102771792,-0.9537532329559326,0.23596148192882538,-0.18621712923049927,0.28062766790390015,-0.09267953038215637,-0.4840202331542969
5.859678030014038,0.2928915023803711,0.20296822488307953,0.1653052568435669,-0.22712569645017422,-1.3783356310566295,-1.1752474476250425,-0.9563284516334534,0.22517797350883484,-0.1863623708486557,0.56682950258255,-0.09380843490362167,-0.5051353573799133
5.879678010940552,0.29642683267593384,0.22641773521900177,0.17558357119560242,-0.21410269527801998,-1.377064674117629,-1.1615081742353577,-0.9588873386383057,0.21247069537639618,-0.1881263256072998,0.9436838626861572,-0.09253083169460297,-0.5330866575241089
5.899725914001465,0.3149399161338806,0.228183776140213,0.16719645261764526,-0.19836152491139525,-1.3753725338914315,-1.1418032411289745,-0.9617294669151306,0.19706325232982635,-0.19037450850009918,1.2323888540267944,-0.14776256680488586,-0.6251766681671143
5.919677019119263,0.32740646600723267,0.22126580774784088,0.14923883974552155,-0.18029827026618844,-1.3750899566512276,-1.1207620317092564,-0.9650102257728577,0.1793230175971985,-0.19130733609199524,1.1365793943405151,-0.2300722748041153,-0.744900643825531
5.939678192138672,0.3410646915435791,0.18863829970359802,0.16280749440193176,-0.16232367323155142,-1.377419458656318,-1.1043305988939771,-0.9684602618217468,0.16161176562309265,-0.18964765965938568,0.8129746913909912,-0.28557291626930237,-0.7307092547416687
5.959677219390869,0.30714768171310425,0.20427167415618896,0.14483685791492462,-0.14392657206219991,-1.3826024885664256,-1.0926754565769947,-0.9721867442131042,0.1434301882982254,-0.18515054881572723,0.722628116607666,-0.38241004943847656,-0.8486936688423157
5.979677200317383,0.21010810136795044,0.2705049216747284,0.11209391057491302,-0.1224090427811967,-1.3888255225996191,-1.0800964726190863,-0.976129949092865,0.12210357934236526,-0.1796140968799591,0.888826310634613,-0.40808701515197754,-1.0520679950714111
5.999678134918213,0.10389441251754761,0.3185930848121643,0.10174454748630524,-0.09605938500675563,-1.395295344614564,-1.0671629019812547,-0.9800997972488403,0.09591172635555267,-0.17379650473594666,0.8368043303489685,-0.43073123693466187,-1.2797746658325195
6.019676208496094,0.0386500358581543,0.28044232726097107,0.10040313005447388,-0.06939040986239788,-1.4037261703545214,-1.0577648604357597,-0.9837031960487366,0.0693347379565239,-0.1658938229084015,0.5370880961418152,-0.4753217101097107,-1.2019153833389282
6.039768218994141,-0.06070423126220703,0.26706385612487793,0.09256227314472198,-0.04493229591775054,-1.4135092055318152,-1.0543544283026338,-0.986659049987793,0.04491717740893364,-0.1564812958240509,0.23301683366298676,-0.49951934814453125,-1.1487940549850464
6.059708118438721,-0.2231782078742981,0.3056546747684479,0.05457371473312378,-0.022487322336225808,-1.4216230229275828,-1.0551165451751492,-0.9886443614959717,0.02248542755842209,-0.14858311414718628,0.10337486863136292,-0.3073897063732147,-1.046481966972351
6.079678058624268,-0.30469024181365967,0.31371256709098816,0.062416136264801025,-0.004661929102750965,-1.4233108130263366,-1.0578119781368005,-0.9891330599784851,0.004661912098526955,-0.14694982767105103,-0.07911866158246994,0.1234014630317688,-0.7977593541145325
6.099678993225098,-0.18942630290985107,0.2679968476295471,0.10480093955993652,0.007911031190383219,-1.41883671270845,-1.0624064879237598,-0.9884454607963562,-0.007910948246717453,-0.15137071907520294,-0.14783351123332977,0.29271218180656433,-0.5046256184577942
6.119687080383301,0.001615762710571289,0.209236741065979,0.08816535770893097,0.015191461652168007,-1.4153064458964906,-1.066362146050298,-0.9878217577934265,-0.01519087702035904,-0.1548462063074112,-0.14376337826251984,0.04408631473779678,-0.29521578550338745
6.139703035354614,0.06697958707809448,0.21710346639156342,0.12867069244384766,0.019763000445378518,-1.4156869155223446,-1.0678407230050972,-0.987801730632782,-0.019761713221669197,-0.15445803105831146,0.09158840775489807,-0.07329241931438446,-0.20195496082305908
6.159677028656006,0.01663339138031006,0.22201186418533325,0.14902634918689728,0.023985784134102527,-1.417324841289053,-1.0640694945668017,-0.9879620671272278,-0.023983484134078026,-0.1528257578611374,0.37025171518325806,-0.035245880484580994,-0.1539725810289383
6.179677963256836,0.0013259053230285645,0.1911783516407013,0.17954087257385254,0.02890532165880188,-1.4182500012115817,-1.0558279005332696,-0.9879744648933411,-0.028901297599077225,-0.15189190208911896,0.5258546471595764,-0.05627082660794258,-0.20129643380641937
6.199806213378906,0.04793226718902588,0.10762777179479599,0.18841086328029633,0.03372076000958787,-1.4213107812765537,-1.0457316031308799,-0.9882858395576477,-0.03371436893939972,-0.14884479343891144,0.5851789116859436,-0.3015667796134949,-0.15496328473091125
6.219676971435547,0.07394176721572876,0.08106519281864166,0.09463949501514435,0.03932742566936082,-1.431809961802012,-1.0313138063576501,-0.9895911812782288,-0.039317287504673004,-0.13843220472335815,0.9580292701721191,-0.6635392308235168,-0.18078681826591492
6.239665985107422,0.011744976043701172,0.14261408150196075,0.03894209861755371,0.046424291812494634,-1.446177697175671,-1.0114531961346906,-0.9911761283874512,-0.04640761762857437,-0.12416242063045502,1.0415602922439575,-0.6297237873077393,-0.29987359046936035
6.259705066680908,-0.04569965600967407,0.07651282101869583,0.08467978984117508,0.05669168953541307,-1.458832596290489,-0.9940988432095184,-0.9921421408653259,-0.05666132643818855,-0.11155045032501221,0.7841078639030457,-0.539632260799408,-0.5113474726676941
6.2796790599823,-0.04154783487319946,0.013588570058345795,0.13976991176605225,0.07024133325450656,-1.4684222632684187,-0.9810974717638694,-0.992311418056488,-0.07018359005451202,-0.10194333642721176,0.6970701217651367,-0.4040868580341339,-0.6917692422866821
6.29969596862793,-0.04762768745422363,-0.022449277341365814,0.06036298722028732,0.08528977029631347,-1.4783038251665406,-0.9691101360503517,-0.9921063184738159,-0.08518640697002411,-0.09202496707439423,0.6160438656806946,-0.4306156635284424,-0.6799707412719727
6.3196868896484375,-0.03898954391479492,0.015892036259174347,0.09643185883760452,0.10024270227956729,-1.4869224480148544,-0.9607109377130285,-0.991482138633728,-0.100074902176857,-0.08335500955581665,0.3640613257884979,-0.38911083340644836,-0.7345580458641052
6.339755058288574,-0.060978710651397705,0.04147183150053024,0.07195574045181274,0.11361568710479424,-1.4970937599816003,-0.9555163094449488,-0.9908553957939148,-0.11337140947580338,-0.07316110283136368,0.3090602159500122,-0.5884315967559814,-0.5485159158706665
6.359744071960449,-0.09495532512664795,0.12078111618757248,0.1034509465098381,0.12306002286660093,-1.508444547713193,-0.9494789571039252,-0.9905092716217041,-0.12274965643882751,-0.061840176582336426,0.36119744181632996,-0.5002090334892273,-0.3680236339569092
6.379679203033447,-0.21266376972198486,0.07921434938907623,0.03886568546295166,0.12971836984611346,-1.5210092442838832,-0.9415350687526512,-0.9903697371482849,-0.12935487926006317,-0.04934839904308319,0.4481775760650635,-0.5903030633926392,-0.24367259442806244
6.399720191955566,-0.24908578395843506,0.07765606045722961,0.09680438041687012,0.13336431846101757,-1.5326960616991674,-0.934413255288007,-0.990401029586792,-0.13296933472156525,-0.03775281086564064,0.24377484619617462,-0.4092906713485718,-0.043035440146923065
6.419679164886475,-0.287834107875824,-0.02211850881576538,0.19629240036010742,0.13199694562133726,-1.5368609866359275,-0.9335604251823777,-0.9907304644584656,-0.13161398470401764,-0.03363368660211563,-0.09420007467269897,-0.05131308734416962,0.11421383172273636
6.439678192138672,-0.3149825930595398,-0.05480419099330902,0.2085912823677063,0.12813296939106153,-1.535954229898893,-0.934501686804326,-0.9912003874778748,-0.1277826428413391,-0.03454948216676712,0.009606986306607723,0.09454069286584854,0.28768447041511536
6.4596781730651855,-0.31334996223449707,-0.02226845920085907,0.1712970733642578,0.12147809723966844,-1.5349698822704272,-0.9317364994391711,-0.9919935464859009,-0.12117954343557358,-0.03555481508374214,0.19337716698646545,0.004363579209893942,0.40979766845703125
6.4797139167785645,-0.35681962966918945,-0.03322058171033859,0.1687120795249939,0.11111203956595314,-1.535572638084459,-0.9285377262413109,-0.993216872215271,-0.11088354885578156,-0.03499923646450043,0.08979885280132294,0.07302501797676086,0.6576873064041138
6.4996771812438965,-0.411795437335968,-0.12216607481241226,0.2760094404220581,0.09379184064639527,-1.5314968205421,-0.9296893808104391,-0.9948362112045288,-0.09365438669919968,-0.03911671042442322,-0.22061537206172943,0.35081782937049866,1.0015754699707031
6.519678115844727,-0.43776798248291016,-0.19463486969470978,0.29999178647994995,0.07149371621818718,-1.5225241446792976,-0.9348818683273421,-0.9962835311889648,-0.07143282890319824,-0.04813016951084137,-0.33548781275749207,0.47628042101860046,1.161715030670166
6.539723873138428,-0.4333037734031677,-0.17037567496299744,0.19144093990325928,0.047201857837531,-1.5141498153260626,-0.9396431164015834,-0.9972841143608093,-0.047184333205223083,-0.05655316635966301,-0.23366396129131317,0.3021528422832489,1.2461864948272705
6.559731960296631,-0.44508957862854004,-0.1596985161304474,0.05846304073929787,0.019578387785128982,-1.5093073740010268,-0.9399476448599687,-0.9979187846183777,-0.019577136263251305,-0.0614384301006794,0.028337184339761734,0.25771230459213257,1.5266008377075195
6.579648017883301,-0.4817742109298706,-0.09140096604824066,0.05904156714677811,-0.014649612878008918,-1.5025545196043772,-0.93883108520945,-0.9975653290748596,0.014649088494479656,-0.06818153709173203,-0.17589546740055084,0.47893187403678894,1.8368897438049316
6.599308967590332,-0.5514779090881348,-0.12560029327869415,0.09564275294542313,-0.05551449983703157,-1.4924547950397091,-0.9429178077064304,-0.9953970313072205,0.05548598989844322,-0.07814085483551025,-0.48758429288864136,0.5245991945266724,2.1531193256378174
6.61963415145874,-0.5735936164855957,-0.113941989839077,0.08733069896697998,-0.10083748841928741,-1.4833531744630466,-0.9502673865494333,-0.9911190271377563,0.10066668689250946,-0.0868881419301033,-0.5683079957962036,0.44630059599876404,2.290161371231079
6.639625072479248,-0.5541307330131531,-0.09732957184314728,0.07850629836320877,-0.1476701865097465,-1.4759655090027635,-0.9558934392541016,-0.9846723675727844,0.14713408052921295,-0.0936582088470459,-0.4351026117801666,0.36283937096595764,2.3184709548950195
6.659615993499756,-0.5186517238616943,-0.09614436328411102,0.09669477492570877,-0.19282641795112335,-1.4678183418616497,-0.9571006630907986,-0.9762671589851379,0.1916336864233017,-0.10089090466499329,-0.18209026753902435,0.4078604578971863,2.1964266300201416
6.679708003997803,-0.5071313381195068,-0.11239664256572723,0.06704175472259521,-0.23403389822662518,-1.459591441424411,-0.9546277845534548,-0.9667304158210754,0.2319033294916153,-0.10795050114393234,-0.043423354625701904,0.31014204025268555,1.99221932888031
6.699702024459839,-0.4355083703994751,-0.14509934186935425,0.03440307080745697,-0.2727354679772402,-1.4542561309967794,-0.9516257128729465,-0.9565053582191467,0.2693668007850647,-0.11197873204946518,-0.22593523561954498,0.1310100257396698,1.858364462852478
6.719628095626831,-0.37488025426864624,-0.19267365336418152,0.0910385251045227,-0.30948297183838785,-1.4520457211204487,-0.9540560799841543,-0.9457833170890808,0.3045662045478821,-0.11284326761960983,-0.44332462549209595,0.15196333825588226,1.7874356508255005
6.739624977111816,-0.33501768112182617,-0.18326634168624878,0.06775534898042679,-0.34476450715771106,-1.452337456809261,-0.960506915617251,-0.9345594048500061,0.33797505497932434,-0.1112276017665863,-0.5599273443222046,0.032701391726732254,1.6401253938674927
6.75968599319458,-0.32050639390945435,-0.11860781908035278,-0.0015285015106201172,-0.37672298184402886,-1.4557281313688815,-0.9685747393342251,-0.9237259030342102,0.36787521839141846,-0.10676309466362,-0.5680851340293884,-0.06858137995004654,1.4623702764511108
6.77969217300415,-0.29846835136413574,-0.09263330698013306,-0.010867893695831299,-0.40555443661912055,-1.45982874391706,-0.9764959760206364,-0.9132322072982788,0.39452826976776123,-0.10175718367099762,-0.46650823950767517,-0.0018565882928669453,1.363588571548462
6.799647092819214,-0.24644505977630615,-0.045490652322769165,-0.023886919021606445,-0.43201905889191033,-1.4621803485436589,-0.9829203303481363,-0.9027706980705261,0.41870519518852234,-0.09844275563955307,-0.4161510169506073,0.005433815065771341,1.2203314304351807
6.819643974304199,-0.18402749300003052,-0.02198854088783264,-0.0424727201461792,-0.45682572970046004,-1.4651091530017604,-0.9895912887942176,-0.892449676990509,0.4411015510559082,-0.09467323869466782,-0.47352534532546997,-0.03055490180850029,1.1590684652328491
6.839679002761841,-0.14095032215118408,-0.02261379361152649,-0.032568804919719696,-0.4805134949600787,-1.469675773368951,-0.997181225515498,-0.8822278380393982,0.46223458647727966,-0.08951669186353683,-0.43595796823501587,-0.07485303282737732,1.1324362754821777
6.8596789836883545,-0.11782997846603394,0.018166303634643555,-0.043182842433452606,-0.5031639206978114,-1.4738386528064022,-1.0031435887622702,-0.8719466328620911,0.4821997284889221,-0.08480783551931381,-0.22741398215293884,-0.02811136282980442,1.091796875
6.879724025726318,-0.03624933958053589,0.06319957971572876,-0.08726947754621506,-0.5247644814483191,-1.4755193866475904,-1.0038941922314724,-0.8615168333053589,0.5010091662406921,-0.08233197033405304,-0.06745312362909317,-0.08365868777036667,1.0121259689331055
6.899681091308594,0.020249247550964355,0.03390735387802124,-0.05847883224487305,-0.5453710608720628,-1.475549301034741,-1.0025281253652625,-0.8510598540306091,0.5187353491783142,-0.08130694180727005,-0.06166832521557808,-0.040532875806093216,1.0597816705703735
6.919679164886475,0.07951104640960693,-0.00511246919631958,-0.0622364804148674,-0.5664645836178036,-1.4772728018747272,-1.003319496058118,-0.8401159048080444,0.5366522073745728,-0.07880048453807831,-0.22117920219898224,-0.05258030816912651,1.0260456800460815
6.939745903015137,0.08403021097183228,-0.02241283655166626,-0.06316923350095749,-0.5862065256628846,-1.4809017130307642,-1.0083742056080645,-0.8296815156936646,0.5532048940658569,-0.07478545606136322,-0.3075224757194519,-0.0477985143661499,0.9327832460403442
6.959689140319824,0.2130388617515564,-0.04506427049636841,-0.08090125769376755,-0.6056110178478447,-1.484609613094102,-1.0120650238854714,-0.8191027641296387,0.5692645311355591,-0.07077109813690186,-0.13172534108161926,-0.14304380118846893,0.9277325868606567
6.979677200317383,0.2416260838508606,0.011958658695220947,-0.11021708697080612,-0.6238025177710518,-1.4858183154695435,-1.0100581547579142,-0.8087342977523804,0.5841257572174072,-0.0688905343413353,0.10528641939163208,-0.09096196293830872,0.8867436051368713
6.999722003936768,0.2982480525970459,-0.050763845443725586,-0.07720989733934402,-0.6409715897579835,-1.4850233117594172,-1.0050794554550442,-0.7985687255859375,0.5979744791984558,-0.06866411864757538,0.10868487507104874,-0.1536189466714859,0.8675355315208435
7.019688129425049,0.373310923576355,-0.12622439861297607,-0.06598276644945145,-0.6580508833787417,-1.4872535589973674,-1.002514151387713,-0.7884265780448914,0.6115759015083313,-0.06602100282907486,-0.05731075257062912,-0.22022567689418793,0.8366023898124695
7.039709091186523,0.4339912533760071,-0.15424424409866333,-0.057884931564331055,-0.6745168379401539,-1.4934208687602593,-1.0032070883111677,-0.7786721587181091,0.6245200634002686,-0.06037064269185066,-0.07083650678396225,-0.3401362895965576,0.8086450099945068
7.059643983840942,0.48997312784194946,-0.14708393812179565,-0.0673719048500061,-0.6898256294529639,-1.4988531208455813,-0.9996839760666621,-0.7693617343902588,0.6364026665687561,-0.055446043610572815,0.29542088508605957,-0.44671157002449036,0.7250851988792419
7.079646110534668,0.5077911615371704,-0.11740976572036743,-0.10387944430112839,-0.7026584757550932,-1.4987686339743975,-0.9845180254363007,-0.7611480951309204,0.6462486982345581,-0.05491874739527702,0.7242736220359802,-0.5013362765312195,0.6486395001411438
7.099142074584961,0.5045239925384521,-0.17389768362045288,-0.0674135684967041,-0.7134856194187005,-1.4944574027935742,-0.9629946695802803,-0.7538833022117615,0.6544731855392456,-0.05766269564628601,0.8229088187217712,-0.4709669053554535,0.5703569054603577
7.119676113128662,0.5175583958625793,-0.22512179613113403,-0.0722619891166687,-0.72286817357954,-1.489209476535934,-0.9408346788111633,-0.7474168539047241,0.6615382432937622,-0.06111505255103111,0.7471290230751038,-0.44217148423194885,0.4775865972042084
7.139676094055176,0.5917764902114868,-0.2923182249069214,-0.04987144097685814,-0.7301513260849196,-1.4872115560253267,-0.9212828913287038,-0.7424723505973816,0.6669824123382568,-0.06220431253314018,0.6914021968841553,-0.6284174919128418,0.33783408999443054
7.159678936004639,0.6156127452850342,-0.2866889238357544,-0.03949170559644699,-0.7338863995422795,-1.485790609876187,-0.8984834584037321,-0.7398957014083862,0.6697606444358826,-0.06304729729890823,1.0344358682632446,-0.7344987392425537,0.15139451622962952
7.179681062698364,0.5776008367538452,-0.21169131994247437,-0.04215049743652344,-0.7330845315042814,-1.4781059772175353,-0.8643266495758916,-0.7399239540100098,0.6691649556159973,-0.06878089904785156,1.4547258615493774,-0.7251778841018677,-0.0275589507073164
7.1996941566467285,0.5461348295211792,-0.28553611040115356,0.04563678056001663,-0.7285658075714485,-1.4658796812124886,-0.8265187196584818,-0.7420272827148438,0.6658002138137817,-0.07813791930675507,1.3416422605514526,-0.6320593357086182,-0.17104549705982208
7.21967887878418,0.576109766960144,-0.3716016411781311,0.07235658168792725,-0.7204637531039942,-1.459563636218437,-0.7953381389379428,-0.7468557357788086,0.659733235836029,-0.08341909945011139,1.0996595621109009,-0.8046373128890991,-0.37065282464027405
7.2396790981292725,0.5869390964508057,-0.3937962055206299,0.09582120925188065,-0.7080748542236168,-1.4604985376599522,-0.7688969356122156,-0.7549995183944702,0.6503726243972778,-0.08361411839723587,1.0947694778442383,-1.089367389678955,-0.6701349020004272
7.259684085845947,0.49834150075912476,-0.27495914697647095,0.0698586031794548,-0.6906851253876439,-1.4666953578608415,-0.7411351659623708,-0.7666370272636414,0.6370654106140137,-0.08009720593690872,1.170356035232544,-1.2177436351776123,-0.8079659938812256
7.279676914215088,0.3251935839653015,-0.22678345441818237,0.12831705808639526,-0.6706919682391519,-1.470994082744041,-0.7135183679164672,-0.7794936299324036,0.6215282082557678,-0.07805453985929489,1.2001912593841553,-0.982262134552002,-0.9871274828910828
7.299682140350342,0.28379058837890625,-0.14147818088531494,0.09740311652421951,-0.6472888252915513,-1.4729652302758078,-0.6848035158638047,-0.7939072847366333,0.6030258536338806,-0.07791756093502045,1.3000693321228027,-1.0477370023727417,-1.125815987586975
7.319678068161011,0.3594263792037964,-0.1755402684211731,0.04516631364822388,-0.6208341566720473,-1.4807040979143002,-0.6555644241941431,-0.8100948333740234,0.581713855266571,-0.07318135350942612,1.262624740600586,-1.5023492574691772,-1.3548442125320435
7.339678049087524,0.2633019685745239,-0.18217945098876953,0.06952100247144699,-0.5898647306276593,-1.498643872705747,-0.629542868985546,-0.828853964805603,0.5562486052513123,-0.05990784242749214,1.1183048486709595,-1.7432571649551392,-1.5466728210449219
7.3596789836883545,0.05618351697921753,-0.16377472877502441,0.09403592348098755,-0.5553658022087166,-1.5215951365889389,-0.6071230844056035,-0.84867924451828,0.5272541642189026,-0.04178975522518158,0.9568275809288025,-1.7502321004867554,-1.7767525911331177
7.379677057266235,-0.09001237154006958,-0.1249413788318634,0.05731886625289917,-0.5174982933527967,-1.5465564027321574,-0.5871435133543149,-0.868804395198822,0.49470755457878113,-0.021063877269625664,1.0062613487243652,-1.8047772645950317,-1.9437870979309082
7.399703025817871,-0.06366032361984253,-0.08874696493148804,-0.0188218355178833,-0.47700829742804457,-1.5745666959622662,-0.562834772317361,-0.8883662223815918,0.45912349224090576,0.0033494846429675817,1.2294683456420898,-2.0886266231536865,-2.1327857971191406
7.419678211212158,-0.17662125825881958,-0.06418794393539429,-0.013607144355773926,-0.432209761516992,-1.603851990882145,-0.5319438275280873,-0.90754634141922,0.41887837648391724,0.03001047670841217,1.4485924243927002,-2.253784418106079,-2.4305949211120605
7.439686059951782,-0.34188979864120483,-0.0810483992099762,-0.08348680287599564,-0.38366569132204875,-1.6378418034071291,-0.4976005776109829,-0.9252153038978577,0.37432217597961426,0.06212461367249489,1.434630274772644,-2.4553709030151367,-2.5661613941192627
7.459688186645508,-0.5151675939559937,-0.12267535924911499,-0.04964327812194824,-0.33447376921325195,-1.672555050792121,-0.4613609515907904,-0.9396970272064209,0.32827213406562805,0.0959537923336029,1.5715985298156738,-2.3375511169433594,-2.6230218410491943
7.479678153991699,-0.7786122560501099,-0.04441317915916443,-0.12551626563072205,-0.28523411592304665,-1.7023264231479134,-0.4180909572751943,-0.951307475566864,0.28138211369514465,0.12585215270519257,1.924293875694275,-1.9909653663635254,-2.751405954360962
7.499675989151001,-0.9245039820671082,0.04875117540359497,-0.16198956966400146,-0.23710985512386115,-1.7257928810088847,-0.3726823225037783,-0.9603685140609741,0.23489433526992798,0.15005739033222198,1.5589778423309326,-1.4708973169326782,-2.537712574005127
7.51967716217041,-0.9133199453353882,-0.1573241800069809,-0.14958713948726654,-0.1955243057372346,-1.7418866960542283,-0.34612400248962216,-0.9666240811347961,0.19428087770938873,0.16701285541057587,0.279131680727005,-0.7376421093940735,-2.0087945461273193
7.539689064025879,-0.8369487524032593,-0.12220479547977448,-0.11378931999206543,-0.16216002590266113,-1.748586394651892,-0.34463950522774794,-0.9713245630264282,0.16145026683807373,0.17453472316265106,-0.5742254853248596,0.02386004850268364,-1.2337344884872437
7.559678077697754,-0.5830973386764526,0.10162973403930664,-0.04123498499393463,-0.14481693936124662,-1.7452087347405365,-0.35355191368036043,-0.9745197296142578,0.14431129395961761,0.17171302437782288,-0.4545113444328308,0.34979838132858276,-0.37797924876213074
7.5796799659729,-0.42146873474121094,0.24374864995479584,-0.0500420480966568,-0.14256740416599056,-1.7369580845595074,-0.3567444315945828,-0.9762210845947266,0.14208494126796722,0.16372014582157135,0.09958123415708542,0.5412319302558899,0.1283167600631714
7.598968029022217,-0.43003183603286743,0.06805926561355591,-0.04495932161808014,-0.14793367679094283,-1.723041185763639,-0.3539367568781029,-0.9776372313499451,0.14739468693733215,0.15000097453594208,0.18460439145565033,0.7960410118103027,0.3365437984466553
7.619686126708984,-0.39262932538986206,-0.1427905261516571,0.03377056121826172,-0.15616548676239791,-1.7046217668927535,-0.3542715799171665,-0.9789985418319702,0.15553151071071625,0.13180267810821533,-0.05752691254019737,1.0170667171478271,0.4637829661369324
7.639725208282471,-0.3614773154258728,-0.2196277379989624,0.13106094300746918,-0.16648634143736277,-1.6835808479363157,-0.3570378266858422,-0.9799075126647949,0.16571830213069916,0.11098940670490265,-0.0900244265794754,1.1282368898391724,0.5844823122024536
7.659677028656006,-0.36909836530685425,-0.17640766501426697,0.16345131397247314,-0.17863785937378085,-1.6610222977034146,-0.3605133201816767,-0.9800837635993958,0.17768926918506622,0.08866975456476212,-0.13840918242931366,1.1985836029052734,0.6857202649116516
7.679764032363892,-0.35894542932510376,-0.16669709980487823,0.16775107383728027,-0.19352215243814655,-1.6364335667140602,-0.3663191589692837,-0.979219913482666,0.19231648743152618,0.06436575204133987,-0.3434397876262665,1.4104797840118408,0.8515517115592957
7.699695110321045,-0.348102331161499,-0.17024542391300201,0.22405457496643066,-0.2121467563790843,-1.6070066443343356,-0.3763897553283288,-0.976940393447876,0.21055901050567627,0.035390790551900864,-0.5375553369522095,1.7165833711624146,1.0644034147262573
7.71967887878418,-0.3305583596229553,-0.1548711210489273,0.2043553590774536,-0.23404340409301405,-1.575618000240833,-0.3883290751250506,-0.9727252125740051,0.23191258311271667,0.004690199624747038,-0.5626257061958313,1.6815568208694458,1.1559827327728271
7.739675998687744,-0.3082296848297119,-0.1400681436061859,0.21337562799453735,-0.2577817382326993,-1.5446333171815139,-0.39907936232620816,-0.9666270613670349,0.25493621826171875,-0.025295644998550415,-0.48936495184898376,1.725311040878296,1.1904107332229614
7.759676933288574,-0.34877514839172363,-0.1566711962223053,0.2763655185699463,-0.2814189471712182,-1.5105310792656832,-0.4066898173023153,-0.9589183926582336,0.27771905064582825,-0.05785951763391495,-0.35505250096321106,1.8887163400650024,1.1371474266052246
7.7796831130981445,-0.32449591159820557,-0.17316147685050964,0.31306207180023193,-0.3039489892017275,-1.4731096496756044,-0.4118243347561241,-0.9496130347251892,0.2992905080318451,-0.09306074678897858,-0.32451331615448,1.9965438842773438,1.0691245794296265
7.7997260093688965,-0.27921193838119507,-0.20586758852005005,0.2952885627746582,-0.3245895842731448,-1.4349497423159276,-0.41634150875352544,-0.9390498399734497,0.318919837474823,-0.12835727632045746,-0.36775171756744385,1.9551795721054077,0.9283685088157654
7.819679021835327,-0.2646329998970032,-0.15623196959495544,0.30889594554901123,-0.34253252252495814,-1.3964493326470153,-0.421450648141565,-0.9276278614997864,0.3358735740184784,-0.1633879840373993,-0.3478304445743561,2.063377857208252,0.7736875414848328
7.839679002761841,-0.24585366249084473,-0.12350732088088989,0.26495373249053955,-0.3581342371053846,-1.3561768487863999,-0.42471678634203913,-0.9150656461715698,0.35052746534347534,-0.1994628757238388,-0.28960588574409485,2.085084915161133,0.7284287810325623
7.859706878662109,-0.2003936767578125,-0.12917980551719666,0.2598095238208771,-0.3736865184996933,-1.3164303288675818,-0.4289993096213681,-0.901031494140625,0.3650500178337097,-0.23426620662212372,-0.4449404180049896,2.084944486618042,0.7024444937705994
7.879683017730713,-0.2152571678161621,-0.1264270544052124,0.26224350929260254,-0.39070103668851985,-1.2763772542554805,-0.43526129884346815,-0.8848558664321899,0.38083672523498535,-0.2683164179325104,-0.5976145267486572,2.18521785736084,0.7895953059196472
7.899679183959961,-0.2375655174255371,-0.10251545906066895,0.2574393153190613,-0.41131784252082376,-1.2350490895652837,-0.4435290687911492,-0.8654161691665649,0.3998176157474518,-0.30199486017227173,-0.7604959011077881,2.279712200164795,0.9231672286987305
7.919709205627441,-0.22974485158920288,0.0018648207187652588,0.2055056393146515,-0.4319268593667294,-1.1936559974464342,-0.45052067084900155,-0.8443366289138794,0.4186214804649353,-0.33444225788116455,-0.31309974193573,2.1629958152770996,0.7856116890907288
7.939672946929932,-0.23736178874969482,0.21450379490852356,0.12879350781440735,-0.44276602006645566,-1.1435436403539823,-0.43718911339153904,-0.8223459124565125,0.4284403920173645,-0.3744141161441803,1.001326322555542,2.278907060623169,0.6647810935974121
7.9596781730651855,-0.19743376970291138,0.3265645205974579,0.1922372579574585,-0.4424788075377876,-1.082137240376444,-0.40427487004006063,-0.7979276776313782,0.42818087339401245,-0.42423179745674133,1.4143577814102173,2.524488925933838,0.7177201509475708
7.979677200317383,-0.11160063743591309,0.020307064056396484,0.3233692944049835,-0.4462286820308944,-1.0167299677550092,-0.37472692156931303,-0.7671225666999817,0.4315665662288666,-0.47462955117225647,0.6836940050125122,2.697331190109253,0.895774245262146
7.9996771812438965,-0.07100790739059448,-0.10327830910682678,0.32237696647644043,-0.4570877204409135,-0.9543088689025314,-0.3560180444187499,-0.7321538925170898,0.44133666157722473,-0.5188184976577759,0.22740797698497772,2.6925623416900635,0.9275684952735901
8.019678115844727,-0.021210312843322754,-0.002025514841079712,0.2999827265739441,-0.46617655365496247,-0.8929623466012652,-0.33773618631134145,-0.6958155035972595,0.44947412610054016,-0.5601907968521118,0.6198562383651733,2.663172483444214,0.7768540382385254
8.039700984954834,0.02354985475540161,0.04448050260543823,0.3005056381225586,-0.464694129592226,-0.8292054197531078,-0.3129416198505457,-0.6592005491256714,0.4481493830680847,-0.6038349866867065,1.1065572500228882,2.5915069580078125,0.5229872465133667
8.05967092514038,0.06484359502792358,0.043467313051223755,0.3722257614135742,-0.45333117308370435,-0.7666671456406325,-0.2886219160024536,-0.6236663460731506,0.4379626512527466,-0.6474789977073669,1.1793999671936035,2.545011043548584,0.23506103456020355
8.079678058624268,0.09365719556808472,-0.055239737033843994,0.4009664058685303,-0.44200480848690166,-0.7093497172669415,-0.2703641154074716,-0.5887439846992493,0.42775246500968933,-0.685863196849823,0.708879828453064,2.4619219303131104,0.24198943376541138
8.098783016204834,0.11297833919525146,-0.1877303421497345,0.4521957039833069,-0.4376691344378727,-0.6566632715692091,-0.25971951873145077,-0.5529350638389587,0.42382946610450745,-0.7173781394958496,0.34344661235809326,2.3290064334869385,0.19620290398597717
8.119686126708984,0.08997982740402222,-0.051120638847351074,0.355693519115448,-0.43159851385230474,-0.6086741900621712,-0.2519855942894443,-0.5193470120429993,0.418323278427124,-0.7451740503311157,0.6578616499900818,2.1455976963043213,0.007867693901062012
8.139678001403809,0.0783790647983551,0.07432463765144348,0.2759314775466919,-0.416010677909428,-0.5644559138509587,-0.2434437796462991,-0.48932892084121704,0.40411460399627686,-0.7728186249732971,1.0014728307724,1.9894728660583496,-0.2199823409318924
8.15969705581665,0.09547200798988342,0.0020388662815093994,0.3357123136520386,-0.39565445482743544,-0.523529434814573,-0.2380797222717014,-0.461316853761673,0.38541215658187866,-0.7991521954536438,0.9606531858444214,1.9084360599517822,-0.4110804796218872
8.17967700958252,0.1465543806552887,-0.12074330449104309,0.3884890079498291,-0.37616438482171005,-0.48760629821884477,-0.2376625207633967,-0.43575435876846313,0.3673557639122009,-0.8216860294342041,0.8154978156089783,1.6750524044036865,-0.47704997658729553
8.19874095916748,0.1659274697303772,-0.12456724047660828,0.3623543381690979,-0.35695270717209354,-0.45701426012566376,-0.23831856023363227,-0.41345566511154175,0.3494206368923187,-0.8408089280128479,0.8596007227897644,1.398986577987671,-0.46491125226020813
8.21967887878418,0.0929056704044342,-0.011119663715362549,0.25863486528396606,-0.33641433805601273,-0.43162021041939597,-0.24052864456086265,-0.39489251375198364,0.3301045596599579,-0.8573744297027588,0.9224804043769836,1.283001184463501,-0.6250231862068176
8.23970890045166,0.013307690620422363,-0.004746288061141968,0.26837486028671265,-0.31485417912865116,-0.4069933626317142,-0.24625448894637192,-0.3763906955718994,0.3096778094768524,-0.8731722235679626,0.7802020907402039,1.3760855197906494,-0.713232159614563
8.259679079055786,0.05224311351776123,-0.10764402151107788,0.32695168256759644,-0.2985682456793729,-0.3832275049421487,-0.2541934302335179,-0.35737326741218567,0.2941521108150482,-0.8864304423332214,0.4171837568283081,1.2431626319885254,-0.6037906408309937
8.279675960540771,0.06513851881027222,-0.0828404426574707,0.340376615524292,-0.29096923840982886,-0.36278753508733097,-0.26559711317996076,-0.33996471762657166,0.28688085079193115,-0.895613431930542,-0.03252137452363968,1.182115077972412,-0.7713302969932556
8.299690008163452,0.001618802547454834,0.008599251508712769,0.2967047095298767,-0.2848488980016791,-0.3449182399369261,-0.28308377843878946,-0.3244948983192444,0.2810124456882477,-0.9031805396080017,0.11905794590711594,1.1974104642868042,-0.927750289440155
