timestamp,acceleration_x,acceleration_y,acceleration_z,attitude_pitch,attitude_roll,attitude_yaw,gravity_x,gravity_y,gravity_z,rotation_x,rotation_y,rotation_z
0.0,0.19017139077186584,0.14690974354743958,-0.07411760091781616,-0.3922462591976297,-0.3001857043552939,-1.053873135081268,-0.27324017882347107,0.38226503133773804,-0.8827305436134338,-1.522992730140686,-0.9681133031845093,-0.5182961821556091
0.0200040340423584,0.22770202159881592,0.17291271686553955,-0.10377085208892822,-0.41430870544726883,-0.3279904251431094,-1.0714549146195547,-0.29488641023635864,0.40255722403526306,-0.8665966391563416,-1.091809868812561,-1.1433757543563843,-0.323113352060318
0.040049076080322266,0.259360134601593,0.20033138990402222,-0.1705704927444458,-0.43021883625038365,-0.35699807827662183,-1.0829733095757348,-0.31761816143989563,0.4170697033405304,-0.8515700697898865,-0.7566345930099487,-1.2671834230422974,-0.15692515671253204
0.060089111328125,0.22529664635658264,0.15456905961036682,-0.16768616437911987,-0.4413967492090057,-0.38480649319776455,-1.0894247344758694,-0.33940184116363525,0.4272027611732483,-0.8380358815193176,-0.5691900253295898,-1.2404416799545288,0.05754927173256874
0.08036112785339355,0.21837162971496582,0.1266481578350067,-0.15847909450531006,-0.45386867623672533,-0.40984671939267503,-1.0897821223990063,-0.35812681913375854,0.4384458065032959,-0.8243242502212524,-0.5971873998641968,-1.2626484632492065,0.3890358507633209
0.09997010231018066,0.20493844151496887,0.1310468316078186,-0.20706546306610107,-0.4689795000948201,-0.43275950189805495,-1.0849546428731793,-0.3740973174571991,0.4519762098789215,-0.8097954392433167,-0.604465126991272,-1.1973369121551514,0.5925812721252441
0.11999797821044922,0.12456473708152771,0.14492622017860413,-0.18903541564941406,-0.4849255122001782,-0.4501920284859158,-1.0783562897071632,-0.38497117161750793,0.4661424458026886,-0.7965603470802307,-0.595874547958374,-0.8227216601371765,0.6214028000831604
0.14002323150634766,0.09254631400108337,0.07910868525505066,-0.14471232891082764,-0.5008852154325966,-0.4598751713307091,-1.0711409700654804,-0.3893144428730011,0.48020219802856445,-0.7860280871391296,-0.5387282967567444,-0.5360481142997742,0.6697458028793335
0.1600041389465332,0.15945649147033691,0.040328383445739746,-0.12680768966674805,-0.516162355731879,-0.4647440520826625,-1.0613928078983756,-0.3898031413555145,0.49354609847068787,-0.7774739861488342,-0.45864740014076233,-0.4341541528701782,0.7770289778709412
0.18011999130249023,0.19329029321670532,0.0057749152183532715,-0.054393768310546875,-0.5307942595518762,-0.46627215105793784,-1.0492004508665498,-0.38770249485969543,0.5062184929847717,-0.7703437805175781,-0.39655664563179016,-0.3273112177848816,0.821157693862915
0.20001220703125,0.20384326577186584,-0.044273436069488525,0.005660951137542725,-0.5459004785194372,-0.46602806604541686,-1.0372207085504774,-0.38403424620628357,0.5191879272460938,-0.7635192275047302,-0.4980504810810089,-0.2916884422302246,0.7572287321090698
0.21977710723876953,0.22183433175086975,-0.06632447242736816,0.013338744640350342,-0.5604830858997717,-0.467998956003383,-1.0272662114146953,-0.3820820748806,0.5315954089164734,-0.7559229731559753,-0.39762893319129944,-0.431232750415802,0.6859927177429199
0.24003005027770996,0.21722307801246643,-0.019206881523132324,-0.0013396739959716797,-0.57194802808366,-0.47173604759005877,-1.016515885584105,-0.38210949301719666,0.5412710905075073,-0.7490113377571106,-0.1751614212989807,-0.5056555271148682,0.6317241787910461
0.26009321212768555,0.1735486388206482,0.024749159812927246,-0.002242743968963623,-0.5780082031222876,-0.47484524751863755,-1.0042998453353738,-0.3829297125339508,0.5463567972183228,-0.7448886036872864,0.06733252853155136,-0.44530001282691956,0.5552381873130798
0.28008008003234863,0.12237218022346497,0.053655147552490234,0.03309619426727295,-0.5803895562832126,-0.47552555585474043,-0.9925267713486343,-0.3828396499156952,0.5483497381210327,-0.7434691190719604,0.1629985123872757,-0.27505096793174744,0.43010079860687256
0.2992582321166992,0.10717341303825378,0.04789149761199951,0.01924806833267212,-0.5810599722615036,-0.4750116770922545,-0.9826627476692446,-0.382289320230484,0.5489102602005005,-0.7433387041091919,0.1396723985671997,-0.24195469915866852,0.35126006603240967
0.32000303268432617,0.10518670082092285,0.05863308906555176,0.004559874534606934,-0.5823024785252863,-0.4759622948267496,-0.9747048553754913,-0.38268300890922546,0.5499483942985535,-0.7423681616783142,0.05399974808096886,-0.3015275001525879,0.2789824306964874
0.3434882164001465,0.07626214623451233,0.09718507528305054,-0.0031734704971313477,-0.5836634177436474,-0.480182206913414,-0.9701654743474909,-0.38546621799468994,0.551084578037262,-0.7400821447372437,-0.006068914197385311,-0.36160528659820557,0.11535351723432541
0.3600430488586426,0.022096455097198486,0.13165134191513062,-0.01790529489517212,-0.5842342570269825,-0.4873469900640644,-0.9700623988979292,-0.3906114101409912,0.5515608191490173,-0.7370232939720154,-0.02291756309568882,-0.34919631481170654,-0.06783869117498398
0.3800039291381836,-0.031327515840530396,0.1389651894569397,-0.006904542446136475,-0.5839541576399065,-0.4955633326415522,-0.9736207099116505,-0.3967272639274597,0.5513271689414978,-0.7339249849319458,-0.10439576208591461,-0.2784775495529175,-0.21130579710006714
0.3999671936035156,-0.07827040553092957,0.13232958316802979,0.010639011859893799,-0.5839883644987283,-0.5041939387279498,-0.9812351315273117,-0.40303751826286316,0.5513556599617004,-0.7304571866989136,-0.23241010308265686,-0.15666262805461884,-0.3188173174858093
0.41997408866882324,-0.1113368570804596,0.09892946481704712,0.014531850814819336,-0.5874107901163619,-0.5127534548612864,-0.992958140553271,-0.40834692120552063,0.5542076826095581,-0.7253320813179016,-0.5511257648468018,-0.06650334596633911,-0.39029234647750854
0.4400341510772705,-0.11011886596679688,0.060091376304626465,0.015141546726226807,-0.5948221353591546,-0.5246885237442172,-1.011370675097028,-0.41490551829338074,0.5603614449501038,-0.7168322801589966,-0.8486841917037964,-0.1267053484916687,-0.5666332840919495
0.4597020149230957,-0.09509378671646118,0.04435288906097412,0.016226887702941895,-0.605072301462764,-0.5428704215921716,-1.0364938887728066,-0.42487993836402893,0.5688215494155884,-0.7042152285575867,-1.0653517246246338,-0.2772728502750397,-0.6979121565818787
0.48002195358276367,-0.1087503433227539,0.06940686702728271,-0.02956080436706543,-0.6152763614019888,-0.5667655504488488,-1.0658180919420905,-0.4384450316429138,0.5771842002868652,-0.6889297962188721,-1.040921688079834,-0.40723928809165955,-0.8185479640960693
0.49997711181640625,-0.17891299724578857,0.1300022006034851,-0.04894834756851196,-0.6216780465370098,-0.5904286972235145,-1.0962816471523629,-0.45255666971206665,0.5824000835418701,-0.6752796173095703,-0.8371993899345398,-0.11763444542884827,-0.8421058654785156
0.5200271606445312,-0.17958220839500427,0.08263731002807617,-0.0006018877029418945,-0.6278505816435862,-0.6047715318917672,-1.1236117540074866,-0.46014246344566345,0.5874066352844238,-0.6657494306564331,-1.0222870111465454,0.23365053534507751,-0.6749546527862549
0.5401391983032227,-0.081991046667099,-0.06059825420379639,0.03936642408370972,-0.6402961553730795,-0.6174443215234887,-1.153320248559763,-0.4642735421657562,0.5974329710006714,-0.653853178024292,-1.3521758317947388,0.2124902904033661,-0.5543290972709656
0.5600862503051758,-0.023206114768981934,-0.1485568881034851,0.035118818283081055,-0.6587759432252733,-0.6335977895402107,-1.1842479186031416,-0.4681573510169983,0.6121494174003601,-0.6372612118721008,-1.5711199045181274,0.061664652079343796,-0.40571412444114685
0.579988956451416,-0.055859655141830444,-0.17175912857055664,0.03840756416320801,-0.6781533227013319,-0.6536843450566533,-1.2160932104241953,-0.4735592305660248,0.6273560523986816,-0.6181958317756653,-1.4250181913375854,-0.07644510269165039,-0.440684050321579
0.6001460552215576,-0.09846082329750061,-0.19247007369995117,0.023272156715393066,-0.6927058835008929,-0.6753778522999692,-1.2463118599920047,-0.4810984432697296,0.6386217474937439,-0.6005885004997253,-1.1782212257385254,-0.18909922242164612,-0.5302687883377075
0.620002269744873,-0.13816505670547485,-0.16722333431243896,0.00926673412322998,-0.7001535326743809,-0.6991700090761063,-1.275687520242341,-0.49217545986175537,0.6443350911140442,-0.5853165984153748,-0.7863283753395081,-0.26626163721084595,-0.7180207371711731
0.640045166015625,-0.16024160385131836,-0.1330174207687378,-0.004648327827453613,-0.6995407907137026,-0.7195534862565474,-1.29995685381903,-0.5042633414268494,0.6438664197921753,-0.5754603147506714,-0.4021424353122711,-0.19865429401397705,-0.7296489477157593
0.6603021621704102,-0.1348661184310913,-0.12116235494613647,0.03143143653869629,-0.694229268894666,-0.7350967055088873,-1.319916442228798,-0.5154328942298889,0.6397932767868042,-0.5700819492340088,-0.2761816382408142,-0.0901094302535057,-0.7661498188972473
0.6799681186676025,-0.03210264444351196,-0.16488254070281982,0.04155623912811279,-0.68858898913922,-0.7498655117433944,-1.3399715447572267,-0.5262469053268433,0.6354483366012573,-0.5650395750999451,-0.3769991099834442,-0.13403986394405365,-0.7564605474472046
0.7000100612640381,0.06454664468765259,-0.1898326873779297,0.016141176223754883,-0.6838973676329327,-0.7669015756909847,-1.3610842940078525,-0.5378589630126953,0.6318187117576599,-0.5581334233283997,-0.3860866129398346,-0.23190712928771973,-0.7418661713600159
0.720008134841919,0.12403631210327148,-0.18609410524368286,-0.0009475946426391602,-0.6794365863417863,-0.7852863390835952,-1.3811465523755624,-0.5500158667564392,0.6283548474311829,-0.5501388907432556,-0.3942810893058777,-0.3266547918319702,-0.6948943138122559
0.7393732070922852,0.15161293745040894,-0.1870916485786438,-0.0009605884552001953,-0.6750775158286789,-0.804901817546404,-1.4009239167464895,-0.5626694560050964,0.6249578595161438,-0.5411384105682373,-0.3830667734146118,-0.41438382863998413,-0.7075507640838623
0.7601490020751953,0.16159677505493164,-0.1552135944366455,-0.019247591495513916,-0.6689518848110225,-0.8254715879281377,-1.4189584329203773,-0.5764831900596619,0.6201640963554382,-0.5320371985435486,-0.22092272341251373,-0.5172088146209717,-0.6824437379837036
0.780001163482666,0.14697909355163574,-0.06803983449935913,-0.08154737949371338,-0.6606922649313773,-0.8446674747376355,-1.43195223073933,-0.5903995037078857,0.6136636137962341,-0.5242570638656616,0.04289254546165466,-0.5833511352539062,-0.6403020024299622
0.8000102043151855,0.11629515886306763,-0.022424638271331787,-0.09749090671539307,-0.6497723590440797,-0.8601292803135361,-1.4394434166330194,-0.6034777164459229,0.605005145072937,-0.5194067358970642,0.18848009407520294,-0.4777865707874298,-0.5478943586349487
0.820080041885376,0.12644481658935547,-0.05013495683670044,-0.046289265155792236,-0.6411579502504582,-0.8704585227710424,-1.4437180551990882,-0.6127728819847107,0.5981238484382629,-0.5164854526519775,0.07081658393144608,-0.32438477873802185,-0.3305279612541199
0.8394601345062256,0.1723349690437317,-0.06360262632369995,-0.0613672137260437,-0.6371012548017528,-0.8799134835645573,-1.4483237133206555,-0.6194937825202942,0.5948678851127625,-0.5122107267379761,-0.048143621534109116,-0.3867352306842804,-0.2350192666053772
0.8592472076416016,0.21280258893966675,-0.02881699800491333,-0.1200934648513794,-0.633997075707982,-0.8903530219479053,-1.4506926500459296,-0.6262394785881042,0.592369794845581,-0.5068749785423279,0.12435305118560791,-0.5059162378311157,-0.13251952826976776
0.8801131248474121,0.21254152059555054,0.0034999847412109375,-0.13024753332138062,-0.6296305827562282,-0.8995432294863992,-1.4484675846391812,-0.6328905820846558,0.5888462066650391,-0.5027023553848267,0.27644041180610657,-0.542300283908844,-0.11426219344139099
0.900266170501709,0.19122904539108276,-0.005933105945587158,-0.12466031312942505,-0.6240387167234721,-0.9080518074260957,-1.4442657039293922,-0.6397306323051453,0.5843174457550049,-0.4993174076080322,0.305018812417984,-0.5663450360298157,-0.10529115051031113
0.9199652671813965,0.17176437377929688,0.00025385618209838867,-0.1285271942615509,-0.619112308832576,-0.9170307444467413,-1.4398828567770405,-0.6464652419090271,0.5803124308586121,-0.495297908782959,0.29095664620399475,-0.5677309036254883,-0.045605577528476715
0.9399552345275879,0.156938374042511,0.02399301528930664,-0.12024098634719849,-0.6165334371717525,-0.9245601308705119,-1.434422455020313,-0.6513688564300537,0.5782102942466736,-0.4913160502910614,0.20195679366588593,-0.5095680356025696,0.0997626781463623
0.9599771499633789,0.13303154706954956,0.08431392908096313,-0.14145100116729736,-0.6160811109937333,-0.9325996092974156,-1.4301402844990765,-0.6555076837539673,0.5778412222862244,-0.4862193167209625,0.14116176962852478,-0.5536589026451111,0.06262362003326416
0.980004072189331,0.10107976198196411,0.14197027683258057,-0.16491460800170898,-0.6152108109259702,-0.9405633463893188,-1.4253321266502093,-0.6597650647163391,0.5771306753158569,-0.4812798798084259,0.22595380246639252,-0.5071951150894165,0.12013426423072815
1.000002145767212,0.10116022825241089,0.18672823905944824,-0.1178593635559082,-0.6144587595193959,-0.9456609743061692,-1.4175162991879269,-0.6625615954399109,0.5765163898468018,-0.4781642556190491,0.3397599160671234,-0.4696987569332123,0.19906775653362274
1.0200281143188477,0.13298869132995605,0.23651832342147827,-0.10581880807876587,-0.613879174799387,-0.9505952422330366,-1.4072239196092196,-0.665184736251831,0.5760427117347717,-0.4750833213329315,0.4016445279121399,-0.6604284644126892,0.22914060950279236
1.0400381088256836,0.12215948104858398,0.28996944427490234,-0.11847710609436035,-0.6119768914803219,-0.9585279057469077,-1.3942336911750604,-0.6698278784751892,0.5744866728782654,-0.47042062878608704,0.5523889660835266,-0.8169648051261902,0.2611928880214691
1.0600030422210693,0.07955783605575562,0.22322982549667358,-0.04043745994567871,-0.6120486435743775,-0.9654150092130517,-1.3797208504215905,-0.6730179190635681,0.5745454430580139,-0.4657728970050812,0.3456767797470093,-0.6957348585128784,0.40088456869125366
1.0799932479858398,0.07550990581512451,0.1549496054649353,0.05544412136077881,-0.6164329915705746,-0.9728116193840399,-1.3711093773631085,-0.6743562817573547,0.5781283378601074,-0.45935961604118347,0.04274281859397888,-0.5537166595458984,0.3682534992694855
1.0999932289123535,0.12826895713806152,0.12356537580490112,0.10822397470474243,-0.6230461415614911,-0.9793061211429448,-1.3643420859692916,-0.6741368174552917,0.5835116505622864,-0.4528285264968872,0.10111015290021896,-0.5172408223152161,0.4751506745815277
1.1199941635131836,0.15827316045761108,0.12871146202087402,0.10507923364639282,-0.62614500352793,-0.9818418262086741,-1.3500916472954687,-0.6737760305404663,0.5860254168510437,-0.4501110315322876,0.7578217387199402,-0.5939913988113403,0.41261616349220276
1.1399931907653809,0.17097747325897217,0.19346314668655396,0.08549383282661438,-0.6190905449993211,-0.9788265959276533,-1.3228424862649586,-0.6758296489715576,0.5802947282791138,-0.4544360935688019,1.4779741764068604,-0.6787485480308533,0.22444689273834229
1.1600499153137207,0.21836751699447632,0.15153545141220093,0.12843599915504456,-0.6033234159289877,-0.9723057188878441,-1.287362601820329,-0.680327296257019,0.567382276058197,-0.46393099427223206,1.6574326753616333,-0.7112650871276855,0.1144794151186943
1.180021047592163,0.2671438455581665,0.047732651233673096,0.22966110706329346,-0.5880019120686151,-0.9695174487009472,-1.2572638619532097,-0.6861197352409363,0.5546995997428894,-0.470689058303833,1.2074257135391235,-0.6976649165153503,0.026027146726846695
1.199995994567871,0.2759140133857727,-0.021572649478912354,0.26596540212631226,-0.5780946547239368,-0.9741055340764335,-1.2405913554729557,-0.6927840709686279,0.5464292168617249,-0.4706011116504669,0.5322529077529907,-0.6793925762176514,-0.0405396893620491
1.219994068145752,0.28024137020111084,-0.013702154159545898,0.25306272506713867,-0.5738408402723099,-0.9845001602095373,-1.2344509037749292,-0.6995681524276733,0.5428616404533386,-0.46465638279914856,0.2617565393447876,-0.7124297618865967,-0.022092297673225403
1.2399990558624268,0.2530866861343384,0.10439026355743408,0.20499861240386963,-0.5674710426993615,-0.9946690624618121,-1.2259489192432156,-0.7071424126625061,0.5375012159347534,-0.459393173456192,0.8297142386436462,-0.7348517179489136,-0.1581004559993744
1.2599949836730957,0.1967877745628357,0.2592031955718994,0.18598762154579163,-0.5491236494807277,-0.9954987840236529,-1.2025065092772957,-0.7156780362129211,0.5219399333000183,-0.4640943706035614,1.7802178859710693,-0.5918086171150208,-0.28330889344215393
1.2800049781799316,0.19721734523773193,0.21343952417373657,0.24167603254318237,-0.5230530940859978,-0.9904987746400077,-1.1704708442617047,-0.7244847416877747,0.49952736496925354,-0.47496768832206726,1.8175979852676392,-0.5800715088844299,-0.41661539673805237
1.299997091293335,0.21031194925308228,0.051306188106536865,0.2991958558559418,-0.4980356169437848,-0.990947858671915,-1.1457052537098105,-0.7349242568016052,0.47770071029663086,-0.4813400208950043,1.3462916612625122,-0.6845996975898743,-0.4567570984363556
1.320080041885376,0.18249720335006714,0.020648211240768433,0.30409127473831177,-0.47885868352613553,-0.9982938025561509,-1.1314383930507608,-0.7460042238235474,0.4607665240764618,-0.48080337047576904,0.7954322695732117,-0.7306951284408569,-0.5128031373023987
1.339993953704834,0.08490467071533203,0.07690063118934631,0.2789883613586426,-0.46069237254897893,-1.0106500214537888,-1.1271008501020696,-0.7588547468185425,0.444568395614624,-0.47591832280158997,0.5796722173690796,-0.6884804964065552,-0.8380352854728699
1.3599910736083984,0.012011528015136719,0.12372216582298279,0.23183667659759521,-0.43751169472974144,-1.0222710935563681,-1.1264405762613023,-0.7729215025901794,0.4236868619918823,-0.4723152816295624,0.6920353770256042,-0.48535528779029846,-1.0802401304244995
1.3800182342529297,0.06669574975967407,0.09201538562774658,0.2993100881576538,-0.4110387107975684,-1.0305108610540468,-1.1271890087926684,-0.7861323356628418,0.39956173300743103,-0.4715360999107361,0.5302525162696838,-0.3434237241744995,-1.1999692916870117
1.3999650478363037,0.11730903387069702,-0.01007118821144104,0.39082202315330505,-0.38655433786744225,-1.0429931178156133,-1.1355830863402323,-0.8001703023910522,0.37699922919273376,-0.46647515892982483,0.12999176979064941,-0.5999900698661804,-1.3208656311035156
1.420011043548584,-0.0774429440498352,-0.048682719469070435,0.2630501985549927,-0.3625744651297151,-1.0617673542573225,-1.148818931710578,-0.8164474964141846,0.3546825051307678,-0.4556467533111572,-0.05450180172920227,-0.7685307264328003,-1.3940744400024414
1.439993143081665,-0.3333747982978821,0.14435607194900513,0.20334970951080322,-0.33647490544197534,-1.0837560226344247,-1.1712508034508344,-0.8341666460037231,0.3301617205142975,-0.4417682886123657,-0.5261202454566956,-0.6356364488601685,-1.9483659267425537
1.4599940776824951,-0.24713611602783203,0.15980035066604614,0.29176896810531616,-0.308606324037835,-1.1054579602667614,-1.2033561539435702,-0.8514508605003357,0.3037310838699341,-0.42752644419670105,-0.9156096577644348,-0.5192469358444214,-1.7279409170150757
1.4799940586090088,-0.06317979097366333,0.1590179204940796,0.359291136264801,-0.29434099618989784,-1.1228397516913995,-1.2358154021015006,-0.8625709414482117,0.290109246969223,-0.4144974946975708,-1.0990779399871826,-0.21556714177131653,-1.0086338520050049
1.5007872581481934,0.019824445247650146,0.21304750442504883,0.26435190439224243,-0.2853940639959166,-1.1311247135647393,-1.2586369150657595,-0.8682894110679626,0.2815355956554413,-0.4084254503250122,-0.42251846194267273,-0.00550098018720746,-0.7869670987129211
1.5191740989685059,0.17558503150939941,0.2656462788581848,0.18535155057907104,-0.27294744663037324,-1.1336454359032053,-1.2658271605192806,-0.8724232316017151,0.2695709466934204,-0.40768739581108093,0.2959640920162201,-0.127040296792984,-0.6740157008171082
1.5399460792541504,0.237421452999115,0.16517463326454163,0.17731893062591553,-0.2564661244714581,-1.1380820125237334,-1.2623751809973842,-0.87813800573349,0.2536638379096985,-0.4056210219860077,0.5646212100982666,-0.39843717217445374,-0.6777512431144714
1.5600061416625977,0.16734522581100464,0.07475528120994568,0.22277873754501343,-0.24103312007147046,-1.1459976615366263,-1.257591101031937,-0.8847829103469849,0.23870600759983063,-0.4002232551574707,0.5361059308052063,-0.4897640645503998,-0.5027137994766235
1.5800251960754395,0.024187982082366943,0.10913483798503876,0.13213682174682617,-0.2279632451246687,-1.155901195805056,-1.251215677771945,-0.8914822936058044,0.22599393129348755,-0.39266538619995117,0.6426936388015747,-0.6683899164199829,-0.5257223844528198
1.5999960899353027,-0.08808976411819458,0.1591511219739914,0.13147097826004028,-0.210596680759816,-1.1670831726805984,-1.2397476686320983,-0.8992912173271179,0.20904342830181122,-0.3841565251350403,1.0104988813400269,-0.6518153548240662,-0.6031462550163269
1.6200151443481445,-0.16621124744415283,0.0717342346906662,0.1618369221687317,-0.1892661425507877,-1.1753468484648175,-1.2241306007802553,-0.9063442349433899,0.1881381869316101,-0.3783439099788666,1.2735778093338013,-0.5181267261505127,-0.7959972620010376
1.6400070190429688,-0.2438870072364807,-0.03036162257194519,0.18602699041366577,-0.16399982163513135,-1.180800384109572,-1.2067313424860255,-0.9125003218650818,0.163265660405159,-0.37508341670036316,1.1653538942337036,-0.2719357907772064,-0.8163951635360718
1.6600661277770996,-0.24937409162521362,-0.0916011780500412,0.2873483896255493,-0.145967214757912,-1.1814365389768258,-1.197787205751573,-0.9153140187263489,0.1454494297504425,-0.3755594789981842,0.34328600764274597,-0.02449757419526577,-0.5044765472412109
1.679995059967041,-0.2785314917564392,-0.16448625922203064,0.26751190423965454,-0.13885473845165597,-1.1812718931148236,-1.1986393982412629,-0.9161858558654785,0.13840897381305695,-0.37609347701072693,-0.07079952210187912,0.10960891842842102,-0.17507058382034302
1.7000401020050049,-0.2868402600288391,-0.11936713755130768,0.2108006477355957,-0.13817799888955362,-1.1785551132853092,-1.1992460007266952,-0.9152470827102661,0.13773870468139648,-0.37861689925193787,0.1816108673810959,0.133171945810318,0.042223189026117325
1.7200112342834473,-0.33594655990600586,-0.13348521292209625,0.11709892749786377,-0.13511664312050828,-1.1757251644446745,-1.189162623008417,-0.9145569205284119,0.13470588624477386,-0.38136598467826843,0.8796352744102478,0.046471498906612396,0.027861060574650764
1.7399959564208984,-0.4907222390174866,-0.20015738904476166,0.27906036376953125,-0.12891995559214645,-1.1606952006556974,-1.1658370160401774,-0.9094700217247009,0.12856313586235046,-0.39539340138435364,1.1924821138381958,1.4094313383102417,0.39247927069664
1.7599940299987793,-0.8134246468544006,-0.31631460785865784,0.08465370535850525,-0.13428369352996153,-1.131208175555097,-1.1415041922921565,-0.8967803716659546,0.13388048112392426,-0.42173561453819275,0.5831248164176941,0.38580775260925293,0.321804016828537
1.7800850868225098,-0.5765312910079956,-0.6155634522438049,0.07539814710617065,-0.1396836274612448,-1.1337778973309711,-1.133336724294056,-0.8971931338310242,0.13922983407974243,-0.41911768913269043,-0.7282904982566833,-0.41729164123535156,0.9439566135406494
1.8000049591064453,-0.6180335283279419,-0.4704751670360565,0.37016403675079346,-0.17220697161990858,-1.1324632365607805,-1.1448751423840848,-0.8920676708221436,0.17135709524154663,-0.41815292835235596,-1.057745099067688,0.7631602883338928,1.3022198677062988
1.8200511932373047,-1.0457228422164917,-0.3714711666107178,0.014072716236114502,-0.20487148790543175,-1.1078872460845992,-1.1460750726403226,-0.8760453462600708,0.2034413367509842,-0.4372142255306244,-0.6153725385665894,1.5154956579208374,1.6062240600585938
1.839996099472046,-0.8625575304031372,-0.18394538760185242,-0.18143248558044434,-0.2390884145965493,-1.0834634851063947,-1.14207002052551,-0.8584507703781128,0.23681707680225372,-0.45495060086250305,-0.5073898434638977,0.6826459765434265,1.6615396738052368
1.8599939346313477,-0.7746252417564392,-0.24063527584075928,-0.03059828281402588,-0.28381304552348346,-1.066461827028861,-1.1334792087731733,-0.8404717445373535,0.2800181806087494,-0.4638933539390564,-1.1027052402496338,1.1273037195205688,2.7715351581573486
1.8800911903381348,-1.1021528244018555,-0.28576961159706116,0.13236647844314575,-0.3468837562286539,-1.0392063456393135,-1.1267765229781042,-0.8106584548950195,0.33996883034706116,-0.476711630821228,-1.2739590406417847,1.2436764240264893,2.898937940597534
1.9000282287597656,-1.1004523038864136,-0.07619810104370117,-0.019297480583190918,-0.40631692634643657,-1.0101336670104293,-1.1095517640582597,-0.7779503464698792,0.3952288031578064,-0.48845404386520386,-0.312102347612381,0.9955906867980957,3.000305652618408
1.9201221466064453,-1.0811686515808105,-0.019789427518844604,-0.06566697359085083,-0.4538505215772537,-0.9767463560842177,-1.0716021610455078,-0.7447896003723145,0.43842950463294983,-0.5030586123466492,0.429288387298584,0.8654470443725586,2.883939504623413
1.9400861263275146,-1.0919440984725952,-0.15143108367919922,0.01070106029510498,-0.4951128842139658,-0.9385493021068633,-1.028266556517756,-0.7098289728164673,0.47513097524642944,-0.5199936628341675,0.25054749846458435,0.95234215259552,2.7226476669311523
1.959996223449707,-1.017054796218872,-0.17768460512161255,-0.011864960193634033,-0.5379432582274365,-0.9020799923014778,-0.9929192615667691,-0.6738020181655884,0.5123708248138428,-0.5324161052703857,-0.32100099325180054,0.9525893330574036,2.593541145324707
1.9800870418548584,-0.9912171363830566,-0.05227816104888916,-0.09232813119888306,-0.5828630388814162,-0.8668330551295383,-0.9623209689732269,-0.6364225745201111,0.5504165291786194,-0.5403775572776794,-0.42608967423439026,0.9744821786880493,2.5028445720672607
1.9999990463256836,-0.9410785436630249,0.13031363487243652,-0.18302243947982788,-0.6208634777573859,-0.8304093016102432,-0.9289356573740454,-0.6004406213760376,0.5817376971244812,-0.5486823320388794,0.0318264439702034,0.71527099609375,2.1741490364074707
2.0199971199035645,-0.7294671535491943,0.07945001125335693,-0.12180989980697632,-0.6499936280075237,-0.7960860570763247,-0.8926233363210696,-0.5689031481742859,0.6051813364028931,-0.5568705797195435,-0.056459251791238785,0.6004168391227722,1.91921067237854
2.0399961471557617,-0.5858702659606934,-0.14196443557739258,0.05806529521942139,-0.6792387957808199,-0.7709898349026975,-0.8702684216318425,-0.5421814322471619,0.6282009482383728,-0.5580348372459412,-0.8245646357536316,0.5777223110198975,1.4287139177322388
2.059998035430908,-0.3756164312362671,-0.29651135206222534,0.12076067924499512,-0.7132961857168724,-0.7614317282201177,-0.8690886981902266,-0.5217529535293579,0.6543299555778503,-0.5473811626434326,-1.4398995637893677,0.2245086133480072,0.9701432585716248
2.0800442695617676,-0.13143235445022583,-0.226063072681427,0.16859209537506104,-0.7480912146695615,-0.7678303705130645,-0.8827439014225822,-0.5091163516044617,0.6802408695220947,-0.527326226234436,-1.6664128303527832,0.10102315992116928,0.7152576446533203
2.0999951362609863,-0.05591404438018799,-0.12289518117904663,0.12651383876800537,-0.7773192429170481,-0.778698544807471,-0.9022197861744397,-0.500635027885437,0.7013711333274841,-0.5073885321617126,-1.470824122428894,0.19672483205795288,0.3354911804199219
2.1199951171875,0.04418390989303589,-0.03647005558013916,0.07291403412818909,-0.7992654537116057,-0.7928282839619001,-0.9272589620049546,-0.4966679811477661,0.7168441414833069,-0.489341676235199,-1.3576252460479736,0.11845026165246964,-0.02937181107699871
2.13999605178833,0.1506514847278595,0.030286073684692383,0.04663783311843872,-0.8166019076871245,-0.8145174954560567,-0.9580478121395459,-0.4980482757091522,0.7288233637809753,-0.4698556065559387,-1.34872567653656,-0.10181420296430588,-0.18337835371494293
2.160051107406616,0.19883722066879272,0.08416879177093506,0.020521938800811768,-0.8316031014489815,-0.8442585984894324,-0.9916848622763288,-0.5035704970359802,0.7390123009681702,-0.44752392172813416,-1.3612284660339355,-0.34652790427207947,-0.2501361668109894
2.179996967315674,0.1859714388847351,0.24227631092071533,0.024837136268615723,-0.8461533982875666,-0.8735078515808088,-1.0254441903901126,-0.5081454515457153,0.7487361431121826,-0.4256550073623657,-1.3589274883270264,-0.086983323097229,-0.15807831287384033
2.200042247772217,0.2158043384552002,0.3649989366531372,-0.04145440459251404,-0.8595195841957315,-0.899536271314919,-1.0577939852473894,-0.5111685991287231,0.7575290203094482,-0.40602487325668335,-1.228589653968811,-0.10982666909694672,-0.07517297565937042
2.2200212478637695,0.3173061013221741,0.3543440103530884,-0.045113980770111084,-0.8753328098830362,-0.9270440386641288,-1.0889663521365112,-0.5124964714050293,0.7677567601203918,-0.3845735490322113,-1.3414430618286133,-0.21803534030914307,0.13959084451198578
2.239546060562134,0.3851242661476135,0.15404725074768066,-0.014307379722595215,-0.8972614226348554,-0.9631365291950964,-1.1259333788357544,-0.5120925903320312,0.7816216349601746,-0.3561302721500397,-1.7105695009231567,-0.5357685685157776,0.20595131814479828
2.2599971294403076,0.4428321123123169,0.010966479778289795,0.09144768118858337,-0.9224409765312506,-1.0077488229504505,-1.1683911654205064,-0.5106574296951294,0.797078013420105,-0.32232850790023804,-1.7747446298599243,-0.6014074683189392,0.4157049059867859
2.2800049781799316,0.4135332703590393,0.1776946783065796,0.09462043642997742,-0.948234056127563,-1.0492383124800169,-1.208265937244399,-0.5055894255638123,0.8123869895935059,-0.2905280888080597,-1.6273229122161865,-0.31516945362091064,0.5720762014389038
2.300039052963257,0.39589235186576843,0.05761975049972534,-0.07299771904945374,-0.9730058221516338,-1.0853973459468917,-1.246254177909799,-0.49780577421188354,0.8265811800956726,-0.26258882880210876,-1.5229538679122925,-0.22021904587745667,0.5313722491264343
2.3199892044067383,0.496975302696228,-0.38142263889312744,-0.16563504934310913,-0.99713339066622,-1.1266755283682253,-1.2919563970135994,-0.49006304144859314,0.8399186730384827,-0.23318397998809814,-1.9099007844924927,-0.08926583081483841,0.5241721272468567
2.3399970531463623,0.5752070546150208,-0.7873387932777405,-0.09480679035186768,-1.0209710231806488,-1.1788958758187222,-1.3561672747777707,-0.48292189836502075,0.8526158332824707,-0.1995811015367508,-2.082041025161743,0.20055009424686432,0.20999200642108917
2.359971046447754,0.6410526037216187,-0.8893035650253296,-0.01907239854335785,-1.0338490651906747,-1.2302045074190364,-1.4219010173561835,-0.4821322560310364,0.8592742085456848,-0.17086906731128693,-1.4857391119003296,0.3455391824245453,-0.1995883584022522
2.3800220489501953,0.7063614130020142,-0.6923187375068665,-0.0013952702283859253,-1.033801382752567,-1.2601896736296059,-1.4686537215147657,-0.4870772957801819,0.8592498302459717,-0.15635012090206146,-0.8129268884658813,0.7139036059379578,-0.6161150932312012
2.399998188018799,0.7663935422897339,-0.7573317885398865,-0.12459276616573334,-1.0217442368974052,-1.2645360076158643,-1.4918610939625452,-0.4975946247577667,0.8530195951461792,-0.15734390914440155,-0.058047372847795486,0.7521642446517944,-0.8610959649085999
2.4199962615966797,0.9710718393325806,-0.6604657769203186,-0.04925799369812012,-1.0048373007323113,-1.2608131343222757,-1.503848741415388,-0.5106683373451233,0.8440747261047363,-0.16357165575027466,-0.05428926646709442,0.6355410218238831,-0.8843094706535339
2.4400229454040527,1.0976009368896484,-0.4847930073738098,-0.15698976814746857,-0.9889052121689959,-1.2551458356628638,-1.509140805896666,-0.5224514603614807,0.8354247808456421,-0.1706165373325348,0.3023183345794678,0.4396734833717346,-0.6725481152534485
2.4599971771240234,1.139008641242981,-0.2969238758087158,-0.2307928204536438,-0.974671863483629,-1.2376988347909943,-1.4965774832284786,-0.5305796265602112,0.8275176882743835,-0.18357495963573456,0.8199421167373657,0.26960816979408264,-0.442552775144577
2.4799962043762207,1.1176655292510986,-0.22759157419204712,-0.20781898498535156,-0.9631439234667423,-1.2106178995491592,-1.4686610657284094,-0.5343067646026611,0.8209906220436096,-0.2012234330177307,1.1925450563430786,0.14507174491882324,-0.11644653230905533
2.500091075897217,1.0659337043762207,0.025036096572875977,-0.291206955909729,-0.9567005762915405,-1.180556993060536,-1.4303445922952542,-0.5328984260559082,0.8172948360443115,-0.21919962763786316,1.0795267820358276,-0.3210793733596802,0.2646714746952057
2.520080089569092,0.8745540976524353,0.310798704624176,-0.2996087670326233,-0.9575553733057358,-1.1512839066713212,-1.3927511232937708,-0.5256161093711853,0.8177870512008667,-0.23441840708255768,0.7450959086418152,0.2930569648742676,0.6251698136329651
2.539999008178711,0.7894355654716492,0.033531367778778076,-0.15236303210258484,-0.9628513740110959,-1.1267307414892827,-1.3713833189654254,-0.5157844424247742,0.8208235502243042,-0.24538792669773102,0.3726081848144531,0.2067180722951889,0.3728194236755371
2.560030937194824,0.9234449863433838,-0.04600834846496582,-0.13203978538513184,-0.9624163083972932,-1.1033948476110877,-1.3410590370271904,-0.510236918926239,0.8205749988555908,-0.2575171887874603,1.390641212463379,-0.3904973268508911,0.39337635040283203
2.5799999237060547,0.8180544376373291,0.15483343601226807,-0.13524752855300903,-0.9486852706065474,-1.0607865095330744,-1.2710225803660047,-0.5085908770561218,0.8126500248908997,-0.28449130058288574,2.663764715194702,-1.0705680847167969,0.25703543424606323
2.6000561714172363,0.46173739433288574,0.22805094718933105,-0.055733561515808105,-0.9216869265489641,-1.0160166992520412,-1.186739606425897,-0.5138156414031982,0.7966224551200867,-0.31841200590133667,2.706355333328247,-0.9644615650177002,-0.007240665145218372
2.620048999786377,0.2458651065826416,-0.1259453296661377,0.16918084025382996,-0.893955597006993,-0.9885959564401389,-1.1348847869309646,-0.5231477618217468,0.7795553803443909,-0.34439754486083984,1.6168386936187744,-0.6846333146095276,-0.747208833694458
2.6400890350341797,0.2637544274330139,-0.3538891077041626,0.175550639629364,-0.8619785883119516,-0.994790157780644,-1.1160036707766483,-0.5459046959877014,0.7591319680213928,-0.3545515239238739,1.2854161262512207,-1.4482778310775757,-1.1976784467697144
2.660001039505005,0.1986086368560791,-0.11809432506561279,0.09013879299163818,-0.820359176045552,-1.0232099978425961,-1.1018077541159004,-0.5822450518608093,0.7313908338546753,-0.35504671931266785,1.9045294523239136,-2.4577083587646484,-1.892647624015808
2.6799979209899902,-0.08681076765060425,-0.06735485792160034,0.2225065529346466,-0.758086261138451,-1.0585016314014206,-1.0783281461213894,-0.6329309344291687,0.6875330209732056,-0.3559447228908539,2.5194854736328125,-2.4822347164154053,-2.596156358718872
2.699995994567871,-0.34065496921539307,-0.28337621688842773,0.38634616136550903,-0.6854036694655827,-1.0909085538038565,-1.0571765465890357,-0.6867192983627319,0.6329855918884277,-0.3574155569076538,2.2229535579681396,-2.3448164463043213,-3.0426366329193115
2.720083236694336,-0.5897353887557983,-0.33262819051742554,0.2629822790622711,-0.6139833400674544,-1.1388750013573918,-1.052907027972586,-0.7422958016395569,0.576127827167511,-0.3421601355075836,1.1625124216079712,-2.725574016571045,-3.1626100540161133
2.740002155303955,-0.896592378616333,-0.2456955909729004,0.22886481881141663,-0.5492676154528546,-1.202503815929744,-1.0687279028013368,-0.7957140207290649,0.5220627188682556,-0.3070661425590515,0.2946971356868744,-2.597978115081787,-3.3785486221313477
2.7599971294403076,-1.3521716594696045,-0.028778135776519775,0.16052654385566711,-0.48233834876406223,-1.2569449154753214,-1.0888886963808495,-0.8426373600959778,0.46385201811790466,-0.2735027074813843,0.4176598787307739,-1.865928292274475,-3.4130849838256836
2.779995918273926,-1.445021152496338,0.2112988531589508,-0.03171399235725403,-0.41858554322519803,-1.293106956240657,-1.0987247930619246,-0.8786637187004089,0.4064685106277466,-0.25046685338020325,0.5123991966247559,-1.3389980792999268,-2.9334499835968018
2.800023078918457,-1.2572393417358398,0.2444225251674652,-0.13512057065963745,-0.3694876960812582,-1.3149298705122208,-1.108113242183195,-0.9021539688110352,0.3611377477645874,-0.23600375652313232,-0.338999480009079,-0.4835590720176697,-1.998778223991394
2.8199961185455322,-0.8761826753616333,0.2057565450668335,0.05220557749271393,-0.3472299814785381,-1.3257314325279395,-1.1370895887603902,-0.9122235774993896,0.34029442071914673,-0.2281394749879837,-1.7156665325164795,0.4286794066429138,-0.682335615158081
2.8399951457977295,-0.47687584161758423,0.11984926462173462,0.19709628820419312,-0.36021052574306633,-1.3293761937243342,-1.1855953935730967,-0.908683180809021,0.352471262216568,-0.2237381637096405,-2.783555269241333,0.7722126841545105,0.6692309379577637
2.8599960803985596,-0.30488091707229614,0.03088223934173584,0.10891075432300568,-0.39133781745411766,-1.331370540776732,-1.2316352895845593,-0.8980304002761841,0.3814254403114319,-0.21921658515930176,-1.9132022857666016,0.6503259539604187,1.2736328840255737
2.880031108856201,-0.28946083784103394,-0.004210382699966431,-0.00813254714012146,-0.4220555008276073,-1.3284374135736212,-1.251251033120833,-0.8855880498886108,0.4096364378929138,-0.2189336121082306,-0.5496141910552979,0.46364066004753113,1.1750948429107666
2.9000461101531982,-0.33413589000701904,-0.17370423674583435,-0.09254330396652222,-0.4415439125946583,-1.3186489106493018,-1.2458205527745816,-0.8755045533180237,0.42733582854270935,-0.22555677592754364,0.39247190952301025,0.378172367811203,0.9190270900726318
2.919997215270996,-0.3223625421524048,-0.3240174353122711,-0.021773070096969604,-0.45862483552329536,-1.3035502630913476,-1.2339057369595547,-0.8648321032524109,0.44271546602249146,-0.23678715527057648,0.021164970472455025,0.6866964101791382,1.048466682434082
2.9400320053100586,-0.3501077890396118,-0.41830170154571533,0.02935531735420227,-0.4826280306225956,-1.2876170823075033,-1.235869643894328,-0.8504995703697205,0.4641086161136627,-0.24749505519866943,-0.8176155090332031,0.973848283290863,1.212964653968811
2.9600539207458496,-0.3313983082771301,-0.36043989658355713,0.037874042987823486,-0.5131254084271797,-1.2753741934089253,-1.2518300590460136,-0.8334728479385376,0.49090254306793213,-0.2536486089229584,-1.2957109212875366,1.0107336044311523,1.2945789098739624
2.979997158050537,-0.3486896753311157,-0.23287832736968994,0.05482318997383118,-0.5454972557997528,-1.264447668161215,-1.2717953663128747,-0.8150675296783447,0.5188432335853577,-0.25781089067459106,-1.2936049699783325,1.0886855125427246,1.290158987045288
3.00003719329834,-0.3643999695777893,-0.21094316244125366,0.07728356122970581,-0.5770307476808257,-1.2533587541869677,-1.2914155276115835,-0.7962139844894409,0.5455378293991089,-0.2615945041179657,-1.2774931192398071,1.1310555934906006,1.2342345714569092
3.0200819969177246,-0.34578579664230347,-0.23229438066482544,0.07581284642219543,-0.6098547509125835,-1.2397283857088655,-1.3106247045912662,-0.775216281414032,0.5727484226226807,-0.2664562165737152,-1.3188387155532837,1.2853962182998657,1.368150234222412
3.040199041366577,-0.31036174297332764,-0.24763107299804688,0.03499343991279602,-0.643179635482997,-1.2258405569464152,-1.3311464253956957,-0.7530536651611328,0.5997427701950073,-0.2705892026424408,-1.355783224105835,1.2912477254867554,1.1586557626724243
3.060059070587158,-0.3028925657272339,-0.1601870059967041,-0.009879380464553833,-0.6709556927551505,-1.214822326526881,-1.3533212061782829,-0.7341251969337463,0.6217347979545593,-0.27295756340026855,-1.1944068670272827,1.119094967842102,0.9363394975662231
3.079939126968384,-0.24031472206115723,-0.12326377630233765,0.007374197244644165,-0.6967676063348841,-1.2056752513196534,-1.3744155991706726,-0.7163655161857605,0.6417420506477356,-0.27383846044540405,-1.290932536125183,1.1716705560684204,0.9001584649085999
3.099997043609619,-0.20819419622421265,-0.21314102411270142,0.0026064813137054443,-0.7234957269776496,-1.19949358567855,-1.398892349200103,-0.6984218955039978,0.6620087623596191,-0.27193939685821533,-1.4264705181121826,1.0451563596725464,0.9445599317550659
3.120065212249756,-0.12547343969345093,-0.23140108585357666,0.06750616431236267,-0.7538485943129888,-1.1978939358503828,-1.4284316275474815,-0.6789546012878418,0.6844496726989746,-0.26561108231544495,-1.7699395418167114,1.1141972541809082,1.05966055393219
3.140110969543457,-0.12352222204208374,-0.19377648830413818,0.07224401831626892,-0.7845651446365811,-1.2016280198381082,-1.4678296002295697,-0.6600165367126465,0.7065175175666809,-0.2553648054599762,-1.908517837524414,1.3060659170150757,0.7712544798851013
3.1600852012634277,-0.09857708215713501,-0.1523382067680359,-0.007915973663330078,-0.8100166393473884,-1.2029032928326917,-1.5086641906873417,-0.6433509588241577,0.7242986559867859,-0.2479739785194397,-1.616884469985962,1.4841116666793823,0.6476696729660034
3.180011034011841,-0.0021142959594726562,-0.09293627738952637,-0.009039223194122314,-0.8313711988919733,-1.1979084281574723,-1.5404849318159757,-0.6275548338890076,0.7388560771942139,-0.24549271166324615,-1.4245511293411255,1.485982060432434,0.6159893870353699
3.2084012031555176,0.10723847150802612,-0.2510225176811218,-0.08903318643569946,-0.8652793927755007,-1.1964222316157023,-1.6238416550269121,-0.6035152673721313,0.7612764835357666,-0.23712347447872162,-1.4897754192352295,1.4359649419784546,0.1876949518918991
3.228276252746582,0.21624445915222168,-0.0821835994720459,-0.042944759130477905,-0.8799963333933104,-1.2004682309940204,-1.6647151903060413,-0.5939605832099915,0.7707365155220032,-0.23059964179992676,-1.437340259552002,1.3217359781265259,0.13626331090927124
3.2485809326171875,0.21301567554473877,-0.11440020799636841,-0.05295650660991669,-0.8907798166346612,-1.2054904353835343,-1.70463521833306,-0.5873136520385742,0.7775623202323914,-0.2246314138174057,-1.3979041576385498,1.2794488668441772,0.055955566465854645
3.2703499794006348,0.2089877724647522,-0.062069475650787354,-0.07967562973499298,-0.9024749498074182,-1.2150737300583574,-1.7474161293669979,-0.5808748602867126,0.7848629355430603,-0.2158108353614807,-1.4470540285110474,1.142958402633667,0.08231556415557861
3.2800211906433105,0.2089877724647522,-0.062069475650787354,-0.07967562973499298,-0.9024749498074182,-1.2150737300583574,-1.7474161293669979,-0.5808748602867126,0.7848629355430603,-0.2158108353614807,-1.4470540285110474,1.142958402633667,0.08231556415557861
3.304935932159424,0.20957452058792114,0.028979599475860596,-0.09801004827022552,-0.9210899065205598,-1.2333814936882201,-1.8276993415724196,-0.5708414912223816,0.7962614297866821,-0.20026881992816925,-1.1666820049285889,1.0798068046569824,-0.008463902398943901
3.3255152702331543,0.2608731985092163,-0.026711344718933105,-0.08621859550476074,-0.9282304691087591,-1.2428523570720436,-1.8649457403266165,-0.567315399646759,0.8005607724189758,-0.19301728904247284,-1.2365994453430176,0.9414772391319275,0.013003863394260406
3.3442602157592773,0.28392094373703003,-0.04577934741973877,-0.09696201980113983,-0.9364399595337368,-1.2579328824783558,-1.9047959506517207,-0.5638891458511353,0.8054533004760742,-0.18241119384765625,-1.2552176713943481,0.7632039189338684,0.052707333117723465
3.363619089126587,0.2552591562271118,0.0038849711418151855,-0.12947596609592438,-0.944678963938907,-1.2748435550942574,-1.9425259784356088,-0.5605265498161316,0.8103088736534119,-0.1709086149930954,-1.1251955032348633,0.6080753207206726,0.043992139399051666
3.382127046585083,0.1855252981185913,0.07525599002838135,-0.13829217851161957,-0.9489257136672393,-1.2911760909349894,-1.9766534830373608,-0.559930145740509,0.8127901554107666,-0.160780131816864,-0.8863101601600647,0.5498900413513184,-0.2222006618976593
3.4022531509399414,0.1413690447807312,0.10757404565811157,-0.16258156299591064,-0.9463376534463247,-1.3043168850586198,-2.005613055827948,-0.5640222430229187,0.8112797141075134,-0.15396204590797424,-0.7004281878471375,0.491218239068985,-0.44597890973091125
3.423388957977295,0.15794920921325684,0.110260009765625,-0.14849698543548584,-0.941395115837297,-1.316041164676462,-2.031940833101106,-0.5696618556976318,0.808380126953125,-0.14834752678871155,-0.706230103969574,0.48792800307273865,-0.38586047291755676
3.44301700592041,0.16140532493591309,0.11262154579162598,-0.09971867501735687,-0.9386584431375882,-1.3257894860240094,-2.057715639646206,-0.5732247233390808,0.806766152381897,-0.14332333207130432,-0.6702607274055481,0.6378315687179565,-0.2308225780725479
3.4667720794677734,0.13444966077804565,0.1321437954902649,-0.066134512424469,-0.9378737155601923,-1.3279451690057607,-2.0782681162409067,-0.5741468667984009,0.8063021898269653,-0.14223957061767578,-0.4566044211387634,0.799808919429779,-0.1705932766199112
3.485496997833252,0.112071692943573,0.13110733032226562,-0.04396875202655792,-0.9356312052850022,-1.320620826723853,-2.089742892629926,-0.574840247631073,0.8049737215042114,-0.14688828587532043,-0.18430230021476746,0.8365338444709778,-0.20197464525699615
3.5030622482299805,0.0987810492515564,0.11238133907318115,-0.036098822951316833,-0.9320448276616816,-1.3098813526518156,-2.0963694820938925,-0.5760148167610168,0.8028407096862793,-0.15379683673381805,-0.12731879949569702,0.7561325430870056,-0.24830065667629242
3.524503231048584,0.05806225538253784,0.1012793779373169,-0.033163830637931824,-0.9277976688553484,-1.3001810944603485,-2.102883482121164,-0.5777765512466431,0.8003013730049133,-0.16028711199760437,-0.16509975492954254,0.7743094563484192,-0.23199430108070374
3.546638011932373,0.042494356632232666,0.13715648651123047,-0.005573749542236328,-0.9251243190441615,-1.2902804902529412,-2.1107886372812383,-0.5782151222229004,0.7986955642700195,-0.16659122705459595,-0.20202991366386414,0.8696188926696777,-0.1361241489648819
3.567416191101074,0.06510788202285767,0.11289048194885254,0.026344597339630127,-0.9251064894215716,-1.27625127629967,-2.1172812539133323,-0.5758347511291504,0.79868483543396,-0.1746906042098999,-0.19403253495693207,1.0409278869628906,0.028828341513872147
3.5867109298706055,0.11780720949172974,0.007647216320037842,0.028248146176338196,-0.9274230568154339,-1.2592754710960037,-2.1224855548445243,-0.5710236430168152,0.8000767230987549,-0.18387259542942047,-0.18221066892147064,1.0312193632125854,0.0975913479924202
3.606255054473877,0.165360689163208,-0.08086121082305908,0.0205707848072052,-0.9301365366615749,-1.2422378436765988,-2.1261112665538677,-0.5657511949539185,0.801701545715332,-0.19287307560443878,-0.11968009918928146,0.9609853029251099,0.0968576967716217
3.6271371841430664,0.184689462184906,-0.12266558408737183,0.009325534105300903,-0.9322249030531194,-1.2251080027863153,-2.1276045264560888,-0.5607879757881165,0.8029480576515198,-0.2019677758216858,-0.032828278839588165,0.894005537033081,0.06699161976575851
3.6469171047210693,0.17318236827850342,-0.13241499662399292,0.022509455680847168,-0.9332481566118581,-1.2063445804866275,-2.1266038458447114,-0.5561321377754211,0.8035575747489929,-0.21216101944446564,0.009798411279916763,0.9301908612251282,0.06021855026483536
3.6651771068573,0.1461130976676941,-0.1350167989730835,0.020514801144599915,-0.9342103210127531,-1.1863671875587125,-2.1256533307688232,-0.5510660409927368,0.8041298985481262,-0.2229379266500473,0.012947732582688332,0.9761384725570679,0.04928240180015564
3.6871461868286133,0.14031434059143066,-0.11939287185668945,0.0046319663524627686,-0.9353423447289,-1.1675618528956764,-2.1262471034317776,-0.5459386706352234,0.8048022985458374,-0.23290348052978516,-0.07051818072795868,0.9669808745384216,0.03563651442527771
3.7071471214294434,0.14720052480697632,-0.10407930612564087,-0.004526883363723755,-0.9360477436797467,-1.1503661778946626,-2.1282172006547486,-0.5413350462913513,0.8052207827568054,-0.24202470481395721,-0.046051084995269775,0.8848523497581482,-0.011582965031266212
3.726776123046875,0.13340240716934204,-0.08490395545959473,-0.00948786735534668,-0.9361072423679175,-1.1333258056422058,-2.12810223524808,-0.537088930606842,0.8052560687065125,-0.2511933147907257,0.05271068587899208,0.8303170204162598,0.01925310492515564
3.7459821701049805,0.10665404796600342,-0.06134951114654541,-0.00014346837997436523,-0.9354471655859526,-1.1143178344194247,-2.1249848606959185,-0.5326946377754211,0.8048645257949829,-0.2615906000137329,0.1342032253742218,0.8313960433006287,-0.0030867715831846
3.7659239768981934,0.08482259511947632,-0.04898601770401001,0.015680164098739624,-0.9341050440222902,-1.093658475726333,-2.1202197249381642,-0.5281361937522888,0.8040673136711121,-0.2730349600315094,0.15859396755695343,0.8342633843421936,0.019083760678768158
3.7860841751098633,0.0542680025100708,-0.03797954320907593,0.018151193857192993,-0.9329681217835211,-1.074073256305507,-2.1158778121136037,-0.5234909057617188,0.8033908605575562,-0.2837609648704529,0.11783287674188614,0.7964693903923035,-0.0008396961493417621
3.805669069290161,-0.024834096431732178,-0.01883774995803833,0.015691816806793213,-0.9312666816824362,-1.0571814101397208,-2.1145621207886913,-0.519813060760498,0.8023765683174133,-0.2932339906692505,0.015496685169637203,0.811394214630127,-0.14068764448165894
3.826543092727661,-0.12301981449127197,0.0044310688972473145,0.03925246000289917,-0.9272902669175583,-1.0456251434489086,-2.1221118855728736,-0.5191462635993958,0.7999970316886902,-0.30081865191459656,-0.2129642367362976,0.9631764888763428,-0.4269426763057709
3.846525192260742,-0.13599514961242676,-0.018712401390075684,0.07712695002555847,-0.922163694408175,-1.0397869268164157,-2.1411104357355204,-0.5209108591079712,0.7969105839729309,-0.30591726303100586,-0.538106381893158,1.1210856437683105,-0.5654402375221252
3.8654561042785645,-0.0809851884841919,-0.02117455005645752,0.09374213218688965,-0.9191478189220648,-1.0406556506972127,-2.1704284234741027,-0.5232475996017456,0.795085072517395,-0.30667853355407715,-0.8063874840736389,1.1021482944488525,-0.5896885991096497
3.8866591453552246,-0.04405695199966431,0.012105762958526611,0.055509328842163086,-0.917387257157438,-1.048000339874453,-2.2049726249939874,-0.5266979932785034,0.7940160632133484,-0.3035257160663605,-0.9018102884292603,0.8988140821456909,-0.6413322687149048
3.9063360691070557,-0.10828882455825806,0.06662529706954956,0.02142539620399475,-0.9127828649303139,-1.0605441272672125,-2.2421630256452296,-0.5336484313011169,0.7912086248397827,-0.29867762327194214,-0.8318159580230713,0.8288449645042419,-0.8989673852920532
3.926248073577881,-0.22160083055496216,0.18789219856262207,-0.01431053876876831,-0.9027586714522575,-1.0739274247082726,-2.2800267464602113,-0.5445429086685181,0.7850387692451477,-0.2952750325202942,-0.7084996700286865,0.8494395017623901,-1.0630159378051758
3.9463541507720947,-0.275696337223053,0.3170360326766968,-0.029895544052124023,-0.8915178517753549,-1.0810921143082408,-2.3138516160080482,-0.5543969869613647,0.7780262231826782,-0.29549819231033325,-0.6469183564186096,1.0901894569396973,-0.8902028203010559
3.9661331176757812,-0.195520281791687,0.26653963327407837,0.002658843994140625,-0.8852595065310478,-1.0810166010030302,-2.3441168905706857,-0.5586605668067932,0.7740793228149414,-0.297824889421463,-0.7963418364524841,1.2383220195770264,-0.5470728278160095
3.986366033554077,-0.09582948684692383,0.11711275577545166,0.011332392692565918,-0.8865822878926747,-1.0802774125183368,-2.374508359721832,-0.5575366020202637,0.7749160528182983,-0.2977551221847534,-0.9044646620750427,1.1646251678466797,-0.26707151532173157
4.007534980773926,-0.05888444185256958,-0.019096314907073975,-0.03426086902618408,-0.8907839454729528,-1.0784142965440568,-2.399771097988827,-0.5541068315505981,0.7775649428367615,-0.2972515821456909,-0.6845020651817322,0.9852928519248962,-0.14364755153656006
4.026298999786377,-0.06562089920043945,-0.07709449529647827,-0.05105361342430115,-0.8928241024445384,-1.073558352368336,-2.4170019379397467,-0.551261305809021,0.7788461446762085,-0.29918140172958374,-0.3770771324634552,0.8712241053581238,-0.20599481463432312
4.045072078704834,-0.08407485485076904,-0.14119243621826172,-0.02533915638923645,-0.8908248990966758,-1.0656281461932782,-2.428930373649443,-0.5502328872680664,0.7775906920433044,-0.30429646372795105,-0.2157614380121231,0.8730157613754272,-0.32506832480430603
4.0661070346832275,-0.09709364175796509,-0.1822950839996338,0.0044290125370025635,-0.886871720280427,-1.0575920385610627,-2.441774508892621,-0.5504434704780579,0.775098979473114,-0.31021514534950256,-0.3218410611152649,0.9269748330116272,-0.42245346307754517
4.0857391357421875,-0.08130490779876709,-0.19361430406570435,0.008021444082260132,-0.8831326216296513,-1.0517233959300805,-2.4594350711039565,-0.5511260628700256,0.7727310657501221,-0.31487566232681274,-0.5003625154495239,1.0341477394104004,-0.4345729351043701
4.105961084365845,-0.001656651496887207,-0.2079411745071411,-0.0025489330291748047,-0.8824581154198585,-1.0486411765836323,-2.4828324716984174,-0.5506046414375305,0.7723027467727661,-0.3168328106403351,-0.7531279921531677,1.0686882734298706,-0.37224704027175903
4.12578010559082,0.09456843137741089,-0.2460450530052185,-0.024379104375839233,-0.8846509734489149,-1.049148329081635,-2.510730448470441,-0.5492954850196838,0.7736939191818237,-0.3157087564468384,-0.8616833686828613,1.0224604606628418,-0.31372907757759094
4.145784139633179,0.1712738275527954,-0.2570619583129883,-0.08223727345466614,-0.8874495715428181,-1.0509034590931938,-2.5373411254938296,-0.5479674339294434,0.7754639387130737,-0.31366726756095886,-0.7064648866653442,0.8777840733528137,-0.2975516617298126
4.165535926818848,0.21016192436218262,-0.23275399208068848,-0.13204360008239746,-0.8876419714915225,-1.0495452696419934,-2.556066973502388,-0.5474116802215576,0.775585412979126,-0.31433701515197754,-0.35690876841545105,0.7345342040061951,-0.2760118544101715
4.185496091842651,0.22515195608139038,-0.22091346979141235,-0.08960247039794922,-0.8864830060360319,-1.045166742495298,-2.5685102223382517,-0.5468071699142456,0.7748532891273499,-0.31718161702156067,-0.2935399115085602,0.6615577340126038,-0.21790622174739838
4.205474138259888,0.20397412776947021,-0.23115700483322144,-0.07026907801628113,-0.8858149944847138,-1.041370065903409,-2.5801911259688555,-0.5460455417633057,0.7744308710098267,-0.319516658782959,-0.33793073892593384,0.6243345141410828,-0.22803980112075806
4.2244250774383545,0.19637924432754517,-0.18787133693695068,-0.10320457816123962,-0.8846154971540272,-1.0401193641202473,-2.592689447071337,-0.5464462637901306,0.7736714482307434,-0.3206692934036255,-0.250916987657547,0.43633022904396057,-0.2692350149154663
4.244447231292725,0.20570909976959229,-0.1271694302558899,-0.14855796098709106,-0.8815109375765914,-1.040254244559129,-2.6009956483093766,-0.54855877161026,0.7717006802558899,-0.3218095004558563,-0.0191253162920475,0.2009238302707672,-0.2652425765991211
4.265546083450317,0.2028483748435974,-0.07191354036331177,-0.1435328722000122,-0.875957330252672,-1.0380830311041662,-2.60226591901244,-0.5515421628952026,0.7681567668914795,-0.3251713812351227,0.18282997608184814,0.13894310593605042,-0.2494494616985321
4.285185098648071,0.21112042665481567,-0.07865655422210693,-0.08910751342773438,-0.8698054243833536,-1.0337674782512838,-2.5999222477130033,-0.5541837215423584,0.7642034292221069,-0.329959899187088,0.2529345154762268,0.10466653853654861,-0.20185214281082153
4.305300235748291,0.23871463537216187,-0.10205477476119995,-0.08052718639373779,-0.8637570404060229,-1.0292300809992816,-2.5955609125615244,-0.5566315054893494,0.760288417339325,-0.3348475992679596,0.3139881193637848,-0.0044524045661091805,-0.18226252496242523
4.3265509605407715,0.26942354440689087,-0.07485806941986084,-0.10795658826828003,-0.8562643973766003,-1.0261955765216215,-2.5887050700635528,-0.5604696273803711,0.7554000616073608,-0.33947691321372986,0.4461897611618042,-0.21019776165485382,-0.23054295778274536
4.3464860916137695,0.2757066488265991,-0.046451568603515625,-0.1201498806476593,-0.8464544386907453,-1.0245156508252153,-2.578800643343677,-0.5662033557891846,0.7489356994628906,-0.3442513346672058,0.6196463704109192,-0.3448508083820343,-0.2606644034385681
4.366690158843994,0.28558772802352905,-0.043048739433288574,-0.10127544403076172,-0.8348098118794741,-1.022450964993303,-2.5660182501048716,-0.5728954076766968,0.7411688566207886,-0.34994223713874817,0.7140253186225891,-0.3993171751499176,-0.2880637049674988
4.386691093444824,0.33063238859176636,-0.07218897342681885,-0.011788696050643921,-0.822970552895877,-1.0192282868255453,-2.5508624169409493,-0.5791979432106018,0.7331691980361938,-0.3563601076602936,0.7630082368850708,-0.40625807642936707,-0.16970515251159668
4.405323028564453,0.36535292863845825,-0.10109454393386841,0.05780184268951416,-0.8123364449878788,-1.0159101758694706,-2.5337778069638435,-0.584606409072876,0.7258961796760559,-0.36236730217933655,0.8333003520965576,-0.5190503001213074,-0.1549409180879593
4.425151109695435,0.3502359986305237,-0.11266690492630005,0.08947530388832092,-0.7993889871198384,-1.0141260689567033,-2.5160106031682212,-0.5918894410133362,0.7169302701950073,-0.3683449923992157,0.8958113193511963,-0.5741361379623413,-0.30910274386405945
4.444845199584961,0.33962494134902954,-0.1745356321334839,0.13148951530456543,-0.7835099780462955,-1.0149044927943136,-2.5000145378630143,-0.6017708778381348,0.7057703733444214,-0.3738448917865753,0.8804935812950134,-0.6555423736572266,-0.44405466318130493
4.462818145751953,0.32911062240600586,-0.17136162519454956,0.12725919485092163,-0.765978807325243,-1.022869598867053,-2.4887917718229633,-0.6151976585388184,0.6932427883148193,-0.3754281997680664,0.7589017152786255,-0.9733357429504395,-0.6346718668937683
4.4845521450042725,0.2612677812576294,-0.05295509099960327,0.05171903967857361,-0.7482411843532922,-1.0402783851419384,-2.482407856405198,-0.6321479082107544,0.6803507804870605,-0.3708261549472809,0.4354473352432251,-1.1683984994888306,-0.6171571612358093
4.504646062850952,0.21531736850738525,-0.03143107891082764,0.13820374011993408,-0.7370231262608716,-1.0678835692111939,-2.48986210707986,-0.6487889885902405,0.6720865964889526,-0.3568927049636841,-0.3363421559333801,-1.042831301689148,-0.6515121459960938
4.522633075714111,0.21960115432739258,-0.06374514102935791,0.19381749629974365,-0.729787711118145,-1.0973768437004854,-2.508709299013365,-0.6633419394493103,0.6667114496231079,-0.33981361985206604,-0.389993280172348,-0.6170265674591064,-0.652496337890625
4.5445170402526855,0.2720069885253906,0.13618189096450806,0.22083169221878052,-0.7165497738882093,-1.112581961791769,-2.5168489249780093,-0.6762885451316833,0.6567868590354919,-0.3335636258125305,0.5841507315635681,-0.42759373784065247,-0.779586911201477
4.564513206481934,0.223871648311615,0.2508023977279663,0.2659260928630829,-0.6968711264729005,-1.1114305630760972,-2.5053936846297216,-0.6873572468757629,0.6418214440345764,-0.3400075137615204,0.7942277789115906,-0.17007581889629364,-0.626215398311615
4.584490060806274,0.03355318307876587,-0.004014194011688232,0.31770777702331543,-0.6806378494078474,-1.1128151724836102,-2.5043392388538095,-0.6970815658569336,0.6292888522148132,-0.3436172306537628,-0.02993718907237053,0.002179132541641593,-0.8203495144844055
4.6042799949646,-0.08087873458862305,-0.15144264698028564,0.36947017908096313,-0.669902847691753,-1.1208106685555221,-2.5247725402199723,-0.7058491110801697,0.6209098100662231,-0.34095150232315063,-0.9470122456550598,0.4224783182144165,-0.8663510680198669
4.624258995056152,-0.01723259687423706,-0.0015085339546203613,0.3416141867637634,-0.6615584267685762,-1.133880687921232,-2.5584780916857888,-0.7149146199226379,0.6143472790718079,-0.3338780105113983,-0.9443124532699585,0.2583557665348053,-0.9768413305282593
4.644158124923706,0.09683990478515625,0.07858461141586304,0.27423983812332153,-0.6488003690313153,-1.1483735481660804,-2.584529020180039,-0.726768434047699,0.6042309403419495,-0.3266690671443939,-0.3084389865398407,-0.09222140163183212,-1.1067396402359009
4.66318416595459,-0.017780065536499023,0.0775720477104187,0.23714309930801392,-0.6245730568546766,-1.155788842760843,-2.591920729463925,-0.7423517107963562,0.5847510099411011,-0.3270784318447113,0.7011480331420898,-0.1561017632484436,-1.3584558963775635
4.684004068374634,-0.10833990573883057,-0.006154656410217285,0.23270055651664734,-0.5892780205152194,-1.1560102547531461,-2.584732590244783,-0.7608464360237122,0.5557609796524048,-0.33502599596977234,1.2121472358703613,-0.31396517157554626,-1.6231098175048828
4.704009056091309,-0.12220042943954468,-0.09398329257965088,0.19814294576644897,-0.5477009434407843,-1.157218467268616,-2.571645329034864,-0.781745433807373,0.5207258462905884,-0.34310150146484375,1.4133480787277222,-0.4837178885936737,-1.7178938388824463
4.724076271057129,-0.1518755555152893,-0.08178406953811646,0.23077744245529175,-0.5047036179681395,-1.1615930885010726,-2.5583409042010516,-0.8030499815940857,0.48354804515838623,-0.34827011823654175,1.44399094581604,-0.6212472915649414,-1.7835997343063354
4.743854999542236,-0.24862343072891235,-0.0532127320766449,0.2947424352169037,-0.45943422956091373,-1.1672680031942548,-2.5428590131987425,-0.8243136405944824,0.4434410631656647,-0.35194769501686096,1.5703561305999756,-0.6115970015525818,-1.836597204208374
4.7636590003967285,-0.41269612312316895,-0.11744245886802673,0.3179630637168884,-0.4115053464584493,-1.170496211260646,-2.5247450092033765,-0.8440634608268738,0.39998945593833923,-0.3571629524230957,1.8142280578613281,-0.4605955183506012,-1.94076669216156
4.78370213508606,-0.5134007334709167,-0.05025327205657959,0.2496175765991211,-0.35691637709887,-1.1698876600167367,-2.5034605687236517,-0.862682580947876,0.349386602640152,-0.36566072702407837,2.3402037620544434,-0.3564089238643646,-2.4170751571655273
4.803661108016968,-0.4951896667480469,0.21035712957382202,-0.03548043966293335,-0.2850652353241362,-1.1700060025313024,-2.463246119242379,-0.8835944533348083,0.28122004866600037,-0.37440118193626404,3.958890914916992,-0.8318602442741394,-2.5371806621551514
4.823508262634277,-0.32412028312683105,0.31555986404418945,0.1332440972328186,-0.21307205176611627,-1.17304110341921,-2.405490682686358,-0.9010841250419617,0.21146346628665924,-0.3785902261734009,3.7243454456329346,-0.7205023169517517,-2.0002617835998535
4.843544006347656,-0.5118845701217651,0.09241384267807007,0.4214221239089966,-0.157797713137677,-1.16717891328553,-2.361495178334389,-0.9082202911376953,0.15714366734027863,-0.3878680169582367,2.262986421585083,0.5289539098739624,-1.3014627695083618
4.863386154174805,-0.49644893407821655,0.02973461151123047,0.5410101413726807,-0.13040953764851343,-1.1450826706457788,-2.3445556827748173,-0.9030108451843262,0.1300402134656906,-0.40946418046951294,0.5119685530662537,1.2583740949630737,-0.6502141356468201
4.883345127105713,-0.35964304208755493,0.13198530673980713,0.382668137550354,-0.12190222857817397,-1.123761734301499,-2.3449727675884944,-0.8950413465499878,0.12160053849220276,-0.4290854334831238,-0.026945339515805244,0.7679116129875183,-0.13952325284481049
4.902377128601074,-0.25881993770599365,0.1732582449913025,0.38052815198898315,-0.1232265065090975,-1.1150245631309277,-2.3448868278970743,-0.8911128640174866,0.1229148805141449,-0.43681782484054565,-0.018302064388990402,0.13713349401950836,0.25101763010025024
4.923343181610107,-0.43432778120040894,0.02512235939502716,0.4928736686706543,-0.1293364567561912,-1.1138096312922166,-2.33965022068085,-0.8898909687995911,0.12897616624832153,-0.4375605881214142,0.23625577986240387,0.09495052695274353,0.5084881782531738
4.943480968475342,-0.6570956707000732,-0.03999696671962738,0.5344735980033875,-0.13863092350329298,-1.1042207542894706,-2.326841652633825,-0.8845455050468445,0.13818730413913727,-0.4455149173736572,0.46875444054603577,0.6794440150260925,0.8423334956169128
4.962315082550049,-0.6869360208511353,-0.03578798472881317,0.29888415336608887,-0.1515561247475098,-1.090702149301298,-2.3062910129267644,-0.87678462266922,0.15097659826278687,-0.45656853914260864,0.710532009601593,0.25276556611061096,1.1457655429840088
4.983601093292236,-0.5675359964370728,-0.09153880178928375,0.14561420679092407,-0.166804702038274,-1.0881453465241786,-2.280745163100263,-0.8734734654426575,0.16603225469589233,-0.45768699049949646,0.6695294380187988,-0.28077781200408936,1.5291539430618286
5.003283977508545,-0.6587086319923401,-0.14619265496730804,0.18533799052238464,-0.19560970419091045,-1.090370259545442,-2.2612651823682306,-0.8698862195014954,0.19436465203762054,-0.45334339141845703,-0.2911528944969177,-0.2563004195690155,1.8957993984222412
5.0221099853515625,-0.7789124846458435,-0.15308918058872223,0.0735897421836853,-0.24084486459618,-1.0912017403581413,-2.2521478434993147,-0.8615751266479492,0.2385231852531433,-0.4481014907360077,-0.9312707781791687,-0.014852847903966904,2.542644500732422
5.043127059936523,-0.8693946599960327,0.0424235463142395,-0.10991385579109192,-0.2977409844613215,-1.0868324093537287,-2.2424847403892025,-0.8462119698524475,0.2933613359928131,-0.4448194205760956,-0.7887051105499268,0.15633229911327362,2.92667555809021
5.062861919403076,-0.9096851348876953,0.1393589973449707,-0.2979421615600586,-0.35624176317357026,-1.0795479683671756,-2.2215934601488514,-0.8263835310935974,0.3487544357776642,-0.4421091675758362,-0.22861143946647644,-0.10531590133905411,3.1921684741973877
5.082879066467285,-0.933699905872345,0.0974147617816925,-0.22444874048233032,-0.41547309110390934,-1.0716910093565608,-2.1915030895824317,-0.803314745426178,0.4036228060722351,-0.43792009353637695,-0.17988358438014984,-0.24859903752803802,3.3267018795013428
5.1028430461883545,-0.9855208396911621,-0.009911328554153442,-0.17941126227378845,-0.47718744698481763,-1.0664583596371973,-2.161486851899496,-0.7776932120323181,0.45928263664245605,-0.42924660444259644,-0.45713600516319275,-0.5137671232223511,3.37459397315979
5.122770071029663,-0.953525185585022,-0.024113357067108154,-0.11065828800201416,-0.5406739291852468,-1.066473530658058,-2.1384400386626408,-0.7506220936775208,0.5147138833999634,-0.4142898917198181,-0.8366952538490295,-0.5165161490440369,3.1558403968811035
5.141740083694458,-0.9402321577072144,-0.08579421043395996,-0.1087612509727478,-0.6009099012161107,-1.069939459439786,-2.124346837398984,-0.7235098481178284,0.5653932094573975,-0.396060585975647,-0.9463139176368713,-0.6256702542304993,2.7057607173919678
5.162713050842285,-0.7015312910079956,-0.014274239540100098,-0.19295734167099,-0.6558587538257648,-1.0776172148674201,-2.114036285257823,-0.6980811357498169,0.6098400354385376,-0.3752036988735199,-0.9232041835784912,-0.7849108576774597,2.5002541542053223
5.181571006774902,-0.6992496848106384,0.023448169231414795,-0.21249821782112122,-0.7044141619885521,-1.088820733811849,-2.1067383286458727,-0.6751856207847595,0.6475875377655029,-0.3532061278820038,-0.8618873357772827,-0.7038756608963013,2.1086266040802
5.201636075973511,-0.7045124769210815,0.01387101411819458,-0.16289344429969788,-0.7456101685941497,-1.0990197093113026,-2.104577826337708,-0.6544198989868164,0.6784201860427856,-0.333886981010437,-0.9132067561149597,-0.490980327129364,1.6253072023391724
5.22154426574707,-0.47689610719680786,0.007016301155090332,-0.14639651775360107,-0.7816122880536562,-1.1147979573770799,-2.1131303054323856,-0.6372548341751099,0.7044246792793274,-0.3125573694705963,-1.2861614227294922,-0.5068441033363342,1.366720199584961
5.241518020629883,-0.3752472400665283,0.0099143385887146,-0.1162964403629303,-0.8146002378683423,-1.1383117774825267,-2.132178123577842,-0.6229826211929321,0.7274513840675354,-0.2875884771347046,-1.3214836120605469,-0.46043992042541504,1.0424636602401733
5.262452125549316,-0.33408182859420776,0.09392201900482178,-0.10476917028427124,-0.8401781976523746,-1.1640847032904305,-2.1551879588280194,-0.61289381980896,0.7447620630264282,-0.26399004459381104,-1.1875168085098267,-0.4434729218482971,0.6808159947395325
5.282275199890137,-0.1975620985031128,0.1031997799873352,-0.03425002098083496,-0.8598533730762795,-1.1917322848465164,-2.181518962055157,-0.6062250733375549,0.7577468752861023,-0.24147634208202362,-1.208032488822937,-0.3661884069442749,0.46996796131134033
5.302305221557617,-0.11460107564926147,0.11554402112960815,-0.015976354479789734,-0.8753803049644993,-1.2221154032249089,-2.212240502773108,-0.6021499633789062,0.7677872180938721,-0.21890220046043396,-1.2268610000610352,-0.33929306268692017,0.2810472249984741
5.322394132614136,0.025597214698791504,0.13093984127044678,-0.01084272563457489,-0.888148687543313,-1.255985565873338,-2.2464529741951487,-0.5998464226722717,0.775905191898346,-0.1953340619802475,-1.2072288990020752,-0.417199045419693,0.24333767592906952
5.343037128448486,0.11348468065261841,0.12300002574920654,-0.08445863425731659,-0.8975478638498489,-1.2886047678658328,-2.2771369899050824,-0.5988666415214539,0.7818002700805664,-0.173628568649292,-0.8671824336051941,-0.3561352491378784,0.05857541412115097
5.362112998962402,0.17659813165664673,0.11161065101623535,-0.08899129927158356,-0.8994204081815849,-1.311575079300612,-2.3015659433674798,-0.6012808084487915,0.7829664945602417,-0.15945236384868622,-0.7116720080375671,-0.03936165198683739,-0.22841741144657135
5.3834381103515625,0.32195544242858887,-0.0463947057723999,-0.0760875940322876,-0.9002065039161444,-1.3322227548589989,-2.328295925294456,-0.6038462519645691,0.7834552526473999,-0.14685864746570587,-0.9503109455108643,-0.0037654866464436054,-0.13351963460445404
5.401924133300781,0.4085981845855713,-0.014205574989318848,-0.048251211643218994,-0.902676858588002,-1.3583960613935442,-2.362195261992438,-0.6055890917778015,0.7849880456924438,-0.13059712946414948,-1.109641194343567,0.10601400583982468,-0.08238312602043152
5.4218339920043945,0.4976917505264282,-0.0865708589553833,-0.015408113598823547,-0.9054536146244476,-1.3835013127416256,-2.3977511453234097,-0.6065326929092407,0.7867052555084229,-0.11494780331850052,-1.0999606847763062,0.09650500863790512,-0.06592874974012375
5.440927028656006,0.5615797638893127,-0.11042219400405884,-0.021257631480693817,-0.9081055748669487,-1.407301016398473,-2.429507374383172,-0.6070355772972107,0.7883396148681641,-0.10014135390520096,-0.8271158933639526,0.0909690111875534,0.018021421507000923
5.4617109298706055,0.5857664346694946,-0.0852479338645935,-0.030059583485126495,-0.911540456792441,-1.4241420438759378,-2.452646302128857,-0.6059538125991821,0.7904482483863831,-0.08950834721326828,-0.6009795069694519,0.048299841582775116,0.06203228980302811
5.481736183166504,0.6393290758132935,-0.12314790487289429,-0.03743880242109299,-0.9183412083572257,-1.4327739717502672,-2.4657325659306966,-0.6013650894165039,0.7945955991744995,-0.08353294432163239,-0.4324101507663727,0.035810332745313644,0.40550705790519714
5.501596927642822,0.6680116653442383,-0.2538090944290161,-0.030292510986328125,-0.9281816343416583,-1.442199271542733,-2.4771546450916726,-0.5943421721458435,0.8005315065383911,-0.07685477286577225,-0.3453899323940277,-0.1340102255344391,0.5910224914550781
5.5215911865234375,0.6913561820983887,-0.30208033323287964,-0.06442790478467941,-0.9419170699732782,-1.4541229590307534,-2.4848796924078247,-0.5842394232749939,0.8086872696876526,-0.06847617775201797,-0.33991751074790955,-0.4450685977935791,0.7015303373336792
5.541670083999634,0.6296961903572083,-0.27697622776031494,-0.09632211923599243,-0.9584685478730327,-1.4662629632205662,-2.488752532468372,-0.5716364979743958,0.8183122873306274,-0.059973690658807755,-0.023753222078084946,-0.4119153320789337,0.9669188261032104
5.561622142791748,0.5990403294563293,-0.32152724266052246,-0.1362593173980713,-0.9779251380395367,-1.471004299365261,-2.4836288822509083,-0.5559647679328918,0.829339861869812,-0.0556657575070858,0.1092398464679718,-0.507020115852356,0.9492654204368591
5.580437183380127,0.6018362045288086,-0.4126799702644348,-0.13199269771575928,-0.9960234365755996,-1.4804436708301465,-2.479316976018432,-0.5414266586303711,0.8393157720565796,-0.049052894115448,-0.010057570412755013,-0.7645056247711182,0.9190810322761536
5.6008620262146,0.5492551326751709,-0.4147804379463196,-0.15990883111953735,-1.0150430623687536,-1.4911122392538083,-2.4738303622685733,-0.5259090662002563,0.8495032787322998,-0.04199550300836563,0.17892105877399445,-0.8198437094688416,0.9354830980300903
5.621232986450195,0.4777877926826477,-0.30204451084136963,-0.17852377891540527,-1.0316871132803898,-1.4952208332616876,-2.458125342387001,-0.5119064450263977,0.8581663370132446,-0.038761407136917114,0.5763322710990906,-0.9386148452758789,0.8192919492721558
5.641123056411743,0.4314654469490051,-0.09649193286895752,-0.22566527128219604,-1.0469794135645847,-1.478390023118975,-2.416414426245298,-0.49805474281311035,0.8659163117408752,-0.04615484178066254,1.3672901391983032,-0.9067735075950623,0.9183942675590515
5.660069942474365,0.433307945728302,-0.08944946527481079,-0.1022908017039299,-1.0617965465408437,-1.4412294878449643,-2.3546714911644098,-0.4832193851470947,0.873232364654541,-0.06296192854642868,1.4364763498306274,-0.7046827673912048,0.8973726034164429
5.681088924407959,0.45342129468917847,-0.3113775849342346,-0.0188453271985054,-1.0747956084401877,-1.404560087022641,-2.299488339997124,-0.46935150027275085,0.8794928789138794,-0.07874996960163116,0.975656270980835,-0.5304585099220276,0.7041741013526917
5.702692031860352,0.5190109014511108,-0.3860548734664917,-0.04914451390504837,-1.083687583946201,-1.3834546155494563,-2.262595103499248,-0.45988309383392334,0.8836898803710938,-0.0871775671839714,0.6288391351699829,-0.7122370004653931,0.48068615794181824
5.722315073013306,0.5584543943405151,-0.2143000364303589,-0.12915098667144775,-1.0878396382256785,-1.3684328231739513,-2.2256170860850104,-0.45492345094680786,0.8856257200241089,-0.09333748370409012,1.0769381523132324,-1.020009160041809,0.266701877117157
5.740080118179321,0.45476993918418884,0.03880077600479126,-0.13248515129089355,-1.084524457923198,-1.331828013964881,-2.1626139127460213,-0.45405274629592896,0.8840813040733337,-0.11061792075634003,1.8681057691574097,-0.7717047929763794,0.1046513095498085
5.760959148406982,0.4092830717563629,-0.0661429762840271,0.08021622896194458,-1.0753505555230447,-1.2639212952073489,-2.079124557822261,-0.453213095664978,0.8797568678855896,-0.14361657202243805,2.069153308868408,0.1659899801015854,-0.05199023708701134
5.781077146530151,0.40309587121009827,-0.2500571012496948,0.014195740222930908,-1.0551843427333367,-1.1886114062908042,-2.001527999303891,-0.4574934244155884,0.8699911236763,-0.1838887482881546,2.085041046142578,0.496459424495697,-0.5187377333641052
5.8006792068481445,0.48554354906082153,-0.23695355653762817,-0.09826582670211792,-1.0292607328660068,-1.1322184971179536,-1.9463691198714337,-0.46666836738586426,0.8569181561470032,-0.21888814866542816,1.3533645868301392,0.3084879219532013,-0.788818359375
5.822205066680908,0.42444029450416565,-0.3500080704689026,-0.048839449882507324,-1.002277044561784,-1.1213905900713428,-1.9356387295843032,-0.4849260747432709,0.8426991105079651,-0.23389068245887756,0.4027694761753082,-0.1416574865579605,-1.4040383100509644
5.8413920402526855,0.3377416729927063,-0.2839224934577942,0.10999521613121033,-0.9744259395602177,-1.132155149848377,-1.9472132522827745,-0.5084723234176636,0.827379584312439,-0.2385353446006775,0.41139233112335205,0.25897249579429626,-1.2630400657653809
5.86087703704834,0.17658758163452148,-0.14209455251693726,0.1346156895160675,-0.9420771866794447,-1.1128399189721776,-1.938413114949235,-0.5275090932846069,0.8087814450263977,-0.2600124478340149,1.5619994401931763,0.7634634375572205,-1.6173779964447021
5.8809661865234375,0.015005826950073242,0.04440033435821533,-0.09250399470329285,-0.8878452381402074,-1.0768145684497985,-1.9051852775005884,-0.5556398630142212,0.7757136821746826,-0.29921966791152954,2.4639692306518555,0.14738045632839203,-2.1839442253112793
5.900835990905762,0.05418664216995239,-0.15221136808395386,-0.015942245721817017,-0.8295309690551415,-1.0691477620721228,-1.888314444285219,-0.5920283794403076,0.7376147508621216,-0.32469499111175537,0.9767133593559265,-0.7139172554016113,-2.4700558185577393
5.9203572273254395,-0.1770455241203308,-0.42364180088043213,0.11455047130584717,-0.7829161319904359,-1.114655445962968,-1.9241394455175176,-0.6363852024078369,0.7053495645523071,-0.31224337220191956,-0.7083189487457275,-0.8933983445167542,-2.594373941421509
5.940636157989502,-0.5393708348274231,-0.3030247688293457,0.12205502390861511,-0.7462142818815296,-1.1518823327496124,-1.9706896083654466,-0.6707730889320374,0.6788639426231384,-0.298675537109375,-0.48713064193725586,0.19873657822608948,-2.4986112117767334
5.962087154388428,-0.8817920088768005,0.2574605345726013,-0.18292760848999023,-0.6888325364863488,-1.1626318382492364,-1.992591295098352,-0.7085704803466797,0.6356363296508789,-0.30642178654670715,1.2201521396636963,-0.006747073493897915,-3.311687469482422
5.979030132293701,-0.7821356654167175,0.298534095287323,-0.22131919860839844,-0.6147892333598959,-1.1688341623906158,-1.9932285499952342,-0.7517845630645752,0.5767863392829895,-0.31958967447280884,1.3900917768478394,-0.5200016498565674,-3.408538579940796
5.999951124191284,-0.8190582394599915,-0.12830936908721924,-0.01666286587715149,-0.5518992196895987,-1.1834833737507793,-2.0032034694579224,-0.7884551286697388,0.5243054032325745,-0.3216244876384735,0.15971049666404724,-0.3004123270511627,-2.676187515258789
6.019508123397827,-0.829304575920105,-0.06959158182144165,0.02867034077644348,-0.5089262910625668,-1.2008992225353758,-2.0295501736325217,-0.8142042756080627,0.48723989725112915,-0.31570345163345337,-0.47569382190704346,-0.17698387801647186,-2.155970573425293
6.0414581298828125,-0.5173633694648743,0.13554754853248596,-0.08109927177429199,-0.4802167095319239,-1.215486300539793,-2.0529409758241504,-0.8314982652664185,0.46197137236595154,-0.3085339367389679,-0.33947017788887024,-0.1640162318944931,-1.2494336366653442
6.061373233795166,-0.3358164429664612,0.12630611658096313,-0.10411262512207031,-0.4663416663054562,-1.2213905483877254,-2.0611256936792945,-0.8392475843429565,0.44962161779403687,-0.3057842552661896,0.11106184870004654,-0.024655144661664963,-0.33091145753860474
6.079962253570557,-0.2621380090713501,0.03163796663284302,-0.07318839430809021,-0.46443224111518894,-1.2160373067496855,-2.053835155232468,-0.8384020328521729,0.447915256023407,-0.3105701506137848,0.5867316722869873,0.20308880507946014,0.3304990530014038
6.101239204406738,-0.2457447648048401,-0.08212760090827942,-0.11141714453697205,-0.46798089092954026,-1.2019986905576348,-2.0327829678188376,-0.8324718475341797,0.4510851800441742,-0.3217341899871826,1.0142794847488403,0.2575695514678955,0.6640530228614807
6.120579242706299,-0.22645044326782227,-0.17595970630645752,-0.07560265064239502,-0.4753700511557202,-1.18461779917036,-2.006001477252197,-0.8236440420150757,0.4576674997806549,-0.33488932251930237,0.8242456316947937,0.2641679644584656,0.8689164519309998
6.1400041580200195,-0.22901010513305664,-0.2902582287788391,0.008727014064788818,-0.4885033750910863,-1.1706268038034,-1.9878748945087148,-0.8132719993591309,0.4693048298358917,-0.3440083861351013,0.11150947213172913,0.32069405913352966,0.987010657787323
6.160038948059082,-0.20967638492584229,-0.33313122391700745,0.009239166975021362,-0.5082682261653114,-1.1625569722209137,-1.983550837647441,-0.8017981052398682,0.48666512966156006,-0.34680938720703125,-0.444786012172699,0.2686884105205536,0.9671755433082581
6.180391073226929,-0.15692907571792603,-0.24816572666168213,-0.04459521174430847,-0.5293838096752248,-1.1590811675884565,-1.984436102647951,-0.7909925580024719,0.5050016045570374,-0.3454042077064514,-0.40276166796684265,0.13968275487422943,0.9692097902297974
6.2001051902771,-0.09946602582931519,-0.20086067914962769,-0.08595266938209534,-0.5492264422444825,-1.1569359884611834,-1.9819308075807787,-0.7809202075004578,0.5220276117324829,-0.34300243854522705,-0.1840415894985199,0.014761680737137794,0.9623042941093445
6.220004081726074,-0.10356408357620239,-0.21171945333480835,-0.06423833966255188,-0.5686036720910448,-1.1520086177492832,-1.974995118155007,-0.7698338031768799,0.5384559631347656,-0.3426678776741028,-0.14417120814323425,0.11840693652629852,1.0434099435806274
6.23998498916626,-0.16260665655136108,-0.1946401596069336,-0.022063612937927246,-0.5890135321062745,-1.1462260910449025,-1.9714100361870617,-0.7576661109924316,0.5555410385131836,-0.34251469373703003,-0.46847182512283325,0.31915009021759033,0.9888659119606018
6.260013103485107,-0.1579223871231079,-0.22643595933914185,-0.008987486362457275,-0.6130799882101376,-1.1412583055061134,-1.9769106479996312,-0.7435820698738098,0.5753892660140991,-0.340606689453125,-0.9542800188064575,0.48823559284210205,1.037216305732727
6.280004024505615,-0.1250719428062439,-0.23607319593429565,0.006427466869354248,-0.6424275561092107,-1.1416639165662907,-1.9948310061008112,-0.7280469536781311,0.5991408228874207,-0.33313342928886414,-1.4738030433654785,0.5314804315567017,1.055922031402588
6.3000030517578125,-0.10788989067077637,-0.19913625717163086,-0.0046350955963134766,-0.6743224881736658,-1.1431648586084469,-2.0160328624843222,-0.7107898592948914,0.6243682503700256,-0.3239477574825287,-1.3275190591812134,0.6287059187889099,1.132933259010315
6.320082187652588,-0.09961742162704468,-0.08042186498641968,-0.043385982513427734,-0.7029978035174931,-1.138264526592437,-2.0290191278341907,-0.6926493644714355,0.6465076208114624,-0.31978851556777954,-0.7675504088401794,0.627209484577179,1.0644818544387817
6.34000825881958,-0.08351993560791016,-0.03565490245819092,-0.05997231602668762,-0.7252738444034008,-1.1272586687065862,-2.029996550378796,-0.6759098768234253,0.6633403897285461,-0.3211311995983124,-0.30075275897979736,0.5827322006225586,0.9545449614524841
6.360582113265991,-0.10504007339477539,-0.1059654951095581,-0.052642643451690674,-0.7437344100160774,-1.1150957434548359,-2.028153342832103,-0.6608443260192871,0.6770409345626831,-0.3238833248615265,-0.45730602741241455,0.5462871789932251,0.7773074507713318
6.380040168762207,-0.09968781471252441,-0.200303852558136,-0.006605178117752075,-0.7631191875448057,-1.1097133150407075,-2.0376921093020655,-0.6472145318984985,0.6911789774894714,-0.3215351104736328,-1.0607179403305054,0.6676526069641113,0.7130392789840698
6.400107145309448,-0.06394392251968384,-0.17797547578811646,0.001890420913696289,-0.7878579989705989,-1.1143520685626296,-2.0638254213789504,-0.6331537961959839,0.708844006061554,-0.31089621782302856,-1.6398329734802246,0.6720990538597107,0.6740216016769409
6.420088052749634,-0.03056281805038452,-0.06411153078079224,-0.03921002149581909,-0.8137636198001738,-1.1247305840716537,-2.097185069038626,-0.6195683479309082,0.7268770337104797,-0.2962850034236908,-1.5124067068099976,0.7080807685852051,0.6764728426933289
6.44005823135376,0.01832592487335205,0.034508466720581055,-0.0708317756652832,-0.8360200431629609,-1.1303789507867652,-2.1240722318526326,-0.6064453721046448,0.7419807314872742,-0.2858119606971741,-1.076883316040039,0.6833087801933289,0.5101944804191589
6.460087060928345,0.05358201265335083,0.044686317443847656,-0.10974383354187012,-0.8501045909901498,-1.1309749947939869,-2.1419981994783734,-0.597100019454956,0.7513494491577148,-0.28097274899482727,-0.6569830775260925,0.6019996404647827,0.3026324212551117
6.480027198791504,0.10315179824829102,-0.0034824013710021973,-0.0875055193901062,-0.8610121016862727,-1.1314100527941091,-2.158346317005815,-0.5897697806358337,0.7585024833679199,-0.2772100865840912,-0.8458974957466125,0.6055896282196045,0.2237301617860794
6.500060081481934,0.12166094779968262,-0.04164546728134155,-0.05850464105606079,-0.8728731961843657,-1.1395362335432373,-2.1850725778149256,-0.5837885737419128,0.7661784887313843,-0.2686285972595215,-1.251932144165039,0.641082227230072,0.15433938801288605
6.520057201385498,0.1537705659866333,-0.022634565830230713,-0.046229153871536255,-0.8871733059464249,-1.1550275096636269,-2.222567806805262,-0.5777969360351562,0.7752894759178162,-0.25510144233703613,-1.4746265411376953,0.6818795204162598,0.1569393128156662
6.540063142776489,0.1800401210784912,0.058477818965911865,-0.10489235818386078,-0.8996436604615391,-1.1747995924407633,-2.264181635288642,-0.5737625956535339,0.7831053733825684,-0.23987998068332672,-1.352063536643982,0.58204585313797,-0.056437503546476364
6.560039043426514,0.20976388454437256,0.13368666172027588,-0.17495286464691162,-0.9064724880554424,-1.1945949604917618,-2.3026789625163135,-0.5734112858772278,0.7873338460922241,-0.22650590538978577,-1.1543155908584595,0.4594738185405731,-0.21922841668128967
6.580005168914795,0.2293291687965393,0.1418626308441162,-0.1655326932668686,-0.908087270971924,-1.2130349668570548,-2.3377720369239916,-0.5762986540794373,0.7883283495903015,-0.215448796749115,-0.9609284996986389,0.48163166642189026,-0.3478696346282959
6.600006103515625,0.28054100275039673,0.08709865808486938,-0.13644516468048096,-0.9094031359842337,-1.2306125510688615,-2.3719789831464304,-0.5790181159973145,0.7891373038291931,-0.20493978261947632,-1.0725806951522827,0.45144569873809814,-0.2529991567134857
6.620004177093506,0.2797366976737976,0.13450443744659424,-0.15894559025764465,-0.9111248147958952,-1.2521855856066844,-2.4089068451009963,-0.5820133090019226,0.7901936173439026,-0.19197608530521393,-1.1031705141067505,0.3079102039337158,-0.3480429947376251
6.6400041580200195,0.23645448684692383,0.22843527793884277,-0.18219375610351562,-0.9097600812567246,-1.2754098997403378,-2.4453055284335328,-0.587345540523529,0.7893564701080322,-0.17872242629528046,-0.9736961126327515,0.26237308979034424,-0.43780332803726196
6.660016059875488,0.25487446784973145,0.26752769947052,-0.18208907544612885,-0.9059674505454116,-1.2950570142805353,-2.476098354255711,-0.5936194658279419,0.7870223522186279,-0.16796281933784485,-0.7079240083694458,0.18707938492298126,-0.4313563406467438
6.680005073547363,0.294253945350647,0.3026474714279175,-0.19698990881443024,-0.9021530027870805,-1.3064740197161142,-2.4939447019688226,-0.5983921885490417,0.7846634387969971,-0.16195787489414215,-0.22157473862171173,0.09151141345500946,-0.20952342450618744
6.700006008148193,0.2732865810394287,0.3161581754684448,-0.17682570219039917,-0.8994391990967334,-1.303981132637866,-2.493294988163699,-0.6000382304191589,0.7829781770706177,-0.16400988399982452,0.28821197152137756,0.07867798954248428,-0.0718514621257782
6.720004081726074,0.21746736764907837,0.24974805116653442,-0.12323321402072906,-0.8967762786116675,-1.292907513809819,-2.4811440405354848,-0.6001883149147034,0.7813189625740051,-0.17121568322181702,0.4704324007034302,0.07820501178503036,0.009963142685592175
6.7400102615356445,0.15315097570419312,0.1860533356666565,-0.09807997941970825,-0.8947323887949662,-1.2786326955517426,-2.4658638470652856,-0.5992111563682556,0.7800416350364685,-0.18022510409355164,0.480169415473938,0.15797823667526245,0.045070379972457886
6.760004043579102,0.11630672216415405,0.1579006314277649,-0.05319619178771973,-0.893076182498928,-1.2624522993543237,-2.4510278929810205,-0.5974467992782593,0.7790042757987976,-0.19028834998607635,0.42296382784843445,0.28449490666389465,0.07523814588785172
6.780004978179932,0.12981927394866943,0.10732138156890869,-0.0156019926071167,-0.8927055113550044,-1.2479173610016276,-2.4398675159605143,-0.5948918461799622,0.7787717580795288,-0.1990434229373932,0.27942195534706116,0.3076038360595703,0.11039716005325317
6.800032138824463,0.13309532403945923,0.06052011251449585,0.011572837829589844,-0.8942434272758898,-1.2340110265515802,-2.430471780429238,-0.590935230255127,0.7797356247901917,-0.20690062642097473,0.23380260169506073,0.35047197341918945,0.24223029613494873
6.820003986358643,0.10233849287033081,0.07141357660293579,0.025863364338874817,-0.8978115559107014,-1.217626107076511,-2.4187903430358566,-0.5848518013954163,0.7819646596908569,-0.2155911773443222,0.3418560028076172,0.37238943576812744,0.31409433484077454
6.840004920959473,0.08656030893325806,0.054186463356018066,0.032395139336586,-0.9007544498190049,-1.198353910207069,-2.4047341321274582,-0.5784425139427185,0.7837956547737122,-0.2259834259748459,0.3972850739955902,0.40606340765953064,0.26294445991516113
6.860012054443359,0.1112515926361084,-0.018254756927490234,0.04250657558441162,-0.9032033557510696,-1.1778562574889166,-2.389046088711451,-0.5719143748283386,0.78531414270401,-0.2370561808347702,0.3893521726131439,0.41510775685310364,0.33178552985191345
6.880005121231079,0.1353449821472168,-0.08369749784469604,0.06158304214477539,-0.9068063840345575,-1.157687279776427,-2.373997222958126,-0.5644221305847168,0.7875396609306335,-0.24740460515022278,0.32198625802993774,0.39499431848526,0.3434416651725769
6.900004148483276,0.14111900329589844,-0.11919677257537842,0.0550401508808136,-0.9107653102172859,-1.1390417054093174,-2.3598018146959436,-0.5568752288818359,0.7899731993675232,-0.256578266620636,0.32598477602005005,0.3543854057788849,0.36701303720474243
6.920058250427246,0.1463383436203003,-0.11701565980911255,0.038844287395477295,-0.9141835275130646,-1.1194459760884257,-2.3437202169533227,-0.549307644367218,0.7920644283294678,-0.2662612795829773,0.443042129278183,0.33112961053848267,0.3572159707546234
6.940006256103516,0.14415812492370605,-0.12219858169555664,0.026627838611602783,-0.9161273950761271,-1.096214630779984,-2.3234835923751156,-0.5416037440299988,0.7932495474815369,-0.27824530005455017,0.5354136228561401,0.39944660663604736,0.3733764588832855
6.959143161773682,0.14495223760604858,-0.1487300992012024,0.046781957149505615,-0.9176770187692364,-1.0709898062087737,-2.3026278268762743,-0.5333341360092163,0.7941921949386597,-0.291227787733078,0.5084958076477051,0.4539632797241211,0.35500267148017883
6.980006217956543,0.1436772346496582,-0.1443595290184021,0.04687514901161194,-0.9190483859697238,-1.0468577328255912,-2.2832199414380248,-0.5252078771591187,0.7950247526168823,-0.30346691608428955,0.45097824931144714,0.4290968179702759,0.35447660088539124
7.000011920928955,0.1215241551399231,-0.09447228908538818,0.05686795711517334,-0.9209775252405011,-1.0249536526152396,-2.2666722913290536,-0.5171234607696533,0.7961934208869934,-0.31410062313079834,0.3257307708263397,0.44298848509788513,0.30323049426078796
7.020005226135254,0.07792335748672485,-0.05742532014846802,0.04321014881134033,-0.9225955976168878,-1.0055352804678035,-2.2532443383489493,-0.5098385810852051,0.797171413898468,-0.3233920633792877,0.27779248356819153,0.44787663221359253,0.2654915452003479
7.040006160736084,0.0372769832611084,0.0050858259201049805,0.03361153602600098,-0.9234369072113462,-0.9862859715857252,-2.2412550463120575,-0.5029599070549011,0.79767906665802,-0.332775354385376,0.28696367144584656,0.5221844911575317,0.19396623969078064
7.060019016265869,0.03442186117172241,0.03282451629638672,0.05219501256942749,-0.9235411468027628,-0.9665580921228346,-2.2309215392617108,-0.49622905254364014,0.7977419495582581,-0.3425850570201874,0.2165093570947647,0.6266216039657593,0.17041553556919098
7.0800089836120605,0.04728683829307556,0.0201035737991333,0.049732863903045654,-0.9241658490591694,-0.9475611866265574,-2.222958301112095,-0.4892270863056183,0.7981184720993042,-0.35165852308273315,0.13839639723300934,0.6118835806846619,0.1466251164674759
7.100043058395386,0.01429140567779541,0.03791475296020508,0.03738519549369812,-0.9243364000615703,-0.9307376818832708,-2.2172148540637493,-0.4831329584121704,0.798221230506897,-0.3597576916217804,0.11181236058473587,0.6327809691429138,0.05674133822321892
7.120006084442139,-0.0475383996963501,0.037809133529663086,0.061424702405929565,-0.9240302471964116,-0.9176701350793395,-2.2175236553393884,-0.4785845875740051,0.7980367541313171,-0.36618852615356445,-0.1287408024072647,0.7125381231307983,-0.10676442086696625
7.140005111694336,-0.08346840739250183,0.010906696319580078,0.06486928462982178,-0.924614971533812,-0.9114227254218603,-2.228271777403312,-0.4759187400341034,0.7983889579772949,-0.36888542771339417,-0.43259236216545105,0.7532285451889038,-0.2305489480495453
7.160031080245972,-0.059894293546676636,0.008575022220611572,0.05853655934333801,-0.9268431815739808,-0.9124683679755768,-2.247741240898594,-0.4748956263065338,0.7997286915779114,-0.3672981560230255,-0.6047187447547913,0.6914954781532288,-0.3111124634742737
7.1800432205200195,-0.05308908224105835,0.03541851043701172,0.05860009789466858,-0.928924785255234,-0.9186733976103225,-2.2720875840745878,-0.4758414924144745,0.8009766936302185,-0.3633333444595337,-0.6836628317832947,0.6497018337249756,-0.4537200927734375
7.200006008148193,-0.10298845171928406,0.05263239145278931,0.037627607583999634,-0.9285648255421051,-0.9317470884365433,-2.303361608701787,-0.4807822108268738,0.8007611036300659,-0.35725343227386475,-0.8348183035850525,0.5372134447097778,-0.6787606477737427
7.220005989074707,-0.1858997941017151,0.15963196754455566,-0.017446398735046387,-0.928734991428763,-0.9541957735309836,-2.3436032244192653,-0.4885691702365875,0.8008630275726318,-0.346292644739151,-1.0773568153381348,0.5121614933013916,-0.7125881910324097
7.240005970001221,-0.2487199306488037,0.26142656803131104,-0.03867116570472717,-0.930438651300653,-0.9734497600033788,-2.38395581394372,-0.4940167963504791,0.8018820881843567,-0.3360541760921478,-0.9814998507499695,0.7675074338912964,-0.47205403447151184
7.260005950927734,-0.11773708462715149,0.22765487432479858,-0.04168522357940674,-0.9352108498113046,-0.9815789953004332,-2.413346445966065,-0.4935452342033386,0.8047242760658264,-0.32989683747291565,-0.6940400004386902,0.7350184917449951,-0.1339038461446762
7.280091047286987,-0.017540067434310913,0.11204642057418823,-0.03922209143638611,-0.9398653522174533,-0.9787428221229135,-2.42627939010716,-0.4894941449165344,0.807478666305542,-0.3292013704776764,-0.1964818686246872,0.5987048745155334,0.0680851861834526
7.300049066543579,-0.02599814534187317,-0.011983513832092285,-0.06232482194900513,-0.9408859147451286,-0.9669871905311974,-2.424155413287919,-0.48491185903549194,0.80808025598526,-0.33446475863456726,0.21589161455631256,0.404781699180603,0.04081300273537636
7.320004940032959,-0.09295913577079773,-0.07818734645843506,-0.11140179634094238,-0.9363085629022642,-0.952647298116172,-2.4151478530864074,-0.483075350522995,0.8053754568099976,-0.3435237407684326,0.4511255919933319,0.33712276816368103,-0.11587078869342804
7.340006113052368,-0.13296258449554443,-0.09699594974517822,-0.08227851986885071,-0.9287952235688308,-0.9385856507435174,-2.40803567138195,-0.4830651581287384,0.800899088382721,-0.3538481891155243,0.26893579959869385,0.529844343662262,-0.2503761351108551
7.3599772453308105,-0.11844077706336975,-0.17148441076278687,-0.01836487650871277,-0.9238595731857393,-0.9299017905366299,-2.4134050901274713,-0.4831368625164032,0.7979338765144348,-0.36038878560066223,-0.26596149802207947,0.7467309832572937,-0.31840023398399353
7.380156993865967,-0.0026053190231323242,-0.2552480697631836,-0.021364688873291016,-0.925495263913835,-0.9304532838041852,-2.4329896854761004,-0.4822884500026703,0.7989187240600586,-0.359342098236084,-0.7140209078788757,0.7291681170463562,-0.25612837076187134
7.400007247924805,0.13921594619750977,-0.2455846071243286,-0.04690900444984436,-0.9306045319219465,-0.9360461185878393,-2.456472461628781,-0.48099756240844727,0.8019812107086182,-0.354214072227478,-0.6358429193496704,0.582848072052002,-0.17171914875507355
7.420016050338745,0.21606981754302979,-0.2011381983757019,-0.09612652659416199,-0.9333209753463281,-0.9372481745421988,-2.4691738025672616,-0.4796653091907501,0.8036009073257446,-0.3523445129394531,-0.08301904797554016,0.3058122396469116,-0.06743241846561432
7.440045118331909,0.1928407847881317,-0.22534549236297607,-0.126825749874115,-0.9298794537105399,-0.9302026122247108,-2.4654587205937406,-0.4793855547904968,0.8015478849411011,-0.357366144657135,0.3983197808265686,0.12760025262832642,-0.09737777709960938
7.460008144378662,0.15639173984527588,-0.25779449939727783,-0.08250001072883606,-0.9225802333303926,-0.9203185252922701,-2.455925795505233,-0.4804730713367462,0.7971621155738831,-0.36562013626098633,0.45776355266571045,0.09376710653305054,-0.1332264393568039
7.480008125305176,0.16200199723243713,-0.27994024753570557,-0.08784425258636475,-0.9157456204528398,-0.9129612369932802,-2.4475403943955967,-0.48207029700279236,0.7930170297622681,-0.37246766686439514,0.34669995307922363,-0.029370004311203957,-0.08580592274665833
7.500006198883057,0.14992523193359375,-0.25290751457214355,-0.08048850297927856,-0.9120073978915106,-0.9102352204598367,-2.442099789146147,-0.48339080810546875,0.7907341718673706,-0.3755967915058136,0.1761227399110794,-0.10638774186372757,-0.0311328936368227
7.520015239715576,0.08275368809700012,-0.21583431959152222,-0.07603305578231812,-0.9091303875285566,-0.9082644609173359,-2.4374737899175285,-0.48444128036499023,0.7889696955680847,-0.3779464662075043,0.24530133605003357,-0.07338237762451172,-0.017432447522878647
7.540016174316406,0.0784321129322052,-0.16254913806915283,-0.07721185684204102,-0.9046212557929825,-0.9031941304948068,-2.4286637077726385,-0.4853076636791229,0.7861911654472351,-0.38259652256965637,0.4757460355758667,-0.13240210711956024,-0.00047176616499200463
7.560007095336914,0.10818713903427124,-0.12119907140731812,-0.10138958692550659,-0.897299205264166,-0.8950808480856595,-2.413021925081019,-0.48666608333587646,0.7816452383995056,-0.3901112973690033,0.7376486659049988,-0.2803720533847809,0.03564107418060303
7.580014228820801,0.0770077109336853,-0.1227995753288269,-0.09432065486907959,-0.8881020991007484,-0.8859437920857758,-2.3933659184788802,-0.4886287450790405,0.7758758068084717,-0.3990722894668579,0.768471896648407,-0.30520716309547424,0.01367032527923584
7.599548101425171,0.022832751274108887,-0.12230724096298218,-0.0390089750289917,-0.8794107060227704,-0.8769704111264347,-2.375688306724056,-0.4901941418647766,0.7703632712364197,-0.4077378809452057,0.6185131072998047,-0.14991168677806854,0.04523603245615959
7.620132923126221,0.012426197528839111,-0.09496992826461792,0.004031240940093994,-0.873934821542271,-0.8682398928386075,-2.3619629782802525,-0.489827960729599,0.76686030626297,-0.41472160816192627,0.41832923889160156,-0.05460221320390701,0.10045286267995834
7.640127182006836,0.053659647703170776,-0.07246774435043335,0.033741295337677,-0.8712829693931303,-0.8617610974223412,-2.3513317134631824,-0.4886723458766937,0.7651556134223938,-0.419208824634552,0.32659322023391724,-0.12251876294612885,0.13837456703186035
7.660074234008789,0.09062895178794861,-0.06154698133468628,0.06664532423019409,-0.8690655502107345,-0.8557015934249412,-2.339578192442414,-0.4874032437801361,0.7637260556221008,-0.42327383160591125,0.40514853596687317,-0.16654250025749207,0.17808279395103455
7.680102109909058,0.09961369633674622,-0.09449034929275513,0.08355182409286499,-0.8657149701227984,-0.8490975114899229,-2.3261550078333153,-0.48651549220085144,0.7615588307380676,-0.4281715750694275,0.44526585936546326,-0.18630005419254303,0.13744603097438812
7.700089931488037,0.11531060934066772,-0.1461329460144043,0.10594949126243591,-0.860935950475733,-0.8432000663498755,-2.3137431885737505,-0.48669418692588806,0.7584528923034668,-0.433448851108551,0.5014044642448425,-0.1380029171705246,0.016385992988944054
7.720005989074707,0.09801393747329712,-0.12200808525085449,0.146169513463974,-0.8521992584489233,-0.8360969538523672,-2.3030492639728597,-0.48850154876708984,0.7527300715446472,-0.4413202702999115,0.5880256295204163,0.04355267435312271,-0.18847975134849548
7.740011215209961,0.086468905210495,-0.09744304418563843,0.20408347249031067,-0.8417641462989939,-0.8299384936843703,-2.298201033251155,-0.49154388904571533,0.7458194494247437,-0.44959741830825806,0.27665865421295166,0.19514814019203186,-0.3484590947628021
7.760016918182373,0.12174427509307861,-0.13282781839370728,0.17882472276687622,-0.8353273402906695,-0.8309270858583981,-2.3038473776055888,-0.49552351236343384,0.7415161728858948,-0.4523385167121887,-0.07338092476129532,0.05518784373998642,-0.3889767825603485
7.780051231384277,0.13742119073867798,0.07421612739562988,0.0664508044719696,-0.8282178215411531,-0.8364348267352646,-2.309638228318717,-0.5019077658653259,0.7367274761199951,-0.4531237781047821,0.345209002494812,-0.05726794898509979,-0.33422496914863586
7.800007104873657,0.10520404577255249,0.2674756646156311,0.05545896291732788,-0.8160571457365561,-0.8303149567306934,-2.3016966310903166,-0.5057014226913452,0.7284502387046814,-0.4621972441673279,0.8348554968833923,0.06790408492088318,-0.24523916840553284
7.820007085800171,0.03945106267929077,0.21254664659500122,0.11350423097610474,-0.7997349454525706,-0.8156993824368057,-2.2868881990805705,-0.5074838995933533,0.7171713709831238,-0.4776247441768646,0.9352898597717285,0.31185123324394226,-0.2505004107952118
7.840065956115723,0.022297978401184082,0.12929660081863403,0.18960124254226685,-0.7849120317521089,-0.800842413400494,-2.2763026960323685,-0.5079088807106018,0.706762969493866,-0.49245771765708923,0.6531649231910706,0.3994234502315521,-0.332318514585495
7.8600170612335205,0.008684754371643066,0.052112460136413574,0.14766621589660645,-0.7709747626082707,-0.7927349728827768,-2.2742593635406005,-0.5108667016029358,0.6968346834182739,-0.503424882888794,0.44277456402778625,0.2509838938713074,-0.5776587128639221
7.880007266998291,0.04656726121902466,0.060572147369384766,0.13067859411239624,-0.7556342825167296,-0.7936801655681458,-2.2791934546777415,-0.5189029574394226,0.6857504844665527,-0.5103782415390015,0.4134751558303833,-0.02153356373310089,-0.7395412921905518
7.900008201599121,0.09157043695449829,0.051901161670684814,0.13528931140899658,-0.7391835873866786,-0.8017775958851349,-2.2866833886296387,-0.5310540199279785,0.6736847758293152,-0.5139361619949341,0.3380645215511322,-0.28941816091537476,-0.8159095048904419
7.920008182525635,0.11736863851547241,0.05749475955963135,0.18000996112823486,-0.7230808327563853,-0.8148703942300025,-2.2945079777129527,-0.5455606579780579,0.6616977453231812,-0.5143147110939026,0.4140809178352356,-0.43158578872680664,-0.7264032363891602
7.940017223358154,0.12007570266723633,0.09470880031585693,0.22642004489898682,-0.7066765710750778,-0.8248570877554275,-2.2966996212920874,-0.5585675239562988,0.6493098139762878,-0.5161387324333191,0.5834900736808777,-0.4431239664554596,-0.6368457078933716
7.960008144378662,0.10606801509857178,0.08162689208984375,0.24636352062225342,-0.6871622872731332,-0.8337449851877348,-2.2957069816121543,-0.572407066822052,0.634346067905426,-0.5195721983909607,0.7685052752494812,-0.5099032521247864,-0.7546247839927673
7.980009078979492,0.14354640245437622,0.0481107234954834,0.28795576095581055,-0.6656871041235563,-0.8446009285282186,-2.2944840427355624,-0.5880653858184814,0.6175996661186218,-0.5222545266151428,0.708911657333374,-0.717319905757904,-0.7881603240966797
8.000014066696167,0.17246496677398682,0.03541141748428345,0.26510775089263916,-0.6450981190213028,-0.8640347269824407,-2.296831766806326,-0.607645571231842,0.6012768149375916,-0.5188766717910767,0.5038189888000488,-1.0934393405914307,-0.9108371138572693
8.020018100738525,0.10194253921508789,0.01308351755142212,0.20823830366134644,-0.6237704655626194,-0.8932635885366195,-2.304619544365988,-0.6323990821838379,0.5840997099876404,-0.5088211894035339,0.4430694580078125,-1.3121103048324585,-1.166599988937378
8.040026187896729,0.010140776634216309,0.04738408327102661,0.2162799835205078,-0.5963481454297701,-0.9243933177081647,-2.3150406488132678,-0.6604703068733215,0.5616247057914734,-0.4983539879322052,0.579906702041626,-1.1939111948013306,-1.4996992349624634
8.060009956359863,0.033913612365722656,0.09002673625946045,0.303128182888031,-0.565054178050864,-0.9521706004857042,-2.3245728884597225,-0.6880425810813904,0.5354615449905396,-0.4897737205028534,0.6683838963508606,-1.1080403327941895,-1.4624052047729492
8.08000898361206,-0.044264018535614014,0.09601765871047974,0.1907537877559662,-0.5326857999252599,-0.9792933506006681,-2.3294014753476118,-0.7150894999504089,0.507848858833313,-0.4803503751754761,0.8166912794113159,-1.3692272901535034,-1.488412618637085
8.099406242370605,-0.25198835134506226,0.14875316619873047,0.07612219452857971,-0.49691947908188516,-1.0113036427647388,-2.334883345068239,-0.7450208067893982,0.47671985626220703,-0.4665640890598297,0.634631872177124,-1.5185447931289673,-1.8245877027511597
8.120028972625732,-0.33968329429626465,0.13334205746650696,0.12270808219909668,-0.4606422796573023,-1.0466014571613687,-2.351370439555285,-0.7754899859428406,0.44452354311943054,-0.44834592938423157,0.051310811191797256,-1.2450193166732788,-1.9411993026733398
8.140012264251709,-0.21771997213363647,0.0443854033946991,0.08501055836677551,-0.4302872568823332,-1.0769529506985056,-2.370852857716578,-0.800254762172699,0.4171319007873535,-0.4308052659034729,-0.018702924251556396,-0.9745046496391296,-1.609178066253662
8.160016059875488,-0.14991885423660278,0.13046151399612427,0.09389561414718628,-0.39900870030490737,-1.0976235413145874,-2.381911575068392,-0.8202042579650879,0.38850510120391846,-0.4199149012565613,0.6442474126815796,-0.6316845417022705,-1.6719125509262085
8.18001413345337,-0.1572510004043579,0.1863718330860138,0.11651059985160828,-0.3587985152938882,-1.1042416248045066,-2.376130951304049,-0.8362486362457275,0.3511494994163513,-0.4211675822734833,1.6561201810836792,-0.22919319570064545,-1.6545422077178955
8.200066089630127,-0.1214221715927124,0.20646065473556519,0.09634685516357422,-0.3116358859888001,-1.0992774508099443,-2.352810737967595,-0.8479685187339783,0.3066161274909973,-0.4323606491088867,2.3059794902801514,-0.026224369183182716,-1.5548163652420044
8.220010042190552,0.03742176294326782,0.1267906129360199,0.2912682890892029,-0.2665998766507955,-1.0889491661210149,-2.3249554818830895,-0.8548350930213928,0.26345294713974,-0.44704532623291016,2.0737385749816895,0.17259399592876434,-1.2133678197860718
8.240008115768433,0.11608779430389404,-0.017493396997451782,0.2749923765659332,-0.22979175340783262,-1.0814408403118687,-2.299589477654399,-0.8594349026679993,0.2277747541666031,-0.4577011168003082,1.8880836963653564,-0.02383764460682869,-0.9069880843162537
8.260010242462158,0.10820549726486206,0.03300000727176666,0.18483054637908936,-0.19749899226403875,-1.0774301148337293,-2.2717261958508015,-0.8636223673820496,0.19621755182743073,-0.46438688039779663,2.0561747550964355,-0.15483498573303223,-0.6992859244346619
8.280086040496826,0.05474323034286499,0.09973008930683136,0.2022867202758789,-0.16550505705679314,-1.0762217962525897,-2.2398587312079012,-0.8681434988975525,0.16475050151348114,-0.4681711792945862,2.26246976852417,-0.27603164315223694,-0.5895662307739258
8.299482107162476,-0.03974330425262451,-0.041896969079971313,0.3431869149208069,-0.13874675683621862,-1.0748226182680527,-2.2057597770882524,-0.8710538148880005,0.1383020281791687,-0.47131502628326416,1.8647633790969849,-0.10101311653852463,-0.2277647852897644
8.32007908821106,-0.21775954961776733,-0.1860404908657074,0.4511948227882385,-0.11970631938831794,-1.0721841358631903,-2.1788911835921745,-0.8719620704650879,0.11942063271999359,-0.4747849702835083,1.4128674268722534,0.04256286472082138,-0.1769808977842331
8.3400239944458,-0.3445230722427368,-0.22523356974124908,0.45054423809051514,-0.1059093739384855,-1.067711274577302,-2.1596754954839703,-0.8711903691291809,0.10571148991584778,-0.47942915558815,0.9134633541107178,0.14883257448673248,-0.17761322855949402
8.359997034072876,-0.3552916646003723,-0.24877169728279114,0.4308319091796875,-0.09455461896155105,-1.065396447585857,-2.1495421998291966,-0.8710724711418152,0.09441378712654114,-0.4819946587085724,0.5410864353179932,-0.11634582281112671,-0.2658298909664154
