timestamp,acceleration_x,acceleration_y,acceleration_z,attitude_pitch,attitude_roll,attitude_yaw,gravity_x,gravity_y,gravity_z,rotation_x,rotation_y,rotation_z
0.0,0.10719108581542969,0.19003307819366455,-0.029358386993408203,-0.7170114580895884,-0.5204748935227806,1.058874357324772,-0.3748454749584198,0.6571349501609802,-0.6539607644081116,2.2648770809173584,-0.6957963705062866,0.5263072848320007
0.019333839416503906,0.04971924424171448,0.31008458137512207,-0.026692509651184082,-0.6715848100536951,-0.4986891053902067,1.1088585899244452,-0.3744109570980072,0.6222274303436279,-0.6874951720237732,3.372635841369629,-0.3358452320098877,0.5991301536560059
0.0391688346862793,0.039957404136657715,0.09203338623046875,0.1921708583831787,-0.6210086394618641,-0.4731137824085839,1.158229713949562,-0.3705848157405853,0.5818557739257812,-0.7239549160003662,2.682298421859741,-0.10128014534711838,0.528354287147522
0.059735774993896484,0.14217811822891235,-0.12559199333190918,0.27654922008514404,-0.5914168022247918,-0.45636974431652794,1.1909402163990097,-0.3658413887023926,0.5575377345085144,-0.7451924085617065,1.1896313428878784,-0.1527705043554306,0.5303729772567749
0.0795297622680664,0.17164090275764465,-0.13887667655944824,0.20394420623779297,-0.5837830546342643,-0.4508694747681906,1.2090767001899918,-0.3635811507701874,0.5511844158172607,-0.751002311706543,0.33679836988449097,-0.2729136049747467,0.5017807483673096
0.09998464584350586,0.1321079134941101,0.02886509895324707,0.0580407977104187,-0.5818618195536175,-0.44928666307977677,1.2223516914534969,-0.3628512918949127,0.5495803356170654,-0.7525293827056885,0.4232024848461151,-0.2749950587749481,0.3884005546569824
0.11992883682250977,0.08495348691940308,0.13679951429367065,0.007399082183837891,-0.5742355856319695,-0.44688871158153,1.2345686585277544,-0.3628464937210083,0.5431931614875793,-0.7571550011634827,0.6758936047554016,-0.1572139859199524,0.21790093183517456
0.13993597030639648,0.06861218810081482,0.06876736879348755,0.010058760643005371,-0.5634154592088322,-0.4445082468907701,1.2449037694169842,-0.36354929208755493,0.5340768694877625,-0.7632784247398376,0.6314646601676941,-0.21382570266723633,0.08567884564399719
0.15991687774658203,0.08415579795837402,0.0620732307434082,-0.03658384084701538,-0.5541602100709939,-0.44833562381004244,1.2497475483237472,-0.36859485507011414,0.5262293815612793,-0.7663031816482544,0.37762004137039185,-0.4320927560329437,-0.11566509306430817
0.1789858341217041,0.019373178482055664,0.13349026441574097,-0.10101979970932007,-0.547366537994902,-0.4580431758553444,1.2485035817766688,-0.3775884509086609,0.5204403400421143,-0.7658777832984924,0.16470037400722504,-0.4376397728919983,-0.2596096992492676
0.19964075088500977,-0.036364346742630005,0.14135468006134033,-0.1371527910232544,-0.5455555563604535,-0.46887699830747687,1.2427351447063024,-0.3862887918949127,0.5188930630683899,-0.7625817656517029,-0.21892859041690826,-0.3507664203643799,-0.23516057431697845
0.22000384330749512,-0.017069250345230103,0.09543848037719727,-0.1634785532951355,-0.5509401378520933,-0.47780338231491865,1.2365028997548135,-0.391789972782135,0.523488461971283,-0.7566112279891968,-0.4728180766105652,-0.2058185338973999,0.0483282171189785
0.23996782302856445,-0.01945444941520691,0.06064403057098389,-0.14088958501815796,-0.5618165819767581,-0.480826628328394,1.235390869636701,-0.3914189040660858,0.5327244400978088,-0.7503305077552795,-0.49357107281684875,-0.04811590909957886,0.34618401527404785
0.26001691818237305,-0.0243607759475708,0.0048049092292785645,-0.0894080400466919,-0.5728985263213813,-0.47890196856355083,1.2403963511482443,-0.3872297704219818,0.5420700311660767,-0.7457970380783081,-0.27903926372528076,-0.04893287643790245,0.5199164748191833
0.27907466888427734,-0.029535949230194092,-0.04376763105392456,-0.055582404136657715,-0.580347717276547,-0.47488658030024056,1.2508538926601411,-0.382375031709671,0.5483147501945496,-0.7437340617179871,0.026237905025482178,-0.14013895392417908,0.5986488461494446
0.29956769943237305,-0.06305742263793945,-0.10638940334320068,-0.02406013011932373,-0.5833974943484949,-0.47201810019678186,1.2641755241229693,-0.37947794795036316,0.5508626699447632,-0.743334949016571,0.184728741645813,-0.3062179386615753,0.48688000440597534
0.319976806640625,-0.1176283061504364,-0.12339615821838379,0.013566553592681885,-0.5833893509346831,-0.4739590546148086,1.2740324661358775,-0.3809220790863037,0.5508558750152588,-0.7426010370254517,0.15239420533180237,-0.4210350811481476,0.24295823276042938
0.3405318260192871,-0.1458359956741333,-0.12907260656356812,0.033977508544921875,-0.5839747039738086,-0.48106443978980395,1.277254856669138,-0.3860395848751068,0.5513442754745483,-0.7395896911621094,-0.09681089967489243,-0.46483322978019714,0.041388850659132004
0.3598957061767578,-0.12155193090438843,-0.16951245069503784,0.06752830743789673,-0.588577316107973,-0.4915169986910185,1.2750438727101168,-0.3925471305847168,0.5551782846450806,-0.7332692742347717,-0.3749801814556122,-0.4655926823616028,0.03183630853891373
0.37989187240600586,-0.11128506064414978,-0.1466529369354248,0.04292726516723633,-0.5951390166550082,-0.5020619959421888,1.2723538593999717,-0.39849579334259033,0.5606238842010498,-0.7258801460266113,-0.24263425171375275,-0.43018898367881775,0.09274739772081375
0.3999300003051758,-0.13298609852790833,-0.08795315027236938,0.03338325023651123,-0.597777327796979,-0.5093532987846565,1.2735606512715931,-0.4030551314353943,0.5628066062927246,-0.7216615080833435,0.057849399745464325,-0.37821656465530396,0.09213920682668686
0.4199228286743164,-0.12485247850418091,-0.10575199127197266,0.0552973747253418,-0.5958120323939883,-0.5153338222653082,1.27654689976741,-0.4079081416130066,0.5611810684204102,-0.7201991677284241,0.17851367592811584,-0.4014550745487213,0.031681180000305176
0.439133882522583,-0.10583809018135071,-0.16525548696517944,0.08806955814361572,-0.5939994953660157,-0.5229112808063192,1.2780351701818071,-0.413860946893692,0.5596799254417419,-0.717967689037323,0.02007046528160572,-0.43876373767852783,-0.016859328374266624
0.45992088317871094,-0.11220541596412659,-0.1764013171195984,0.08919334411621094,-0.5954447373646562,-0.5329863299562619,1.2756770167569818,-0.42066195607185364,0.5608770251274109,-0.7130642533302307,-0.24378302693367004,-0.43146994709968567,-0.09239611029624939
0.47992992401123047,-0.10984298586845398,-0.16135269403457642,0.07314437627792358,-0.6000924462579535,-0.54448732071968,1.2690614485627973,-0.427480012178421,0.5647187829017639,-0.7059416770935059,-0.42135244607925415,-0.36098095774650574,-0.12021994590759277
0.4999508857727051,-0.0696992576122284,-0.16284233331680298,0.059579312801361084,-0.6068497396187645,-0.5561036762365704,1.2608454073668758,-0.4336271286010742,0.570282518863678,-0.6976714134216309,-0.4839985966682434,-0.33821234107017517,-0.09969712793827057
0.5199289321899414,-0.03518369793891907,-0.15552449226379395,0.033551573753356934,-0.61281399882299,-0.5667067906279234,1.254136040247348,-0.43916627764701843,0.5751716494560242,-0.6901525855064392,-0.27920863032341003,-0.3350012004375458,-0.05477292090654373
0.5390686988830566,-0.00610920786857605,-0.13943511247634888,-0.012521982192993164,-0.6149900022736839,-0.5758683164023854,1.2507925399008084,-0.44478797912597656,0.5769503712654114,-0.6850488781929016,-0.08293481171131134,-0.39554089307785034,-0.08613009750843048
0.5599288940429688,0.026112735271453857,-0.13886523246765137,-0.012578070163726807,-0.6148901166241256,-0.5858037547354796,1.2473729469945516,-0.45160403847694397,0.5768687725067139,-0.6806440353393555,-0.08918385207653046,-0.3866168260574341,-0.13695615530014038
0.5799238681793213,0.05901673436164856,-0.1824628710746765,-0.019077003002166748,-0.6159779819748985,-0.5958922216175639,1.2427663112935232,-0.45809510350227356,0.5777570605278015,-0.675533652305603,-0.2351073920726776,-0.35247722268104553,-0.11722753942012787
0.5999338626861572,0.07593125104904175,-0.16747331619262695,-0.039758265018463135,-0.6199777202053233,-0.6063892815873567,1.2356629358255105,-0.46384015679359436,0.581017017364502,-0.6687836647033691,-0.400442510843277,-0.2885127067565918,-0.14699673652648926
0.6197798252105713,0.0678558349609375,-0.13757538795471191,-0.05444401502609253,-0.6248345012571256,-0.6160267912375004,1.2270306601259184,-0.4686279296875,0.5849630236625671,-0.6619714498519897,-0.3937215209007263,-0.1741713136434555,-0.1503743678331375
0.6399216651916504,0.059996187686920166,-0.12995922565460205,-0.06255125999450684,-0.6294301074467064,-0.6246340130956823,1.2170104645590452,-0.4727311432361603,0.5886842012405396,-0.6557257771492004,-0.47706839442253113,-0.11721827834844589,-0.26271694898605347
0.6599397659301758,0.07687258720397949,-0.14523637294769287,-0.05925607681274414,-0.6348052992521129,-0.6349690618433276,1.2030724232981667,-0.4775988757610321,0.5930207371711731,-0.6482481956481934,-0.6266417503356934,-0.09400856494903564,-0.3076750338077545
0.679926872253418,0.10625404119491577,-0.1470245122909546,-0.07076126337051392,-0.642887043134756,-0.6473601044945989,1.1857983946534192,-0.4826883375644684,0.5995086431503296,-0.6384367942810059,-0.8507701754570007,-0.11866214871406555,-0.3367323875427246
0.6999249458312988,0.10357800126075745,-0.13646340370178223,-0.09861809015274048,-0.6530851727120078,-0.6626203687744763,1.1650933482323003,-0.48858773708343506,0.6076395511627197,-0.6261439323425293,-0.9442293047904968,-0.15237128734588623,-0.3403378427028656
0.7195727825164795,0.08638489246368408,-0.07975125312805176,-0.14474421739578247,-0.662907394995548,-0.679389118196703,1.1437047079985083,-0.49524420499801636,0.615411102771759,-0.6131904721260071,-0.8308065533638,-0.22142146527767181,-0.3644736409187317
0.739926815032959,0.07181626558303833,0.017093420028686523,-0.24828284978866577,-0.6688292724071089,-0.6947820999329402,1.1264151671956175,-0.5022819638252258,0.6200678944587708,-0.6026846170425415,-0.48398879170417786,-0.2338678389787674,-0.30127695202827454
0.7599658966064453,0.04871547222137451,0.09311312437057495,-0.2711455821990967,-0.6707555514741562,-0.7046163616990035,1.1166518315718457,-0.507409930229187,0.6215780377388,-0.5968049168586731,-0.201041579246521,-0.1393745243549347,-0.1521192044019699
0.7800087928771973,0.05649542808532715,0.08869320154190063,-0.2602870464324951,-0.6728349954836963,-0.7095646644723608,1.1113136413363924,-0.5095136165618896,0.6232056021690369,-0.5933048725128174,-0.2614274322986603,-0.020611310377717018,-0.03264303505420685
0.7999129295349121,0.07134097814559937,0.06027120351791382,-0.22878152132034302,-0.6785582592657207,-0.7113163846187556,1.1066601859674583,-0.5082153081893921,0.6276713013648987,-0.5896999835968018,-0.4133366346359253,0.12026946246623993,0.13204918801784515
0.8199777603149414,0.09495848417282104,0.05061084032058716,-0.23766332864761353,-0.6901002632255272,-0.7132498385898914,1.097354880759239,-0.5045806169509888,0.6366145014762878,-0.5831985473632812,-0.9694055914878845,0.2243000715970993,-0.010203797370195389
0.8399319648742676,0.12322646379470825,-0.013033270835876465,-0.32946932315826416,-0.7061346150868575,-0.7263853653614186,1.0703681966146306,-0.505352258682251,0.6488975286483765,-0.5688156485557556,-1.5324039459228516,0.027204059064388275,-0.35182610154151917
0.8599298000335693,0.088966965675354,0.009078025817871094,-0.4444952607154846,-0.7276290405438921,-0.7429204138235274,1.048143080783592,-0.5051351189613342,0.6651009917259216,-0.5499810576438904,-1.0993939638137817,-0.13003456592559814,0.45368504524230957
0.8799338340759277,-0.12869349122047424,0.19141340255737305,-0.32357120513916016,-0.7428220227410912,-0.733570344849141,1.0550221773906414,-0.49314790964126587,0.6763691902160645,-0.5471105575561523,0.46499109268188477,0.7522903680801392,0.9557369351387024
0.8999929428100586,-0.1649368405342102,0.4065473675727844,-0.2378990650177002,-0.7354713933765704,-0.6995254457540843,1.0803301796400138,-0.4774276316165924,0.6709367632865906,-0.5673682689666748,1.1024847030639648,0.8548732399940491,-0.12080274522304535
0.9200868606567383,-0.1537260115146637,0.18859058618545532,-0.07875096797943115,-0.717974123666701,-0.6765544322084263,1.0896092345827861,-0.4715486466884613,0.657860279083252,-0.5872494578361511,0.5909679532051086,0.7659342885017395,-0.1760508269071579
0.939957857131958,-0.08180943131446838,0.03918576240539551,0.06828898191452026,-0.7142601634165682,-0.6584538327963495,1.0924238953745389,-0.46233421564102173,0.6550585627555847,-0.5976163744926453,-0.22677487134933472,0.8408965468406677,-0.017817124724388123
0.9599547386169434,-0.16781067848205566,0.06271272897720337,0.2163165807723999,-0.7231630188445045,-0.6474327322627828,1.0808046695833267,-0.45218443870544434,0.6617593169212341,-0.5979999303817749,-0.9742379188537598,1.0507416725158691,-0.1302240937948227
0.9799618721008301,-0.19481036067008972,0.13157743215560913,0.2516515254974365,-0.7390872983552751,-0.6419523330185356,1.0557497336349462,-0.4425339698791504,0.6736136078834534,-0.5919530987739563,-1.322081208229065,1.1149446964263916,-0.43578121066093445
1.0000009536743164,-0.0881340503692627,0.12267810106277466,0.16628575325012207,-0.753389796387314,-0.6417733511757929,1.026328948725141,-0.4366156756877899,0.6841151118278503,-0.5842545032501221,-1.0709058046340942,0.8702062368392944,-0.3940999507904053
1.0199089050292969,0.018267691135406494,0.10706216096878052,0.10819113254547119,-0.7630868485040279,-0.6426629466966987,1.004377258633025,-0.4331388771533966,0.6911556124687195,-0.578528106212616,-0.6361721158027649,0.5430281758308411,-0.3069377541542053
1.0398187637329102,0.08420461416244507,0.05030333995819092,0.1035798192024231,-0.7667616739222664,-0.64187424339746,0.9940638641506708,-0.4311589002609253,0.6938067674636841,-0.5768312215805054,-0.13292524218559265,0.2373354583978653,-0.08200518786907196
1.0599558353424072,0.14484450221061707,0.008291065692901611,0.14662069082260132,-0.7660271439200994,-0.6405297516744621,0.9937324385694297,-0.43068745732307434,0.6932775974273682,-0.5778188705444336,0.15268348157405853,-0.08613616973161697,-0.003438151441514492
1.0800237655639648,0.1917201578617096,-0.04774749279022217,0.17891252040863037,-0.7626563021730477,-0.6421277881932815,0.9978104768707052,-0.4330073297023773,0.6908444166183472,-0.5789979696273804,0.2686655819416046,-0.3423582911491394,0.02512800693511963
1.0998969078063965,0.228460431098938,-0.10146617889404297,0.2111600637435913,-0.7581392913226603,-0.6469548532107218,1.0036606646714825,-0.4376736879348755,0.6875715255737305,-0.5793852210044861,0.3353942930698395,-0.5464641451835632,0.013502990826964378
1.1198687553405762,0.24190357327461243,-0.06042724847793579,0.21314656734466553,-0.7510909178612285,-0.6556769672824794,1.009346469836063,-0.4456541836261749,0.6824365854263306,-0.579372763633728,0.5074528455734253,-0.7180358171463013,-0.10841508954763412
1.139878749847412,0.24655073881149292,-0.02879244089126587,0.19512128829956055,-0.7397687859315827,-0.6681878226183531,1.014967704557247,-0.4576255679130554,0.6741171479225159,-0.5797801613807678,0.6234387755393982,-0.9295064210891724,-0.3002437949180603
1.159104824066162,0.27483442425727844,-0.05267554521560669,0.1804816722869873,-0.7243254289674226,-0.6878203261675219,1.0176807209478747,-0.47547221183776855,0.6626303791999817,-0.5786598324775696,0.6999050378799438,-1.2112783193588257,-0.48884743452072144
1.1798667907714844,0.3223148584365845,-0.05785667896270752,0.17838716506958008,-0.7067072300395182,-0.7141232518491696,1.0189405063027335,-0.4980960786342621,0.649333119392395,-0.5746884346008301,0.7296775579452515,-1.5250089168548584,-0.5600982904434204
1.2000279426574707,0.33536767959594727,0.007632017135620117,0.12172603607177734,-0.6883339030827087,-0.7470423390162592,1.020837589203181,-0.5247597694396973,0.6352513432502747,-0.5666419267654419,0.741716742515564,-1.8775168657302856,-0.5690421462059021
1.2198948860168457,0.29402732849121094,0.06228041648864746,0.08714950084686279,-0.6671309456368527,-0.7836668825950607,1.023562339770868,-0.5545406341552734,0.61873459815979,-0.5564640760421753,0.9354300498962402,-1.917280673980713,-0.7495099902153015
1.2395477294921875,0.27377599477767944,0.12526118755340576,0.17053794860839844,-0.6418100281824597,-0.8185915657572271,1.026090572266586,-0.5848874449729919,0.5986462831497192,-0.5472927689552307,0.9829012155532837,-1.7260652780532837,-0.9592961668968201
1.25994873046875,0.2693268656730652,0.05791407823562622,0.3540908694267273,-0.6150745293274243,-0.845091884053291,1.0309557747802125,-0.6109406352043152,0.5770193934440613,-0.5420334339141846,1.0674406290054321,-1.118682622909546,-0.5905960202217102
1.2799429893493652,0.1943151354789734,0.024215340614318848,0.3077884316444397,-0.6011025926602936,-0.8553753937048971,1.0416848382318913,-0.6225072741508484,0.5655521154403687,-0.540958046913147,0.45988380908966064,-0.6464465260505676,-0.055057380348443985
1.299886703491211,0.05081218481063843,0.10172384977340698,0.14494800567626953,-0.5928996367133653,-0.8659098630041923,1.0452181740150046,-0.6316837668418884,0.558768093585968,-0.537358283996582,0.4082997739315033,-0.6630274653434753,-0.3842543065547943
1.3198938369750977,0.05710095167160034,0.21960407495498657,0.026752173900604248,-0.5785365065512544,-0.8794285395382647,1.0478657730265886,-0.6450068950653076,0.5467991828918457,-0.533832311630249,0.724341094493866,-0.8579592108726501,-0.57192063331604
1.3400368690490723,0.1126585602760315,0.15408945083618164,0.06793069839477539,-0.5582499753854535,-0.8959800793771366,1.053295069655163,-0.6622800827026367,0.5297026634216309,-0.5299058556556702,0.8421322107315063,-1.0509699583053589,-0.6957857608795166
1.3599209785461426,0.10922360420227051,0.037393391132354736,0.1471988558769226,-0.5378304613814814,-0.9144951916873247,1.056462688859272,-0.6804059147834778,0.5122739672660828,-0.5240452289581299,0.5868105292320251,-0.9509752988815308,-0.7465500831604004
1.3794989585876465,0.1347287893295288,-0.040626734495162964,0.1890050172805786,-0.5208261738333451,-0.9333121823952791,1.053135631352348,-0.6970456838607788,0.49759694933891296,-0.5162603259086609,0.23745256662368774,-0.778592050075531,-0.7798730134963989
1.400033950805664,0.1988946795463562,-0.07954022288322449,0.22819286584854126,-0.5071273111115392,-0.9514698365800719,1.0458894965445253,-0.7117883563041687,0.4856681227684021,-0.5074287056922913,0.07709218561649323,-0.6757297515869141,-0.6975012421607971
1.420210838317871,0.20864617824554443,-0.08432579040527344,0.2350727915763855,-0.4947173746944569,-0.967114580143178,1.0385957972213988,-0.7245457768440247,0.47478294372558594,-0.49961450695991516,0.20093926787376404,-0.563053548336029,-0.7149856090545654
1.4402856826782227,0.2152981162071228,-0.08438554406166077,0.15658283233642578,-0.4784374161628504,-0.9792187364848534,1.0361275949438045,-0.7368587851524353,0.4603925943374634,-0.49505335092544556,0.48622235655784607,-0.5631103515625,-0.7607694268226624
1.4599699974060059,0.29343181848526,-0.08868348598480225,0.14667552709579468,-0.45966587993716007,-0.9921348285690885,1.0353075870160697,-0.7502952218055725,0.44364869594573975,-0.49013566970825195,0.4518175423145294,-0.7147003412246704,-0.8149760365486145
1.4800817966461182,0.36159366369247437,-0.16257786750793457,0.21065634489059448,-0.44407403784759975,-1.0088965903673721,1.030953959922443,-0.7641662955284119,0.4296219050884247,-0.48111847043037415,0.02114161290228367,-0.7617360949516296,-0.7114091515541077
1.5000357627868652,0.356101393699646,-0.21632391214370728,0.22944456338882446,-0.4344860668992187,-1.0284582850144914,1.0208763276204382,-0.7769235372543335,0.4209442734718323,-0.46818363666534424,-0.22789548337459564,-0.7776616215705872,-0.5836218595504761
1.5199956893920898,0.3065263628959656,-0.17071408033370972,0.19634675979614258,-0.42711241109163106,-1.0482140408714515,1.0119253832350152,-0.7886888384819031,0.4142443537712097,-0.45428138971328735,-0.03781183809041977,-0.8487045764923096,-0.46979615092277527
1.5400147438049316,0.20546412467956543,-0.04725810885429382,0.08666872978210449,-0.4165954748077121,-1.0670172721442726,1.0107290611864972,-0.8008620738983154,0.4046494662761688,-0.441450834274292,0.47559213638305664,-0.9982836842536926,-0.5483774542808533
1.5686979293823242,0.12759345769882202,0.004934638738632202,0.06776958703994751,-0.3802129356880914,-1.1047255917548982,1.022258313641461,-0.8295435905456543,0.3711182177066803,-0.4172874391078949,0.5145647525787354,-1.0690003633499146,-0.7459242939949036
1.5875849723815918,0.059728145599365234,-0.06784564256668091,0.1560591161251068,-0.36462922789394664,-1.1240101466000147,1.020179583708023,-0.8425498008728027,0.3566029369831085,-0.4036634564399719,-0.010220956057310104,-0.7991275787353516,-0.7465075850486755
1.6073408126831055,-0.048010945320129395,-0.07137611508369446,0.12317335605621338,-0.35121132521769166,-1.1423162628946817,1.0112319407185375,-0.8540735244750977,0.34403544664382935,-0.39012598991394043,-0.09503446519374847,-0.6969726085662842,-0.8010771870613098
1.628565788269043,-0.07779937982559204,0.006474554538726807,0.13607501983642578,-0.3370763592120914,-1.156567936873804,1.0028235983554679,-0.8639121055603027,0.3307293951511383,-0.37983420491218567,-0.047109439969062805,-0.5152296423912048,-0.8228722810745239
1.6484577655792236,-0.05707371234893799,0.0008693337440490723,0.17734837532043457,-0.3223090807631272,-1.1700635637747334,0.9967138884182726,-0.8733614683151245,0.31675758957862854,-0.37000590562820435,0.09426797926425934,-0.6594832539558411,-0.7399932742118835
1.6677289009094238,-0.2380073070526123,0.0034073591232299805,0.16646188497543335,-0.3068670828738275,-1.1868083334768924,0.9939206688935609,-0.88386470079422,0.30207356810569763,-0.3571205139160156,0.2694571912288666,-0.8817390203475952,-0.8990887403488159
1.6881308555603027,-0.5193930268287659,-0.041451066732406616,0.24757185578346252,-0.28458029027351095,-1.2020541428326486,0.9896168273519189,-0.8952646851539612,0.2807546555995941,-0.3459453582763672,0.0661378800868988,-0.5154163241386414,-1.2984527349472046
1.707845687866211,-0.4782988429069519,-0.14159685373306274,0.2429313361644745,-0.2606262635735848,-1.2140211412466042,0.978153368456149,-0.9053835272789001,0.25768572092056274,-0.33745962381362915,-0.2654702365398407,-0.39381861686706543,-1.1942437887191772
1.7281436920166016,-0.32323628664016724,-0.11819043755531311,0.2294940948486328,-0.2452132160275304,-1.2271482762463015,0.9626628552256036,-0.9133664965629578,0.24276316165924072,-0.3268452286720276,-0.46533456444740295,-0.5164762139320374,-0.8784867525100708
1.748304843902588,-0.48937565088272095,-0.13824909925460815,0.21072688698768616,-0.2299146764021122,-1.2383348457406185,0.9508597796105867,-0.9203686118125916,0.22789444029331207,-0.31778252124786377,-0.07522717118263245,-0.3028557002544403,-0.9877257347106934
1.769521713256836,-0.6278263926506042,-0.19937638938426971,0.299437940120697,-0.21110319893072652,-1.2401376735527974,0.9463480167480096,-0.9248316884040833,0.20953872799873352,-0.3174585998058319,0.18656253814697266,0.1863430142402649,-0.8891898393630981
1.7879908084869385,-0.5227975249290466,-0.1995401233434677,0.3850862979888916,-0.1969193203891356,-1.2327433899370557,0.9488703436797503,-0.9251700043678284,0.19564911723136902,-0.3252413868904114,0.5205281972885132,0.4716661274433136,-0.3487274646759033
1.8078336715698242,-0.6401755809783936,-0.1104847639799118,0.36727452278137207,-0.18733848907099201,-1.2170947566302321,0.9660539435359581,-0.9216835498809814,0.18624460697174072,-0.34031227231025696,1.450069546699524,0.7263357043266296,-0.010236147791147232
1.8283257484436035,-0.786345362663269,-0.2434357851743698,0.2876739501953125,-0.17671182336951435,-1.196049841900433,1.001513129355515,-0.9161083102226257,0.17579355835914612,-0.3603363633155823,1.9230196475982666,0.745826005935669,0.3202407658100128
1.8482036590576172,-0.7188223600387573,-0.44392430782318115,0.3678666353225708,-0.17594019382485,-1.1744520222962125,1.034127509492754,-0.9082377552986145,0.17503389716148376,-0.38008901476860046,1.013393759727478,0.8654940128326416,0.8295313715934753
1.867109775543213,-0.7535931468009949,-0.5202476978302002,0.387669175863266,-0.19248513302389686,-1.153912852560629,1.0517694755402276,-0.8974688649177551,0.1912987232208252,-0.3974348306655884,-0.013851936906576157,0.873307466506958,1.326034426689148
1.8877067565917969,-0.8178143501281738,-0.3936697840690613,0.29308342933654785,-0.22268460651177419,-1.1383498518067314,1.0549167453502701,-0.8855243921279907,0.22084873914718628,-0.408745139837265,-1.0179637670516968,0.5406939387321472,1.5187932252883911
1.9076499938964844,-0.8026261925697327,-0.34514477849006653,0.15506863594055176,-0.2664536255453934,-1.1378947501571008,1.0421058478824814,-0.8757185339927673,0.26331186294555664,-0.40470245480537415,-1.837624430656433,0.1056317538022995,2.0257678031921387
1.9275667667388916,-0.9627403616905212,-0.25138580799102783,0.19415199756622314,-0.3241563593425035,-1.1326927069875627,1.0267838653974004,-0.8583961725234985,0.31850919127464294,-0.4021293520927429,-1.6327985525131226,0.7551977038383484,2.427021026611328
1.9475326538085938,-1.094191551208496,-0.02514001727104187,-0.058440983295440674,-0.3762882432380538,-1.1156603632907025,1.027735735688018,-0.8353586196899414,0.36747094988822937,-0.4088289141654968,-0.7745593190193176,0.8102583885192871,2.342942714691162
1.966592788696289,-0.9622995257377625,-0.08959633111953735,0.09517890214920044,-0.4262050754075651,-1.1001297354396535,1.031444651870502,-0.8115347027778625,0.41341835260391235,-0.4129127264022827,-1.2261236906051636,0.6509992480278015,2.3362972736358643
1.987069845199585,-0.920246958732605,-0.23230457305908203,0.17961221933364868,-0.47924584039761786,-1.0894336466987193,1.0287501049116479,-0.7865096926689148,0.46111011505126953,-0.41082867980003357,-1.213445782661438,0.6059917211532593,2.3192474842071533
2.007166862487793,-0.8782420754432678,0.055859506130218506,0.12373208999633789,-0.5253120782177384,-1.0698381551146552,1.040330087030442,-0.7588581442832947,0.5014830231666565,-0.41551071405410767,-0.016926875337958336,0.7409659028053284,2.1436269283294678
2.0272727012634277,-0.8017901182174683,0.1894729733467102,-0.08139908313751221,-0.5545860951526457,-1.0433226886638425,1.0722508694426394,-0.7345715761184692,0.5265914797782898,-0.4279087781906128,0.8421032428741455,0.3206450939178467,1.8441487550735474
2.0470948219299316,-0.6621270775794983,0.09539955854415894,-0.06675031781196594,-0.5784610665002439,-1.0207169868317427,1.107372465576314,-0.7137883901596069,0.5467360019683838,-0.43770527839660645,0.20416560769081116,0.10467799007892609,1.6902121305465698
2.0670599937438965,-0.6169641613960266,-0.022785425186157227,-0.014095485210418701,-0.6072813328717711,-1.008345028552859,1.124715647794255,-0.6946966052055359,0.5706369876861572,-0.4379156529903412,-0.3373616635799408,0.21544009447097778,1.5573734045028687
2.088390827178955,-0.5210833549499512,0.16904038190841675,-0.11387902498245239,-0.6351571383282404,-0.9995237494477295,1.1348161867119946,-0.6771589517593384,0.5933040380477905,-0.43525436520576477,-0.3298637568950653,0.0886649340391159,1.1597963571548462
2.103238821029663,-0.34957897663116455,0.160453200340271,-0.1425580382347107,-0.6566688060565146,-0.9930905339121571,1.142835787233372,-0.663497805595398,0.610481858253479,-0.4325304925441742,-0.4544660747051239,0.10773289948701859,1.0249342918395996
2.1231727600097656,-0.26099109649658203,0.04307699203491211,-0.12525588274002075,-0.6773404155542282,-0.9938712889289,1.1417872033277328,-0.6531171798706055,0.6267227530479431,-0.4250371754169464,-0.7795377373695374,-0.1009022444486618,0.6896787881851196
2.146953821182251,-0.15738075971603394,0.023938000202178955,-0.06712383031845093,-0.6981809549653589,-1.0025065441554166,1.1288313680167121,-0.6456130146980286,0.6428253650665283,-0.41226157546043396,-1.1196613311767578,0.02951674722135067,0.5473672151565552
2.1671018600463867,-0.07877492904663086,0.03852111101150513,-0.13228628039360046,-0.717810979629777,-1.0158433310303885,1.1089729849621655,-0.6402038931846619,0.6577373743057251,-0.3968885540962219,-1.2473105192184448,0.008838633075356483,0.4017704427242279
2.1869559288024902,-0.06256979703903198,0.11828088760375977,-0.07224592566490173,-0.7361059226631431,-1.0283281073455113,1.0869859378943614,-0.634695827960968,0.671407163143158,-0.38258808851242065,-1.093781590461731,0.15460221469402313,0.2743281424045563
2.2084169387817383,-0.05667692422866821,0.09950137138366699,-0.03324002027511597,-0.7517782759710575,-1.0404218258770006,1.0614225163662019,-0.6301211714744568,0.682938814163208,-0.3695157766342163,-1.43720281124115,0.36502259969711304,0.0240929052233696
2.2254629135131836,-0.04453539848327637,0.17311310768127441,-0.07444107532501221,-0.7654179641006349,-1.0590893357619113,1.0195854411271956,-0.6287281513214111,0.6928384304046631,-0.3530949652194977,-1.8684966564178467,0.7542144656181335,-0.28080689907073975
2.2440378665924072,0.08582353591918945,0.3275853991508484,-0.20225155353546143,-0.7766196395974894,-1.0778510599660136,0.9666140962947222,-0.6283650398254395,0.7008722424507141,-0.33754345774650574,-1.8395196199417114,1.031603455543518,-0.516381561756134
2.265908718109131,0.26226603984832764,0.3302263021469116,-0.2848777770996094,-0.7803471381210484,-1.090405293763146,0.9179229573427288,-0.6302317976951599,0.7035261392593384,-0.3284188210964203,-1.4918749332427979,1.1361292600631714,-0.7985348105430603
2.2864856719970703,0.4107246398925781,0.04587513208389282,-0.08101743459701538,-0.7785502655501337,-1.0999057974600015,0.8682802786257156,-0.6344490051269531,0.7022480368614197,-0.3229895532131195,-1.6106826066970825,1.4600870609283447,-0.9617576599121094
2.3068158626556396,0.5189151167869568,-0.07414036989212036,-0.005885809659957886,-0.7759247675890191,-1.1073980922447564,0.8148076339993051,-0.6384983062744141,0.7003764510154724,-0.3190501630306244,-1.6479523181915283,1.5264006853103638,-0.9865178465843201
2.325593948364258,0.689866840839386,-0.02742999792098999,0.07238495349884033,-0.7741687030249437,-1.114101160242928,0.7629548964242135,-0.6417253613471985,0.6991219520568848,-0.3153049647808075,-1.4937223196029663,1.3942610025405884,-0.8094208240509033
2.3460328578948975,0.7508935928344727,0.011998593807220459,0.07826778292655945,-0.774766531677131,-1.117699692013702,0.7200572929923881,-0.6424798369407654,0.6995492577552795,-0.31281059980392456,-1.3662217855453491,1.2195446491241455,-0.48600131273269653
2.3663339614868164,0.8272584676742554,-0.048852622509002686,0.10467150807380676,-0.779366667154892,-1.1237997460743798,0.6819158302954735,-0.6414673924446106,0.7028290629386902,-0.30749136209487915,-1.3039205074310303,0.852522075176239,-0.2700280249118805
2.386253833770752,0.9356139302253723,-0.1441994309425354,0.13295242190361023,-0.7880408139789251,-1.1333067310125216,0.6502968810065229,-0.63881516456604,0.7089729309082031,-0.29878494143486023,-1.0924535989761353,0.3677311837673187,0.11062857508659363
2.406186819076538,1.0218725204467773,-0.25837242603302,0.19056525826454163,-0.8083595580944699,-1.1462502902944978,0.6283968798543068,-0.6293706297874451,0.72315514087677,-0.2844983637332916,-0.8682663440704346,0.11404512822628021,0.6799178719520569
2.4262447357177734,0.9989266395568848,-0.3719227910041809,0.184861958026886,-0.8284246263363969,-1.1614653749761523,0.6136852279804474,-0.6201882362365723,0.7368672490119934,-0.2690599858760834,-0.9201762080192566,-0.40084582567214966,0.8700757622718811
2.446253776550293,0.9833381175994873,-0.4057927131652832,0.16019868850708008,-0.8531063890865861,-1.1767830359175464,0.6065033431685041,-0.6072547435760498,0.753326952457428,-0.25246864557266235,-0.4849116802215576,-0.5303734540939331,1.2266095876693726
2.4652657508850098,0.9371882081031799,-0.4055718779563904,0.11329680681228638,-0.8784069778584837,-1.1836588227821556,0.6132872775354276,-0.5911341905593872,0.7697228789329529,-0.24101288616657257,-0.031059354543685913,-0.7330405712127686,1.2219653129577637
2.4860119819641113,0.9205663800239563,-0.2871275544166565,0.057791247963905334,-0.898750975541742,-1.187174334310527,0.6316744243581499,-0.5773351192474365,0.7825499176979065,-0.23302321135997772,0.35480421781539917,-1.0266388654708862,1.0924760103225708
2.5057528018951416,0.9270283579826355,-0.33967840671539307,0.12105073034763336,-0.9159961084868847,-1.1817360977543507,0.6637635761122523,-0.5634876489639282,0.7931696176528931,-0.23100559413433075,0.8209742307662964,-0.6934806704521179,1.4756120443344116
2.525876998901367,0.8157696723937988,-0.4965568780899048,0.039513975381851196,-0.9372684194737502,-1.1527206565580483,0.7086680414940767,-0.5410045981407166,0.80594402551651,-0.24035018682479858,0.8668992519378662,-0.04355897381901741,1.3894383907318115
2.544808864593506,0.7588355541229248,-0.5000925064086914,-0.1736396849155426,-0.9506055096366073,-1.115453857144263,0.7520355888415441,-0.5219734311103821,0.8137675523757935,-0.25559017062187195,0.8372435569763184,0.057492636144161224,0.7722344398498535
2.566131830215454,0.8591574430465698,-0.3901134729385376,-0.20529675483703613,-0.9555428347551157,-1.0831264083608159,0.7902323438628112,-0.5098838210105896,0.8166271448135376,-0.27044180035591125,0.7900403738021851,-0.047507818788290024,0.6900210380554199
2.5856587886810303,0.7618809938430786,-0.3368875980377197,-0.23012107610702515,-0.9590887823939918,-1.0714456426772538,0.8105636306815841,-0.5041447877883911,0.8186686038970947,-0.27499064803123474,0.021373016759753227,-0.3604571223258972,0.37789013981819153
2.6056346893310547,0.5924317836761475,-0.2639999985694885,-0.1390289068222046,-0.9678384839939074,-1.0738869570958511,0.8076940879487463,-0.4984986484050751,0.8236618638038635,-0.2703339457511902,-0.3909263610839844,0.12584149837493896,0.029284069314599037
2.625584840774536,0.32046884298324585,0.13525813817977905,-0.32691490650177,-0.9542022986068972,-1.0676486055098109,0.8156098766620388,-0.5065955519676208,0.815852701663971,-0.278828501701355,1.7634432315826416,-0.20050473511219025,-0.8155921101570129
2.645638942718506,0.445473849773407,0.20552223920822144,-0.20481103658676147,-0.9120657658936666,-1.0333317456948037,0.872129543962577,-0.5258113741874695,0.7907699346542358,-0.3133774697780609,2.6703295707702637,-1.0184353590011597,-1.3090134859085083
2.665648937225342,0.3092459440231323,-0.22693926095962524,0.19665741920471191,-0.8631097052233724,-1.038301086293536,0.9029020363729863,-0.5600699186325073,0.759867787361145,-0.3300345242023468,1.271802306175232,-1.5282963514328003,-1.5884186029434204
2.685473918914795,-0.06752794981002808,-0.31490105390548706,0.33291712403297424,-0.8301646530327618,-1.0771622886278585,0.8868114053129,-0.5941998958587646,0.7380424737930298,-0.31971827149391174,-0.2650216221809387,-1.3228646516799927,-2.1343507766723633
2.705631732940674,-0.5429700016975403,0.16986733675003052,0.12579214572906494,-0.783622134411849,-1.1192782904242806,0.8619365458858449,-0.6373736262321472,0.705849826335907,-0.3090807795524597,1.3144011497497559,-1.2908011674880981,-2.725566864013672
2.725249767303467,-0.615672767162323,0.5027183294296265,-0.048566460609436035,-0.7106696785704336,-1.1441250150994784,0.877900756327496,-0.6899760961532593,0.6523414850234985,-0.31366196274757385,2.35862135887146,-2.235607147216797,-3.344297170639038
2.7454848289489746,-0.6797401309013367,0.0757761001586914,0.3015466034412384,-0.6341180962589477,-1.1750360353146456,0.8963391712849028,-0.7433249950408936,0.5924673080444336,-0.3105645775794983,2.011866569519043,-1.8816838264465332,-3.0201590061187744
2.766209840774536,-1.0667190551757812,0.06498217582702637,0.19865959882736206,-0.5628573049982957,-1.2021611297610229,0.9124373728896025,-0.788917601108551,0.5336049199104309,-0.30475401878356934,1.9634212255477905,-1.7005062103271484,-3.121102809906006
2.7855098247528076,-1.0077626705169678,0.2744954824447632,0.1505591869354248,-0.49541603543610246,-1.2185853409952647,0.9311986684933687,-0.8257639408111572,0.4753977060317993,-0.3034980595111847,1.8245372772216797,-0.9011369943618774,-2.5880000591278076
2.805111885070801,-0.860723614692688,0.1761314868927002,-0.016297757625579834,-0.4423570031658887,-1.2299510506292473,0.9456612673717073,-0.8517550826072693,0.4280707836151123,-0.30210748314857483,1.1547666788101196,-0.8690457344055176,-1.8565338850021362
2.8222768306732178,-0.4571305513381958,0.1608787477016449,0.1484944224357605,-0.41540347189061483,-1.2413897691856641,0.9469970757373359,-0.8657606840133667,0.4035591185092926,-0.295970618724823,-0.013935387134552002,-0.4140841066837311,-0.7602425813674927
2.8450217247009277,-0.36062467098236084,0.06677600741386414,0.07895806431770325,-0.4095758478234554,-1.248652930566587,0.9423543830218639,-0.8701034784317017,0.3982203006744385,-0.29041433334350586,-0.10707830637693405,-0.06749235838651657,0.0936274379491806
2.864262819290161,-0.27472078800201416,0.06624191999435425,0.04848980903625488,-0.4149218742066849,-1.2450881555357074,0.9473311384025376,-0.8670333623886108,0.40311843156814575,-0.29282882809638977,0.4635218381881714,0.15338028967380524,0.4233396351337433
2.885021686553955,-0.279255211353302,-0.06987470388412476,-0.02291738986968994,-0.420172434345811,-1.2336367712603271,0.9647867345081066,-0.8616139888763428,0.40791788697242737,-0.30203378200531006,0.7214404344558716,0.19595178961753845,0.6355968713760376
2.90480899810791,-0.17831701040267944,-0.24942749738693237,0.04317837953567505,-0.4297387280642597,-1.2239771947589568,0.981829176253511,-0.8549471497535706,0.4166333079338074,-0.3090018033981323,0.30801135301589966,0.14117705821990967,0.7833853960037231
2.9248688220977783,-0.25299888849258423,-0.26161178946495056,0.1480647325515747,-0.4439775293803322,-1.2162040043805207,0.9872480034125428,-0.846869945526123,0.42953476309776306,-0.31354638934135437,-0.30068907141685486,0.39154261350631714,0.6743515729904175
2.9438607692718506,-0.20239555835723877,-0.17632371187210083,0.0940428376197815,-0.45851848691818187,-1.211047492912383,0.981366010004371,-0.8393067121505737,0.44262009859085083,-0.31567680835723877,-0.6881508827209473,0.3936324715614319,0.5423544645309448
2.9649319648742676,-0.10928046703338623,-0.13679757714271545,0.11571300029754639,-0.4740742258605405,-1.207719297544307,0.9700256553831949,-0.831713855266571,0.45651495456695557,-0.31598466634750366,-0.7430247664451599,0.436749666929245,0.5500849485397339
2.984722852706909,-0.09512454271316528,-0.14603298902511597,0.06292036175727844,-0.48871177664002013,-1.2038910217391712,0.9608680434420542,-0.8241719007492065,0.46948885917663574,-0.3167351484298706,-0.5470083355903625,0.3871428966522217,0.5282893180847168
3.004680871963501,-0.08464747667312622,-0.10582080483436584,0.06523182988166809,-0.5018341820054605,-1.1989805709598675,0.9539172858012885,-0.8167960047721863,0.48103436827659607,-0.318512499332428,-0.562885582447052,0.4328726530075073,0.47139254212379456
3.024904727935791,-0.12194281816482544,-0.15823107957839966,0.04759401082992554,-0.5155272642737684,-1.1964781455038627,0.9407533698774537,-0.8097893595695496,0.49299365282058716,-0.3181171119213104,-1.0405138731002808,0.4650874137878418,0.4028218686580658
3.0444397926330566,-0.13213825225830078,-0.13621264696121216,-0.013546139001846313,-0.5315250750285466,-1.1987446749419177,0.9174017137352374,-0.8030576109886169,0.5068485736846924,-0.3133734166622162,-1.3935035467147827,0.4992167055606842,0.3402688503265381
3.0647318363189697,-0.13738542795181274,-0.06708675622940063,-0.06764647364616394,-0.5474561643743588,-1.2029336913818938,0.8890734472506605,-0.7967270612716675,0.5205168724060059,-0.30706360936164856,-1.4218357801437378,0.5587043762207031,0.2943357229232788
3.0845978260040283,-0.11249351501464844,-0.04922807216644287,-0.062125056982040405,-0.563270084945477,-1.205207918853359,0.8607803170037791,-0.7896365523338318,0.5339539647102356,-0.30227014422416687,-1.3870179653167725,0.736399233341217,0.34023746848106384
3.104444980621338,-0.1602168083190918,-0.057850539684295654,-0.044555991888046265,-0.5799998480542905,-1.2035968282241971,0.8322524299658398,-0.7807011604309082,0.5480238199234009,-0.3002926707267761,-1.48218834400177,0.9965693354606628,0.3653287887573242
3.122340679168701,-0.19940686225891113,-0.0550687313079834,-0.043737590312957764,-0.5979968552304217,-1.2001751976077086,0.7992253736452277,-0.7703502178192139,0.5629881024360657,-0.299341082572937,-1.7165786027908325,1.1835275888442993,0.3460098206996918
3.1433496475219727,-0.22979938983917236,-0.05872464179992676,-0.0728173553943634,-0.6179552206151708,-1.1988124843673118,0.7602830179903559,-0.7593210935592651,0.5793697237968445,-0.2962470054626465,-1.9965778589248657,1.1934558153152466,0.3686329126358032
3.164318799972534,-0.28145062923431396,-0.08450484275817871,-0.02025657892227173,-0.6413573057225891,-1.2021447813582544,0.714084262420963,-0.747449517250061,0.598283588886261,-0.28874921798706055,-2.4049313068389893,1.2472020387649536,0.4647577106952667
3.184114933013916,-0.39626622200012207,-0.13921695947647095,0.11080998182296753,-0.6681089734238616,-1.2110008169824311,0.6557276378405411,-0.7347305417060852,0.6195026636123657,-0.2763831615447998,-2.8220345973968506,1.3919261693954468,0.3953899145126343
3.2045347690582275,-0.39382755756378174,-0.11634469032287598,0.12329849600791931,-0.6962813987767116,-1.2237773108429804,0.591120120191385,-0.7214983105659485,0.641369104385376,-0.2609327435493469,-2.8099193572998047,1.3977670669555664,0.5470219254493713
3.224043846130371,-0.369362473487854,-0.08237689733505249,0.11217696964740753,-0.7252937611682224,-1.236649125786036,0.529545088463551,-0.7069162130355835,0.66335529088974,-0.24541673064231873,-2.5443503856658936,1.3276915550231934,0.6014547944068909
3.243907928466797,-0.40568190813064575,-0.0426519513130188,0.1483178734779358,-0.7511552050336879,-1.2470701054186708,0.47400555237894854,-0.6929356455802917,0.6824835538864136,-0.23250067234039307,-2.1780288219451904,1.3730669021606445,0.5054675340652466
3.264335870742798,-0.2415628433227539,-0.14886552095413208,0.10745501518249512,-0.7720027692953034,-1.2551701511618376,0.4242368452566591,-0.6811208724975586,0.6975716352462769,-0.22241473197937012,-1.952737808227539,1.2865679264068604,0.36484047770500183
3.283921718597412,-0.09100067615509033,-0.14138448238372803,0.08124279975891113,-0.7894162417115748,-1.2664439778025298,0.37540559947027285,-0.6718930006027222,0.7099422812461853,-0.21104933321475983,-1.9337718486785889,1.0538803339004517,0.192317396402359
3.3037209510803223,-0.011475622653961182,-0.12062442302703857,0.09597960114479065,-0.8023594752352495,-1.2850900564260008,0.32041423039659583,-0.6668385863304138,0.7189979553222656,-0.19587893784046173,-2.1375324726104736,1.0323512554168701,-0.037997785955667496
3.3237709999084473,0.12627708911895752,-0.11216849088668823,0.07788996398448944,-0.8127303546465111,-1.306332167405724,0.26161409745511416,-0.6636154055595398,0.7261670231819153,-0.17971192300319672,-2.0082433223724365,1.1081055402755737,-0.06992390751838684
3.3436279296875,0.23204290866851807,-0.03771483898162842,0.0044545382261276245,-0.8182641163527334,-1.32192694304702,0.20931761349966677,-0.6624323725700378,0.7299605011940002,-0.16834920644760132,-1.503587245941162,1.1408056020736694,-0.3061830997467041
3.364078998565674,0.3907827138900757,0.008810162544250488,-0.09929274022579193,-0.8157654426094402,-1.326991261632801,0.17677763414772696,-0.6650441288948059,0.7282503843307495,-0.16543199121952057,-0.794791042804718,0.9424065351486206,-0.4209965467453003
3.383635997772217,0.4448562264442444,0.08738940954208374,-0.0782817006111145,-0.8121927706386569,-1.329073265214077,0.1506625248009799,-0.6679091453552246,0.7257973551750183,-0.16466881334781647,-0.7474358081817627,0.8191876411437988,-0.44214364886283875
3.402697801589966,0.4437074661254883,0.024691641330718994,-0.1118566244840622,-0.8061113986421965,-1.3300586054639987,0.12516689432313094,-0.6723451018333435,0.7216005325317383,-0.1650598794221878,-0.9289544820785522,0.9152878522872925,-0.5005902051925659
3.423177719116211,0.49678468704223633,0.07605791091918945,-0.11484403908252716,-0.8012453902517414,-1.3345613915370567,0.09237017846880086,-0.6764874458312988,0.7182232141494751,-0.16285069286823273,-1.1537364721298218,0.9722357988357544,-0.49090346693992615
3.4465248584747314,0.5488913059234619,0.0892791748046875,-0.1688966155052185,-0.7988915026128554,-1.3425707879421707,0.05544081546475192,-0.6794149279594421,0.7165833711624146,-0.1578093320131302,-1.2970659732818604,0.8771926164627075,-0.3436727523803711
3.46577787399292,0.5221450328826904,0.17045754194259644,-0.18372048437595367,-0.7988673274112537,-1.3545863072111366,0.016444294018696716,-0.6812790036201477,0.7165665030479431,-0.1496383398771286,-1.3115650415420532,0.7422507405281067,-0.255214124917984
3.483616828918457,0.4486120343208313,0.2925601601600647,-0.23587363958358765,-0.7991272590015357,-1.367389872957893,-0.021834589872879933,-0.6829565167427063,0.7167477607727051,-0.14086589217185974,-1.1692299842834473,0.7491415143013,-0.27280765771865845
3.503413677215576,0.4239845871925354,0.3024889826774597,-0.2907906770706177,-0.7991995684905915,-1.370703549463533,-0.049152251118907864,-0.6833687424659729,0.7167981863021851,-0.1385917067527771,-0.7516316175460815,0.8759767413139343,-0.06730788201093674
3.5232319831848145,0.419045090675354,0.30782949924468994,-0.3134598731994629,-0.8019829041495657,-1.3643539587224174,-0.06596706492756858,-0.680519700050354,0.7187361717224121,-0.1425185203552246,-0.5018476247787476,0.9583725333213806,0.06805889308452606
3.544802665710449,0.3735818862915039,0.24931097030639648,-0.3166576623916626,-0.8058987353339577,-1.3559644349757172,-0.07859313788785632,-0.6765450835227966,0.7214532494544983,-0.1476215273141861,-0.4653252363204956,0.8382725119590759,0.10464150458574295
3.563598871231079,0.33701086044311523,0.1613667607307434,-0.2209169715642929,-0.8095306235167178,-1.3503659808530948,-0.09358647516688703,-0.673146665096283,0.7239634394645691,-0.1508328765630722,-0.6375711560249329,0.812225341796875,0.020206838846206665
3.5834357738494873,0.313987672328949,0.10649234056472778,-0.1307724118232727,-0.812593674364194,-1.3498761145508296,-0.11408252442328057,-0.6709060072898865,0.7260730862617493,-0.15067599713802338,-0.7659990191459656,0.7299373149871826,-0.018759410828351974
3.6023716926574707,0.27317512035369873,0.08027130365371704,-0.11384814977645874,-0.8153364841301337,-1.3511809770747654,-0.13381066580896236,-0.6691558957099915,0.7279563546180725,-0.14936602115631104,-0.5742500424385071,0.5352025628089905,-0.021198570728302002
3.624764919281006,0.22368234395980835,0.10933268070220947,-0.1152564287185669,-0.8160362492320897,-1.3484421571961032,-0.1417267355990238,-0.6682471632957458,0.7284359335899353,-0.1510857492685318,0.07697664946317673,0.3612459599971771,0.04518027603626251
3.6444649696350098,0.16239124536514282,0.1353333592414856,-0.05208529531955719,-0.8186016193401731,-1.3323842314822676,-0.12922779621129454,-0.6639171838760376,0.7301911115646362,-0.1613546758890152,0.6554431915283203,0.3391930162906647,0.3394056558609009
3.663270950317383,0.02692258358001709,0.08383458852767944,0.041178539395332336,-0.821285729883638,-1.307215243845846,-0.10433315047911429,-0.6577513217926025,0.7320224046707153,-0.17750059068202972,0.8266478180885315,0.38875508308410645,0.32660841941833496
3.6833858489990234,-0.08881676197052002,0.03239792585372925,0.15417543053627014,-0.8225846064126086,-1.2822107057522765,-0.08282231674544731,-0.6521957516670227,0.7329066395759583,-0.19361938536167145,0.4838380217552185,0.538077712059021,0.17563779652118683
3.703514814376831,-0.13197749853134155,-0.057444095611572266,0.24606233835220337,-0.8228513069390495,-1.2666688070021979,-0.0785409184413066,-0.6489214897155762,0.7330880761146545,-0.20367345213890076,-0.27026501297950745,0.6793374419212341,-0.0805635079741478
3.722907781600952,-0.07423633337020874,-0.13846296072006226,0.2660216689109802,-0.8233148236458774,-1.2663224288277142,-0.09703129530262178,-0.6485267281532288,0.7334032654762268,-0.20379632711410522,-0.8702048063278198,0.6913646459579468,-0.19093747437000275
3.7430877685546875,0.046336352825164795,-0.16558825969696045,0.19152477383613586,-0.8259151369650493,-1.2737864696234191,-0.12412037222590137,-0.6482040882110596,0.73516845703125,-0.19839128851890564,-0.8829147219657898,0.5261189341545105,-0.13066010177135468
3.7634077072143555,0.16152822971343994,-0.12136346101760864,0.07561430335044861,-0.8267185942610676,-1.280893553147018,-0.14397883735159478,-0.6490312218666077,0.7357128858566284,-0.19361050426959991,-0.3875325322151184,0.17605701088905334,-0.18238015472888947
3.784618854522705,0.24777668714523315,0.014568448066711426,-0.039982497692108154,-0.8243015208925193,-1.2841989382584917,-0.1463258133209001,-0.6513716578483582,0.7340736389160156,-0.19196633994579315,0.3257806897163391,-0.3218550384044647,-0.018871648237109184
3.804443836212158,0.1327001452445984,0.12955206632614136,-0.0751272439956665,-0.8229415924310087,-1.2841691882399595,-0.13180821238292112,-0.6523229479789734,0.7331494688987732,-0.1922677904367447,0.5454160571098328,-0.6449697613716125,0.0051282914355397224
3.8208107948303223,-0.08272629976272583,0.14406466484069824,0.025058358907699585,-0.8170791283235437,-1.285067506093293,-0.11865859998514737,-0.6566076874732971,0.7291500568389893,-0.1928897649049759,0.4164639711380005,-0.3409591317176819,-0.21359023451805115
3.8439748287200928,0.04167449474334717,0.06312161684036255,0.1419963538646698,-0.8135337050435429,-1.283609241626423,-0.11372886077536357,-0.6588008403778076,0.7267191410064697,-0.1945781111717224,0.022850871086120605,0.08760020136833191,-0.033200670033693314
3.862691879272461,0.15225249528884888,0.01508253812789917,0.14851424098014832,-0.8146069801510306,-1.2807874605146998,-0.11489981040401341,-0.6575014591217041,0.7274559736251831,-0.19621318578720093,-0.05202150344848633,0.25135308504104614,0.10502482950687408
3.881215810775757,0.1535605788230896,0.02496182918548584,0.12622994184494019,-0.8155760238313011,-1.273862194153791,-0.1131817748493229,-0.6554526686668396,0.7281205654144287,-0.20055553317070007,0.1833825409412384,0.31756407022476196,-0.02461901679635048
3.903317928314209,0.1552722454071045,-0.04212754964828491,0.08774858713150024,-0.8119049816970129,-1.2609448119841271,-0.10457991969147189,-0.655348539352417,0.7255993485450745,-0.20981886982917786,0.3920952081680298,0.34121260046958923,-0.11404027044773102
3.9223899841308594,0.269326388835907,-0.1388946771621704,0.16511240601539612,-0.8082471158360377,-1.250346134801695,-0.09945957572513914,-0.6556025147438049,0.7230774760246277,-0.21758735179901123,0.02770261839032173,0.3344159424304962,-0.1224527657032013
3.9424548149108887,0.3418182134628296,-0.1900322437286377,0.22749441862106323,-0.8066878427721955,-1.2427144837086237,-0.1016954955565515,-0.6549895405769348,0.72199946641922,-0.222947359085083,-0.15593494474887848,0.6053470969200134,-0.021601831540465355
3.962641716003418,0.35481518507003784,-0.13424593210220337,0.24611762166023254,-0.8088956643892397,-1.2321602193351755,-0.10798911858556913,-0.6510951519012451,0.7235252857208252,-0.22931769490242004,-0.30574968457221985,0.8896632790565491,-0.01432484108954668
3.9823548793792725,0.33829331398010254,-0.09318947792053223,0.17193251848220825,-0.8092122508693854,-1.222856695411786,-0.120088388765135,-0.6487181186676025,0.7237437963485718,-0.23528704047203064,-0.4635009765625,0.8826943635940552,-0.2472749650478363
4.002297878265381,0.35018491744995117,-0.03198343515396118,-0.021204769611358643,-0.805235918287895,-1.2183235007712192,-0.13437997370347177,-0.6503405570983887,0.7209941148757935,-0.23921695351600647,-0.14844849705696106,0.5502707362174988,-0.43867242336273193
4.022337913513184,0.4656277298927307,0.01592850685119629,-0.07508939504623413,-0.798893904720944,-1.2113102661757562,-0.13701066331105527,-0.6529140472412109,0.7165850400924683,-0.24537569284439087,0.03295578435063362,0.3726765215396881,-0.2584896683692932
4.041273832321167,0.4794982671737671,0.020717084407806396,0.06104522943496704,-0.7933133254185344,-1.2045913645328887,-0.13704517549889567,-0.6549743413925171,0.7126814126968384,-0.25118499994277954,0.0736822709441185,0.3813403844833374,-0.2211540788412094
4.062264919281006,0.42271602153778076,-0.062158823013305664,0.022977054119110107,-0.7893917184127044,-1.1971621961498518,-0.14006812877794095,-0.6556872129440308,0.7099249958992004,-0.2570621073246002,-0.09025823324918747,0.5356956124305725,-0.2754340171813965
4.082083702087402,0.44656693935394287,-0.08138060569763184,0.008885949850082397,-0.7839408807118007,-1.1936137322301728,-0.15152541654849913,-0.6583589315414429,0.7060755491256714,-0.2608085870742798,-0.48844411969184875,0.6050289869308472,-0.525456428527832
4.10223388671875,0.4956362843513489,-0.12615221738815308,-0.06972247362136841,-0.7758745086413719,-1.1938573293893728,-0.16647112631923977,-0.6636965274810791,0.7003405690193176,-0.2627360224723816,-0.13567766547203064,0.4043523371219635,-0.5412037968635559
4.121893882751465,0.522524893283844,-0.09088075160980225,-0.07580149173736572,-0.7647644618588927,-1.187572477405129,-0.16576425384757723,-0.6692076325416565,0.6923670768737793,-0.26979485154151917,0.685205340385437,0.19447091221809387,-0.5467888116836548
4.141764879226685,0.43567633628845215,0.1083676815032959,-0.015714049339294434,-0.7445529568078056,-1.170654144513414,-0.14490616911182894,-0.6772992014884949,0.6776431202888489,-0.28647103905677795,1.540677785873413,0.07770557701587677,-0.7731295228004456
4.161248683929443,0.3297315239906311,0.023804187774658203,-0.019927382469177246,-0.7120419926905125,-1.1478153344817306,-0.10965549125934118,-0.6903119087219238,0.6533809900283813,-0.31074586510658264,1.9513094425201416,-0.17330187559127808,-1.1496541500091553
4.181727886199951,0.27043354511260986,-0.09453248977661133,0.09632936120033264,-0.6746486207385763,-1.1367062038876314,-0.08113748264249573,-0.7084981203079224,0.6246229410171509,-0.3284461200237274,1.5806787014007568,-0.5264289379119873,-1.2942628860473633
4.2018280029296875,0.05743896961212158,-0.1780194640159607,0.06965163350105286,-0.640016840527547,-1.1384788510144213,-0.06585287396982481,-0.7282915711402893,0.5972089767456055,-0.33605480194091797,0.9383115768432617,-0.5989061594009399,-1.5146441459655762
4.221683979034424,-0.2543356418609619,-0.0750511884689331,0.046565860509872437,-0.5987829869417328,-1.1496437510603308,-0.06779002237416074,-0.7538430094718933,0.5636376142501831,-0.33768826723098755,0.8367566466331482,-0.3571920692920685,-2.2801949977874756
4.24156379699707,-0.40705758333206177,0.030278146266937256,-0.056559085845947266,-0.5413397654100603,-1.1520589316900696,-0.060662799474475934,-0.7829753756523132,0.5152846574783325,-0.34847021102905273,2.198265790939331,-0.27350330352783203,-2.709723711013794
4.2617926597595215,-0.4977145791053772,0.11946818232536316,0.06110700964927673,-0.4665318779555788,-1.1377256486900795,-0.027614168670181613,-0.8106807470321655,0.44979149103164673,-0.37481242418289185,3.5684783458709717,0.13241834938526154,-2.9202640056610107
4.281713962554932,-0.8325556516647339,-0.04221218824386597,0.12319236993789673,-0.3786986531689243,-1.1126757520181885,0.022440675325439887,-0.8333379030227661,0.36971163749694824,-0.410927414894104,4.083517551422119,0.27113956212997437,-3.164358377456665
4.301495790481567,-1.1188939809799194,-0.0871078372001648,0.22056379914283752,-0.28655486489685617,-1.0956907227062962,0.06111528319907359,-0.8529840111732483,0.2826492488384247,-0.4387798011302948,3.0222272872924805,0.1831415444612503,-3.2490830421447754
4.321521759033203,-1.058384656906128,-0.18418321013450623,0.3763551712036133,-0.21941742717101903,-1.0925363700814077,0.06262783389592286,-0.8665116429328918,0.217661052942276,-0.44920065999031067,0.11068911105394363,0.08548814058303833,-2.594548225402832
4.341187953948975,-0.9379170536994934,-0.20965977013111115,0.48558181524276733,-0.19482242630536273,-1.0958143521580992,0.023157913480097096,-0.8724772334098816,0.19359232485294342,-0.4486708343029022,-2.1742405891418457,0.4686494767665863,-1.360765814781189
4.361478805541992,-0.7736507058143616,0.07793135941028595,0.40913546085357666,-0.20331270666378579,-1.0915467568969937,-0.02767622812772366,-0.8690648078918457,0.20191490650177002,-0.45161592960357666,-2.11970853805542,0.8440919518470764,-0.21546748280525208
4.381109714508057,-0.5646205544471741,0.31064730882644653,0.2527201771736145,-0.2167415430611661,-1.0754238831602616,-0.039052609945111276,-0.8592075705528259,0.21504855155944824,-0.4642375409603119,0.8130466938018799,1.1333693265914917,0.8701109290122986
4.401129722595215,-0.6324831247329712,0.07734702527523041,0.18963658809661865,-0.21395450588126042,-1.0373759506312037,0.019513686700221244,-0.8414396047592163,0.21232588589191437,-0.4968876242637634,3.910933017730713,1.1727008819580078,1.61333429813385
4.421187877655029,-0.5498908162117004,-0.4533401131629944,0.24447238445281982,-0.1996903090193367,-1.0065331550578511,0.10771717262618258,-0.8281914591789246,0.19836580753326416,-0.5241659879684448,3.675274133682251,0.022530298680067062,1.8515328168869019
4.4411327838897705,-0.44083499908447266,-0.930654764175415,0.5409815311431885,-0.20477271353798307,-1.001789691577802,0.16923032072317695,-0.8248357772827148,0.20334462821483612,-0.527538537979126,0.9414179921150208,-0.5403793454170227,1.6944537162780762
4.46264386177063,-0.6557458639144897,-0.8555018305778503,0.3869903087615967,-0.23278160532608452,-1.0079080502055628,0.18180964574192737,-0.8229070901870728,0.23068499565124512,-0.5192382335662842,-0.9669204950332642,-0.31748801469802856,1.363942265510559
4.481208801269531,-0.6518860459327698,-0.5513054132461548,0.024784743785858154,-0.27204043670270234,-1.0089874475203764,0.18063584931843005,-0.815170168876648,0.2686973810195923,-0.5131270289421082,-1.1471580266952515,0.21677540242671967,1.8989384174346924
4.50115966796875,-0.7034240961074829,-0.2983696162700653,-0.12847399711608887,-0.3173090017691751,-1.001301916735075,0.1850091394766906,-0.8001311421394348,0.3120110332965851,-0.5122883319854736,-0.8694730401039124,0.31628912687301636,2.108738660812378
4.521185874938965,-0.7442888021469116,-0.2375487983226776,-0.03569906949996948,-0.36488523309145765,-0.9914479936364587,0.19630692179142215,-0.7817274332046509,0.3568420708179474,-0.5114353895187378,-0.935801088809967,0.3067648708820343,2.5144824981689453
4.541197776794434,-0.7787992358207703,-0.3468935787677765,0.13575422763824463,-0.42088642219090017,-0.9829228741206211,0.207385109435213,-0.75950026512146,0.40856966376304626,-0.5061918497085571,-1.2665032148361206,0.0750093087553978,2.6744272708892822
4.561314821243286,-0.8597437143325806,-0.25785031914711,0.14542829990386963,-0.4785782271281456,-0.9798534390996907,0.21704044209591855,-0.7371190190315247,0.46051761507987976,-0.494549423456192,-1.0981968641281128,-0.13440828025341034,2.602620840072632
4.580927848815918,-0.9492412209510803,-0.18836253881454468,0.11019423604011536,-0.527418071308449,-0.9748594551381871,0.23401328659406173,-0.7151568531990051,0.5033039450645447,-0.48501113057136536,-0.39705413579940796,-0.14133621752262115,2.3101634979248047
4.601208686828613,-0.8965203166007996,-0.15081310272216797,0.098960280418396,-0.5652291179839782,-0.963828636996492,0.2596187789560875,-0.6936286091804504,0.5356093049049377,-0.4816659986972809,-0.08883881568908691,-0.19800180196762085,2.0474908351898193
4.6212158203125,-0.7619454264640808,-0.19056737422943115,-0.06478691101074219,-0.5972962242691252,-0.9611569024992367,0.28382135638162365,-0.6779043674468994,0.5624088644981384,-0.4734364151954651,-0.26444169878959656,-0.7644132971763611,1.7965267896652222
4.641229867935181,-0.6996155381202698,-0.17296022176742554,-0.004996359348297119,-0.6312835692236399,-0.9712775187253436,0.29449047777965087,-0.6664885878562927,0.5901814103126526,-0.45549872517585754,-0.9290715456008911,-0.8356808423995972,1.4599498510360718
4.6612467765808105,-0.6489899754524231,-0.13125211000442505,-0.03701221942901611,-0.6657401499855619,-0.9886509360298243,0.29125885824112,-0.6569182276725769,0.6176413893699646,-0.43240922689437866,-1.110690712928772,-0.7594722509384155,1.2394448518753052
4.681243896484375,-0.5483708381652832,-0.01915895938873291,-0.14108425378799438,-0.6949267172016392,-1.008169925442519,0.2862100244367707,-0.6497035026550293,0.6403291821479797,-0.4097123444080353,-0.883072018623352,-0.8795801401138306,0.9969654679298401
4.701253890991211,-0.41938233375549316,-0.015092313289642334,-0.09490308165550232,-0.7193843469497591,-1.0300842847539229,0.2793999364060454,-0.6449028253555298,0.6589217185974121,-0.3871983289718628,-0.8742946982383728,-0.844724714756012,0.8147948384284973
4.721264839172363,-0.31452715396881104,0.06557905673980713,-0.07903590798377991,-0.7384323338524427,-1.058819853692836,0.2639590223103546,-0.6447013020515442,0.6731294393539429,-0.3622940480709076,-1.073613166809082,-0.9818076491355896,0.32875290513038635
4.74127197265625,-0.2110956907272339,0.0999072790145874,-0.07174116373062134,-0.7559516997267403,-1.0935765719137485,0.24061644835785212,-0.6463261842727661,0.6859814524650574,-0.33420372009277344,-1.2610193490982056,-0.9284704923629761,0.3632989525794983
4.761266708374023,-0.14347469806671143,0.16046041250228882,-0.0967792272567749,-0.7722799989889603,-1.1310362543737533,0.21328410837024286,-0.6481664776802063,0.6977702379226685,-0.3049542009830475,-1.2138960361480713,-0.9569951891899109,0.21140128374099731
4.781884670257568,0.003533482551574707,0.1654415726661682,-0.1337859332561493,-0.7867948680931603,-1.1673353205297357,0.18861592411615383,-0.6494227647781372,0.7080937027931213,-0.2772248685359955,-1.015871524810791,-0.9017693996429443,0.3766220510005951
4.801601886749268,0.08925879001617432,0.2524099349975586,-0.12461602687835693,-0.7983460703892581,-1.2027201011984388,0.16361478492124573,-0.6511484384536743,0.7162027955055237,-0.25111645460128784,-1.0235885381698608,-0.8490678668022156,0.02151130512356758
4.821366786956787,0.14443498849868774,0.23780608177185059,-0.17693382501602173,-0.8026646485352624,-1.2421307154454764,0.13302838844484136,-0.6576033234596252,0.7192100286483765,-0.22426548600196838,-1.1227052211761475,-0.8585084676742554,-0.2281963974237442
4.8415138721466064,0.2760896682739258,0.023817121982574463,-0.17863008379936218,-0.8060741622952193,-1.282686376740194,0.09856145699635094,-0.6638001799583435,0.7215747237205505,-0.1967208832502365,-1.2776827812194824,-0.7740251421928406,-0.19973188638687134
4.86133885383606,0.38880008459091187,-0.023443400859832764,-0.1987323760986328,-0.8097899972919365,-1.3276416035357856,0.06104801832496836,-0.6693634390830994,0.7241423726081848,-0.16604426503181458,-1.2918012142181396,-1.0409492254257202,-0.024896135553717613
4.8814637660980225,0.48366087675094604,-0.22937464714050293,-0.18986783921718597,-0.8195734405498607,-1.376079970254733,0.027952042142635906,-0.6696349382400513,0.7308547496795654,-0.1320621371269226,-1.1412084102630615,-1.3899973630905151,0.5066273808479309
4.901375770568848,0.5121904611587524,-0.3294983506202698,-0.1515907198190689,-0.8371031820148677,-1.4276052151199252,-9.609236127990011e-05,-0.6627642512321472,0.7427064776420593,-0.09555593132972717,-1.0291366577148438,-1.725598692893982,0.8739587664604187
4.9214067459106445,0.5112836956977844,-0.27969539165496826,-0.23656076192855835,-0.8520647481193604,-1.4872767893053769,-0.026916108027529816,-0.6561353206634521,0.752641499042511,-0.054927896708250046,-0.8476975560188293,-2.329594373703003,0.08800540864467621
4.941381931304932,0.43201011419296265,0.0023283958435058594,-0.4814218282699585,-0.8383208357730954,-1.5581196245117817,-0.04612634384093337,-0.6686586737632751,0.7435212731361389,-0.008476841263473034,0.07681828737258911,-3.261035680770874,-1.302550196647644
4.96136474609375,0.43924444913864136,0.06570720672607422,-0.6089950799942017,-0.818222360251482,-1.5937942428972596,-0.01470659638438148,-0.6833392977714539,0.7299319505691528,0.01571815088391304,1.8697514533996582,-2.3485121726989746,-0.4512344002723694
4.981421947479248,0.3207746744155884,0.19742530584335327,-0.5979115962982178,-0.8170337657416321,-1.5795079940968606,0.04653641888333692,-0.6843611001968384,0.7291190028190613,0.005962077062577009,1.9519397020339966,-0.8354223370552063,-0.038499344140291214
5.001399993896484,0.3803052306175232,0.035376548767089844,-0.6034746766090393,-0.809041894363312,-1.5620042121958775,0.08353161972192324,-0.6901654601097107,0.7236262559890747,-0.006068170070648193,0.5021738409996033,-0.13052387535572052,-0.6543775796890259
5.021426677703857,0.7778181433677673,-0.19677144289016724,-0.49883896112442017,-0.8002403218866558,-1.5642003660321588,0.07609981076254707,-0.6965193152427673,0.7175235152244568,-0.0045942808501422405,-0.9067078232765198,0.31175944209098816,-0.1405833512544632
5.041478872299194,0.9934320449829102,-0.009709358215332031,-0.48347675800323486,-0.8037670590673809,-1.5810451331888347,0.046136371164020556,-0.6939630508422852,0.7199755311012268,0.007112542167305946,-0.911948561668396,0.12639287114143372,0.45488399267196655
5.061417818069458,0.8992559909820557,0.4592469334602356,-0.5772886276245117,-0.8141900195427484,-1.5824484521857094,0.03844679602519422,-0.6864112019538879,0.7271698117256165,0.007998512126505375,0.5544580817222595,0.37144702672958374,0.5297182202339172
5.081485748291016,0.7970086932182312,0.4962114095687866,-0.4005432724952698,-0.8284463677758221,-1.541516964114744,0.07518404501684943,-0.675731897354126,0.7368819713592529,-0.019790655001997948,1.6739537715911865,1.0688462257385254,1.0118343830108643
5.101440906524658,0.8756067752838135,0.21835774183273315,-0.17941194772720337,-0.8498105820520943,-1.4841672571182742,0.12506176740951264,-0.6576502919197083,0.7511553764343262,-0.057114582508802414,1.4247856140136719,0.8346022367477417,1.2728233337402344
5.121488809585571,0.898189902305603,0.09704482555389404,-0.026450566947460175,-0.876103803807524,-1.440603579409204,0.16405817202772943,-0.6347315907478333,0.768250584602356,-0.08310753852128983,0.8506532907485962,0.5888763070106506,1.6175779104232788
5.1414618492126465,0.7667303085327148,0.021250665187835693,0.014265365898609161,-0.9072551505267741,-1.4062995140941612,0.19445810000500713,-0.6075963377952576,0.7878161072731018,-0.10085902363061905,0.618722677230835,0.4804651141166687,1.6919366121292114
5.16146183013916,0.6658263802528381,-0.045773863792419434,0.02984536439180374,-0.9357360671301984,-1.3728653757733562,0.22630640254234005,-0.5816435813903809,0.8050359487533569,-0.11665261536836624,0.8125671744346619,0.2542482316493988,1.4710549116134644
5.181467771530151,0.6599439382553101,-0.04738342761993408,0.022257685661315918,-0.955697462632766,-1.3307005850867137,0.27452030055787463,-0.5604871511459351,0.8167163729667664,-0.1372174322605133,1.730483889579773,0.0580301471054554,0.9734824895858765
5.201478958129883,0.6621272563934326,-0.04268944263458252,0.03427647054195404,-0.9594460020549355,-1.2608166723078889,0.36168052680995577,-0.5466182827949524,0.8188737034797668,-0.17508460581302643,2.8936078548431396,-0.09804298728704453,0.7708353400230408
5.221486806869507,0.6466582417488098,-0.14340919256210327,0.14458385109901428,-0.9506686161128888,-1.1766546836816274,0.4659776898360836,-0.5365813374519348,0.8138042688369751,-0.22316667437553406,2.9008326530456543,-0.06399429589509964,0.49190157651901245
5.241492748260498,0.6514371633529663,-0.2097492814064026,0.1853477954864502,-0.9382171827693028,-1.1198645885467653,0.5439379142970352,-0.5321286916732788,0.8065053224563599,-0.2576592266559601,1.6812713146209717,-0.6494238376617432,0.26029202342033386
5.26151180267334,0.5090076327323914,0.11893999576568604,0.06250733137130737,-0.92908652984479,-1.0959344641389754,0.589645845183831,-0.5323382616043091,0.8010734915733337,-0.27367374300956726,1.3080800771713257,-0.5017349720001221,0.16772125661373138
5.281559944152832,0.38187646865844727,0.18217110633850098,0.03409889340400696,-0.9156972349228375,-1.0752237188623384,0.6237241807095998,-0.535944402217865,0.792987585067749,-0.28971415758132935,1.2390578985214233,-0.2902979254722595,-0.5576555728912354
5.30151891708374,0.45589590072631836,0.15045291185379028,0.037037014961242676,-0.8823209284387777,-1.052658721064846,0.6639380615487662,-0.5519652366638184,0.7722156047821045,-0.31467071175575256,2.660227060317993,-0.4946054518222809,-0.8674978613853455
5.321529865264893,0.5003142356872559,0.12509965896606445,0.20632490515708923,-0.8382081791626391,-1.0131723199146865,0.7279266805057878,-0.5674834847450256,0.7434459328651428,-0.353907972574234,2.9848968982696533,-0.5069414377212524,-0.9269818663597107
5.341536998748779,0.346757173538208,-0.2479708194732666,0.29894667863845825,-0.7884036912617264,-0.9919535609141484,0.7786758353281921,-0.590134859085083,0.7092288136482239,-0.38566240668296814,2.5517547130584717,-1.0679634809494019,-1.4244917631149292
5.3609137535095215,0.16723895072937012,-0.3109390139579773,0.3144589364528656,-0.7364222221335113,-0.9996694530491417,0.8055779650361926,-0.6232935786247253,0.6716415286064148,-0.4005032181739807,1.9915804862976074,-1.5881544351577759,-1.8723984956741333
5.381554841995239,-0.13239002227783203,-0.23513811826705933,0.2500957250595093,-0.680263629780017,-1.027864611855139,0.8170205467501424,-0.665614128112793,0.6289979815483093,-0.40164607763290405,1.6734187602996826,-1.9218138456344604,-2.516489028930664
5.400801658630371,-0.4707927107810974,-0.16391903162002563,0.3116627335548401,-0.6171883248090373,-1.061645030036623,0.8174987137612495,-0.7120686173439026,0.5787445306777954,-0.39750874042510986,1.5435477495193481,-1.4660581350326538,-2.8342838287353516
5.42100191116333,-0.7391208410263062,-0.11006957292556763,0.16604453325271606,-0.549708117950403,-1.0906713011529228,0.8176847251437239,-0.7562710046768188,0.5224383473396301,-0.3938430845737457,1.7695446014404297,-1.5699645280838013,-3.1418168544769287
5.441592693328857,-0.8741772770881653,-0.0051538944244384766,-0.08032214641571045,-0.4758690039976823,-1.1235157773859474,0.8250537267587605,-0.8014514446258545,0.45811107754707336,-0.3844606280326843,2.1338207721710205,-2.1392457485198975,-3.0884652137756348
5.461673736572266,-0.9066179990768433,-0.00850588083267212,-0.20161017775535583,-0.40493400892176334,-1.1618885792155362,0.8416735446791109,-0.8433514833450317,0.39395812153816223,-0.36545222997665405,1.9274011850357056,-2.199577808380127,-2.7753686904907227
5.481598854064941,-0.9756079316139221,0.049867182970047,-0.005666881799697876,-0.34585697073708604,-1.197208259987606,0.8461509036158914,-0.8758934736251831,0.3390030264854431,-0.343347430229187,0.7065953016281128,-1.4493160247802734,-2.4546632766723633
5.501634836196899,-0.7894008159637451,0.0318029522895813,0.037800729274749756,-0.30816498320316293,-1.2214136075840671,0.832567008390647,-0.8953220844268799,0.3033105731010437,-0.32619190216064453,-0.5100641846656799,-0.5986297130584717,-1.5006283521652222
5.521618843078613,-0.6320738792419434,0.1768505871295929,0.036714524030685425,-0.2931823165253366,-1.2350484867477292,0.8085498524587528,-0.9038758277893066,0.2890002131462097,-0.3154163360595703,-0.9790349006652832,-0.004295100457966328,-0.6853704452514648
5.5416247844696045,-0.49151819944381714,0.249864399433136,0.024221330881118774,-0.2945847033450506,-1.23609511773694,0.7899452149087163,-0.9038217067718506,0.2903424799442291,-0.3143366575241089,-0.6511138677597046,0.34678560495376587,0.15026500821113586
5.561671733856201,-0.40790754556655884,0.10163018107414246,0.04130673408508301,-0.30596877118931914,-1.2280497839257696,0.7846451029363585,-0.8980922102928162,0.30121707916259766,-0.3204663395881653,-0.235925555229187,0.5684261918067932,0.6928965449333191
5.581695795059204,-0.38059568405151367,-0.09097430109977722,0.049934983253479004,-0.32288936325554635,-1.2145595423504036,0.7888669251914217,-0.8887830376625061,0.3173079192638397,-0.3307272791862488,-0.04639219492673874,0.647000789642334,1.0292024612426758
5.601657867431641,-0.3133220672607422,-0.18235310912132263,0.043282657861709595,-0.34434562681648845,-1.2008841815154698,0.7972419561496118,-0.8776265382766724,0.3375808000564575,-0.34031030535697937,0.07451696693897247,0.4126538336277008,1.2275241613388062
5.62166690826416,-0.26162707805633545,-0.16589412093162537,0.05272269248962402,-0.3690543576857163,-1.1904382654907044,0.805490292036159,-0.8660127520561218,0.36073362827301025,-0.3462561070919037,-0.37943515181541443,0.3796852231025696,1.2935467958450317
5.6416637897491455,-0.30134665966033936,-0.2189030647277832,0.09983223676681519,-0.3931531427101904,-1.1816083181577524,0.8092462052969667,-0.8546287417411804,0.3831028938293457,-0.3504883944988251,-0.18239820003509521,0.37542879581451416,1.2105153799057007
5.661681652069092,-0.21228444576263428,-0.2064080834388733,0.11402630805969238,-0.41890020630890484,-1.1719651850937156,0.8157819393528356,-0.8418384790420532,0.4067559838294983,-0.35476428270339966,-0.21125313639640808,0.29922252893447876,1.2950221300125122
5.681684970855713,-0.2501392960548401,-0.2570909857749939,0.09942656755447388,-0.442182594120617,-1.1638262500850816,0.8208891261055273,-0.8299998641014099,0.4279131591320038,-0.3577578663825989,-0.2562514543533325,0.36309364438056946,1.1110892295837402
5.701697826385498,-0.1944737434387207,-0.2965766191482544,0.10928258299827576,-0.46565928621027014,-1.1551822115200499,0.8230725462206738,-0.8174587488174438,0.44901198148727417,-0.36076271533966064,-0.5540008544921875,0.4055936336517334,1.060789704322815
5.721707820892334,-0.12431800365447998,-0.34751060605049133,0.1247611939907074,-0.4902164633432138,-1.1485884748044577,0.8181287686226404,-0.80475914478302,0.47081688046455383,-0.3615165650844574,-0.8623248338699341,0.4737756848335266,1.0681583881378174
5.741707801818848,-0.07435184717178345,-0.29951152205467224,0.10374483466148376,-0.5182469679590431,-1.1453058079593925,0.8065118434518598,-0.791233479976654,0.49535804986953735,-0.35856664180755615,-1.2110459804534912,0.3926098942756653,1.0203031301498413
5.761794805526733,-0.034763455390930176,-0.26787346601486206,0.08382463455200195,-0.5460408063748778,-1.1466585191816787,0.789272098629689,-0.7788656949996948,0.5193078517913818,-0.35169273614883423,-1.2633225917816162,0.3643592596054077,0.9610660076141357
5.781792879104614,-0.008879542350769043,-0.26404762268066406,0.05403086543083191,-0.5737071296012076,-1.1489556569875932,0.7724307887191018,-0.7662668824195862,0.5427493453025818,-0.3438868522644043,-1.1159125566482544,0.3007393479347229,0.9611274600028992
5.801731824874878,0.0005096793174743652,-0.2667763829231262,0.02304670214653015,-0.5989658501217732,-1.1496759021746745,0.7599899014241975,-0.7537598013877869,0.563788652420044,-0.33762189745903015,-0.9139629602432251,0.3304758667945862,0.9038786888122559
5.821829795837402,0.0031518936157226562,-0.23956775665283203,0.008585423231124878,-0.6216243467803375,-1.1497139276525192,0.7491727529977815,-0.7419213652610779,0.5823563933372498,-0.33228540420532227,-0.8547519445419312,0.2618664503097534,0.8246375322341919
5.841757774353027,-0.015626370906829834,-0.24143826961517334,0.01959139108657837,-0.6439264960748173,-1.1505168312605487,0.7370942724477844,-0.7301470041275024,0.6003402471542358,-0.32630839943885803,-0.9697402119636536,0.45038503408432007,0.8422316908836365
5.861761808395386,-0.009025216102600098,-0.27772849798202515,-0.0020666122436523438,-0.6679046847255883,-1.1517373119538477,0.7197153789331132,-0.7171863913536072,0.6193422675132751,-0.31946665048599243,-1.2852681875228882,0.4545971751213074,0.7561028599739075
5.881775856018066,0.0036684274673461914,-0.21688330173492432,-0.0703393816947937,-0.6902882445557346,-1.1593161966066332,0.6953419575195835,-0.7067018747329712,0.6367594599723816,-0.30839911103248596,-1.2871124744415283,0.3575498163700104,0.5737425088882446
5.901785850524902,0.030216455459594727,-0.2047538161277771,-0.11665448546409607,-0.709942988795246,-1.1679790587531877,0.6715456819566915,-0.69769686460495,0.6517905592918396,-0.2973012328147888,-1.210776686668396,0.31163880228996277,0.5080055594444275
5.92181396484375,0.05337786674499512,-0.1915198564529419,-0.11320197582244873,-0.7267178784675294,-1.1778591987357965,0.6467630731388154,-0.6904017925262451,0.6644203066825867,-0.28616634011268616,-1.1528466939926147,0.3361862301826477,0.3243531882762909
5.941798686981201,0.041462719440460205,-0.12164723873138428,-0.12956678867340088,-0.738970332603046,-1.1876450826848555,0.620963377908453,-0.6855667233467102,0.673527181148529,-0.2763322591781616,-1.0708458423614502,0.43363210558891296,0.09234284609556198
5.961811780929565,0.036287784576416016,-0.0934104323387146,-0.15843799710273743,-0.7470607937494802,-1.194407818382004,0.5955099996354287,-0.6823295950889587,0.6794852614402771,-0.26967787742614746,-1.0553736686706543,0.599031925201416,0.009184576570987701
5.981810808181763,0.046282172203063965,-0.07548439502716064,-0.17081555724143982,-0.755437319003677,-1.2023841347737312,0.5655878961587133,-0.6791251301765442,0.6856070756912231,-0.2621678411960602,-1.2755944728851318,0.6717066764831543,-0.02278214506804943
6.001816749572754,0.031050562858581543,-0.04901474714279175,-0.1848641335964203,-0.7650026088527083,-1.2125475398460188,0.5295211087938705,-0.675581693649292,0.692538857460022,-0.2529410719871521,-1.5018230676651,0.7869528532028198,-0.029490914195775986
6.021892786026001,0.05530279874801636,-0.0019277334213256836,-0.21589693427085876,-0.774119369255689,-1.2256635270265965,0.4881071075224415,-0.6728718280792236,0.6990866661071777,-0.24191255867481232,-1.6046653985977173,0.7703840732574463,-0.12158876657485962
6.041802883148193,0.12344276905059814,0.03608614206314087,-0.23962897062301636,-0.7826852999019676,-1.2412391451051557,0.4452516103222733,-0.6708670258522034,0.7051858901977539,-0.22945676743984222,-1.5181999206542969,0.695203423500061,-0.07962344586849213
6.061795711517334,0.1328967809677124,0.0861462950706482,-0.23415273427963257,-0.7901866414061167,-1.2535083356903451,0.40756385651641425,-0.6685870289802551,0.7104846239089966,-0.21955212950706482,-1.2597242593765259,0.761631190776825,-0.04476167634129524
6.08163595199585,0.13947302103042603,0.11216020584106445,-0.20982816815376282,-0.7963890679188175,-1.259737130380404,0.3760189828406925,-0.6657333374023438,0.7148356437683105,-0.214030459523201,-1.0413126945495605,0.8674831390380859,-0.03703555464744568
6.10198187828064,0.19132661819458008,0.05837219953536987,-0.20228448510169983,-0.8027169452321328,-1.2623569171972011,0.3487879976239123,-0.6619687676429749,0.7192463278770447,-0.21090829372406006,-1.0015909671783447,0.8016535639762878,0.06349579989910126
6.121870994567871,0.21737170219421387,0.039287030696868896,-0.18359486758708954,-0.8102966519717028,-1.2670999259809033,0.3223174767333605,-0.6577402353286743,0.7244916558265686,-0.20612987875938416,-0.9681116342544556,0.610762894153595,0.08349130302667618
6.141960859298706,0.1399022340774536,0.08682161569595337,-0.17520128190517426,-0.8162207484209039,-1.2754130990147883,0.29681556056030634,-0.6553135514259338,0.7285623550415039,-0.19940200448036194,-0.8766289949417114,0.43928810954093933,-0.062060125172138214
6.161757946014404,0.03503978252410889,0.10330069065093994,-0.14309760928153992,-0.8176926693297245,-1.2844396344473907,0.2727217763201073,-0.6560571789741516,0.7295697927474976,-0.19317559897899628,-0.7548773288726807,0.43003949522972107,-0.26691463589668274
6.181940793991089,-0.02357637882232666,0.134821355342865,-0.12776118516921997,-0.8152920776379831,-1.290936105292297,0.2511830238579711,-0.6589797735214233,0.7279258966445923,-0.18939276039600372,-0.5761709809303284,0.5024511814117432,-0.3325803577899933
6.201898813247681,-0.04288381338119507,0.1793866753578186,-0.09182596206665039,-0.8133439509981011,-1.2904877964617143,0.23559761986944938,-0.6602564454078674,0.726588785648346,-0.1900801658630371,-0.43855223059654236,0.7076396346092224,-0.13870438933372498
6.2219398021698,-0.045255064964294434,0.13078320026397705,0.014599472284317017,-0.814572218508774,-1.2829382667319085,0.22234591908357848,-0.6579461693763733,0.727432131767273,-0.19480575621128082,-0.5170155763626099,1.003527283668518,-0.015788909047842026
6.241921901702881,-0.03675442934036255,0.006638646125793457,0.09805980324745178,-0.8178231428291086,-1.2736463289899096,0.205029387572486,-0.653843104839325,0.7296590209007263,-0.20021739602088928,-0.7222402691841125,1.1330081224441528,-0.03921780735254288
6.261922836303711,-0.02077251672744751,-0.06411445140838623,0.1294788271188736,-0.8210838956597122,-1.2681663394151843,0.18176873059568144,-0.6504615545272827,0.7318848371505737,-0.20308727025985718,-0.8970910906791687,1.1026052236557007,-0.13236656785011292
6.281929969787598,-0.019577860832214355,-0.05104416608810425,0.13989746570587158,-0.8227968903407934,-1.266349121283991,0.15500337995634728,-0.6488943696022034,0.733051061630249,-0.20389284193515778,-0.8914969563484192,1.0345802307128906,-0.23014917969703674
6.301936864852905,-0.012592554092407227,-0.026618242263793945,0.140028178691864,-0.8235200334581998,-1.2651489967302483,0.12953052374992743,-0.6481435298919678,0.7335427403450012,-0.2045118808746338,-0.7600376605987549,0.9538814425468445,-0.20462827384471893
6.321974754333496,-0.00678640604019165,-0.021803736686706543,0.14642706513404846,-0.8246089972208377,-1.261396384699601,0.10961241177100171,-0.6466101408004761,0.7342824339866638,-0.20669928193092346,-0.6028681993484497,0.8857327103614807,-0.10279253870248795
6.341975688934326,-0.012429535388946533,-0.024519264698028564,0.15392343699932098,-0.826408110392164,-1.2565297841800505,0.09316069982532417,-0.6443391442298889,0.7355025410652161,-0.2094348967075348,-0.5321974754333496,0.8084427118301392,-0.07223482429981232
6.361962795257568,-0.000953972339630127,-0.0723494291305542,0.14364536106586456,-0.8286990933947272,-1.2523346130892838,0.07778759568955455,-0.6418529748916626,0.7370527982711792,-0.21160803735256195,-0.5459660887718201,0.7414482235908508,-0.02978154644370079
6.381969928741455,0.006307482719421387,-0.09539037942886353,0.11656716465950012,-0.8313448167246772,-1.2499861063727646,0.06194022467999676,-0.6395013928413391,0.7388383150100708,-0.21249917149543762,-0.5623417496681213,0.6880931854248047,-0.06099988520145416
6.401978969573975,0.004680335521697998,-0.08667677640914917,0.09975893795490265,-0.8333383071276198,-1.2488399442969607,0.04498115201268631,-0.6378589868545532,0.7401801943778992,-0.21276555955410004,-0.5756422877311707,0.6958303451538086,-0.10889840871095657
6.421318769454956,0.019547581672668457,-0.1106526255607605,0.10458804666996002,-0.8347982533470544,-1.2465891958259958,0.027558339873329448,-0.6363535523414612,0.7411611080169678,-0.21385623514652252,-0.6189658045768738,0.8311387300491333,-0.11411738395690918
6.441994667053223,0.05294966697692871,-0.1443917155265808,0.1074155867099762,-0.8368717914693686,-1.2449202104742592,0.006344866449036688,-0.6345382928848267,0.7425515055656433,-0.2144254744052887,-0.8009380102157593,0.9005748629570007,-0.14819835126399994
6.462001800537109,0.10103064775466919,-0.16611838340759277,0.08683085441589355,-0.8393101106042057,-1.246318773832758,-0.019516273066382636,-0.6331198811531067,0.7441824674606323,-0.21296004951000214,-0.907489538192749,0.8847507238388062,-0.17169849574565887
6.482011795043945,0.14311456680297852,-0.15817886590957642,0.08241215348243713,-0.8413380496057996,-1.2494096823008898,-0.047342828697233046,-0.6323418617248535,0.7455355525016785,-0.21052496135234833,-0.9102983474731445,0.8884454369544983,-0.23230674862861633
6.50201678276062,0.17650866508483887,-0.1401451826095581,0.07739908993244171,-0.8422116550914941,-1.2527663576953671,-0.07565085182741356,-0.6324259638786316,0.7461174726486206,-0.2081974297761917,-0.9242215752601624,0.8870732188224792,-0.2704266607761383
6.522100925445557,0.2031814455986023,-0.1073417067527771,0.04945790767669678,-0.8433168684653579,-1.2575999276239176,-0.10566146906851134,-0.6326400637626648,0.7468529343605042,-0.20488396286964417,-1.0289084911346436,0.884509801864624,-0.24401545524597168
6.5420379638671875,0.20217949151992798,-0.06571179628372192,0.03322991728782654,-0.8451025760392582,-1.2632879010642304,-0.13805077938986304,-0.6325231790542603,0.748039186000824,-0.20087826251983643,-1.0229945182800293,0.9845676422119141,-0.24343916773796082
6.56205677986145,0.20991569757461548,-0.02459937334060669,0.008593082427978516,-0.8460378005149264,-1.2635707958254476,-0.16631031989374997,-0.6319127678871155,0.7486595511436462,-0.2004876285791397,-0.7985563278198242,1.10079026222229,-0.22715264558792114
6.582050800323486,0.23642271757125854,0.011033892631530762,-0.01642361283302307,-0.8458247321398211,-1.258827248864102,-0.18894859851466866,-0.6311066150665283,0.7485182285308838,-0.203531876206398,-0.6659121513366699,1.0480760335922241,-0.2649586498737335
6.6020708084106445,0.2390446662902832,-0.02602928876876831,-0.016704127192497253,-0.8446052283092207,-1.2551004102329564,-0.2113079113609492,-0.6312107443809509,0.7477090358734131,-0.20616568624973297,-0.7262271642684937,1.0081923007965088,-0.311287522315979
6.622062683105469,0.19961470365524292,-0.008220076560974121,-0.050572097301483154,-0.8425133013663689,-1.2532275320494657,-0.23529167946091595,-0.6323081254959106,0.7463182806968689,-0.20783549547195435,-0.7065173387527466,0.9846653342247009,-0.39076340198516846
6.6420738697052,0.18359363079071045,0.04362833499908447,-0.07230852544307709,-0.8387399467633667,-1.2508247088619808,-0.2585359810907644,-0.6344755291938782,0.743801474571228,-0.2102384865283966,-0.6646508574485779,1.0552666187286377,-0.453524649143219
6.6621057987213135,0.12622720003128052,0.08731311559677124,-0.042424023151397705,-0.8328256954580524,-1.2428800908771491,-0.2791472167009907,-0.6369388103485107,0.7398354411125183,-0.216685488820076,-0.484212726354599,1.3177646398544312,-0.5665422677993774
6.682093858718872,0.04906666278839111,0.10639691352844238,-0.009892702102661133,-0.823423976226496,-1.2293138211304222,-0.2993019246618403,-0.6404668092727661,0.7334774732589722,-0.22762559354305267,-0.5610155463218689,1.5458414554595947,-0.7564882636070251
6.702098846435547,0.008792638778686523,0.12947458028793335,-0.11463044583797455,-0.8122127755528205,-1.217485592573127,-0.325828368840509,-0.6454045176506042,0.7258111238479614,-0.23801544308662415,-0.7276847958564758,1.536961317062378,-0.883301317691803
6.722115993499756,-0.0026932358741760254,0.08919095993041992,-0.1415315568447113,-0.8016907123280609,-1.210514838979925,-0.3567127543265467,-0.6508405208587646,0.7185329794883728,-0.2451874017715454,-0.9035405516624451,1.418790340423584,-0.8446878790855408
6.74213981628418,0.007846295833587646,0.04857051372528076,-0.13044069707393646,-0.792260989274259,-1.2083078759797603,-0.3913584145591912,-0.6566041111946106,0.7119428515434265,-0.24901483952999115,-1.0151394605636597,1.2784767150878906,-0.9342793226242065
6.762136936187744,0.0022565722465515137,0.07883000373840332,-0.15483105182647705,-0.77992886879092,-1.2099425032510362,-0.42632808668680916,-0.6651746034622192,0.7032288312911987,-0.25102224946022034,-0.8001127243041992,1.0108091831207275,-1.0973464250564575
6.782229900360107,0.014158427715301514,0.06819820404052734,-0.15916091203689575,-0.7631078221282666,-1.21179542724693,-0.4547143139450455,-0.676618754863739,0.6911707520484924,-0.25390973687171936,-0.5900914072990417,0.8306578397750854,-1.1992110013961792
6.802139759063721,0.007903754711151123,0.02335578203201294,-0.0778365433216095,-0.74360591611507,-1.2145508320258722,-0.4836751165160126,-0.6898189187049866,0.6769464015960693,-0.2566971182823181,-0.6850674748420715,0.8860613703727722,-1.3561650514602661
6.822146892547607,0.08775949478149414,-0.038642287254333496,-0.06133115291595459,-0.7240264522463467,-1.2168970115247522,-0.5144529320301932,-0.7027191519737244,0.6624064445495605,-0.259622186422348,-0.7674688100814819,0.937686026096344,-1.2437410354614258
6.842176914215088,0.24810004234313965,-0.02755725383758545,-0.12751084566116333,-0.7077370367344517,-1.2180517507379582,-0.5415790767939009,-0.7130505442619324,0.650115966796875,-0.2625037729740143,-0.5370622873306274,0.6688975691795349,-0.9991924166679382
6.862186908721924,0.31011468172073364,0.004330456256866455,-0.19677779078483582,-0.6930726574020255,-1.2177023887702838,-0.5576076368987855,-0.7218273282051086,0.6389039754867554,-0.2660212814807892,-0.02191687934100628,0.3944205939769745,-0.7792754173278809
6.8821797370910645,0.27563995122909546,-0.006573855876922607,-0.1736486256122589,-0.6784165186333199,-1.2121309968901128,-0.5597950302132096,-0.729024350643158,0.6275609731674194,-0.2732965350151062,0.31612706184387207,0.34816601872444153,-0.7111414074897766
6.902178764343262,0.20654511451721191,-0.07265323400497437,-0.09361380338668823,-0.6624975864106315,-1.203941639232838,-0.5591801651740346,-0.7359945774078369,0.6150879859924316,-0.2828052341938019,0.2102099061012268,0.44532310962677,-0.7438113689422607
6.922186851501465,0.21046394109725952,-0.13352954387664795,-0.06275737285614014,-0.6491857402408947,-1.1980170064901896,-0.5647566127228696,-0.7418665289878845,0.6045379638671875,-0.2901173233985901,-0.18743881583213806,0.4606003165245056,-0.6445460915565491
6.94232177734375,0.2236497402191162,-0.0895613431930542,-0.0467548668384552,-0.6409458584297122,-1.1981091558178745,-0.5783756803945346,-0.7465074062347412,0.5979538559913635,-0.2918529212474823,-0.4507090151309967,0.34601283073425293,-0.5408872365951538
6.962212800979614,0.22787797451019287,-0.004443109035491943,-0.0855453610420227,-0.6331383012635751,-1.1984545113024752,-0.5887380369841356,-0.7509340047836304,0.5916776657104492,-0.2932845652103424,0.08058949559926987,0.2374887764453888,-0.47597748041152954
6.9822096824646,0.29726046323776245,0.07364189624786377,-0.04372161626815796,-0.6215774804105737,-1.1887606753478537,-0.5796597014910395,-0.7543526887893677,0.5823183059692383,-0.30308008193969727,1.0344613790512085,0.2184981256723404,-0.31955230236053467
7.0022218227386475,0.31281352043151855,0.006487607955932617,0.024368256330490112,-0.6078495163928306,-1.1693745700726283,-0.5535292026052328,-0.7556236982345581,0.5711035132408142,-0.3207396864891052,1.2807049751281738,0.21362382173538208,-0.18161210417747498
7.022235870361328,0.26586776971817017,-0.10825026035308838,0.08757618069648743,-0.5952725609361268,-1.1523121592778398,-0.5303653399748097,-0.7565445899963379,0.5607344508171082,-0.33647748827934265,0.9386218190193176,0.18154649436473846,-0.18712635338306427
7.042233943939209,0.2726074457168579,-0.1213148832321167,0.07773709297180176,-0.5859806027936331,-1.1418371828185119,-0.5150461638091364,-0.7576843500137329,0.5530166625976562,-0.34653589129447937,0.6731789112091064,0.002053608885034919,-0.14132961630821228
7.0622429847717285,0.2767069935798645,-0.07274651527404785,0.05325579643249512,-0.5781627547739658,-1.1355079987069716,-0.5008167340593517,-0.7593730092048645,0.5464861989021301,-0.35313674807548523,0.787880539894104,-0.1808866411447525,-0.0889635980129242
7.082242965698242,0.2657458186149597,-0.06748652458190918,0.09729933738708496,-0.5687223688177797,-1.1299706258292808,-0.48191375996371955,-0.7620379328727722,0.5385559797286987,-0.3595215976238251,1.0250529050827026,-0.2664344012737274,-0.11154778301715851
7.102258682250977,0.2113296389579773,-0.08828765153884888,0.16571837663650513,-0.5560106130057318,-1.124114960597772,-0.46023939087182913,-0.7660323977470398,0.5278019309043884,-0.36690545082092285,1.1823053359985352,-0.29474177956581116,-0.261189728975296
7.122262001037598,0.14300888776779175,-0.09088915586471558,0.2249889075756073,-0.5391836033236596,-1.1179279288120894,-0.4387341113855356,-0.7716251611709595,0.5134356021881104,-0.3754710257053375,1.2294420003890991,-0.23094625771045685,-0.4818863570690155
7.1422858238220215,0.13060486316680908,-0.1281592845916748,0.22023749351501465,-0.5169874777499814,-1.1133371916059993,-0.41780934262526276,-0.7799274921417236,0.49426355957984924,-0.38394907116889954,1.3453449010849,-0.3966723680496216,-0.6896123290061951
7.162279844284058,0.12426739931106567,-0.13821712136268616,0.24906092882156372,-0.49007377004563885,-1.1129114069025343,-0.39687379624243074,-0.7914121747016907,0.4706909656524658,-0.39002156257629395,1.5168896913528442,-0.5288020968437195,-0.9386604428291321
7.182284832000732,0.02879023551940918,-0.12934407591819763,0.3601763844490051,-0.4560551617896712,-1.1104075805938207,-0.3763451319864528,-0.8043181896209717,0.4404098689556122,-0.39888796210289,1.6358386278152466,-0.21121597290039062,-1.3953293561935425
7.202321767807007,-0.176458477973938,-0.017695367336273193,0.2529272437095642,-0.4083107602834919,-1.1071928783774447,-0.35595124768402353,-0.8209171295166016,0.39705953001976013,-0.4104132652282715,2.232179880142212,-0.38570883870124817,-2.0029211044311523
7.222326755523682,-0.3045060634613037,0.0970621109008789,0.15284714102745056,-0.34447934251082474,-1.1071263077395121,-0.3264433451605796,-0.841871440410614,0.33770665526390076,-0.42095932364463806,2.9588849544525146,-0.6514216065406799,-2.4585516452789307
7.242409706115723,-0.28279805183410645,0.025264739990234375,0.32602566480636597,-0.2724666643620878,-1.111730879031679,-0.29479485164734825,-0.863396406173706,0.2691079080104828,-0.42676419019699097,2.939295530319214,-0.6830008625984192,-2.551006317138672
7.262358665466309,-0.5178467631340027,0.0007188916206359863,0.31301218271255493,-0.20373648660534951,-1.1152475084209672,-0.26499975562026046,-0.8794464468955994,0.20232993364334106,-0.4308558702468872,2.671762704849243,-0.31979048252105713,-2.402888298034668
7.282327651977539,-0.8023200631141663,0.07786606252193451,0.35547322034835815,-0.14007515885927438,-1.1124521755474024,-0.24306336340491835,-0.888002872467041,0.13961753249168396,-0.43813008069992065,1.9519281387329102,0.14552074670791626,-2.301112413406372
7.302332878112793,-0.7409998774528503,-0.03134670853614807,0.389041543006897,-0.0924525563733021,-1.1088988857528708,-0.23502691537241832,-0.8913854360580444,0.09232090413570404,-0.4437443017959595,0.8482065796852112,0.1529819667339325,-1.513689398765564
7.322408676147461,-0.7146145105361938,-0.08531355857849121,0.4187858998775482,-0.07176437291712064,-1.1056703731007016,-0.23913729227486755,-0.8914645314216614,0.07170279324054718,-0.4473808705806732,-0.17505449056625366,0.2314874231815338,-0.5821325182914734
7.342370986938477,-0.6330497860908508,-0.08036935329437256,0.4260326027870178,-0.07003542599273285,-1.0994425882994603,-0.24424365908584733,-0.8887701630592346,0.06997818499803543,-0.45297959446907043,-0.04324294254183769,0.41799196600914,0.11533661931753159
7.362355709075928,-0.6467496156692505,-0.26417621970176697,0.2651982307434082,-0.07046323016532413,-1.0886398949519847,-0.23270700950485648,-0.8837984800338745,0.07040493190288544,-0.4625402092933655,1.0793997049331665,0.5334040522575378,0.4052967131137848
7.38237190246582,-0.5329059958457947,-0.4950025677680969,0.12313073873519897,-0.0661109666504155,-1.0770153702317469,-0.20275458691066037,-0.8786236047744751,0.0660628154873848,-0.472923219203949,1.4921419620513916,0.4180314540863037,0.6370999813079834
7.402369976043701,-0.4708583354949951,-0.6178874969482422,0.24860554933547974,-0.06886972942501074,-1.065744395333153,-0.17552544644441587,-0.8730747699737549,0.06881529837846756,-0.48270589113235474,0.6819478869438171,0.6604533195495605,0.8773481249809265
7.421824932098389,-0.5954596996307373,-0.6429476737976074,0.1321743130683899,-0.08247907232920998,-1.0531705888734306,-0.15880108376690752,-0.86604243516922,0.0823855921626091,-0.4931362271308899,0.11681608855724335,0.3784754276275635,1.0920233726501465
7.442421913146973,-0.42480969429016113,-0.5215942859649658,-0.048371464014053345,-0.10287618125043037,-1.0495309868638574,-0.14952480580772146,-0.8626048564910889,0.1026948094367981,-0.49534496665000916,-0.37068232893943787,-0.04848377779126167,1.2464215755462646
7.462392807006836,-0.512563943862915,-0.49473562836647034,-0.0337677001953125,-0.13671700482178628,-1.0474862604924453,-0.14634962939887822,-0.8580873012542725,0.1362914890050888,-0.4950866997241974,-0.9711142778396606,0.2879094183444977,1.8215209245681763
7.482431888580322,-0.750089168548584,-0.3732736110687256,-0.0263899564743042,-0.18333524947943422,-1.036814757139125,-0.1442504976105326,-0.8463615775108337,0.18230994045734406,-0.5004349946975708,-1.1225451231002808,0.6857926845550537,2.3277077674865723
7.502450942993164,-0.8056818246841431,-0.17575882375240326,-0.11537504196166992,-0.23633288680408937,-1.0240125435486631,-0.1354087221671233,-0.8304570317268372,0.23413902521133423,-0.5054898262023926,-0.8175784349441528,0.34491586685180664,2.671712875366211
7.522413730621338,-0.8422718644142151,-0.16497856378555298,-0.07167571783065796,-0.29155887969842076,-1.0134264803429003,-0.11598379154019997,-0.8128336668014526,0.28744566440582275,-0.506632387638092,-0.4823634624481201,0.22450071573257446,2.9327139854431152
7.542448997497559,-0.9926844835281372,-0.15635937452316284,-0.03668844699859619,-0.34231160876565137,-0.9998896821695223,-0.08872824798772529,-0.7925938367843628,0.3356654644012451,-0.5090421438217163,-0.11021161824464798,0.25594720244407654,2.704643487930298
7.56243371963501,-0.936256468296051,-0.1461659073829651,-0.028792262077331543,-0.3867538938631562,-0.9854385061413642,-0.06125836925108208,-0.7719497084617615,0.37718406319618225,-0.511689305305481,-0.2266516536474228,0.2302020937204361,2.4759104251861572
7.582276821136475,-0.8326718807220459,-0.1709912121295929,-0.08726119995117188,-0.4293796506709706,-0.9746354996995533,-0.03901041486489722,-0.7523806095123291,0.41630685329437256,-0.5105018615722656,-0.47992217540740967,-0.02522594854235649,2.2117996215820312
7.602502822875977,-0.6831343770027161,-0.04710450768470764,-0.07782620191574097,-0.47129589040143394,-0.9688783100442799,-0.0232885710390564,-0.7343918681144714,0.4540412724018097,-0.5044950842857361,-0.6445082426071167,-0.10447914153337479,2.0027191638946533
7.622462749481201,-0.635666012763977,0.030301272869110107,-0.11530572175979614,-0.5092133519980147,-0.9652225906190457,-0.011119945753618427,-0.7178648114204407,0.48749056458473206,-0.49701419472694397,-0.6240288615226746,-0.1548813283443451,1.697155237197876
7.642461776733398,-0.5138362646102905,0.04400777816772461,-0.13757964968681335,-0.5426615978860063,-0.9634084749459636,-0.0011649506505314734,-0.7031741738319397,0.5164170265197754,-0.48873260617256165,-0.6212462782859802,-0.13601620495319366,1.549747109413147
7.66246485710144,-0.46668314933776855,0.049579739570617676,-0.1079033613204956,-0.5733460864488288,-0.9615817193827112,0.004527034637742333,-0.6889564394950867,0.5424460768699646,-0.4807196855545044,-0.7102234959602356,-0.02686769887804985,1.2194210290908813
7.682510852813721,-0.36875617504119873,0.09845179319381714,-0.10218268632888794,-0.5978469582940956,-0.9611151148380772,0.004934385518475751,-0.6776305437088013,0.5628641843795776,-0.47328728437423706,-0.6528410911560059,0.05224469676613808,0.8145996332168579
7.702481746673584,-0.3141298294067383,0.2521437406539917,-0.12717366218566895,-0.6126846739345484,-0.9563295726681822,0.008672187138610734,-0.6684598922729492,0.5750658512115479,-0.47165754437446594,0.18346638977527618,0.22955121099948883,0.5931182503700256
7.722487926483154,-0.273872435092926,0.5111635327339172,-0.14656397700309753,-0.6133538487330458,-0.9378284748386693,0.031159156310566986,-0.6593092679977417,0.5756132006645203,-0.48371556401252747,1.171811819076538,0.2671073079109192,0.5677913427352905
7.7425408363342285,-0.0925288200378418,0.34641963243484497,-0.07413807511329651,-0.6090435194743836,-0.9183612665881277,0.05909241462463734,-0.6517337560653687,0.5720832347869873,-0.497959703207016,0.6743596196174622,0.09047872573137283,0.4454379677772522
7.762512683868408,0.014145135879516602,0.055364131927490234,0.03263533115386963,-0.6134149521279341,-0.9127760393833397,0.06724777856196036,-0.6469575762748718,0.575663149356842,-0.5000578165054321,-0.44433000683784485,-0.02422317862510681,0.24603447318077087
7.782474994659424,0.13557833433151245,0.06296437978744507,0.05462312698364258,-0.6255765975455982,-0.9230133966918497,0.053330407960244054,-0.6464120149612427,0.5855647921562195,-0.48914769291877747,-1.0327060222625732,-0.17766156792640686,0.06682128459215164
7.802542686462402,0.20479750633239746,0.08803236484527588,0.011231154203414917,-0.6363317435729557,-0.9373263862884232,0.03576596498955804,-0.6482330560684204,0.5942491292953491,-0.47609013319015503,-0.6865262389183044,-0.15902626514434814,-0.02827199175953865
7.82255482673645,0.2576746940612793,0.12702667713165283,0.006527513265609741,-0.6398550338790228,-0.9438209770212789,0.027373886360520815,-0.6496118903160095,0.5970791578292847,-0.47063881158828735,-0.12272262573242188,0.0130272526293993,-0.07630272954702377
7.842543840408325,0.3635711669921875,0.037636518478393555,0.008557707071304321,-0.6398602391388074,-0.9469140614451979,0.021503820468845462,-0.6510619521141052,0.597083330154419,-0.46862542629241943,-0.4074072539806366,0.010499203577637672,-0.17997191846370697
7.862551689147949,0.4825937747955322,-0.13489097356796265,0.10229161381721497,-0.6458418633822033,-0.9571588827188137,0.0029062842365148913,-0.65289705991745,0.6018709540367126,-0.4598660469055176,-1.1873172521591187,0.03920648247003555,-0.22527123987674713
7.8826069831848145,0.5517308115959167,-0.19046199321746826,0.14419901371002197,-0.657933006811308,-0.9763421578933652,-0.03008238189897342,-0.6555210947990417,0.6114826202392578,-0.44314929842948914,-1.5947517156600952,0.06975942105054855,-0.230992391705513
7.902568817138672,0.5821583271026611,-0.0995606780052185,0.0954013466835022,-0.6707376171243671,-0.9975696739341402,-0.06592905130814217,-0.6581470966339111,0.6215639710426331,-0.4248538911342621,-1.3487683534622192,0.050275467336177826,-0.20587629079818726
7.92257285118103,0.6132857203483582,-0.02572774887084961,0.07132840156555176,-0.6814239480738893,-1.0116760529493518,-0.09182641646136709,-0.6584059596061707,0.6298996210098267,-0.41198086738586426,-0.968527615070343,0.14751626551151276,0.012971811927855015
7.942603826522827,0.6411914229393005,-0.06861937046051025,0.11004215478897095,-0.6928908857655861,-1.0185157915229004,-0.10989559523569305,-0.6550158262252808,0.6387640833854675,-0.40365180373191833,-0.9038390517234802,0.29422223567962646,0.18707787990570068
7.962589740753174,0.6990045309066772,-0.21243107318878174,0.12867587804794312,-0.706550586079225,-1.0255786084727978,-0.12947513374162267,-0.6503289341926575,0.649213969707489,-0.3944534361362457,-1.1200287342071533,0.25210773944854736,0.21635682880878448
7.982587814331055,0.8054301738739014,-0.2935446500778198,0.14915010333061218,-0.7233397979033431,-1.0359293347265004,-0.15292002120536977,-0.6449076533317566,0.6618918776512146,-0.3820907473564148,-1.2512171268463135,0.3074139654636383,0.31689420342445374
8.002607822418213,0.8848137259483337,-0.3688807487487793,0.17534935474395752,-0.7411131085115891,-1.0446122988741326,-0.17821872873686928,-0.637926459312439,0.6751095056533813,-0.37050923705101013,-1.2094277143478394,0.5073105692863464,0.2312992364168167
8.022612810134888,0.9943517446517944,-0.4058113098144531,0.14203035831451416,-0.7558001952365931,-1.047462051975131,-0.199250153029909,-0.6303227543830872,0.6858711838722229,-0.3636947572231293,-0.7880598306655884,0.6396908164024353,0.26731735467910767
8.042637825012207,0.9417266249656677,-0.22095614671707153,0.021639347076416016,-0.7655179991460942,-1.0367399078556316,-0.20620235800935469,-0.620620608329773,0.6929105520248413,-0.36702200770378113,-0.11794725060462952,0.9399073123931885,0.3523509204387665
8.062628746032715,0.954547643661499,-0.13133716583251953,-0.045940399169921875,-0.7718805855322861,-1.0129038278491687,-0.20088291268770378,-0.6079442501068115,0.6974840760231018,-0.379367858171463,0.009738145396113396,1.0330290794372559,0.40097159147262573
8.082270860671997,1.034724235534668,-0.20244258642196655,0.029881417751312256,-0.7810772603739449,-0.9900549292680003,-0.1957919314792044,-0.5937300324440002,0.7040448784828186,-0.38962262868881226,-0.19640955328941345,0.8251045346260071,0.5221028923988342
8.102648735046387,0.9693752527236938,-0.22334378957748413,0.0134543776512146,-0.7911355821718405,-0.9759355487289091,-0.19287362741496517,-0.5822749733924866,0.7111520767211914,-0.3939780592918396,-0.17262673377990723,0.3636528253555298,0.4613991379737854
8.122837781906128,0.8527279496192932,-0.145829439163208,-0.04958564043045044,-0.7988276446866169,-0.9712460424817201,-0.18949107444819663,-0.5758877992630005,0.7165387868881226,-0.39360594749450684,-0.11395452916622162,-0.14044378697872162,0.37604743242263794
8.142738819122314,0.7012967467308044,-0.029919743537902832,-0.08496737480163574,-0.8062439519361574,-0.9697382509107724,-0.18413081662506262,-0.5708951354026794,0.7216922640800476,-0.39145776629447937,-0.18955545127391815,-0.09199424088001251,0.46851450204849243
8.162723779678345,0.5579442977905273,0.08977460861206055,-0.10278934240341187,-0.8145620888952368,-0.9722600154357112,-0.18414214961469455,-0.5669011473655701,0.7274251580238342,-0.38662102818489075,-0.2590540647506714,-0.1988777220249176,0.26105013489723206
8.182790756225586,0.5220353007316589,0.14027023315429688,-0.10196012258529663,-0.81756261341375,-0.9795849518675831,-0.1835487151496137,-0.5679031610488892,0.7294808030128479,-0.3812399208545685,0.2006189078092575,-0.6127375960350037,0.033423859626054764
8.202667713165283,0.45811742544174194,0.09334784746170044,-0.023496121168136597,-0.8085067652087017,-0.9882900545631161,-0.17100219117795,-0.5766933560371399,0.7232567667961121,-0.3799004554748535,0.9532851576805115,-1.1717183589935303,-0.32277020812034607
8.222829818725586,0.3892066478729248,-0.04009288549423218,0.21849024295806885,-0.7896277778670411,-0.9972683231572859,-0.14967786821065565,-0.5914466381072998,0.710091233253479,-0.3820492625236511,1.3225375413894653,-1.3033909797668457,-0.545048177242279
8.242764949798584,0.1770198941230774,-0.09389418363571167,0.1830299198627472,-0.7602167559256574,-1.012798502407244,-0.1286794756230667,-0.6147639751434326,0.6890785694122314,-0.3837134540081024,1.5028998851776123,-1.7426220178604126,-1.0698851346969604
8.262805938720703,-0.01920074224472046,-0.06430995464324951,0.10654225945472717,-0.7210799563701112,-1.0407219275078667,-0.11081363247503026,-0.6480202674865723,0.6601961851119995,-0.3797508478164673,1.7146847248077393,-2.258920669555664,-1.6329151391983032
8.282679796218872,-0.27267301082611084,-0.043245553970336914,0.05665066838264465,-0.6699066527978957,-1.0755934166647831,-0.0908107043595436,-0.6897140145301819,0.6209127902984619,-0.37250760197639465,2.2162816524505615,-2.471442461013794,-2.0381364822387695
8.302722930908203,-0.4786795377731323,-0.04509681463241577,-0.047906577587127686,-0.6081959055313231,-1.107618242237278,-0.05887750885259676,-0.7342110872268677,0.5713878273963928,-0.3666747212409973,2.845442295074463,-2.6786320209503174,-2.3154120445251465
8.331158876419067,-1.0571088790893555,-0.06267005205154419,-0.2526704967021942,-0.4661836920417395,-1.1717160943336853,0.012226789387960953,-0.8230944871902466,0.44948050379753113,-0.3471067249774933,2.431511402130127,-2.0642223358154297,-2.7943363189697266
8.35129690170288,-1.0990450382232666,-0.04349544644355774,-0.2447720170021057,-0.4034417661223491,-1.1972091068461883,0.028714128218095627,-0.8562772274017334,0.3925861120223999,-0.3356570601463318,1.1924035549163818,-1.1712067127227783,-2.381093978881836
8.361825942993164,-1.0990450382232666,-0.04349544644355774,-0.2447720170021057,-0.4034417661223491,-1.1972091068461883,0.028714128218095627,-0.8562772274017334,0.3925861120223999,-0.3356570601463318,1.1924035549163818,-1.1712067127227783,-2.381093978881836
8.391088962554932,-0.5791367292404175,0.22333991527557373,0.07825464010238647,-0.3473543608229629,-1.2216348143370621,0.002027085511946684,-0.8835403323173523,0.34041136503219604,-0.321678102016449,-0.8162506818771362,0.155004620552063,-0.46970683336257935
