timestamp,acceleration_x,acceleration_y,acceleration_z,attitude_pitch,attitude_roll,attitude_yaw,gravity_x,gravity_y,gravity_z,rotation_x,rotation_y,rotation_z
0.0,0.029879271984100342,0.09036779403686523,-0.29616373777389526,-0.7569204459196126,-0.7659767693842039,1.717306108887315,-0.5039545893669128,0.6866860389709473,-0.5239198207855225,0.1829322725534439,-0.10479561239480972,0.5356684923171997
0.019958972930908203,-0.008118003606796265,0.14927595853805542,-0.3424319624900818,-0.7596189983863051,-0.7585898852680966,1.7339153904028453,-0.4987943172454834,0.6886452436447144,-0.5262814164161682,0.4785018563270569,-0.2659778296947479,0.5358121395111084
0.039637088775634766,-0.12190735340118408,0.2496827244758606,-0.38941800594329834,-0.7569233670834559,-0.7462875671833359,1.757473978960042,-0.4935406744480133,0.6866881251335144,-0.5337386727333069,0.883975088596344,-0.08866146951913834,0.5299550890922546
0.05915999412536621,-0.22453302145004272,0.273675799369812,-0.34349524974823,-0.7499479827975647,-0.7249391479765026,1.78641800613701,-0.4851990342140198,0.6816006898880005,-0.5477247834205627,0.9600806832313538,0.2459227293729782,0.5629045963287354
0.07995891571044922,-0.23273369669914246,0.15252047777175903,-0.22553598880767822,-0.7455161167550685,-0.6993305322155364,1.8115842563065323,-0.47295477986335754,0.678351104259491,-0.562275230884552,0.49065113067626953,0.5733925700187683,0.5440101027488708
0.09998297691345215,-0.151268869638443,-0.052559852600097656,-0.0969049334526062,-0.7500351012983004,-0.6762660995060145,1.8257936749891912,-0.4579383134841919,0.6816644668579102,-0.5706365704536438,-0.21219924092292786,0.7285075783729553,0.5508802533149719
0.12007713317871094,-0.042114198207855225,-0.19022494554519653,0.010809659957885742,-0.7660258861664082,-0.6602021244138846,1.828178003412949,-0.44197091460227966,0.6932767033576965,-0.5692355632781982,-0.9072201251983643,0.6879772543907166,0.568776547908783
0.13994216918945312,0.034387022256851196,-0.2289571762084961,0.05528402328491211,-0.7900482369175815,-0.6526549909608966,1.8218325174753358,-0.4274229407310486,0.7103872299194336,-0.5591596961021423,-1.1961454153060913,0.5004739761352539,0.532238781452179
0.15914106369018555,0.053875893354415894,-0.1612221598625183,0.0501212477684021,-0.8129027949547801,-0.6498542779658482,1.8144419791951827,-0.4159211814403534,0.7262855768203735,-0.5472830533981323,-0.8551814556121826,0.30934903025627136,0.4366067945957184
0.17995905876159668,0.028156161308288574,-0.030469179153442383,0.02854013442993164,-0.8238203015521868,-0.6438728590560951,1.8157315296991505,-0.40785589814186096,0.7337467670440674,-0.5433868765830994,0.038308124989271164,0.18621990084648132,0.2827005684375763
0.2000560760498047,-0.01753103733062744,0.0679318904876709,0.05416172742843628,-0.8178026233630977,-0.6299014370631772,1.8298193391542805,-0.40281808376312256,0.7296449542045593,-0.5525899529457092,0.9366444945335388,0.17991654574871063,0.15290886163711548
0.2200021743774414,-0.05315291881561279,0.052465617656707764,0.1315324306488037,-0.8006783566059014,-0.6099753814259827,1.8514587027578473,-0.3988276720046997,0.7178285121917725,-0.5706650614738464,1.1825506687164307,0.22858838737010956,0.054587602615356445
0.23996806144714355,-0.07524222135543823,-0.024321794509887695,0.21558350324630737,-0.7829411522280477,-0.5921091394825588,1.8687550981975392,-0.39561349153518677,0.7053672671318054,-0.5881725549697876,0.86688631772995,0.32375210523605347,-0.03962760791182518
0.2603769302368164,-0.049051761627197266,-0.12806475162506104,0.2851024270057678,-0.7729997063799732,-0.5787386621263125,1.876921779157833,-0.39153048396110535,0.6982856392860413,-0.599250316619873,0.26793748140335083,0.4163333475589752,-0.011650606989860535
0.2799689769744873,0.01668521761894226,-0.19650453329086304,0.3259986639022827,-0.7730694670481285,-0.5701526013435568,1.8773146411776263,-0.38634467124938965,0.698335587978363,-0.6025489568710327,-0.2524382174015045,0.3944375514984131,0.03610623627901077
0.29936695098876953,0.0853492021560669,-0.21963661909103394,0.33924293518066406,-0.7826000798134191,-0.5688377328253601,1.870001301161131,-0.3819495737552643,0.7051254510879517,-0.5974216461181641,-0.9068233370780945,0.24160966277122498,0.03940030559897423
0.31995606422424316,0.12974363565444946,-0.2745276093482971,0.3477945923805237,-0.8069412027557142,-0.5812634590973451,1.8483077986552483,-0.3798047602176666,0.7221747636795044,-0.5781107544898987,-2.0600500106811523,0.0719391331076622,0.010441267862915993
0.339968204498291,0.14894643425941467,-0.3534831404685974,0.3496127128601074,-0.8525227488910896,-0.614832777775502,1.8021616144705674,-0.3795982897281647,0.7529429793357849,-0.5375704765319824,-3.409414529800415,0.01717912033200264,-0.030892184004187584
0.35909008979797363,0.15886551141738892,-0.40465354919433594,0.31363850831985474,-0.9101107684077516,-0.6664329166137384,1.7347745301851458,-0.3793550431728363,0.7895717024803162,-0.48235493898391724,-3.6156747341156006,0.0025053699500858784,0.06858284026384354
0.3799738883972168,0.19122731685638428,-0.19720709323883057,0.21402066946029663,-0.9615881384491897,-0.7246116714142583,1.6637450582356985,-0.37929192185401917,0.8201013803482056,-0.42845243215560913,-2.868508815765381,-0.11569850146770477,-0.1014970988035202
0.399960994720459,0.18008199334144592,0.14789587259292603,0.05554807186126709,-0.9868012640684931,-0.7766401039713252,1.6071491038047079,-0.3864418864250183,0.8342666029930115,-0.3932708203792572,-1.0796911716461182,-0.4222005605697632,-0.46263253688812256
0.4200429916381836,0.16118133068084717,0.4025152921676636,-0.03722986578941345,-0.9826975370970057,-0.8004144462602183,1.590639305153216,-0.3981350362300873,0.8319969177246094,-0.3863540589809418,0.6390150189399719,-0.5226390957832336,-0.43763330578804016
0.4400510787963867,0.12150540947914124,0.42085641622543335,-0.007561028003692627,-0.9610707377982505,-0.794376399972793,1.6097663282439871,-0.40853849053382874,0.8198052048683167,-0.4012676775455475,1.4835773706436157,-0.4500005841255188,-0.36936458945274353
0.4592130184173584,0.10460963845252991,0.2787604331970215,0.08001765608787537,-0.9352812944711474,-0.7780121754886229,1.6391403167356344,-0.4166213572025299,0.804766058921814,-0.422821581363678,1.4584015607833862,-0.2935777008533478,-0.22572948038578033
0.48008012771606445,0.08156237006187439,0.18718522787094116,0.09230351448059082,-0.9153565940621541,-0.7624377729480578,1.6641299319813587,-0.4209789037704468,0.7927799820899963,-0.44076842069625854,0.9758530259132385,-0.15704026818275452,-0.12758095562458038
0.49939489364624023,0.008440345525741577,0.16185849905014038,0.055656760931015015,-0.9035753889489003,-0.7550655447122975,1.6758289386131073,-0.4240897595882416,0.7855443954467773,-0.45063045620918274,0.35363084077835083,-0.019189095124602318,-0.15976904332637787
0.5199761390686035,-0.038847267627716064,0.11720848083496094,0.048544883728027344,-0.9015361510098612,-0.7565886147613438,1.6716552816397046,-0.4258744716644287,0.7842808961868286,-0.4511480927467346,-0.379082590341568,0.19479332864284515,-0.17380982637405396
0.5391440391540527,-0.05189049243927002,0.06582212448120117,0.0540107786655426,-0.908072145958961,-0.7656447914483996,1.6529937615076458,-0.4263809621334076,0.7883190512657166,-0.4435676336288452,-0.8054451942443848,0.35243433713912964,-0.2001848965883255
0.5599431991577148,-0.029446899890899658,0.06534570455551147,0.03197327256202698,-0.9167064279026456,-0.7758889003129866,1.630079902814455,-0.42611950635910034,0.7936019897460938,-0.4343017339706421,-0.7188792824745178,0.4007266163825989,-0.21723946928977966
0.5799288749694824,0.0009005367755889893,0.14016193151474,-0.0362304151058197,-0.9206499850776919,-0.7854590672063437,1.6102689914626698,-0.4280398190021515,0.7959952354431152,-0.4279876947402954,-0.4005889892578125,0.19371534883975983,-0.3934642970561981
0.599635124206543,-0.018028974533081055,0.16344225406646729,-0.07737302780151367,-0.9167603110948657,-0.7964146494616577,1.59318696713605,-0.43491294980049133,0.7936347723007202,-0.42543455958366394,-0.10447774827480316,0.12237664312124252,-0.5945703387260437
0.6199851036071777,-0.06015598773956299,0.06434410810470581,-0.046076416969299316,-0.9093595180748195,-0.8083807510332409,1.5741749561068075,-0.4442080557346344,0.7891104817390442,-0.4242452085018158,-0.3050975799560547,0.16879917681217194,-0.7517700791358948
0.639909029006958,-0.1038641631603241,0.08365774154663086,-0.061144113540649414,-0.9034266184119984,-0.8258238628344913,1.5472807205409007,-0.4549737572669983,0.7854523062705994,-0.4195992648601532,-0.4311898648738861,0.25360843539237976,-0.7432363629341125
0.6599199771881104,-0.10555267333984375,0.08077692985534668,-0.0795356035232544,-0.9017223223083418,-0.837101599127395,1.524119843606007,-0.46067047119140625,0.7843963503837585,-0.4153374433517456,-0.6021623611450195,0.4085206091403961,-0.35676878690719604
0.6798970699310303,-0.08603200316429138,0.02542555332183838,-0.04739874601364136,-0.9073639248436418,-0.8473051350285458,1.5007722287405552,-0.4615601599216461,0.7878831028938293,-0.40767934918403625,-0.7844781279563904,0.40754464268684387,-0.20336419343948364
0.6993789672851562,-0.0915532112121582,-0.06103086471557617,-0.07134324312210083,-0.9149833495258857,-0.8558860912764907,1.4802483580643315,-0.4604945182800293,0.7925524115562439,-0.3997565805912018,-0.6178386211395264,0.33563974499702454,-0.07642048597335815
0.7199258804321289,-0.10840338468551636,-0.106423020362854,-0.10371255874633789,-0.9187414705228352,-0.8609765664333597,1.4675833514025933,-0.46026119589805603,0.794838547706604,-0.3954634666442871,-0.22978010773658752,0.1757979691028595,-0.18516816198825836
0.7399239540100098,-0.1396762728691101,-0.1585060954093933,-0.09723028540611267,-0.9157377245197068,-0.8659861131808798,1.4575126699351462,-0.4640529453754425,0.7930122017860413,-0.39469778537750244,-0.08341917395591736,0.14662542939186096,-0.4328916668891907
0.7599520683288574,-0.13324803113937378,-0.2088199257850647,-0.05939382314682007,-0.9095850387934485,-0.8744383339931401,1.4428490172802781,-0.4711068570613861,0.7892490029335022,-0.39388373494148254,-0.2272665649652481,0.1808430701494217,-0.6096423864364624
0.7799639701843262,-0.09906473755836487,-0.21309351921081543,-0.017043739557266235,-0.9044600126298664,-0.8835818066397209,1.423962685647402,-0.47780904173851013,0.7860915064811707,-0.3921206295490265,-0.36072951555252075,0.3980673551559448,-0.4886055886745453
0.7999670505523682,-0.046465665102005005,-0.19484871625900269,-0.027276217937469482,-0.9039001630788371,-0.8908011247629177,1.4026329347944324,-0.4809696674346924,0.7857453227043152,-0.388937771320343,-0.6024254560470581,0.5320805311203003,-0.4370005130767822
0.8199059963226318,0.03726458549499512,-0.2118564248085022,-0.09364631772041321,-0.9033233820092962,-0.8994036813069034,1.3786189718144546,-0.4846522808074951,0.7853884100914001,-0.3850676119327545,-0.45900124311447144,0.4766131341457367,-0.5208808779716492
0.8399538993835449,0.15256854891777039,-0.2449166178703308,-0.10621491074562073,-0.9000672006459305,-0.9061213927794911,1.3591979708119235,-0.4892384707927704,0.783368706703186,-0.3833785355091095,-0.32412704825401306,0.38045620918273926,-0.4904836118221283
0.8599610328674316,0.21926671266555786,-0.27138227224349976,-0.0668567419052124,-0.8954275922456324,-0.913396000214767,1.3416685991295876,-0.49488624930381775,0.780476450920105,-0.3820263147354126,-0.25026440620422363,0.2470393031835556,-0.5446151494979858
0.8800070285797119,0.2252739667892456,-0.33234381675720215,-0.10220491886138916,-0.8903469755212321,-0.9235606031743424,1.3250846737720987,-0.5019006133079529,0.7772901058197021,-0.37936243414878845,-0.3345884680747986,0.03325662761926651,-0.481442928314209
0.8999550342559814,0.20807039737701416,-0.3028263449668884,-0.10573461651802063,-0.8885672589714901,-0.9412784944253871,1.3035604176257953,-0.5096603035926819,0.7761691808700562,-0.371224582195282,-0.6764469146728516,-0.11495326459407806,-0.47175198793411255
0.9199562072753906,0.17956894636154175,-0.31551593542099,-0.09784850478172302,-0.8953138937547658,-0.9726429470159689,1.2666634398179322,-0.5167118906974792,0.7804054021835327,-0.3521026074886322,-1.7980568408966064,-0.14395561814308167,-0.26660168170928955
0.9399561882019043,0.18620675802230835,-0.4507821202278137,-0.05824151635169983,-0.9211570685132893,-1.0309622228684348,1.196801372226648,-0.5188788771629333,0.796302080154419,-0.31091436743736267,-3.1956710815429688,-0.15495970845222473,0.1651085466146469
0.9600591659545898,0.22653335332870483,-0.49119508266448975,-0.05220578610897064,-0.9611028065971319,-1.119147296615815,1.0907923065122618,-0.5151991248130798,0.8198235630989075,-0.24991819262504578,-3.8867788314819336,-0.09861574321985245,0.24416856467723846
0.979964017868042,0.24435120820999146,-0.2427889108657837,-0.17084363102912903,-0.9882397853505186,-1.2099892090803044,0.9837193483769101,-0.5147370100021362,0.835058867931366,-0.19422294199466705,-2.5803842544555664,-0.12405762821435928,-0.15391291677951813
0.9999620914459229,0.30681800842285156,0.10895192623138428,-0.2120937705039978,-0.9905543256950372,-1.2731376282062616,0.9148164934969086,-0.5241184234619141,0.836329996585846,-0.1607852578163147,-0.8975574374198914,-0.4599646329879761,-0.839089572429657
1.0199551582336426,0.35379302501678467,0.06697547435760498,-0.2968205213546753,-0.9735175377748194,-1.2937055365077614,0.9053424781440803,-0.5409420728683472,0.8268690705299377,-0.1538478136062622,0.6122541427612305,-0.7718884348869324,-0.8359518051147461
1.0400018692016602,0.39490222930908203,-0.10866379737854004,-0.17973947525024414,-0.9545893085787351,-1.299650082241148,0.9189315784975612,-0.5568285584449768,0.8160764575004578,-0.15479420125484467,0.4977167248725891,-0.9432950615882874,-0.8760781288146973
1.0601260662078857,0.35375189781188965,-0.19610905647277832,-0.10604290664196014,-0.9325881857536684,-1.318499934944172,0.9200783640314542,-0.5768963694572449,0.803164541721344,-0.14871782064437866,0.1577693074941635,-0.9931833148002625,-1.2128688097000122
1.0799610614776611,0.3467186689376831,-0.18409299850463867,-0.0814952403306961,-0.9084801026126637,-1.3428499580824231,0.9122123407470006,-0.5990380644798279,0.788569986820221,-0.1389637589454651,-0.0033716117031872272,-0.8511532545089722,-1.2347747087478638
1.0999610424041748,0.40751534700393677,-0.16830992698669434,-0.09646014869213104,-0.8837975279102812,-1.3654454303006895,0.9050702411291297,-0.620894193649292,0.7731528878211975,-0.12932413816452026,0.11902487277984619,-0.8716976642608643,-1.2683329582214355
1.1199579238891602,0.4656837582588196,-0.16156601905822754,-0.1098518967628479,-0.858981315630425,-1.3845074222641034,0.9038458888802992,-0.6419075131416321,0.7571775317192078,-0.12098301202058792,0.26063376665115356,-0.950425922870636,-1.1819945573806763
1.139963150024414,0.4626021981239319,-0.12736356258392334,-0.0915086418390274,-0.8345974616769248,-1.4020902298550124,0.9077281868273112,-0.6619430780410767,0.7410262823104858,-0.1127455085515976,0.4119131863117218,-1.0779608488082886,-1.171217918395996
1.1600608825683594,0.40395063161849976,-0.1481790542602539,-0.021989241242408752,-0.8111997377177163,-1.4194791234709354,0.9123233176247394,-0.680760383605957,0.7251138687133789,-0.10380423814058304,0.1862991601228714,-0.988122284412384,-1.1187056303024292
1.1799540519714355,0.35837751626968384,-0.21206504106521606,0.050909340381622314,-0.7892671000426394,-1.4412701256214526,0.9058526489923798,-0.6984654068946838,0.7098372578620911,-0.09097892791032791,-0.33073073625564575,-0.7707464694976807,-1.1180061101913452
1.1999540328979492,0.39543646574020386,-0.2832486629486084,0.007808752357959747,-0.7692576084315432,-1.4684199894113268,0.8890356745438899,-0.7146655321121216,0.6956020593643188,-0.07342153042554855,-0.5685802102088928,-0.7886223793029785,-0.9903462529182434
1.2207720279693604,0.44756901264190674,-0.19877123832702637,-0.052553653717041016,-0.7486618118400101,-1.499840672470364,0.8692389261686094,-0.7307568788528442,0.6806589961051941,-0.05193852633237839,-0.5773714184761047,-1.0509355068206787,-1.321113109588623
1.2399811744689941,0.3318796753883362,-0.007963001728057861,-0.1809036135673523,-0.7170492012396963,-1.5287920980021106,0.8624939018735492,-0.7530832886695862,0.6571633815765381,-0.03165129944682121,0.24756714701652527,-1.3347985744476318,-1.805749773979187
1.260024070739746,0.21320778131484985,0.0694308876991272,-0.1669105887413025,-0.6793957337886818,-1.548996565256843,0.8714243569572345,-0.7777678370475769,0.6283230185508728,-0.01695783995091915,0.3958815336227417,-1.173872470855713,-1.9104619026184082
1.2790160179138184,0.016804635524749756,0.16374123096466064,0.011274635791778564,-0.6391490427928478,-1.5642582342858555,0.8745647932947441,-0.8025866150856018,0.5965126752853394,-0.005247460212558508,0.08853671699762344,-0.4476500153541565,-2.134132146835327
1.2999601364135742,-0.2616710662841797,0.24073022603988647,0.053573668003082275,-0.5984496008483919,-1.5567043939640632,0.8865298997493651,-0.8261280655860901,0.563362181186676,-0.011642511934041977,0.9307911992073059,0.4668954908847809,-1.8177882432937622
1.3199560642242432,-0.2571992874145508,0.3835490942001343,0.1684911847114563,-0.5645792631619649,-1.5272314323149752,0.9165871925116564,-0.8440122008323669,0.5350604057312012,-0.036792583763599396,1.6857523918151855,0.7566677331924438,-1.5913007259368896
1.3399550914764404,-0.17743414640426636,0.379919171333313,0.2854136824607849,-0.5327253073307072,-1.4911991192609497,0.956628706319049,-0.8586984872817993,0.5078828930854797,-0.06849472224712372,1.7787666320800781,0.7290098071098328,-1.3544750213623047
1.359994888305664,-0.16785359382629395,0.19745761156082153,0.30388540029525757,-0.5048538228778788,-1.4622600566854833,0.9912261975540346,-0.8700951337814331,0.48367950320243835,-0.09480946511030197,1.4659976959228516,0.4284149706363678,-1.1957827806472778
1.3799920082092285,-0.2953716516494751,0.12123262882232666,0.3553432822227478,-0.4775714805373944,-1.442292831105807,1.018194539003632,-0.880791187286377,0.4596237242221832,-0.1138119027018547,1.264382243156433,0.3379126787185669,-1.2659422159194946
1.3999550342559814,-0.49313443899154663,0.23290598392486572,0.3972497582435608,-0.4484139910692671,-1.4226487553832219,1.0440586270250218,-0.8912649750709534,0.4335368573665619,-0.1330132782459259,1.4926846027374268,0.463090181350708,-1.2685703039169312
1.4199540615081787,-0.46046459674835205,0.27424871921539307,0.38864362239837646,-0.4201310270196141,-1.400782121714672,1.0739757223889994,-0.8998715877532959,0.40788009762763977,-0.15448226034641266,1.5825278759002686,0.46701180934906006,-1.0682017803192139
1.4399991035461426,-0.3500956892967224,0.18526604771614075,0.4570041298866272,-0.39676310014021626,-1.380178728723515,1.102360486506593,-0.9056110382080078,0.3864349126815796,-0.174747034907341,1.385274052619934,0.4653988182544708,-0.7758827805519104
1.4596948623657227,-0.44383347034454346,0.05902141332626343,0.4548478126525879,-0.378215056221593,-1.3608498963925428,1.1256459967159458,-0.9089192152023315,0.3692622780799866,-0.1936783641576767,1.1126689910888672,0.6057515144348145,-0.5950222611427307
1.4799551963806152,-0.5344492793083191,0.07639184594154358,0.5048574805259705,-0.3658095642948033,-1.339165364503919,1.1448246003405347,-0.9088948369026184,0.35770541429519653,-0.21437592804431915,0.8914951682090759,0.8656911849975586,-0.25884148478507996
1.4999961853027344,-0.5735055208206177,0.08999431133270264,0.5364795923233032,-0.35801960022407747,-1.3161874572038474,1.1609747750197048,-0.906398594379425,0.3504200875759125,-0.23589667677879333,0.8299378752708435,0.863776683807373,-0.15823914110660553
1.5199971199035645,-0.6391841769218445,0.13694927096366882,0.47507286071777344,-0.351636867833459,-1.2937318058200122,1.1772409598912854,-0.903006374835968,0.3444349765777588,-0.25679585337638855,0.8362249135971069,0.8669096231460571,-0.08477088809013367
1.5399870872497559,-0.6719279885292053,0.16177508234977722,0.39614203572273254,-0.3481123986208953,-1.2721718238283855,1.189357897219111,-0.8984149694442749,0.341124027967453,-0.27655887603759766,0.2148866355419159,0.8541820645332336,0.16472947597503662
1.5599980354309082,-0.5855276584625244,0.1433011293411255,0.377885103225708,-0.3600484330421222,-1.2574789142153695,1.185320303822354,-0.8903176784515381,0.3523195683956146,-0.2884533107280731,-0.8386209011077881,0.8317087888717651,0.9016558527946472
1.5800800323486328,-0.5905030369758606,0.019140779972076416,0.4416198134422302,-0.39357535967888896,-1.240706013017687,1.1775229081424312,-0.8736845850944519,0.3834928572177887,-0.2993468642234802,-0.7754719853401184,1.0908057689666748,2.0603389739990234
1.600372076034546,-0.6969852447509766,-0.005042016506195068,0.39602604508399963,-0.4402203893177105,-1.2140302200328146,1.1897020183714435,-0.8476925492286682,0.42613884806632996,-0.315947949886322,0.19822882115840912,0.9366997480392456,2.540220022201538
1.6200180053710938,-0.7619462013244629,-0.025835394859313965,0.20180770754814148,-0.47604714695077327,-1.1939587768280766,1.2240767384545386,-0.8264479041099548,0.4582694172859192,-0.3270670771598816,1.39553701877594,-0.5451972484588623,1.948395013809204
1.6400070190429688,-0.6800025701522827,-0.15810438990592957,0.10774499177932739,-0.501668134690112,-1.192186379390856,1.2736425336647064,-0.8146873712539673,0.4808887839317322,-0.3240841031074524,1.4488248825073242,-1.348254919052124,2.245788335800171
1.6600971221923828,-0.8359288573265076,-0.20459097623825073,0.34676939249038696,-0.5421300410732703,-1.1923532014259144,1.3147723464099537,-0.7959986329078674,0.515961766242981,-0.3164958953857422,0.3556396961212158,-0.490705668926239,2.842474937438965
1.680103063583374,-1.1664048433303833,-0.17507809400558472,0.481546550989151,-0.6022852947326789,-1.1790588716753123,1.3394849601625831,-0.7616195678710938,0.5665271282196045,-0.3146154284477234,-0.6596559286117554,0.2710314691066742,3.5123066902160645
1.700070858001709,-1.209174633026123,-0.18855780363082886,0.2737499475479126,-0.6768591572677817,-1.1703542956582582,1.3512171964842123,-0.7178731560707092,0.6263477206230164,-0.3038860261440277,-1.1837774515151978,-0.10490834712982178,3.63706374168396
1.719938039779663,-1.138840675354004,-0.0980793833732605,0.29228314757347107,-0.7520006526294204,-1.1665612047776233,1.3593614426916494,-0.6714620590209961,0.683101236820221,-0.2872476875782013,-1.1508605480194092,-0.10260045528411865,3.458111524581909
1.7484421730041504,-0.8886916637420654,0.10349839925765991,0.14169955253601074,-0.8582747334229293,-1.1471781847388278,1.4189872688207148,-0.5959579944610596,0.7567158341407776,-0.26872894167900085,0.9803124070167542,-1.1219985485076904,2.386610269546509
1.7686359882354736,-0.7550633549690247,0.15186333656311035,0.16268515586853027,-0.8910262983754681,-1.1274033016536178,1.4748225884393187,-0.5678278803825378,0.7777172923088074,-0.2696797549724579,0.7370589971542358,-1.1357141733169556,2.0360260009765625
1.7882440090179443,-0.7993369698524475,0.03793221712112427,0.2297978401184082,-0.9221571923238332,-1.1211177521231688,1.5092822774599601,-0.5440468192100525,0.7969066500663757,-0.2625889182090759,-0.24623757600784302,-0.9443656206130981,1.768622875213623
1.808176040649414,-0.6867836713790894,-0.004920899868011475,0.1622304618358612,-0.955781503133673,-1.134734118764974,1.5176514398692011,-0.5229789614677429,0.8167648911476135,-0.2436971366405487,-0.5886814594268799,-1.1421412229537964,1.481906771659851
1.82818603515625,-0.45894187688827515,0.1171451210975647,0.05373288691043854,-0.9830007001269966,-1.1557995737598767,1.5214821363218642,-0.5074582099914551,0.8321650624275208,-0.22357840836048126,-0.29111430048942566,-1.2226338386535645,1.0732808113098145
1.8481359481811523,-0.350006639957428,0.2974890470504761,0.08069521188735962,-0.999466858232807,-1.1710726017459854,1.5312159312565499,-0.4981226325035095,0.8411828279495239,-0.21044066548347473,0.0959668904542923,-1.1883424520492554,0.6306449770927429
1.8684091567993164,-0.24969640374183655,0.32034438848495483,0.05160403251647949,-1.0088229807302838,-1.1874672881883668,1.539961596747213,-0.49418482184410095,0.8462052345275879,-0.19929386675357819,-0.1959918588399887,-1.2244038581848145,0.41161662340164185
1.8871831893920898,-0.1464311182498932,0.27520424127578735,0.04854494333267212,-1.016988731833813,-1.220528459370526,1.5292089454937012,-0.4939955472946167,0.8505281805992126,-0.18047241866588593,-0.6248931288719177,-1.1287646293640137,0.19719313085079193
1.9081530570983887,-0.0013816356658935547,0.22325992584228516,0.005667686462402344,-1.0233527762000798,-1.2675516174621344,1.5001139578257268,-0.49675679206848145,0.8538579344749451,-0.15543273091316223,-0.8767805695533752,-1.1064974069595337,-0.10164882987737656
1.928102970123291,0.16578036546707153,0.2415521740913391,-0.060622572898864746,-1.0250024842654732,-1.3146488725276657,1.4703968511744503,-0.502160370349884,0.8547154664993286,-0.13151608407497406,-0.6370835304260254,-1.085897445678711,-0.14608022570610046
1.94679594039917,0.2519958019256592,0.35344189405441284,-0.11999213695526123,-1.0240389412138498,-1.3506052445743233,1.4536383745963273,-0.5073668956756592,0.8542149066925049,-0.11355888843536377,-0.3047372102737427,-1.0994737148284912,-0.15447984635829926
1.968209981918335,0.28470760583877563,0.3203445076942444,-0.13777828216552734,-1.0216976819787313,-1.387200858185089,1.4363455011338309,-0.5131469368934631,0.8529952764511108,-0.09528446197509766,-0.5411343574523926,-1.046149492263794,-0.2584903836250305
1.9873828887939453,0.3199290633201599,0.07290184497833252,-0.11854935437440872,-1.0187348364070004,-1.4306300576803928,1.4065374881036432,-0.5193004608154297,0.851445198059082,-0.07326886802911758,-0.9233884811401367,-0.8238080739974976,-0.2939511835575104
2.0081191062927246,0.39823752641677856,0.009884119033813477,-0.17897766828536987,-1.0158877873187317,-1.4724726594200033,1.3750956492179922,-0.5243209004402161,0.8499486446380615,-0.05171992629766464,-0.7023764848709106,-0.6910521388053894,-0.1623034030199051
2.0292210578918457,0.4550696611404419,0.04800689220428467,-0.2095252275466919,-1.0140250351121658,-1.5054480327545028,1.3509138240793976,-0.5273200273513794,0.8489657640457153,-0.0345085971057415,-0.5645896792411804,-0.5504969954490662,-0.15414030849933624
2.047618865966797,0.48104292154312134,-0.09287798404693604,-0.21839064359664917,-1.0113750635702534,-1.5306313017251012,1.3321046063204098,-0.5302677750587463,0.8475623726844788,-0.021309679374098778,-0.4328469932079315,-0.3966999053955078,-0.1434272676706314
2.0698719024658203,0.5886460542678833,-0.21274536848068237,-0.20131194591522217,-1.010387807109017,-1.548063518266298,1.3191849252288617,-0.5313951373100281,0.8470380306243896,-0.012082185596227646,-0.326020210981369,-0.24394062161445618,0.001994037302210927
2.0881550312042236,0.6520194411277771,-0.2879774570465088,-0.22953593730926514,-1.0116350022201113,-1.5615302947035068,1.3094453258264045,-0.5304526686668396,0.847700297832489,-0.004915331955999136,-0.12146531045436859,-0.26596781611442566,0.12797950208187103
2.1074881553649902,0.6929494142532349,-0.30198466777801514,-0.2652973532676697,-1.0150666071480703,-1.5622791717277216,1.3110779482581052,-0.5275440812110901,0.8495156764984131,-0.004493283573538065,0.12745894491672516,0.028481576591730118,0.20572806894779205
2.127559185028076,0.7592421174049377,-0.35250717401504517,-0.23803985118865967,-1.0171828655171464,-1.5559416099710959,1.3181726391485729,-0.5257062911987305,0.8506302237510681,-0.007809792645275593,0.18508286774158478,0.04032207652926445,0.011890020221471786
2.147336959838867,0.8517013788223267,-0.4539465308189392,-0.21442162990570068,-1.0191865498928019,-1.5471322339811975,1.3282774094715584,-0.5239120125770569,0.8516820073127747,-0.012400218285620213,0.33334386348724365,-0.024292955175042152,0.2372741997241974
2.167264938354492,0.8961681127548218,-0.4377255439758301,-0.226609468460083,-1.0257125054407152,-1.536948584675317,1.3401796531686232,-0.5181925892829895,0.8550838232040405,-0.01754635013639927,0.25059613585472107,0.08527783304452896,0.4003191590309143
2.187197208404541,0.8758813738822937,-0.4570807218551636,-0.2500571608543396,-1.0339039780193342,-1.5239332849206884,1.3476615195910573,-0.5109063386917114,0.859302282333374,-0.023960167542099953,0.09213034063577652,0.6018408536911011,0.42374080419540405
2.2072038650512695,0.998637318611145,-0.4754326343536377,-0.3153897523880005,-1.0427319876736605,-1.5083223484102537,1.348756719147308,-0.5028792023658752,0.8637840151786804,-0.0314578041434288,-0.01880224607884884,0.778022289276123,0.5058935880661011
2.226835012435913,1.1490304470062256,-0.2778494358062744,-0.3394438624382019,-1.0589847460925697,-1.4850686430076834,1.3604207107907598,-0.4879586398601532,0.8718587160110474,-0.04193434491753578,0.6749399304389954,0.5010878443717957,1.077660083770752
2.2473158836364746,1.0703531503677368,0.09925401210784912,-0.3802284598350525,-1.0807873021044443,-1.432192512297978,1.4114232697898075,-0.4661203622817993,0.8823286294937134,-0.06502297520637512,1.500871181488037,0.4654761254787445,1.3320735692977905
2.2660841941833496,0.777436375617981,0.10454422235488892,-0.19140374660491943,-1.1009232609744062,-1.3494614576862194,1.495048041006873,-0.44172772765159607,0.8916257619857788,-0.09939821809530258,1.855226755142212,0.28377601504325867,1.2660752534866333
2.285935878753662,0.7766798138618469,-0.06315809488296509,-0.014993786811828613,-1.1158898773075783,-1.2701481188766608,1.5854738617749349,-0.4196699261665344,0.8983021378517151,-0.1301172524690628,1.6487394571304321,-0.5255533456802368,1.2632907629013062
2.3068230152130127,0.8251998424530029,-0.2837839126586914,0.20816941559314728,-1.1317736068567679,-1.212081078035985,1.6672350721819253,-0.39799952507019043,0.9051675200462341,-0.1492246687412262,1.104791283607483,-0.8996064066886902,1.3681306838989258
2.3267030715942383,0.6385399103164673,-0.479341983795166,0.4305945038795471,-1.1465861017569263,-1.1678563677760336,1.734273815106928,-0.3786369264125824,0.9113640785217285,-0.16139891743659973,1.1766964197158813,-0.6597495079040527,0.7421839237213135
2.3466238975524902,0.39504992961883545,-0.39979398250579834,0.3144799470901489,-1.1375835238042924,-1.103596560059057,1.8171072335672542,-0.37480151653289795,0.9076217412948608,-0.18906791508197784,2.482511043548584,-0.8305491805076599,-0.17892271280288696
2.3667969703674316,0.41373494267463684,-0.20021116733551025,0.24765276908874512,-1.0961083770523623,-1.037835673748373,1.9201664467617348,-0.39366966485977173,0.8894354104995728,-0.23222611844539642,3.207995891571045,-1.9234107732772827,-1.1955034732818604
2.3865630626678467,0.43529513478279114,-0.5294787883758545,0.3788924217224121,-1.0465594174029014,-1.0201614763411355,1.9939331157547546,-0.42656710743904114,0.8657061457633972,-0.2619032561779022,2.1127383708953857,-2.4697306156158447,-1.0263864994049072
2.406400203704834,0.1838740110397339,-0.7687385678291321,0.7250563502311707,-1.0191346045685348,-1.0580399636099673,1.9991122290143122,-0.4567011594772339,0.8516547679901123,-0.25711503624916077,-0.33662354946136475,-1.7266591787338257,-1.4756296873092651
2.4262170791625977,-0.418285995721817,-0.6821961402893066,0.5535669326782227,-0.9948460173979147,-1.122185710848388,1.9468309260105015,-0.49074116349220276,0.8386751413345337,-0.23621463775634766,-0.6678895950317383,-0.09447284042835236,-1.77388334274292
2.446432113647461,-0.33939898014068604,-0.0037088990211486816,0.13525083661079407,-0.95929625977517,-1.1401103722553823,1.9141128529243012,-0.5216698050498962,0.8187877535820007,-0.23968197405338287,0.7327854037284851,0.42433568835258484,-2.4190375804901123
2.46671199798584,-0.3052382469177246,0.37175846099853516,-0.5153212547302246,-0.8954306559191837,-1.1324864819637053,1.9277350481263376,-0.5660843253135681,0.7804784178733826,-0.2653335928916931,2.4602174758911133,-0.7532052993774414,-2.836087703704834
2.486271858215332,-0.30448031425476074,-0.0364801287651062,-0.5081506371498108,-0.8253922356077704,-1.131930061813433,1.9631127104911188,-0.6139919757843018,0.7348138689994812,-0.2882055342197418,2.3618268966674805,-1.7248597145080566,-2.5530192852020264
2.5066959857940674,-0.7013275027275085,-0.273296058177948,-0.14034989476203918,-0.7649284920390569,-1.1427854611899708,1.9914946722135987,-0.6563537120819092,0.6924853920936584,-0.29943886399269104,1.692414402961731,-1.3266149759292603,-2.2613799571990967
2.5282490253448486,-1.3616372346878052,0.4581530690193176,-0.032637178897857666,-0.6930184986407314,-1.1711773780800763,1.9910924332871252,-0.7087057828903198,0.6388623118400574,-0.29931771755218506,1.6451407670974731,-1.4784631729125977,-4.18631649017334
2.5463449954986572,-1.334150791168213,0.33048421144485474,-0.27519291639328003,-0.6166979294983806,-1.192826892516627,1.9986273465144977,-0.7582105994224548,0.5783445239067078,-0.3010551929473877,1.6230157613754272,-1.0712677240371704,-2.3173861503601074
2.5664539337158203,-0.9633595943450928,0.20115935802459717,-0.12944859266281128,-0.5790065824301207,-1.1985001276158986,2.0112924895910247,-0.7796671390533447,0.5471926927566528,-0.3044655919075012,0.5309205055236816,-0.1963861584663391,-1.0595470666885376
2.5860981941223145,-0.7517960071563721,0.16060614585876465,0.06479096412658691,-0.5657319316852666,-1.2012485762494802,2.0061001720979887,-0.7872054576873779,0.5360338687896729,-0.304918497800827,-0.14661018550395966,0.024086561053991318,-0.26728227734565735
2.6058290004730225,-0.31045758724212646,0.07795995473861694,0.0922544002532959,-0.5682518261704035,-1.1995612388021673,2.016202934847087,-0.7854286432266235,0.5381594300270081,-0.3057553768157959,1.0443294048309326,-0.44109922647476196,0.7350770831108093
2.6249661445617676,-0.29408854246139526,0.016480863094329834,0.08878251910209656,-0.5698654941765163,-1.1892499680818582,2.064474386623093,-0.7814270853996277,0.5395187735557556,-0.31351393461227417,2.610680341720581,-1.1122432947158813,0.746821403503418
2.645658016204834,-0.4845816493034363,-0.10026544332504272,0.1902170479297638,-0.559120859688798,-1.1762731245456115,2.132891089141734,-0.7825996279716492,0.530441164970398,-0.3258371353149414,2.833557605743408,-1.09799063205719,0.5256398320198059
2.6660962104797363,-0.5306263566017151,-0.27068859338760376,0.37616124749183655,-0.5524362561980714,-1.1658195609407185,2.1875600265869677,-0.7823923230171204,0.5247626304626465,-0.3353897035121918,1.6325913667678833,-0.7489719986915588,0.6900556683540344
2.685636043548584,-0.460766077041626,-0.4029344916343689,0.39237502217292786,-0.5612774348582467,-1.1608087663501088,2.218557194071069,-0.7764165997505188,0.5322681069374084,-0.33744341135025024,0.5412270426750183,-0.3946927487850189,1.1732062101364136
2.705787181854248,-0.3404209613800049,-0.25130462646484375,0.25643405318260193,-0.5821759826362791,-1.1585497016261612,2.23741973327024,-0.7652918100357056,0.5498427748680115,-0.33466583490371704,0.18591369688510895,-0.4938161373138428,1.3149495124816895
2.72591495513916,-0.3032906651496887,-0.08980035781860352,0.1120595633983612,-0.6034565938104786,-1.1593492628613404,2.2580637841864286,-0.7546621561050415,0.5674919486045837,-0.32929888367652893,0.5822943449020386,-0.7276623845100403,1.279007077217102
2.7456440925598145,-0.348555326461792,0.03210639953613281,0.10146188735961914,-0.6193093579110337,-1.1581841983430932,2.286298055216334,-0.7459423542022705,0.5804729461669922,-0.32652902603149414,0.8484289050102234,-0.6699637770652771,1.12113618850708
2.765699863433838,-0.40137094259262085,-0.01203221082687378,0.15414810180664062,-0.6343379303299685,-1.1525003980974282,2.314840933509595,-0.7360191345214844,0.5926443934440613,-0.32718273997306824,0.6159844398498535,-0.4431513845920563,1.236163854598999
2.784389019012451,-0.40108978748321533,-0.0767398476600647,0.1554117500782013,-0.6545836426099078,-1.1459106599289575,2.3382804325934328,-0.7227657437324524,0.6088290214538574,-0.3270120322704315,0.3008270561695099,-0.31187209486961365,1.3597561120986938
2.8042280673980713,-0.3375359773635864,-0.06358802318572998,0.1039113998413086,-0.6774657405010228,-1.140771570597408,2.356451143345438,-0.7082250714302063,0.62682044506073,-0.3248281478881836,0.051904626190662384,-0.31227877736091614,1.280321478843689
2.8250160217285156,-0.2893110513687134,-0.0275803804397583,0.06285709142684937,-0.6997019359748541,-1.1400142511615816,2.36763585930561,-0.6951402425765991,0.6439896821975708,-0.31946414709091187,-0.2266758680343628,-0.3278769850730896,1.1229708194732666
2.844381093978882,-0.24120312929153442,-0.057525038719177246,0.007937312126159668,-0.7228760835430662,-1.1460794276498814,2.3690171887602256,-0.6832811236381531,0.6615442037582397,-0.30900847911834717,-0.6418489813804626,-0.3265843987464905,1.0338994264602661
2.8644649982452393,-0.18233317136764526,-0.10508614778518677,0.010978788137435913,-0.7472516608454159,-1.1571295646864792,2.360501861881582,-0.6716859340667725,0.6796252727508545,-0.294868528842926,-0.8824881315231323,-0.18308047950267792,0.957770049571991
2.8851799964904785,-0.12169802188873291,-0.08107602596282959,-0.006779611110687256,-0.771690722553999,-1.1689693671222956,2.3471303006950284,-0.6596435308456421,0.6973480582237244,-0.28031447529792786,-0.9292853474617004,-0.11239990592002869,0.8896031379699707
2.905074119567871,-0.0927620530128479,0.0014843940734863281,-0.0630321204662323,-0.7933007991005527,-1.1805466706112393,2.3341659810879762,-0.6487539410591125,0.7126726508140564,-0.2668628692626953,-0.7683879733085632,-0.09222087264060974,0.7523841261863708
2.9249629974365234,-0.017113804817199707,0.03233218193054199,-0.07773470878601074,-0.8105355523550672,-1.189812900708622,2.322819079048473,-0.6397007703781128,0.724656343460083,-0.25623437762260437,-0.622046947479248,-0.030620448291301727,0.5669535398483276
2.944817066192627,0.08349627256393433,-0.05138850212097168,-0.09509162604808807,-0.825978064339506,-1.1993930564362087,2.3104696474636164,-0.6316224336624146,0.7352110743522644,-0.24600329995155334,-0.7611265778541565,-0.021232806146144867,0.5819685459136963
2.963992118835449,0.15680664777755737,-0.09292346239089966,-0.10189418494701385,-0.8425616971295421,-1.2116321108107855,2.2942874271418185,-0.6230846643447876,0.7463505268096924,-0.23393648862838745,-0.8339369893074036,0.01770225539803505,0.5872384309768677
2.984616994857788,0.1860695481300354,-0.07700204849243164,-0.1586165428161621,-0.859145269347802,-1.2257741588436686,2.2759279265818892,-0.6145973801612854,0.7572846412658691,-0.2208847999572754,-0.8396589159965515,-0.05696514621376991,0.5433616638183594
3.0036780834198,0.22557049989700317,-0.08457338809967041,-0.17115949094295502,-0.8741165191947172,-1.240595827592539,2.257383550313909,-0.6070095896720886,0.7669768929481506,-0.2080518752336502,-0.761210024356842,0.05622825399041176,0.5044273138046265
3.024433135986328,0.29305171966552734,-0.16390258073806763,-0.14329680800437927,-0.8894268974774033,-1.2513037368356974,2.238653589750248,-0.5979834198951721,0.7767109274864197,-0.19782868027687073,-0.8800743818283081,0.2551223337650299,0.5177870392799377
3.044487953186035,0.3292286992073059,-0.18676245212554932,-0.17610228061676025,-0.902693754719517,-1.2612938522785795,2.2202007901528815,-0.5900624394416809,0.7849985361099243,-0.18868957459926605,-0.5948596000671387,0.1660192906856537,0.4087209105491638
3.0647969245910645,0.3356221318244934,-0.157085120677948,-0.275961697101593,-0.9123856927025664,-1.2664720864431664,2.211643994796649,-0.5837452411651611,0.7909656763076782,-0.1833430975675583,-0.18143026530742645,0.02821357361972332,0.35320138931274414
3.084291934967041,0.3232215642929077,-0.08975392580032349,-0.2888329327106476,-0.9173990108132585,-1.2646958165597069,2.213694473785026,-0.5796301364898682,0.7940232157707214,-0.18318238854408264,0.17671562731266022,0.009052751585841179,0.15091481804847717
3.1043739318847656,0.341011643409729,-0.10078352689743042,-0.2643355131149292,-0.9177967671129595,-1.2578217434427377,2.2222403790521668,-0.5780568718910217,0.7942649126052856,-0.1870652437210083,0.2634837329387665,0.0004874037695117295,0.08051605522632599
3.1264781951904297,0.377103328704834,-0.1319085955619812,-0.23203188180923462,-0.9187973419442972,-1.253269777630821,2.2273411694776897,-0.576444149017334,0.7948724627494812,-0.18944638967514038,-0.05500683933496475,0.03852098435163498,0.06342102587223053
3.1460819244384766,0.3736932873725891,-0.12210077047348022,-0.27481770515441895,-0.9198601830681681,-1.2564415889902252,2.2221103066041104,-0.5762384533882141,0.7955169081687927,-0.18735575675964355,-0.3483670949935913,-0.03956005722284317,-0.016355235129594803
3.1598920822143555,0.39810293912887573,-0.016561806201934814,-0.3032410144805908,-0.9224939156780012,-1.2714519727233322,2.2061300882597443,-0.576981782913208,0.7971100211143494,-0.17806696891784668,-0.601987361907959,-0.1393679678440094,-0.021271996200084686
3.182908058166504,0.39853835105895996,0.0648919939994812,-0.31787800788879395,-0.9265437267055475,-1.2899261080366828,2.1867149042886997,-0.5770661234855652,0.799548864364624,-0.16648168861865997,-0.590038537979126,-0.1566024273633957,0.11137790232896805
3.203263998031616,0.3899840712547302,0.1695219874382019,-0.3301490545272827,-0.9331008805760705,-1.3037892087665996,2.173197227267595,-0.5742491483688354,0.8034698963165283,-0.15707935392856598,-0.33867019414901733,-0.15602390468120575,0.2655438780784607
3.223349094390869,0.37173521518707275,0.24237895011901855,-0.3341374397277832,-0.9386642339038125,-1.308148895573564,2.1722747540539644,-0.5706029534339905,0.8067695498466492,-0.1534113585948944,0.13288864493370056,-0.20540539920330048,0.275840163230896
3.243053913116455,0.37446701526641846,0.1798231601715088,-0.3046618103981018,-0.9445410742372803,-1.304141673036057,2.1822749265838755,-0.5654001235961914,0.8102280497550964,-0.1544446349143982,0.2040233463048935,-0.21564675867557526,0.43894311785697937
3.264019012451172,0.35234761238098145,0.09515857696533203,-0.23973850905895233,-0.9527513086013149,-1.30028971893205,2.192406766153878,-0.5583717226982117,0.8150128126144409,-0.15483850240707397,0.12186911702156067,-0.20933125913143158,0.5012245178222656
3.2841060161590576,0.3048933148384094,0.06853622198104858,-0.1930573582649231,-0.962555359443072,-1.298634709258017,2.198961414800139,-0.5503919124603271,0.8206544518470764,-0.1536070853471756,0.004012361168861389,-0.1518753319978714,0.531545877456665
3.3040239810943604,0.2850569486618042,0.07538998126983643,-0.1618860960006714,-0.9726105833347598,-1.300020739647938,2.2015836862414035,-0.5426252484321594,0.8263586759567261,-0.15062914788722992,-0.11236035823822021,-0.24296723306179047,0.4539324641227722
3.3279051780700684,0.26985031366348267,0.14087843894958496,-0.13972187042236328,-0.9807103054728225,-1.3049066846737116,2.2041502390798544,-0.5368791222572327,0.83089280128479,-0.14621256291866302,0.058109100908041,-0.48566192388534546,0.3896474838256836
3.3444881439208984,0.1894804835319519,0.3116787075996399,-0.17074935138225555,-0.9863398640846166,-1.3073625890806109,2.216493462085956,-0.5327116250991821,0.8340120911598206,-0.14367319643497467,0.5371913909912109,-0.7405729293823242,0.32467758655548096
3.3637819290161133,0.07601779699325562,0.3943318724632263,-0.13287842273712158,-0.9884519385705632,-1.2945243361345826,2.249083780339256,-0.5291275382041931,0.8351755738258362,-0.15001948177814484,1.0805351734161377,-0.6895861625671387,0.38032397627830505
3.383580207824707,0.07188230752944946,0.3030058741569519,-0.019240379333496094,-0.989955766601464,-1.267862367337079,2.2970077555604087,-0.5237407684326172,0.8360016942024231,-0.16369721293449402,1.370140790939331,-0.6724070310592651,0.5179964303970337
3.4034230709075928,0.05818241834640503,0.1757679581642151,0.06526309251785278,-0.9913661636954869,-1.2344235171582538,2.3527088532640392,-0.5168615579605103,0.8367748260498047,-0.18072634935379028,1.5118980407714844,-0.6101857423782349,0.5434068441390991
3.4234700202941895,-0.04438239336013794,0.17362052202224731,0.10989797115325928,-0.9891331321772909,-1.196031860949126,2.411504912255294,-0.5112816691398621,0.8355500102043152,-0.2011149823665619,1.6145700216293335,-0.5549066662788391,0.2991432845592499
3.4433488845825195,-0.12413263320922852,0.24755054712295532,0.06059733033180237,-0.9777860273695419,-1.1558172560575402,2.475006756492639,-0.5114263296127319,0.8292620778083801,-0.2253158986568451,2.037437677383423,-0.6972178220748901,0.04977399855852127
3.4637298583984375,-0.06760513782501221,0.2858503460884094,0.08947715163230896,-0.9583784603890279,-1.112128401186354,2.5460061335432917,-0.5154332518577576,0.8182604908943176,-0.2545161843299866,2.4678990840911865,-0.827517569065094,-0.1083732396364212
3.4836320877075195,0.016223549842834473,0.21515697240829468,0.18390685319900513,-0.9340310979239487,-1.0699926998951048,2.618079222906999,-0.521579384803772,0.8040233254432678,-0.28548458218574524,2.331360101699829,-0.790842592716217,-0.1302700787782669
3.5030441284179688,0.049165308475494385,0.09068238735198975,0.26375895738601685,-0.9106497428765165,-1.0349631410856341,2.680059472110318,-0.5272841453552246,0.7899023294448853,-0.31309062242507935,2.0386085510253906,-0.6884439587593079,-0.04989194497466087
3.5248169898986816,0.10568535327911377,-0.038369178771972656,0.26840052008628845,-0.8932644331457149,-1.0075367394563677,2.7322272850456613,-0.530032217502594,0.7791222929954529,-0.3347151577472687,1.6433833837509155,-0.6976678967475891,0.23065781593322754
3.5424070358276367,0.16759586334228516,-0.013697981834411621,0.2644769251346588,-0.8815476009958514,-0.9850152689574102,2.7795447464086855,-0.5299309492111206,0.7717239856719971,-0.3515893220901489,1.5591092109680176,-0.7558926939964294,0.3454103171825409
3.5632619857788086,0.1790727972984314,0.054266929626464844,0.2448125183582306,-0.8685459142570019,-0.9641550592886312,2.8273193232961824,-0.5306810140609741,0.7633904814720154,-0.3682560622692108,1.7316453456878662,-0.8114564418792725,0.2945241928100586
3.5819690227508545,0.19824105501174927,0.08170324563980103,0.2411244511604309,-0.8526531686263282,-0.943883594948944,2.875915937817161,-0.5328662395477295,0.7530288100242615,-0.3860066533088684,1.738358736038208,-0.8762663006782532,0.2391701191663742
3.60186505317688,0.2437698245048523,0.09779632091522217,0.23811566829681396,-0.8358919372626094,-0.9294730508793606,2.9211929251259363,-0.5372878909111023,0.7418948411941528,-0.40114057064056396,1.669604778289795,-1.0869054794311523,0.20833218097686768
3.622770071029663,0.2792888879776001,0.12852424383163452,0.2062768042087555,-0.8206188526624061,-0.9226900567935054,2.9624873247469963,-0.543525218963623,0.7315678596496582,-0.4115684926509857,1.4962310791015625,-1.2711526155471802,0.259963721036911
3.6427478790283203,0.2877022624015808,0.1465543508529663,0.22692620754241943,-0.808817476975123,-0.921036644941819,2.999120390194328,-0.5496803522109985,0.7234713435173035,-0.41766104102134705,1.2093160152435303,-1.1930524110794067,0.3008779287338257
3.6627540588378906,0.30658674240112305,0.1319635510444641,0.26373791694641113,-0.7997807941136839,-0.9225922183308463,3.028407938586229,-0.555518627166748,0.7172033786773682,-0.4207356572151184,1.00571608543396,-1.1011955738067627,0.20391440391540527
3.6816279888153076,0.3628152012825012,0.11386328935623169,0.25988054275512695,-0.7901549903675006,-0.9251106057065249,3.0553152083756774,-0.5620644688606262,0.7104623317718506,-0.42347007989883423,1.1265579462051392,-1.0932731628417969,0.15777544677257538
3.701690196990967,0.40313297510147095,0.11440229415893555,0.24771183729171753,-0.7769869185812447,-0.9253520377433253,3.085388499946034,-0.5695910453796387,0.701134204864502,-0.42892521619796753,1.3598889112472534,-1.0497469902038574,0.057584457099437714
3.7227110862731934,0.415600061416626,0.06559181213378906,0.2675013542175293,-0.7604679113330122,-0.92352705418076,3.1169158686034146,-0.5779687762260437,0.6892605423927307,-0.4368891716003418,1.3830513954162598,-0.9507118463516235,0.003494835924357176
3.7425179481506348,0.4359045624732971,-0.043362975120544434,0.3156406879425049,-0.7447151510100549,-0.923622085111022,-3.140685343178534,-0.5866003632545471,0.6777623891830444,-0.4433262348175049,1.0447709560394287,-0.8188715577125549,-0.16464073956012726
3.762840986251831,0.4342234134674072,-0.12454921007156372,0.31241267919540405,-0.7283321205477058,-0.9275474926251038,-3.1231698516558035,-0.5971415042877197,0.6656258702278137,-0.44762077927589417,1.0343650579452515,-0.7640617489814758,-0.32090240716934204
3.782555103302002,0.4367917776107788,-0.09478795528411865,0.24975144863128662,-0.7104517383680886,-0.9336635809070806,-3.1092463875319964,-0.6093381643295288,0.6521762609481812,-0.4509690999984741,0.9739575982093811,-0.7950407266616821,-0.5727179646492004
3.8023080825805664,0.3690703511238098,-0.012096941471099854,0.19311761856079102,-0.6849788780193985,-0.9398407579781346,-3.0957722115218,-0.62532639503479,0.6326566338539124,-0.456850528717041,1.2903691530227661,-0.6562694311141968,-0.8252320885658264
3.8221359252929688,0.3633500933647156,0.005290508270263672,0.21863940358161926,-0.654661775454499,-0.9435059170749331,-3.0816393969865032,-0.6422348618507385,0.608890950679779,-0.465602844953537,1.3451062440872192,-0.6406359672546387,-0.9554153680801392
3.8423690795898438,0.4157184362411499,-0.0959731936454773,0.2609419822692871,-0.6260120377440638,-0.9505598751777875,-3.072052456907811,-0.6594318151473999,0.5859177112579346,-0.4710097312927246,0.9291456341743469,-0.6302822828292847,-0.9208795428276062
3.861366033554077,0.41504544019699097,-0.16862475872039795,0.30269452929496765,-0.6032312430041017,-0.9624656996746758,-3.0711740855060556,-0.6757722496986389,0.567306399345398,-0.47063273191452026,0.4159538447856903,-0.6007700562477112,-0.901164710521698
3.8821139335632324,0.3530582785606384,-0.10989868640899658,0.2543824315071106,-0.5864901949363867,-0.980494149600898,-3.0790619165177078,-0.6919406652450562,0.5534411668777466,-0.4635956585407257,0.06370112299919128,-0.804562509059906,-0.8681120872497559
3.9022068977355957,0.26334095001220703,0.006553292274475098,0.1363755166530609,-0.572307002893198,-1.004317173209285,-3.090844203967867,-0.7093400359153748,0.5415728688240051,-0.45114901661872864,-0.0909961462020874,-0.8891270160675049,-0.8390966653823853
3.921861171722412,0.23092424869537354,0.04578566551208496,0.12575754523277283,-0.5601543087266735,-1.0266618034693922,-3.100280117283979,-0.724820613861084,0.5313169360160828,-0.43856269121170044,0.1001904308795929,-0.8576741814613342,-0.5875030755996704
3.9417591094970703,0.2934255599975586,0.04139524698257446,0.14360636472702026,-0.5491999788447078,-1.0442167799596809,-3.099304232957962,-0.7373952865600586,0.522005021572113,-0.42867109179496765,0.5416314601898193,-0.9361796975135803,-0.3349951207637787
3.9609320163726807,0.23782771825790405,0.06676900386810303,0.1405630111694336,-0.5367087396706726,-1.056740858072041,-3.0870852767678993,-0.7483257055282593,0.5113102793693542,-0.4225759506225586,0.9457788467407227,-0.9169429540634155,-0.27871766686439514
3.980926036834717,0.12609511613845825,-0.03273853659629822,0.18636715412139893,-0.5222523788806642,-1.0656848835066253,-3.0703795704401333,-0.758465051651001,0.4988335371017456,-0.4193993806838989,0.9503172039985657,-0.8153294324874878,-0.252404123544693
4.001753091812134,0.08439308404922485,-0.1121940016746521,0.25331911444664,-0.5093106086943308,-1.0741262063764092,-3.053528925157001,-0.7675899863243103,0.4875754714012146,-0.4160235524177551,1.0281267166137695,-0.9684496521949768,-0.19463160634040833
4.0215489864349365,0.05593675374984741,-0.06970906257629395,0.15269899368286133,-0.49494415586883433,-1.0878256201214096,-3.0337851155717144,-0.7793406248092651,0.47498250007629395,-0.40868043899536133,1.2172999382019043,-1.3599790334701538,-0.2784906327724457
4.041488170623779,0.05038803815841675,-0.0320550799369812,0.1384826898574829,-0.4773286135759918,-1.1058812763848136,-3.0105933689100635,-0.793948769569397,0.4594080150127411,-0.3982330560684204,1.335305094718933,-1.4302802085876465,-0.33683013916015625
4.061756134033203,0.03580141067504883,-0.09893554449081421,0.2261008620262146,-0.4604302108045685,-1.1211478705892906,-2.987563803207302,-0.8068128228187561,0.444333553314209,-0.38938525319099426,1.2414833307266235,-1.0953419208526611,-0.25685301423072815
4.080501079559326,0.07315993309020996,-0.10344263911247253,0.2534276843070984,-0.44656821906433,-1.1315309520615866,-2.9664079610355976,-0.8163087368011475,0.4318728446960449,-0.3835698962211609,1.1387385129928589,-0.9008004069328308,-0.2146102339029312
4.10145902633667,0.11644965410232544,-0.026858747005462646,0.2084619402885437,-0.4300196431910779,-1.13963245003727,-2.9435687818953533,-0.8257697224617004,0.41688865423202515,-0.3798792064189911,1.490107774734497,-0.915712833404541,-0.4483654797077179
4.121625900268555,0.07620632648468018,0.05100637674331665,0.18121987581253052,-0.4051134751586084,-1.1476583213822429,-2.9138198004310825,-0.8380013108253479,0.39412304759025574,-0.3773868978023529,1.9086095094680786,-1.0556764602661133,-0.7100861668586731
4.141909122467041,-0.055502474308013916,0.02922728657722473,0.22266912460327148,-0.37410684141578004,-1.1588397664503647,-2.8856028636540914,-0.8529599905014038,0.36544129252433777,-0.37270885705947876,1.6618832349777222,-1.1074066162109375,-1.0580073595046997
4.161573886871338,-0.2598423361778259,-0.007235527038574219,0.2700127959251404,-0.3409353367642527,-1.1731583060002462,-2.868582329737275,-0.8689112663269043,0.3343687355518341,-0.3649529814720154,1.1576104164123535,-0.8872098922729492,-1.3493292331695557
4.181168079376221,-0.37246185541152954,-0.048002392053604126,0.29904425144195557,-0.30893574526122963,-1.1903073355774803,-2.8619558407314716,-0.8845266103744507,0.3040449321269989,-0.35379281640052795,0.590371310710907,-1.1170772314071655,-1.364776372909546
4.2010979652404785,-0.43105363845825195,-0.06998437643051147,0.34401240944862366,-0.28089325177962315,-1.2179584486854296,-2.866582103942236,-0.9016183018684387,0.277213990688324,-0.33201900124549866,0.08467648923397064,-1.5074950456619263,-1.3928821086883545
4.221204042434692,-0.5844019055366516,-0.25522273778915405,0.437526673078537,-0.25869359758822297,-1.2453490943750745,-2.8790864369586435,-0.9159794449806213,0.25581783056259155,-0.3090934455394745,-0.6983727216720581,-0.7910869121551514,-1.3817083835601807
4.241441011428833,-1.0865859985351562,-0.15747177600860596,0.474190354347229,-0.2176736578003137,-1.2629618664786377,-2.9029817763345007,-0.9305037260055542,0.21595875918865204,-0.2958456575870514,0.4371000826358795,-0.5499112010002136,-3.1139614582061768
4.261245012283325,-1.008070945739746,-0.17871436476707458,0.1742756962776184,-0.15152252377679246,-1.2822637512182655,-2.8923639538486072,-0.9476785659790039,0.15094338357448578,-0.2812855839729309,1.955483317375183,-1.5163400173187256,-2.7457430362701416
4.280951023101807,-0.9473177790641785,-0.2116340696811676,0.49837157130241394,-0.09854280978497199,-1.3041108179657168,-2.876729179743198,-0.9599697589874268,0.09838340431451797,-0.26225703954696655,0.9259958863258362,-0.5427591800689697,-1.7227704524993896
4.300850868225098,-1.160386085510254,-0.40206703543663025,0.7634710073471069,-0.08388233843741885,-1.3026581422229933,-2.8713050602361623,-0.9608753323554993,0.08378400653600693,-0.26400506496429443,-0.001848683226853609,0.44675296545028687,0.4619844853878021
4.320765018463135,-0.7322678565979004,-0.19965305924415588,0.5896408557891846,-0.10447561840152361,-1.2897870762421462,-2.863109514658961,-0.9555372595787048,0.10428565740585327,-0.2758132815361023,0.4530828297138214,0.8529897928237915,1.5254043340682983
4.340640068054199,-0.7541735768318176,-0.15439404547214508,0.44356465339660645,-0.12771773042302043,-1.2630576285893862,-2.837439982120172,-0.9452587962150574,0.12737078964710236,-0.30043724179267883,1.3921538591384888,1.7095544338226318,1.2663469314575195
4.36106014251709,-1.1962738037109375,-0.3774268627166748,0.661007285118103,-0.13719527758038375,-1.2119964557747291,-2.793881063587194,-0.9275208115577698,0.1367652863264084,-0.3478511869907379,2.158914566040039,2.4130396842956543,1.3879883289337158
4.380524158477783,-0.8661595582962036,-0.6799114942550659,0.3247681260108948,-0.15957654770091947,-1.179483510442716,-2.7624381356258216,-0.9126642346382141,0.15890014171600342,-0.37655648589134216,0.06962800025939941,0.40990304946899414,1.757336139678955
4.400418996810913,-0.6097006797790527,-0.8753734827041626,0.1239745020866394,-0.20826621798948353,-1.1830854693240849,-2.7651671980591677,-0.9057717323303223,0.20676389336585999,-0.3699004054069519,-2.2329280376434326,-0.4260677993297577,2.6547353267669678
4.420670986175537,-0.9870913624763489,-0.3980117738246918,0.2746371328830719,-0.27891827913446626,-1.1936760881168436,-2.796042240150238,-0.8937984108924866,0.27531588077545166,-0.3540133237838745,-2.721153497695923,0.29488876461982727,2.774754047393799
4.440339088439941,-1.2060251235961914,-0.019522905349731445,0.09545880556106567,-0.3463849611291395,-1.1877352211083005,-2.8138326279546977,-0.8724355697631836,0.33949971199035645,-0.3515623211860657,-1.1744288206100464,0.6977787017822266,2.8584113121032715
4.460649013519287,-1.0524847507476807,0.13318121433258057,-0.18043765425682068,-0.4015397946226007,-1.1691787769915882,-2.7991166049056004,-0.8472191691398621,0.39083611965179443,-0.35981500148773193,0.11535317450761795,0.6139364838600159,2.7466635704040527
4.481575965881348,-1.0297752618789673,0.11674228310585022,-0.11112448573112488,-0.4470412413723249,-1.1449802449414512,-2.7731792361952907,-0.8212072849273682,0.4322994351387024,-0.37247234582901,0.027636224403977394,0.7787232398986816,2.3952043056488037
4.4999308586120605,-1.0178241729736328,-0.011971056461334229,-0.017509758472442627,-0.49248501438918096,-1.125038205601005,-2.760255208527822,-0.7950572371482849,0.4728170335292816,-0.3799054026603699,-0.9228089451789856,0.5321885347366333,2.2345051765441895
4.521283149719238,-0.7930219769477844,-0.08327841758728027,-0.06597772240638733,-0.5420528894348862,-1.1192040405420431,-2.763800508895326,-0.7707750797271729,0.515895664691925,-0.37384164333343506,-1.459047555923462,0.3208742141723633,2.1523070335388184
4.540052890777588,-0.6815109252929688,-0.0017979145050048828,-0.03550305962562561,-0.5943612518346746,-1.1196515605903883,-2.777843857403528,-0.7456129789352417,0.5599796772003174,-0.3612254559993744,-1.8478204011917114,0.39361339807510376,2.0072736740112305
4.55996298789978,-0.6820442080497742,0.051763951778411865,-0.014395594596862793,-0.6446841561860853,-1.1223836974061372,-2.7982429327060703,-0.7202690243721008,0.6009460091590881,-0.3465205430984497,-1.8787024021148682,0.5621211528778076,1.83807373046875
4.582643032073975,-0.6330637335777283,0.10396522283554077,0.07595151662826538,-0.6916716802755705,-1.1281790978412964,-2.827407323762298,-0.6959614753723145,0.6378255486488342,-0.32987305521965027,-2.105511426925659,0.688378632068634,1.381569266319275
4.601489067077637,-0.543099582195282,0.07692992687225342,0.08934849500656128,-0.7317286186192931,-1.138790305252694,-2.863660632672342,-0.6756656765937805,0.6681567430496216,-0.3115164637565613,-2.1341800689697266,0.5284138321876526,1.138674259185791
4.619958877563477,-0.39025986194610596,0.1495770812034607,0.12071436643600464,-0.7672066040686383,-1.1568580908642503,-2.9017834878817736,-0.6590564846992493,0.6941271424293518,-0.289537638425827,-1.8787124156951904,0.3547717332839966,0.9962021112442017
4.639953136444092,-0.2633969187736511,0.10284030437469482,0.17397412657737732,-0.7994879832326816,-1.1790146558516057,-2.9433134239916887,-0.6442568898200989,0.7169992923736572,-0.2661677598953247,-2.104032278060913,0.39794111251831055,0.7780120968818665
4.660027027130127,-0.03490728139877319,0.03481948375701904,0.18149735033512115,-0.825961652579885,-1.2116542806629504,-2.999383705461597,-0.6346024870872498,0.7351999878883362,-0.23824478685855865,-2.4226882457733154,0.41636887192726135,0.2198645919561386
4.679986953735352,0.19773846864700317,0.06082046031951904,0.1340261697769165,-0.84217760697897,-1.2504107921071934,-3.0636357974118997,-0.6319577693939209,0.746094822883606,-0.2096945345401764,-2.14690899848938,0.4452471137046814,0.014920493587851524
4.699961185455322,0.3759123682975769,0.08468550443649292,0.017648592591285706,-0.8565007879179299,-1.2835610720184496,-3.1204086859747484,-0.6282468438148499,0.7555549144744873,-0.1855868399143219,-1.8705461025238037,0.5123190879821777,0.17212989926338196
4.719935894012451,0.46245086193084717,0.11581027507781982,-0.14878976345062256,-0.8642738940951749,-1.3127828862302935,3.113023891026164,-0.6277034878730774,0.7606241106987,-0.16564814746379852,-1.4490047693252563,0.35200417041778564,-0.33573514223098755
4.73996114730835,0.6058049201965332,0.059065282344818115,-0.13598108291625977,-0.8644346448358303,-1.3393290806679727,3.0681338647038663,-0.6317600607872009,0.7607284188270569,-0.14890052378177643,-1.5125576257705688,0.41315770149230957,-0.23243023455142975
4.760004997253418,0.6772972941398621,0.003851175308227539,-0.045574918389320374,-0.8716237991652712,-1.3651629394436928,3.020186729122812,-0.6300256252288818,0.765375018119812,-0.13141179084777832,-1.6847230195999146,0.7340598702430725,0.30328840017318726
4.7799601554870605,0.638367772102356,-0.022820770740509033,-0.11314517259597778,-0.884693825318349,-1.3893314676775808,2.966963235945011,-0.6231241822242737,0.7737210392951965,-0.11433287709951401,-1.750304937362671,0.8891673684120178,0.21708355844020844
4.799371004104614,0.7557236552238464,-0.05131310224533081,-0.11167453974485397,-0.8948309201725723,-1.411590962527697,2.9179704352174523,-0.6177383065223694,0.780103325843811,-0.09918668121099472,-1.5223548412322998,0.6410343050956726,0.37024322152137756
4.819961071014404,0.9241297841072083,-0.029238462448120117,0.008616320788860321,-0.9119979769349833,-1.4315677363920047,2.879518670820842,-0.6062434315681458,0.7907283902168274,-0.08495607227087021,-0.9758855700492859,0.42701226472854614,1.0460336208343506
4.839962005615234,0.9059783816337585,-0.10477310419082642,-0.09666632860898972,-0.9388697553629461,-1.4403414679942903,2.860810439088069,-0.5856810212135315,0.8068909645080566,-0.076841339468956,-0.575232744216919,0.16737723350524902,1.3350121974945068
4.860027074813843,0.8612529635429382,-0.1750217080116272,-0.09325849264860153,-0.9674272917072589,-1.4442511315423794,2.856132594281243,-0.5628824830055237,0.8234286308288574,-0.07161274552345276,-0.09113094210624695,-0.1662837415933609,1.5483794212341309
4.879962921142578,0.8530735969543457,-0.37214797735214233,-0.1035885214805603,-1.0010584341474167,-1.4448878244180428,2.861372738562909,-0.5351414084434509,0.8420423865318298,-0.06773717701435089,-0.07560643553733826,-0.38726282119750977,1.7780091762542725
4.89998197555542,0.8634922504425049,-0.5255516767501831,-0.047770269215106964,-1.0367546822688676,-1.4520081939431135,2.865844412404717,-0.5054295063018799,0.8607568144798279,-0.06032302975654602,-0.09908095002174377,-0.7109417915344238,1.8158761262893677
4.9199628829956055,0.9337235689163208,-0.5400502681732178,-0.0814681127667427,-1.0720865483318454,-1.456113506325321,2.8822368654196273,-0.4751512110233307,0.8782004117965698,-0.054731838405132294,0.5864894986152649,-1.0573078393936157,1.7792922258377075
4.94000506401062,0.9380316734313965,-0.562139093875885,-0.08088516443967819,-1.1036181872574278,-1.434304303372901,2.9316768288112987,-0.44617971777915955,0.892842710018158,-0.061281003057956696,1.2987488508224487,-1.1184682846069336,1.536383032798767
4.960019111633301,0.9604508876800537,-0.6109582185745239,-0.06706703454256058,-1.1237190250690259,-1.3807353282077268,3.014191591239605,-0.4245469570159912,0.9017145037651062,-0.08167565613985062,1.9558448791503906,-0.8262850046157837,1.0816624164581299
4.979966163635254,1.1198607683181763,-0.7261284589767456,-0.027589023113250732,-1.1305008152901592,-1.2928896308279865,3.1234778376153898,-0.409853994846344,0.9046257734298706,-0.11692696064710617,2.5426278114318848,-0.3023793399333954,0.6283679604530334
4.999975204467773,1.3838704824447632,-0.8113320469856262,0.062095582485198975,-1.1196664892317258,-1.1781634918501358,-3.0276666530321443,-0.4028065800666809,0.8999550938606262,-0.16681668162345886,3.156812906265259,-0.21011732518672943,0.2666381597518921
5.020035982131958,1.6546028852462769,-0.7828478813171387,0.18118178844451904,-1.0942980994474432,-1.070201966523322,-2.8954496925666353,-0.40239033102989197,0.8886065483093262,-0.22013747692108154,3.1380016803741455,-1.05724036693573,-0.1189090684056282
5.0399699211120605,1.6574534177780151,-0.7765270471572876,0.43811944127082825,-1.0557027310241862,-1.0238779597897305,-2.802129070222689,-0.42075908184051514,0.8702466487884521,-0.25618892908096313,2.699259042739868,-2.566293716430664,-0.9333605170249939
5.059959888458252,1.2550914287567139,-0.8001630902290344,0.6868886947631836,-1.0115084848166376,-1.0155620178455111,-2.734482857616616,-0.45087695121765137,0.8476331830024719,-0.2796926498413086,2.4352519512176514,-2.7319633960723877,-1.0197206735610962
5.08001708984375,0.7044308185577393,-0.6891790628433228,0.5653510093688965,-0.9660791908260021,-1.0614487615883852,-2.7008088558635284,-0.4963619112968445,0.8226629495620728,-0.27721935510635376,1.303922414779663,-4.492825984954834,-1.9488534927368164
5.099944114685059,-0.09935587644577026,-0.3718422055244446,0.23181837797164917,-0.9026540467963029,-1.1616733853779966,-2.7152179669351684,-0.5683992505073547,0.7849739193916321,-0.24645157158374786,1.181479573249817,-4.091299533843994,-4.728921413421631
5.119961977005005,-2.1160190105438232,0.23263764381408691,0.2268795371055603,-0.7834128854338014,-1.2294934548723047,-2.72365822511558,-0.6676418781280518,0.7057015895843506,-0.2371487021446228,2.602623462677002,-2.4756836891174316,-5.3023576736450195
5.1400299072265625,-2.307469367980957,0.43450719118118286,-0.12370572984218597,-0.6889921019721121,-1.2646132571942166,-2.690713438116266,-0.7359874248504639,0.6357595324516296,-0.2326633185148239,2.5675604343414307,-2.9445791244506836,-3.4726767539978027
5.160024166107178,-2.767359733581543,0.7253723740577698,-0.4321784973144531,-0.6148400429667064,-1.2908682716362927,-2.6560083338268723,-0.7850694060325623,0.576827883720398,-0.22568894922733307,2.1825084686279297,-1.7901661396026611,-2.519712448120117
5.179961204528809,-1.9460132122039795,0.7237396836280823,-0.37951380014419556,-0.5732778937415143,-1.2944147888988968,-2.6210432584084087,-0.8082439303398132,0.5423887968063354,-0.22925087809562683,1.5219460725784302,-0.4561379551887512,-0.6496403813362122
5.19995903968811,-1.16605806350708,0.573249340057373,0.06886345148086548,-0.5712910412576458,-1.281690726086399,-2.5978814675132003,-0.8062930107116699,0.5407185554504395,-0.23982298374176025,0.6945790648460388,0.3316279649734497,0.9050610661506653
5.219989061355591,-0.6468866467475891,0.47829288244247437,0.2855076491832733,-0.5934547736426805,-1.2594794226700257,-2.5703146606916794,-0.7891636490821838,0.5592284202575684,-0.2539371848106384,1.018641471862793,0.22447460889816284,1.692214012145996
5.239972114562988,-0.38815611600875854,0.45591896772384644,0.32474273443222046,-0.6141472818562977,-1.2322876615446898,-2.5224531504516174,-0.7708861827850342,0.5762618184089661,-0.27139803767204285,1.969713568687439,-0.16150185465812683,1.4597294330596924
5.2599639892578125,-0.22386080026626587,0.24321269989013672,0.32536810636520386,-0.624470981642857,-1.2059533016594695,-2.4678781497494175,-0.7578744292259216,0.5846681594848633,-0.28946420550346375,1.677303433418274,-0.32967042922973633,1.0767871141433716
5.279980182647705,-0.05266934633255005,-0.030192553997039795,0.29111912846565247,-0.6349282472849872,-1.1879058829697489,-2.428191894136428,-0.7468147873878479,0.593119740486145,-0.30079323053359985,0.9594931602478027,-0.18553759157657623,1.159089207649231
5.299962043762207,0.14217793941497803,-0.058339476585388184,0.17321306467056274,-0.6511282958115148,-1.1756163726444417,-2.398828366168087,-0.7340968251228333,0.6060842275619507,-0.3062087297439575,0.7334539294242859,-0.3876134753227234,1.1529759168624878
5.319962978363037,0.2954398989677429,0.06117713451385498,0.023306816816329956,-0.6639360271282132,-1.1686107982653766,-2.367830339259476,-0.7247305512428284,0.61622154712677,-0.30827996134757996,0.9215346574783325,-0.868354856967926,1.0641429424285889
5.339963912963867,0.2865108847618103,0.19574719667434692,0.11639928817749023,-0.6770195354846865,-1.1643851026145837,-2.336547401399326,-0.7159542441368103,0.6264727115631104,-0.3081260323524475,0.7393056750297546,-0.6645163297653198,0.9879112839698792
5.359963893890381,0.12884289026260376,0.12899601459503174,0.10659775137901306,-0.6891893935026059,-1.1655114539860367,-2.3171476972816216,-0.7092413306236267,0.6359118223190308,-0.30429062247276306,0.213529571890831,-0.6088059544563293,0.8346457481384277
5.379961967468262,0.2546246647834778,0.17026573419570923,0.08538493514060974,-0.7043974542323278,-1.1679073661223478,-2.3000494288176743,-0.7009899020195007,0.647574782371521,-0.29876384139060974,0.57472163438797,-0.7963876128196716,1.0935941934585571
5.399991035461426,0.35660529136657715,0.3361443877220154,-0.024505048990249634,-0.7176887007692379,-1.1637612699963227,-2.2648991393550166,-0.6917797327041626,0.6576452851295471,-0.29823365807533264,1.3702324628829956,-1.0770152807235718,1.1095068454742432
5.419970989227295,0.2921403646469116,0.31412649154663086,-0.02875867486000061,-0.7232718903614713,-1.1527897592486909,-2.2143893412909326,-0.6850999593734741,0.6618409752845764,-0.30431023240089417,1.8060349225997925,-1.0934836864471436,0.9480401277542114
5.439962863922119,0.14802110195159912,0.11850523948669434,0.03226518630981445,-0.7264972975367395,-1.1369832083428364,-2.1608294785842723,-0.6782639622688293,0.6642554402351379,-0.31420189142227173,1.6069867610931396,-0.8677775263786316,1.0136597156524658
5.460011005401611,0.10946756601333618,-0.024557173252105713,0.07403859496116638,-0.733063567772322,-1.1241987945770415,-2.116708694524181,-0.6702432036399841,0.6691493988037109,-0.32095634937286377,1.111811637878418,-0.7838283777236938,0.9700167179107666
5.479964017868042,0.14320069551467896,-0.06626558303833008,0.0789218544960022,-0.7425993544490959,-1.1188046127014135,-2.0858600652678647,-0.6627318859100342,0.6762051582336426,-0.3217655420303345,0.553816556930542,-0.8008884191513062,0.8573452830314636
5.499963045120239,0.18315935134887695,-0.024385690689086914,0.054587751626968384,-0.753556497160058,-1.1223699222762404,-2.0667160890556473,-0.6571583151817322,0.6842367053031921,-0.31616920232772827,0.31145039200782776,-0.8440278172492981,0.7375693917274475
5.519937992095947,0.15085917711257935,0.07046377658843994,0.005774050951004028,-0.7626120258045,-1.125439311766337,-2.0470133688266747,-0.6525070071220398,0.6908124089241028,-0.3114686608314514,0.6647667288780212,-0.8220329284667969,0.6945587992668152
5.54011607170105,0.1278032660484314,0.15138131380081177,-0.015644162893295288,-0.7683254489631582,-1.1203990054691104,-2.0163240160888565,-0.6473649144172668,0.6949321031570435,-0.3130302131175995,1.0376890897750854,-0.8283702731132507,0.7429282665252686
5.559997081756592,0.10641533136367798,0.12707459926605225,0.041455209255218506,-0.7713425094938358,-1.1111119429214587,-1.9789837324059059,-0.6425480842590332,0.697098433971405,-0.3180971145629883,1.2138713598251343,-0.8343765735626221,0.7143903374671936
5.580026149749756,0.060716211795806885,0.03250068426132202,0.06741666793823242,-0.7745609514059576,-1.101015828901266,-1.9411639824717557,-0.6373000144958496,0.6994023323059082,-0.3235507309436798,1.074461579322815,-0.8058690428733826,0.7529100179672241
5.599968910217285,0.036245524883270264,-0.025990009307861328,0.059978336095809937,-0.7787378491985592,-1.0927189853798107,-1.9065419735557039,-0.6319943070411682,0.7023815512657166,-0.32748016715049744,0.924610435962677,-0.8067587614059448,0.731909990310669
5.620007038116455,0.0601658821105957,-0.04631155729293823,0.03339836001396179,-0.7834820222526631,-1.0880128018425006,-1.8761508467714638,-0.6274875998497009,0.705750584602356,-0.3289000988006592,0.8101767897605896,-0.8738062381744385,0.6617781519889832
5.640006065368652,0.0393826961517334,-0.05242002010345459,-0.002128303050994873,-0.786984387985538,-1.084934172218975,-1.84753070970356,-0.6242825984954834,0.7082275152206421,-0.3296741247177124,0.882186233997345,-0.8080436587333679,0.5286260843276978
5.659965991973877,-0.02441328763961792,-0.02972620725631714,-0.018825620412826538,-0.7861144524975696,-1.0793854178932571,-1.8183696739179758,-0.6229865550994873,0.7076131105422974,-0.33342355489730835,1.0211354494094849,-0.7278615236282349,0.3013601303100586
5.679965972900391,-0.07492977380752563,0.003042459487915039,-0.016691535711288452,-0.7806115630461639,-1.073364520494142,-1.7904416653709767,-0.6243804693222046,0.7037140727043152,-0.3390214145183563,0.9351577162742615,-0.6455073356628418,0.11169929057359695
5.699965000152588,-0.07192391157150269,-0.008955538272857666,0.023003578186035156,-0.7753912727483071,-1.0711292297953041,-1.771095014989887,-0.6268370151519775,0.6999955773353577,-0.34217172861099243,0.4860532283782959,-0.5193999409675598,0.09476002305746078
5.719452857971191,-0.013081550598144531,-0.010356605052947998,0.026357978582382202,-0.7763921117681462,-1.0756839400410012,-1.7629584650755652,-0.6277722120285034,0.7007099390029907,-0.3389800786972046,0.05044009909033775,-0.5235557556152344,0.2429269403219223
5.7400500774383545,0.009248912334442139,0.03653961420059204,-0.03411480784416199,-0.7812287951794372,-1.0834913801366457,-1.7587788408885467,-0.6273975968360901,0.7041524648666382,-0.3324776291847229,0.08498474955558777,-0.5588433742523193,0.28174707293510437
5.7599780559539795,0.008975327014923096,0.08634459972381592,-0.08904966711997986,-0.7837673806801457,-1.087079184314553,-1.7483866041611,-0.627001941204071,0.7059527039527893,-0.32939210534095764,0.4779501259326935,-0.5524696111679077,0.2565789818763733
5.7801361083984375,0.02227044105529785,0.09550684690475464,-0.0898216962814331,-0.7811111998007186,-1.083013482428475,-1.727948494289365,-0.6273118853569031,0.7040689587593079,-0.33281630277633667,0.8903511166572571,-0.4745466113090515,0.191668301820755
5.799994945526123,0.018688201904296875,0.020858347415924072,-0.06222465634346008,-0.7761846078695878,-1.0740520410655678,-1.702268015806772,-0.6273459792137146,0.7005618810653687,-0.3400733470916748,0.8846633434295654,-0.4533115029335022,0.21915888786315918
5.819995880126953,-0.01747310161590576,-0.052381157875061035,-0.03966134786605835,-0.7721048844163105,-1.067557090666185,-1.6804471746458387,-0.6276227235794067,0.697644829750061,-0.3455163240432739,0.6798719763755798,-0.3948056697845459,0.18751440942287445
5.8399481773376465,0.009513318538665771,-0.10329395532608032,-0.019460201263427734,-0.7717560826821714,-1.0633181088953536,-1.664438044817129,-0.626365065574646,0.697394847869873,-0.34829190373420715,0.32067081332206726,-0.3194699287414551,0.340343177318573
5.85993504524231,0.08274966478347778,-0.07320255041122437,-0.023465871810913086,-0.7764921215296868,-1.063858023376042,-1.6554920146132228,-0.6236584186553955,0.7007812857627869,-0.3463461697101593,0.08323221653699875,-0.3662582039833069,0.3553568720817566
5.87996506690979,0.09165036678314209,-0.0609966516494751,-0.038645148277282715,-0.7820272443438163,-1.0652849836747462,-1.6481120995571024,-0.6207488775253296,0.7047191858291626,-0.3435722887516022,0.10877073556184769,-0.28600940108299255,0.37240469455718994
5.899989128112793,0.08784770965576172,-0.0929839015007019,-0.00748559832572937,-0.7873170889006108,-1.0632402253072772,-1.6390211193087587,-0.6167783141136169,0.7084623575210571,-0.3430240750312805,0.21800819039344788,-0.16339002549648285,0.3835790753364563
5.91998815536499,0.10006052255630493,-0.18182283639907837,-0.003546684980392456,-0.7923925054234134,-1.056389641892449,-1.626400712898316,-0.6112756729125977,0.7120351791381836,-0.34546762704849243,0.30868005752563477,-0.07778254896402359,0.45004451274871826
5.939993858337402,0.11911344528198242,-0.24730414152145386,0.01271289587020874,-0.7974556135650105,-1.0436946072013702,-1.6088571604322495,-0.6037172675132751,0.7155810594558716,-0.35138174891471863,0.39486488699913025,0.06385953724384308,0.6623618006706238
5.959964990615845,0.13819491863250732,-0.23883551359176636,-0.0530586838722229,-0.8056158667282902,-1.0330873471521964,-1.592953175475103,-0.5949209332466125,0.7212573885917664,-0.3547630310058594,0.22050604224205017,-0.18080204725265503,0.5444747805595398
5.9799652099609375,0.13809239864349365,-0.26905012130737305,-0.08716103434562683,-0.8114081203384577,-1.028521874556982,-1.5796467340836684,-0.5897067189216614,0.7252573370933533,-0.35531336069107056,0.26955968141555786,-0.29436349868774414,0.46150511503219604
5.999965190887451,0.16774624586105347,-0.3383382558822632,-0.04829242825508118,-0.8189484333679211,-1.0271150570306453,-1.5691823538946474,-0.5845094919204712,0.7304280400276184,-0.3533036708831787,-0.1704723834991455,-0.32318058609962463,0.5110204219818115
6.02000617980957,0.1880893111228943,-0.35664689540863037,0.05992203950881958,-0.8282863987287855,-1.0370747231363138,-1.574571923878666,-0.5821017026901245,0.7367738485336304,-0.34397974610328674,-0.5502071976661682,-0.2576827108860016,0.03727492317557335
6.039975166320801,0.13973450660705566,-0.27039384841918945,0.03634139895439148,-0.8296713984456785,-1.0537775849804012,-1.590125836713275,-0.5868780612945557,0.7377095818519592,-0.33370473980903625,-0.292617529630661,-0.27988699078559875,-0.34951573610305786
6.059967041015625,0.06313490867614746,-0.1421779990196228,-0.03965827822685242,-0.8254376864164592,-1.0610786649608381,-1.5940385104910355,-0.59201979637146,0.7348446846008301,-0.33093202114105225,0.19355711340904236,-0.1167135238647461,-0.08829885721206665
6.079966068267822,-0.01986706256866455,0.04062145948410034,-0.08579137921333313,-0.8224962999124346,-1.0580033051039472,-1.5884399935323006,-0.592880129814148,0.7328465580940247,-0.33381012082099915,0.2999171316623688,-0.006500109564512968,-0.054427776485681534
6.0999979972839355,-0.040678560733795166,0.1710282564163208,-0.13420873880386353,-0.8183713081052586,-1.0521538482299069,-1.5805920645661404,-0.5935377478599548,0.7300337553024292,-0.33876800537109375,0.307041198015213,-0.018814032897353172,0.0004144302802160382
6.119964122772217,0.05850327014923096,0.19064801931381226,-0.15478989481925964,-0.8171038184740076,-1.049297849335983,-1.5738742381093835,-0.5933695435523987,0.7291669249534607,-0.34092238545417786,0.15819044411182404,-0.1963183432817459,0.11234448105096817
6.139965057373047,0.1062728762626648,0.15082216262817383,-0.16070318222045898,-0.8194933742876904,-1.051039295643384,-1.5697631836649484,-0.5924484133720398,0.7308000922203064,-0.3390222191810608,-0.010841486975550652,-0.25862839818000793,0.2243933230638504
6.160015106201172,0.1168220043182373,0.17952007055282593,-0.16247278451919556,-0.8233969093951955,-1.0533900545540595,-1.5653395974333346,-0.5907599329948425,0.7334590554237366,-0.3362150192260742,0.12396731972694397,-0.3107359707355499,0.27402737736701965
6.179965019226074,0.1444486379623413,0.2207062840461731,-0.18665695190429688,-0.8265184213463115,-1.052394914525372,-1.5539989521594098,-0.588433563709259,0.7355772852897644,-0.3356667160987854,0.41259893774986267,-0.43320348858833313,0.375697523355484
6.199974060058594,0.15267932415008545,0.246537983417511,-0.1795581579208374,-0.8281436928284972,-1.0453127345164441,-1.532224191453081,-0.5850065350532532,0.736677348613739,-0.3392254412174225,0.74971604347229,-0.4366118013858795,0.5151045918464661
6.219965934753418,0.12454384565353394,0.2313963770866394,-0.11238566040992737,-0.8302065583307406,-1.0318693176276585,-1.504037668403379,-0.5790878534317017,0.7380707859992981,-0.3462783396244049,0.7375721335411072,-0.3023195266723633,0.6033135652542114
6.239964962005615,0.09352892637252808,0.1910099983215332,-0.060720473527908325,-0.8331684621947028,-1.0185570778126554,-1.4777166585053767,-0.5725632309913635,0.7400659918785095,-0.35280799865722656,0.6039968729019165,-0.34039759635925293,0.5773715376853943
6.259963035583496,0.11106616258621216,0.17345374822616577,-0.030281662940979004,-0.8377762115822168,-1.0118113127360209,-1.457021749672663,-0.5672733783721924,0.7431569695472717,-0.3548502027988434,0.37127551436424255,-0.5623713731765747,0.5255579352378845
6.279983997344971,0.0667797327041626,0.22607362270355225,-0.07227557897567749,-0.8414208693242149,-1.0125624531039137,-1.4389016698298929,-0.5652385950088501,0.7455907464027405,-0.3529869318008423,0.5310038924217224,-0.8462612628936768,0.4352662265300751
6.29996919631958,-0.04586559534072876,0.3712140917778015,-0.10344496369361877,-0.8400040285077397,-1.0100637254942235,-1.4119624193821276,-0.5652487874031067,0.7446458339691162,-0.3549596071243286,1.0956836938858032,-0.8529394268989563,0.41795551776885986
6.320012092590332,-0.06598901748657227,0.3966427445411682,0.023714065551757812,-0.83468199963646,-0.9957299931680176,-1.37233027056851,-0.5634207129478455,0.741083025932312,-0.36517533659935,1.3212370872497559,-0.6726427674293518,0.5661139488220215
6.3399670124053955,-0.00666356086730957,0.27195340394973755,0.17442962527275085,-0.8323813741247101,-0.9774515590174522,-1.3316582319746173,-0.5580641031265259,0.7395364046096802,-0.37636446952819824,1.0644066333770752,-0.5759140253067017,0.719417929649353
6.359966039657593,-0.00780719518661499,0.18196547031402588,0.1776711642742157,-0.8344113294132809,-0.9632843925569446,-1.2961521341456483,-0.5514426231384277,0.7409012913703918,-0.3833749294281006,0.8256844878196716,-0.6520521640777588,0.7399388551712036
6.379962921142578,-0.047085464000701904,0.21820729970932007,0.1534731686115265,-0.8355219540544317,-0.9524953483482896,-1.2627935371488066,-0.5466033816337585,0.7416467070579529,-0.38882479071617126,0.9656533598899841,-0.7512807846069336,0.6678017973899841
6.399962902069092,-0.028048336505889893,0.2203298807144165,0.18316248059272766,-0.836953784278093,-0.9411229942478949,-1.2274908674906444,-0.5412874817848206,0.7426064610481262,-0.39438992738723755,0.7972531914710999,-0.738146185874939,0.8215776085853577
6.4200050830841064,0.029319584369659424,0.09792530536651611,0.2867986559867859,-0.8434686586882685,-0.9338583671153142,-1.1979679331865933,-0.5345075726509094,0.7469538450241089,-0.3954261243343353,0.4500081539154053,-0.7072311639785767,0.8980268836021423
6.440071105957031,0.07759934663772583,-0.04667866230010986,0.329167902469635,-0.8557578226680698,-0.927403368836747,-1.1728322326789276,-0.5245598554611206,0.7550680041313171,-0.39333122968673706,0.16783976554870605,-0.5918045043945312,1.0436235666275024
6.459988117218018,0.148651123046875,-0.06680178642272949,0.3020722568035126,-0.8689324203244194,-0.9217911634411039,-1.1476192798849532,-0.5143736600875854,0.7636401057243347,-0.3902222812175751,0.43258991837501526,-0.7874781489372253,0.9752947688102722
6.480036020278931,0.20299726724624634,-0.039391517639160156,0.2754400372505188,-0.8761394204624727,-0.9138596925462298,-1.1158848655063254,-0.5068912506103516,0.7682733535766602,-0.3909185826778412,0.7197887897491455,-0.8679235577583313,0.7570533752441406
6.499967098236084,0.22359436750411987,-0.0033548474311828613,0.27708426117897034,-0.8733859316908473,-0.9062407010180158,-1.0802454297970534,-0.5055614709854126,0.7665078639984131,-0.39607229828834534,1.2653716802597046,-1.085327386856079,0.5071153044700623
6.519937992095947,0.2602694630622864,-0.08605116605758667,0.2706011235713959,-0.8663255196205465,-0.8956597321991707,-1.0378072636173352,-0.5055544376373291,0.7619543671607971,-0.40477168560028076,1.2144312858581543,-1.1351014375686646,0.6117703318595886
6.5399699211120605,0.2773432731628418,-0.08837664127349854,0.29565274715423584,-0.8614718407830344,-0.8923358056854822,-1.0018622945483757,-0.5070796012878418,0.7588019967079163,-0.4087661802768707,0.9145369529724121,-1.2305189371109009,0.49795687198638916
6.559967041015625,0.2557876706123352,-0.07432103157043457,0.26144295930862427,-0.8602276382133447,-0.8951805456071572,-0.974219649442047,-0.5089766979217529,0.7579910755157471,-0.40791213512420654,0.6081474423408508,-1.15030038356781,0.5187906622886658
6.579686164855957,0.23056429624557495,-0.008764684200286865,0.26303181052207947,-0.8606885175807252,-0.9000169815583947,-0.9526088461983395,-0.5106698274612427,0.7582916021347046,-0.40522846579551697,0.4890652596950531,-0.98683100938797,0.38309168815612793
6.600023031234741,0.23459970951080322,0.06898444890975952,0.22754180431365967,-0.8595338972554981,-0.9044114867071974,-0.9333939916290894,-0.5131336450576782,0.757538378238678,-0.40352147817611694,0.5751887559890747,-0.9119194149971008,0.34448814392089844
6.619981050491333,0.26337486505508423,0.09809005260467529,0.20489871501922607,-0.8573052474144246,-0.9050123046266925,-0.910979568741774,-0.5147023797035217,0.7560816407203674,-0.40425485372543335,0.7587488293647766,-0.8593360185623169,0.3757508099079132
6.640069007873535,0.2588391900062561,0.07321339845657349,0.16657733917236328,-0.8528709610442128,-0.9009026612643881,-0.8837724434502838,-0.5156598687171936,0.7531720995903015,-0.40844443440437317,0.8984183073043823,-0.7866134643554688,0.35860195755958557
6.659976005554199,0.26548200845718384,0.03974431753158569,0.16993817687034607,-0.8463868091339322,-0.8963974722166232,-0.8576102053043054,-0.5176181197166443,0.7488908767700195,-0.41380417346954346,0.8521809577941895,-0.7223578691482544,0.20301465690135956
6.6799750328063965,0.27477186918258667,-0.06430202722549438,0.20409631729125977,-0.8388157874800287,-0.8936075839439896,-0.8362252633120169,-0.5208655595779419,0.7438521981239319,-0.41878753900527954,0.7121469974517822,-0.5936362147331238,0.08900274336338043
6.699646949768066,0.28794538974761963,-0.09120327234268188,0.2393648624420166,-0.8301135897975532,-0.8929231407392986,-0.820593351884224,-0.5256010293960571,0.7380080223083496,-0.4231875538825989,0.7066687345504761,-0.5296317934989929,-0.1158280223608017
6.720103025436401,0.3018215298652649,-0.09028637409210205,0.20230460166931152,-0.8173562994110283,-0.8930511872005226,-0.8061966473209233,-0.5329464077949524,0.7293396592140198,-0.4289892315864563,0.8597705364227295,-0.5530430674552917,-0.2758096158504486
6.739965915679932,0.29949766397476196,-0.06027942895889282,0.19550302624702454,-0.7999302575936859,-0.894701187618424,-0.7926076653538296,-0.5434856414794922,0.7173075079917908,-0.4359968602657318,0.95884108543396,-0.5953530073165894,-0.4822826087474823
6.759967088699341,0.26779234409332275,-0.0994449257850647,0.17752540111541748,-0.7815271984656188,-0.898434270414812,-0.7815788384340979,-0.5553441643714905,0.7043642997741699,-0.44211286306381226,0.71708744764328,-0.5759519934654236,-0.5111412405967712
6.779990196228027,0.24251145124435425,-0.1243320107460022,0.17934465408325195,-0.7639665312888054,-0.9079105631133481,-0.7783849300274145,-0.5691716074943542,0.6917911171913147,-0.4443746507167816,0.5978845953941345,-0.6032267808914185,-0.7004082798957825
6.799965858459473,0.22988241910934448,-0.1298103928565979,0.16175803542137146,-0.7464059186253956,-0.9197743701460144,-0.7777726363988031,-0.5839778184890747,0.6790046095848083,-0.44488492608070374,0.4749583303928375,-0.6008069515228271,-0.6313559412956238
6.819967031478882,0.21389329433441162,-0.17262762784957886,0.18145817518234253,-0.7333294226542649,-0.934820257986255,-0.7819858634035531,-0.5976976156234741,0.6693469285964966,-0.4412848651409149,0.09299550950527191,-0.6150100827217102,-0.6635903120040894
6.8399670124053955,0.16639304161071777,-0.15757769346237183,0.20771372318267822,-0.721839756239241,-0.9510917478884134,-0.7919408383311028,-0.6110188364982605,0.6607667207717896,-0.4359394311904907,0.031130891293287277,-0.3437268137931824,-0.6638712882995605
6.859966993331909,0.2217363715171814,-0.09608948230743408,0.14706474542617798,-0.7089490325741366,-0.963765237102094,-0.7990207855264653,-0.6234392523765564,0.6510363817214966,-0.43298405408859253,0.36495643854141235,-0.5475393533706665,-0.77330482006073
6.87996506690979,0.26809394359588623,-0.028035342693328857,0.13841331005096436,-0.6877904735057013,-0.9742240396738726,-0.7951965508043766,-0.6391876935958862,0.6348315477371216,-0.43408292531967163,1.0091207027435303,-0.7099208235740662,-0.75923752784729
6.89996600151062,0.17849576473236084,-0.0795014500617981,0.14503857493400574,-0.6625129245074549,-0.9816559852537272,-0.7838273007136535,-0.6555311679840088,0.615100085735321,-0.4380989074707031,1.0395337343215942,-0.7183011770248413,-0.8342142701148987
6.919987201690674,0.18016570806503296,-0.21409618854522705,0.2029586136341095,-0.6403653363872185,-0.9926281581389497,-0.777438370944493,-0.6715444326400757,0.5974884629249573,-0.4382186532020569,0.6484638452529907,-0.79160076379776,-0.7375056743621826
6.939998149871826,0.2437647581100464,-0.21237492561340332,0.1945318877696991,-0.6216221865025058,-1.0068012903701147,-0.7712503625135549,-0.6870325207710266,0.5823546648025513,-0.434567928314209,0.8459745049476624,-1.017269253730774,-0.5667036771774292
6.959968090057373,0.23319697380065918,-0.14614063501358032,0.1737944781780243,-0.6005003215500222,-1.020910246256018,-0.7561319940543327,-0.7034269571304321,0.5650553107261658,-0.4311645030975342,1.3496240377426147,-1.2310796976089478,-0.6055027842521667
6.979968070983887,0.14457398653030396,-0.23228055238723755,0.18019840121269226,-0.5739271158442487,-1.0338917511896035,-0.7344571917227285,-0.7216154932975769,0.5429341197013855,-0.42952701449394226,1.4879673719406128,-1.2597497701644897,-0.7585011124610901
6.999967098236084,0.11525386571884155,-0.33095884323120117,0.2538401186466217,-0.5447977606038162,-1.0488362444454482,-0.7143404835905438,-0.7413524389266968,0.5182451605796814,-0.4264017641544342,1.4933805465698242,-1.2776840925216675,-0.8750815391540527
7.019998073577881,0.0073163509368896484,-0.3447778522968292,0.25863295793533325,-0.5131704972771439,-1.0628309858058527,-0.6972515864275073,-0.7611921429634094,0.4909418225288391,-0.4237484335899353,1.3878881931304932,-1.0093052387237549,-1.3737715482711792
7.039968013763428,-0.3208945393562317,-0.18823093175888062,0.10137063264846802,-0.45935839181694,-1.0796237571177,-0.6863228395612352,-0.7903725504875183,0.4433731138706207,-0.4227665364742279,2.1370863914489746,-1.3342318534851074,-2.9406514167785645
7.059968948364258,-0.5594053268432617,-0.09022659063339233,-0.04642406105995178,-0.3743121585722965,-1.1079309748756823,-0.672547921028907,-0.8328217267990112,0.36563241481781006,-0.4155968427658081,2.791128158569336,-2.007399320602417,-3.857531785964966
7.079523086547852,-0.8491677641868591,-0.1198662519454956,0.041338711977005005,-0.2819424215541279,-1.145391209057705,-0.6560829099462718,-0.8749074935913086,0.27822190523147583,-0.3963955342769623,2.378368854522705,-1.9757615327835083,-3.6492700576782227
7.099995136260986,-1.6563997268676758,-0.08703882992267609,0.3275262117385864,-0.21195913052334212,-1.1778863039125687,-0.6552465654055057,-0.9031247496604919,0.2103755921125412,-0.3743097484111786,0.2453581839799881,-1.2342424392700195,-2.748067855834961
7.120012998580933,-2.0414810180664062,0.05559663474559784,0.7709469199180603,-0.17861261364570208,-1.1920839537124506,-0.693814615009162,-0.9143599271774292,0.17766442894935608,-0.36384251713752747,-2.3730928897857666,0.6070750951766968,-1.6386985778808594
7.139974117279053,-1.4505152702331543,0.32556599378585815,0.791399359703064,-0.18943521528332005,-1.1773190452102344,-0.7498232207070868,-0.9070593118667603,0.18830424547195435,-0.3765435218811035,-2.7321531772613525,1.7152204513549805,0.632739782333374
7.16000509262085,-1.1233899593353271,0.1989518105983734,0.5247207880020142,-0.23608107470784973,-1.140453440915919,-0.7684215679813754,-0.8836138248443604,0.2338942140340805,-0.4056106209754944,-0.7878471612930298,1.9891716241836548,3.06280779838562
7.180010080337524,-1.0300495624542236,-0.053785353899002075,0.0762292742729187,-0.3074462634084216,-1.109483734632272,-0.7429001068570967,-0.8534800410270691,0.3026256263256073,-0.4242517948150635,-0.05182501673698425,0.8846340775489807,3.937572479248047
7.199966907501221,-1.2986340522766113,0.06680288910865784,0.3622921109199524,-0.3677779773322607,-1.0790950637423686,-0.7084111701772964,-0.8225817084312439,0.3595428764820099,-0.44055452942848206,0.2768087387084961,0.8530056476593018,2.9138901233673096
7.219985008239746,-1.546102523803711,0.09912493824958801,0.31361404061317444,-0.41252170918616193,-1.0465274743236275,-0.6584220699680663,-0.7930697202682495,0.4009207785129547,-0.4585878551006317,1.4315600395202637,0.5097784996032715,3.461960554122925
7.2400031089782715,-1.3946940898895264,-0.13063567876815796,0.22385174036026,-0.4608985240094059,-1.0126445391822911,-0.5964445374674774,-0.7597247958183289,0.4447530508041382,-0.4743553400039673,0.6887362599372864,0.268250048160553,3.332132577896118
7.259970188140869,-1.3835618495941162,-0.14379042387008667,0.24331748485565186,-0.5087986318388849,-0.9900412650661792,-0.5545422990863954,-0.7301466464996338,0.4871284067630768,-0.47915738821029663,-0.03549153357744217,0.026364896446466446,2.86240553855896
7.279965877532959,-1.1508640050888062,-0.11154353618621826,0.14039742946624756,-0.5582773131792933,-0.9746689638643923,-0.5228698452845125,-0.7018733620643616,0.5297258496284485,-0.47619765996932983,-0.41857171058654785,-0.012198741547763348,2.7053017616271973
7.29996919631958,-0.9985697269439697,-0.09081083536148071,0.05796504020690918,-0.6070418063102876,-0.9660473568031932,-0.5056817286388052,-0.6756703853607178,0.5704402923583984,-0.46697694063186646,-1.1901060342788696,-0.04492757096886635,2.1131327152252197
7.319967031478882,-0.803875744342804,-0.051701903343200684,0.030806362628936768,-0.6563566131075722,-0.966091812799328,-0.5059026162351863,-0.6517364382743835,0.6102345585823059,-0.45039260387420654,-1.5964676141738892,0.02460658736526966,1.9979084730148315
7.339968204498291,-0.6424591541290283,0.06378132104873657,-0.0757300853729248,-0.7048894354420184,-0.9696959902144063,-0.5120910189560481,-0.6281707286834717,0.6479496359825134,-0.4307701885700226,-1.5050103664398193,0.0018726028501987457,1.6966699361801147
7.359993934631348,-0.5287947654724121,0.2586100697517395,-0.13095694780349731,-0.7451487634997763,-0.9734138056380324,-0.5183618370591686,-0.6076951026916504,0.6780811548233032,-0.4134156405925751,-1.2117587327957153,0.06199035793542862,1.3885599374771118
7.379969120025635,-0.34115147590637207,0.25029343366622925,-0.10775399208068848,-0.7784267090922727,-0.9767720616514352,-0.5255001047343192,-0.5900465846061707,0.7021600604057312,-0.39851734042167664,-1.0681544542312622,0.05977114662528038,1.0961447954177856
7.399967193603516,-0.22248762845993042,0.16423887014389038,-0.09471204876899719,-0.8077354306208887,-0.9823114963512263,-0.5374946143372378,-0.5748756527900696,0.7227239012718201,-0.3836509883403778,-1.32956862449646,0.2661716341972351,0.8774979710578918
7.419967174530029,-0.17301779985427856,0.17354780435562134,-0.00944545865058899,-0.8358588157018191,-0.9922561583437105,-0.5614708507478889,-0.5614181756973267,0.7418726682662964,-0.3666532039642334,-1.5444324016571045,0.562953770160675,0.6172320246696472
7.440016031265259,-0.05733424425125122,0.17629200220108032,0.012493938207626343,-0.8626834722550654,-1.000959552797471,-0.5911785948975036,-0.547631025314331,0.7595906257629395,-0.3508881628513336,-1.5313224792480469,0.7110207080841064,0.5362024307250977
7.459979057312012,0.12188315391540527,0.15295076370239258,-0.003838062286376953,-0.8851668162089625,-1.0100279414999076,-0.622079317477661,-0.5361897945404053,0.7740206122398376,-0.3367381691932678,-1.4175604581832886,0.7215403318405151,0.3080011308193207
7.479968070983887,0.25396907329559326,0.08752602338790894,0.0546146035194397,-0.904277285810105,-1.0218658000872376,-0.6550916842329068,-0.5274218320846558,0.7859785556793213,-0.3225894868373871,-1.33212411403656,0.7881930470466614,0.3048630356788635
7.499969005584717,0.2714073061943054,0.06786000728607178,0.04527604579925537,-0.9221230438246845,-1.0311079207813816,-0.68777039010958,-0.5182639956474304,0.7968860268592834,-0.31044334173202515,-1.224367380142212,0.879528284072876,0.14400674402713776
7.519973039627075,0.32586270570755005,0.047704875469207764,-0.0490533709526062,-0.9348819148859262,-1.0355320982706613,-0.7165458185884672,-0.5108450055122375,0.8045289516448975,-0.3029364049434662,-0.9987093806266785,1.0084091424942017,0.08811584860086441
7.539979934692383,0.4094241261482239,-0.03943687677383423,-0.016735374927520752,-0.9466901241446434,-1.0380517688164084,-0.7475178919686409,-0.5033877491950989,0.811485767364502,-0.296802282333374,-1.11697518825531,1.2432042360305786,-0.006262786686420441
7.5600199699401855,0.4396952688694,-0.19472134113311768,-0.03736266493797302,-0.9603915417959094,-1.040921076157276,-0.7822946069105365,-0.49459633231163025,0.8194160461425781,-0.28970953822135925,-1.3047130107879639,1.2575064897537231,0.14456889033317566
7.5793681144714355,0.47356295585632324,-0.19616937637329102,-0.017747491598129272,-0.9758673675077398,-1.0421890412327977,-0.8143813029688195,-0.48395416140556335,0.8281883001327515,-0.2826523184776306,-1.0091055631637573,1.2988247871398926,0.2657475769519806
7.599977016448975,0.4968499541282654,-0.17347347736358643,0.012101709842681885,-0.9891094896711922,-1.0358644129765893,-0.8385552037419483,-0.4726800322532654,0.8355370163917542,-0.28009188175201416,-0.7893292903900146,1.3091458082199097,0.20941706001758575
7.619967937469482,0.5706273317337036,-0.3411913514137268,0.056455910205841064,-1.0024240956014776,-1.025283789783808,-0.8559211368662374,-0.4601384699344635,0.8427782654762268,-0.27928003668785095,-0.8232212662696838,1.2107082605361938,0.4433717131614685
7.640014171600342,0.6355094313621521,-0.4515784978866577,0.07218006253242493,-1.0195599382880849,-1.017726677960885,-0.873291055881948,-0.4456596076488495,0.8518776297569275,-0.2751220464706421,-0.8685802221298218,1.0403594970703125,0.5594571828842163
7.65996789932251,0.6287851929664612,-0.4849165678024292,0.03370735049247742,-1.0395170944627419,-1.01327905663571,-0.8908922623968997,-0.42991745471954346,0.8621596693992615,-0.26805195212364197,-0.8801805973052979,0.9447613954544067,0.6509308815002441
7.679966926574707,0.6352433562278748,-0.5323930978775024,0.011914044618606567,-1.059694825672728,-1.003008006998156,-0.9008109201430751,-0.41238871216773987,0.8722062706947327,-0.26304322481155396,-0.5848445892333984,0.9428420662879944,0.8224519491195679
7.699969053268433,0.672416090965271,-0.5681343674659729,-0.0073059797286987305,-1.0793290903526087,-0.97572110642421,-0.890956707051629,-0.3907999098300934,0.8816413879394531,-0.26454466581344604,-0.15768302977085114,0.8735076189041138,1.0023574829101562
7.72001314163208,0.7025150060653687,-0.5713949799537659,-0.08843427896499634,-1.094571770339461,-0.9405735250786218,-0.8691621990852977,-0.37036168575286865,0.8887320160865784,-0.27016258239746094,0.05138111487030983,0.7765459418296814,0.883087694644928
7.739974021911621,0.7670083045959473,-0.7225890755653381,-0.11902692914009094,-1.1071285465766094,-0.9058136424761192,-0.8440179260187392,-0.3519386649131775,0.8944181799888611,-0.27596211433410645,0.1355808973312378,0.43737393617630005,0.8022031188011169
7.759968042373657,0.8259716033935547,-0.7967973351478577,-0.13694632053375244,-1.1156044804980196,-0.8741064174735005,-0.8160207724172932,-0.3371867835521698,0.8981767296791077,-0.28210586309432983,0.40352049469947815,0.33035212755203247,0.6010065078735352
7.780004978179932,0.8213807344436646,-0.7027544379234314,-0.13228628039360046,-1.1142115454989896,-0.8341795514550988,-0.7786033268412987,-0.32658401131629944,0.8975634574890137,-0.2961805760860443,0.910485029220581,0.3123962879180908,0.45424652099609375
7.80000114440918,0.8076045513153076,-0.6098495721817017,-0.09606826305389404,-1.1051369084662384,-0.7870586711664819,-0.7331240447569459,-0.3180263340473175,0.8935256600379944,-0.31697192788124084,1.0888221263885498,0.21284599602222443,0.2986545264720917
7.81996488571167,0.727099597454071,-0.45782870054244995,-0.03735554218292236,-1.094149855559769,-0.7535351320609515,-0.6966273307740106,-0.31392210721969604,0.8885385394096375,-0.3345927298069,0.8977152705192566,-0.09653190523386002,0.042578328400850296
7.839993000030518,0.6673488020896912,-0.36423975229263306,-0.018906354904174805,-1.0785395147451566,-0.73065789162227,-0.6668007196797678,-0.31540483236312866,0.8812685012817383,-0.35197383165359497,1.1942185163497925,-0.45309749245643616,0.0021829819306731224
7.8599700927734375,0.5891584157943726,-0.25422102212905884,0.11683887243270874,-1.0599667338749779,-0.7021220335291823,-0.6250054396461082,-0.31575143337249756,0.8723392486572266,-0.373262882232666,1.3358796834945679,-0.17034612596035004,0.27551308274269104
7.879990100860596,0.36851128935813904,-0.05061763525009155,0.06970137357711792,-1.050976892556678,-0.6799796887911793,-0.5949832233970883,-0.3123284578323364,0.8679088950157166,-0.3862450122833252,0.28577572107315063,-0.06058686971664429,0.16113680601119995
7.899968147277832,0.14459094405174255,0.011107981204986572,-0.024127990007400513,-1.0487921022562807,-0.6766026930745281,-0.5883821935351213,-0.31220871210098267,0.8668215870857239,-0.3887748718261719,0.1518552154302597,-0.2877640128135681,-0.0747964158654213
7.919969081878662,0.27703309059143066,0.12434488534927368,-0.03737577795982361,-1.039469842448763,-0.682449716656191,-0.5837568383102275,-0.3195593059062958,0.8621357083320618,-0.39319679141044617,0.9346185326576233,-0.7237760424613953,-0.3142811059951782
7.939978122711182,0.24309924244880676,0.0794382095336914,0.049147993326187134,-1.0094826216348256,-0.690123517934439,-0.5717294652341104,-0.3388786315917969,0.846556544303894,-0.410491406917572,1.663496971130371,-1.064163327217102,-1.2400606870651245
7.960000038146973,0.07141229510307312,-0.1551072597503662,0.17989864945411682,-0.9623869836617186,-0.7228400151988092,-0.5782968478286317,-0.37809863686561584,0.8205581903457642,-0.4286321699619293,1.6483724117279053,-1.678240180015564,-1.986519455909729
7.979977130889893,0.039424508810043335,-0.46817153692245483,0.20496606826782227,-0.9076209489459701,-0.7806145754559777,-0.5999255697168105,-0.43322327733039856,0.788041353225708,-0.43738797307014465,1.4459507465362549,-2.2851388454437256,-2.736722946166992
7.999980926513672,-0.20217043161392212,-0.37815070152282715,0.269834041595459,-0.8428288460888733,-0.8517832482469105,-0.6313743933230196,-0.5006493330001831,0.7465282678604126,-0.438230037689209,1.68124520778656,-2.5131194591522217,-3.384366989135742
8.019969940185547,-0.4950443506240845,-0.252224326133728,0.2199651598930359,-0.7657758419685369,-0.9158717474111268,-0.6546615921403709,-0.5716975927352905,0.6930964589118958,-0.4390661418437958,1.8169968128204346,-2.400184154510498,-3.6211111545562744
8.039993047714233,-0.8451368808746338,-0.1074744462966919,0.07980018854141235,-0.6805468907482117,-0.9839418038905895,-0.6764464824037763,-0.6471879482269287,0.6292181611061096,-0.43038618564605713,1.627197504043579,-2.829453945159912,-4.182374954223633
8.059969902038574,-1.0964199304580688,0.0039885640144348145,0.09408217668533325,-0.5944861437960689,-1.0560107188791747,-0.7000695236275715,-0.7210697531700134,0.5600831508636475,-0.4078792631626129,1.3614835739135742,-2.8276827335357666,-4.053947448730469
8.079205989837646,-1.3879528045654297,0.14204683899879456,0.00024369359016418457,-0.5187393709572369,-1.1115818878762382,-0.7125216355001064,-0.7784748077392578,0.49578574299812317,-0.3849330246448517,1.3224095106124878,-1.9976119995117188,-3.0314548015594482
8.099971055984497,-1.3953152894973755,0.34095144271850586,-0.28300756216049194,-0.4650779734552468,-1.1440332640511968,-0.7193445459949663,-0.8136232495307922,0.44849249720573425,-0.36996185779571533,0.16496753692626953,-0.8530422449111938,-2.0893054008483887
8.12000298500061,-0.8898235559463501,0.23065853118896484,-0.19905632734298706,-0.4530467250838521,-1.162484033007081,-0.7535923778559221,-0.8252032399177551,0.43770691752433777,-0.3570044934749603,-2.3910412788391113,0.4614545702934265,-0.2049180418252945
8.139967918395996,-0.36245250701904297,0.20513662695884705,0.03638407588005066,-0.483926290876294,-1.1677439523323052,-0.7998997398287675,-0.8142442107200623,0.4652582108974457,-0.34719038009643555,-2.1178228855133057,0.8852395415306091,1.2823636531829834
8.159969091415405,-0.1700240969657898,0.4263838529586792,-0.25749295949935913,-0.5203863055940053,-1.1587302758057225,-0.8083129362540795,-0.7950027585029602,0.4972153306007385,-0.34748756885528564,0.0424448624253273,0.474570631980896,1.6137937307357788
8.179994106292725,-0.2810235023498535,0.2816430926322937,-0.1738257110118866,-0.5456993328756697,-1.1330060506355275,-0.778624952300781,-0.7741522192955017,0.5190159678459167,-0.3623681366443634,1.0137871503829956,0.6117038130760193,1.7686982154846191
8.199964046478271,-0.37974196672439575,-0.16899877786636353,-0.00958716869354248,-0.5685901787259808,-1.101664928207871,-0.741255829439643,-0.7516210079193115,0.5384445786476135,-0.3809768855571747,0.6196401119232178,0.5352973341941833,1.6525990962982178
8.219971179962158,-0.2816978096961975,-0.3742324709892273,0.06893712282180786,-0.5929413586094326,-1.0805502947408,-0.7212911699164212,-0.7316230535507202,0.5588027238845825,-0.39047032594680786,-0.19832220673561096,0.5046675205230713,1.239298939704895
8.240073204040527,-0.1924695372581482,-0.39344751834869385,0.05480736494064331,-0.6150638917089243,-1.0691287395100506,-0.7186785853088052,-0.7160997986793518,0.5770106911659241,-0.3927590847015381,-0.6168956160545349,0.4806521534919739,0.842112123966217
8.260058879852295,-0.028783321380615234,-0.3381003737449646,0.04442709684371948,-0.6315030725960251,-1.0642249573530447,-0.7229317928954563,-0.7057747840881348,0.5903586149215698,-0.39161035418510437,-0.35272762179374695,0.24424999952316284,0.4478870630264282
8.280039072036743,0.07757002115249634,-0.24201661348342896,0.04495161771774292,-0.6378710076034935,-1.0583193915370006,-0.7192936121699536,-0.7001591324806213,0.5954864621162415,-0.3939201533794403,0.25037652254104614,0.14877194166183472,0.2825695872306824
8.300031185150146,0.10827064514160156,-0.19210398197174072,0.07099920511245728,-0.6380975121146929,-1.0517596500284085,-0.7110295020813391,-0.6974430084228516,0.595668375492096,-0.39843761920928955,0.19466900825500488,0.003285853425040841,0.08588776737451553
