timestamp,acceleration_x,acceleration_y,acceleration_z,attitude_pitch,attitude_roll,attitude_yaw,gravity_x,gravity_y,gravity_z,rotation_x,rotation_y,rotation_z
0.0,0.282232403755188,0.20778334140777588,-0.37688422203063965,-0.6842091355863623,-0.8349285358083337,-1.832568049664427,-0.5744076371192932,0.6320603489875793,-0.5201494693756104,-0.7316547632217407,0.17854510247707367,-0.5439514517784119
0.0201568603515625,0.29966968297958374,0.21679872274398804,-0.4063795208930969,-0.686991984462161,-0.845646360685715,-1.854113556258016,-0.5786307454109192,0.6342144012451172,-0.5127946734428406,-0.6776959300041199,0.0942789614200592,-0.36860209703445435
0.04000377655029297,0.2872195839881897,0.2351832389831543,-0.44549500942230225,-0.6910674552837864,-0.854261669961664,-1.8694242832044257,-0.5810732841491699,0.6373600959777832,-0.50608891248703,-0.4675159454345703,0.019779520109295845,-0.09096662700176239
0.06013202667236328,0.2607441544532776,0.2664288878440857,-0.4610201120376587,-0.696312227552425,-0.8587133873930435,-1.8758337610317009,-0.5807819366455078,0.6413927674293518,-0.5013059973716736,-0.24072661995887756,-0.06255219876766205,0.14904052019119263
0.08003497123718262,0.23737800121307373,0.28617769479751587,-0.46219301223754883,-0.7017291160746799,-0.8590987545516976,-1.8731639207674933,-0.5783355832099915,0.6455392241477966,-0.49880558252334595,0.03227895498275757,-0.14321187138557434,0.41147756576538086
0.10006475448608398,0.18938684463500977,0.2982190251350403,-0.4392245411872864,-0.7081370622437086,-0.8541277020501008,-1.8605337509122322,-0.5727181434631348,0.6504198312759399,-0.498946875333786,0.2759711742401123,-0.16254359483718872,0.6994491219520569
0.12003898620605469,0.11053627729415894,0.2718927264213562,-0.3780786991119385,-0.7160653600184094,-0.8428516322231149,-1.8393387924549183,-0.5631881952285767,0.6564214825630188,-0.5019262433052063,0.3846935033798218,-0.08251453936100006,0.9548171758651733
0.13910293579101562,0.040776848793029785,0.22480779886245728,-0.3318241238594055,-0.725994266641795,-0.8264098341624766,-1.813237823475856,-0.5500388741493225,0.6638793349266052,-0.5066769123077393,0.4031655788421631,0.0031600636430084705,1.0736446380615234
0.16003799438476562,-0.0063054561614990234,0.15770679712295532,-0.25422006845474243,-0.7362333363767856,-0.8065613462132323,-1.7854610174296441,-0.5349389910697937,0.6715015769004822,-0.5127630233764648,0.3778679668903351,0.11246427148580551,1.0788371562957764
0.18004989624023438,-0.039304137229919434,0.0794210433959961,-0.16073483228683472,-0.7459240935033913,-0.785002627000043,-1.7589777328833882,-0.519136905670166,0.6786507964134216,-0.5195477604866028,0.3010341227054596,0.23903995752334595,0.9615543484687805
0.2001180648803711,-0.06187397241592407,0.0050560832023620605,-0.04235184192657471,-0.754697511642103,-0.7640772496920439,-1.73724510335496,-0.5040133595466614,0.6850683689117432,-0.5259770154953003,0.18532301485538483,0.3629681169986725,0.7725694179534912
0.22006797790527344,-0.06053924560546875,-0.05467885732650757,0.04981738328933716,-0.7605533692233614,-0.743649729439867,-1.7195749377232992,-0.49044036865234375,0.6893224120140076,-0.5332006216049194,0.31401434540748596,0.4655001759529114,0.5769255757331848
0.23919105529785156,-0.02853366732597351,-0.044439733028411865,0.11545902490615845,-0.7604683873396794,-0.7202327614081885,-1.699993338239964,-0.4778596758842468,0.6892609000205994,-0.544581949710846,0.6451492309570312,0.49193304777145386,0.4780064821243286
0.26032590866088867,0.0027425289154052734,-0.044703781604766846,0.19308853149414062,-0.754384755520829,-0.6956743259216382,-1.6774325187968337,-0.4670216739177704,0.6848405003547668,-0.5593605041503906,0.8204640746116638,0.39451777935028076,0.37356796860694885
0.2801518440246582,0.0010889172554016113,-0.09495663642883301,0.27125412225723267,-0.7468389268333917,-0.6745530911184581,-1.6565445559720504,-0.4583185017108917,0.6793224215507507,-0.5731188058853149,0.6761803030967712,0.27484330534935,0.3391217589378357
0.30002784729003906,-0.023648351430892944,-0.11877954006195068,0.29726386070251465,-0.7416170299184793,-0.6588075537553353,-1.639795117606886,-0.45140349864959717,0.6754811406135559,-0.5830610394477844,0.5016255378723145,0.178376704454422,0.2933664917945862
0.3200399875640869,-0.036027610301971436,-0.07932543754577637,0.30738770961761475,-0.737843698740971,-0.6459785887955598,-1.6261062452467676,-0.4454176425933838,0.6726939678192139,-0.5908349752426147,0.40765783190727234,0.18708950281143188,0.2893427610397339
0.33913588523864746,-0.018190503120422363,-0.04583805799484253,0.29880571365356445,-0.7357498539754885,-0.6356171651898869,-1.6158752373009946,-0.44010719656944275,0.6711432337760925,-0.596550464630127,0.19830399751663208,0.14335517585277557,0.1713242530822754
0.36003780364990234,0.022748291492462158,-0.06942158937454224,0.2875596284866333,-0.7355968131743752,-0.6308677681179449,-1.6119440855553326,-0.43732950091362,0.6710297465324402,-0.5987168550491333,0.006198377814143896,0.06813444942235947,0.08008302748203278
0.3800499439239502,0.0720331072807312,-0.0881001353263855,0.25862348079681396,-0.736999676225748,-0.6296267539238777,-1.6105828217320128,-0.4360314905643463,0.672069251537323,-0.598497748374939,-0.04098229110240936,-0.043067529797554016,0.08149776607751846
0.40037107467651367,0.11789795756340027,-0.08012259006500244,0.23541748523712158,-0.7376218354186261,-0.6305949173002937,-1.609072332326884,-0.436364084482193,0.6725298166275024,-0.5977374911308289,0.08358998596668243,-0.14839120209217072,0.04725673422217369
0.420090913772583,0.1294713318347931,-0.0448337197303772,0.19398713111877441,-0.735239084228842,-0.6317068310791073,-1.6050982883013756,-0.4379734694957733,0.6707645058631897,-0.5985434055328369,0.2861557900905609,-0.23097741603851318,0.028050273656845093
0.4416179656982422,0.1089102029800415,-0.013589143753051758,0.18183112144470215,-0.7296644356908228,-0.6329818317009417,-1.6004967856205397,-0.44094139337539673,0.6666195392608643,-0.6009900569915771,0.3151090741157532,-0.20018240809440613,-0.0723956897854805
0.46392202377319336,0.1283668577671051,-0.028544247150421143,0.1750316619873047,-0.7248660637421115,-0.6359794152916014,-1.598972628406806,-0.4446357488632202,0.6630352139472961,-0.6022319793701172,0.13157789409160614,-0.21549397706985474,-0.11093065142631531
0.48002004623413086,0.1695275604724884,-0.029910385608673096,0.12588095664978027,-0.7227997241740935,-0.6416879130377465,-1.5996356137847507,-0.44888541102409363,0.6614869236946106,-0.6007802486419678,0.02361888438463211,-0.32744351029396057,-0.04568146541714668
0.49997997283935547,0.16481801867485046,0.03930795192718506,0.053040266036987305,-0.7216954999836926,-0.6493913031622655,-1.6002147605554484,-0.4539414942264557,0.6606584191322327,-0.5978859066963196,0.0644640401005745,-0.3776303231716156,-0.0581202395260334
0.5197110176086426,0.12074095010757446,0.11157858371734619,0.012948393821716309,-0.7194146059524797,-0.6556393791862677,-1.5994939486193434,-0.4585857391357422,0.6589444279670715,-0.5962308645248413,0.13075046241283417,-0.29219549894332886,-0.04126027226448059
0.5400309562683105,0.1085595190525055,0.13992083072662354,-0.02174597978591919,-0.7171966405928414,-0.6594342784202061,-1.5980722938783973,-0.46173936128616333,0.6572744846343994,-0.5956398844718933,0.0931047797203064,-0.17911848425865173,-0.004694171715527773
0.560032844543457,0.115948885679245,0.14322429895401,-0.046126723289489746,-0.7171460799700086,-0.661432270706059,-1.5970637397109777,-0.46294891834259033,0.6572363972663879,-0.5947423577308655,-0.047288428992033005,-0.09916649013757706,0.05468355491757393
0.5800328254699707,0.11518475413322449,0.16092777252197266,-0.07625812292098999,-0.719594242038648,-0.6635882650564272,-1.5977723317177581,-0.4632377326488495,0.6590795516967773,-0.5924736261367798,-0.15954375267028809,-0.07633192092180252,0.05820338800549507
0.6000609397888184,0.09147524833679199,0.18660014867782593,-0.12189221382141113,-0.7231408978259558,-0.6658566075827784,-1.5992977416367558,-0.4631335437297821,0.6617427468299866,-0.5895793437957764,-0.1861964762210846,-0.04518136754631996,0.06927410513162613
0.620114803314209,0.048692941665649414,0.20768320560455322,-0.12422245740890503,-0.7271839215399495,-0.6672281329945778,-1.601487842939698,-0.46228235960006714,0.6647685170173645,-0.586837112903595,-0.23590508103370667,0.05639638751745224,0.03323911502957344
0.6400327682495117,0.03322017192840576,0.19220691919326782,-0.10729777812957764,-0.7326149865779976,-0.6674069270116322,-1.6052835166710104,-0.4601457715034485,0.6688159704208374,-0.5839101076126099,-0.37254074215888977,0.15638397634029388,0.07057415693998337
0.6600809097290039,0.06123051047325134,0.16068339347839355,-0.11256557703018188,-0.7411643740503697,-0.6675576763840373,-1.6101380467062194,-0.45667725801467896,0.675147294998169,-0.5793289542198181,-0.5122159123420715,0.12710829079151154,0.18206770718097687
0.6800379753112793,0.05893588066101074,0.16822218894958496,-0.15621531009674072,-0.7523071044376467,-0.6692803888832691,-1.614467988033529,-0.45297878980636597,0.6833250522613525,-0.5726054906845093,-0.5415680408477783,-0.009690576232969761,0.216955304145813
0.7000288963317871,-0.0373191237449646,0.23328006267547607,-0.19836950302124023,-0.7614240411918207,-0.6731396993722831,-1.618892893582829,-0.4512825012207031,0.6899529695510864,-0.565958559513092,-0.36211857199668884,-0.04941100254654884,0.08795961737632751
0.7200298309326172,-0.1229100227355957,0.29312777519226074,-0.1987072229385376,-0.766406967773725,-0.6769530190260338,-1.624104796785946,-0.4512781798839569,0.6935513019561768,-0.5615467429161072,-0.2864629328250885,0.052972450852394104,-0.046938687562942505
0.7400319576263428,-0.10344475507736206,0.24980729818344116,-0.15676748752593994,-0.7714826636152801,-0.6774330446705574,-1.628498203123252,-0.44933536648750305,0.6971988677978516,-0.5585798621177673,-0.33090391755104065,0.20316657423973083,0.17866924405097961
0.7600550651550293,-0.02777990698814392,0.14087337255477905,-0.10452938079833984,-0.7825057817809278,-0.6717091998998401,-1.6271822235151487,-0.4413209855556488,0.7050585746765137,-0.5550928711891174,-0.4737543761730194,0.24654439091682434,0.5670841336250305
0.7800319194793701,-0.030161261558532715,-0.013635575771331787,-0.057721495628356934,-0.7982269593125259,-0.6625693592451625,-1.6207918261136294,-0.42935711145401,0.716119647026062,-0.5502954721450806,-0.4754970669746399,0.20356230437755585,0.7177800536155701
0.8000319004058838,-0.08695352077484131,-0.12135016918182373,0.001655876636505127,-0.8132790639347356,-0.6529662182714256,-1.6120493043760775,-0.41745617985725403,0.726544201374054,-0.5457689762115479,-0.3004828095436096,0.10981495678424835,0.647736132144928
0.8200409412384033,-0.17195120453834534,-0.1814953088760376,0.022667348384857178,-0.8216812437831713,-0.6437629371710063,-1.601858948115869,-0.4087372124195099,0.7322917580604553,-0.5446857810020447,0.04266227409243584,0.08422411233186722,0.37320736050605774
0.8400299549102783,-0.23430472612380981,-0.214097797870636,0.09717470407485962,-0.8222109549130817,-0.6365468680638496,-1.5954848629547758,-0.4045654535293579,0.7326524257659912,-0.5473089814186096,0.1024639680981636,0.1687784045934677,0.019460048526525497
0.8600330352783203,-0.20528098940849304,-0.24680030345916748,0.15474653244018555,-0.8213413861753469,-0.6341894346808736,-1.5972547387267582,-0.4036514461040497,0.7320603132247925,-0.548774242401123,-0.1382933408021927,0.17857643961906433,-0.14008620381355286
0.880033016204834,-0.1486297845840454,-0.26429909467697144,0.16161125898361206,-0.8239387184903758,-0.6366347145135357,-1.6049279376952243,-0.4038603603839874,0.7338272333145142,-0.5462547540664673,-0.36846551299095154,0.13368095457553864,-0.10127610713243484
0.9000968933105469,-0.08345475792884827,-0.24393796920776367,0.15099424123764038,-0.8305573820432934,-0.6424746359719355,-1.615464146812996,-0.40412449836730957,0.7383074164390564,-0.5399865508079529,-0.578608512878418,0.05639434605836868,-0.11245183646678925
0.9200339317321777,-0.010454952716827393,-0.2462441325187683,0.14839684963226318,-0.838559173495922,-0.6534082009371662,-1.6301192203855308,-0.40639984607696533,0.7436806559562683,-0.5308278799057007,-0.625136137008667,-0.06718289852142334,-0.17596827447414398
0.9400310516357422,0.05529484152793884,-0.2744818925857544,0.12444579601287842,-0.8450783923712238,-0.6668172279116188,-1.6447453582025813,-0.41047361493110657,0.7480231523513794,-0.5215100646018982,-0.47101515531539917,-0.19524535536766052,-0.20770049095153809
0.9600319862365723,0.08497512340545654,-0.2718806266784668,0.0969698429107666,-0.8474616740074448,-0.6811408373451746,-1.6569130193916883,-0.4167774021625519,0.749602735042572,-0.5141908526420593,-0.20453323423862457,-0.321939617395401,-0.27506914734840393
0.9800868034362793,0.08150306344032288,-0.24249303340911865,0.04862487316131592,-0.8439657919234455,-0.6933942735153468,-1.6639989571522402,-0.4247189462184906,0.7472842931747437,-0.5110577940940857,0.16995519399642944,-0.3502427339553833,-0.2947654724121094
1.0001130104064941,0.07232686877250671,-0.21349316835403442,0.05108082294464111,-0.8372279688079199,-0.7015224550013408,-1.6663741426786618,-0.4320985674858093,0.7427900433540344,-0.5114232301712036,0.17586907744407654,-0.29234588146209717,-0.2722337245941162
1.020035982131958,0.053529977798461914,-0.18991947174072266,0.027273118495941162,-0.832456252864987,-0.7111042389955798,-1.6712945609050467,-0.43928736448287964,0.7395868301391602,-0.5099391937255859,-0.029799211770296097,-0.3286944031715393,-0.2939041554927826
1.0401198863983154,0.025169342756271362,-0.10719609260559082,-0.04120314121246338,-0.8298221207678448,-0.7240399277181,-1.6794886327973417,-0.4471358358860016,0.7378113269805908,-0.5056719183921814,-0.12601734697818756,-0.3537912368774414,-0.2774766981601715
1.0638699531555176,0.028222709894180298,-0.04189121723175049,-0.065471351146698,-0.8288771586902735,-0.737225498309189,-1.6876782443569076,-0.45423275232315063,0.7371731400489807,-0.5002482533454895,-0.15614289045333862,-0.3530028462409973,-0.19528451561927795
1.080030918121338,0.03890281915664673,-0.0008075833320617676,-0.09214174747467041,-0.8290476476350622,-0.7492342536309013,-1.6942526052490174,-0.46012166142463684,0.7372882962226868,-0.49466556310653687,-0.13508589565753937,-0.372678279876709,-0.13669976592063904
1.0999770164489746,0.03455576300621033,0.039224445819854736,-0.14059507846832275,-0.8286966781710527,-0.7599743582189938,-1.6981064701095474,-0.46558600664138794,0.7370511889457703,-0.4898828864097595,-0.014629779383540154,-0.4233846962451935,-0.06247563287615776
1.1199829578399658,0.03986498713493347,0.05313187837600708,-0.15740889310836792,-0.8283255974936105,-0.7688731555729119,-1.6982285564226374,-0.4701170325279236,0.7368003129959106,-0.48591694235801697,0.02189389057457447,-0.46598637104034424,0.03055039420723915
1.140030860900879,0.05013146996498108,0.0409846305847168,-0.1672690510749817,-0.829185477284922,-0.7770369086353787,-1.6958266881106003,-0.4736238420009613,0.7373813986778259,-0.4816109836101532,0.03667331859469414,-0.522753894329071,0.1432696282863617
1.1601109504699707,0.05000150203704834,0.048581600189208984,-0.178911030292511,-0.8308615242505976,-0.784214091806603,-1.6907605508461665,-0.47619470953941345,0.7385125160217285,-0.4773237407207489,0.0908656194806099,-0.5696055889129639,0.2057761549949646
1.1798548698425293,0.04409411549568176,0.061257123947143555,-0.18234890699386597,-0.8321138040852513,-0.7902402732790843,-1.6833155127094759,-0.4784049987792969,0.739356279373169,-0.47379428148269653,0.18182769417762756,-0.5828929543495178,0.23507827520370483
1.2000529766082764,0.025007814168930054,0.05695211887359619,-0.1663818061351776,-0.8328648059768763,-0.7946345538253725,-1.67392539127619,-0.4800858497619629,0.7398617267608643,-0.4712982475757599,0.19246375560760498,-0.5589304566383362,0.2509991228580475
1.220031976699829,0.004373818635940552,0.07260638475418091,-0.14703699946403503,-0.833524769239593,-0.7991346012906254,-1.664793625471032,-0.4818517565727234,0.7403055429458618,-0.46879246830940247,0.20626099407672882,-0.5721179842948914,0.2324608415365219
1.2400569915771484,-0.035295456647872925,0.1361578106880188,-0.16089627146720886,-0.8331864474806349,-0.8043044853419783,-1.6556383444752407,-0.4844493269920349,0.7400780916213989,-0.46646884083747864,0.26895400881767273,-0.6380249261856079,0.13412581384181976
1.2600398063659668,-0.08229398727416992,0.23592108488082886,-0.14634394645690918,-0.8292904316130721,-0.8120889461006893,-1.6483162148057915,-0.4901546835899353,0.7374523282051086,-0.4646637737751007,0.3430500626564026,-0.6594356894493103,-0.0574614554643631
1.2800328731536865,-0.09135246276855469,0.1737351417541504,-0.0660753846168518,-0.823489453513096,-0.821877664089672,-1.6446466589010333,-0.49780458211898804,0.7335219383239746,-0.46274852752685547,0.2004336714744568,-0.5923840999603271,-0.20810890197753906
1.3000268936157227,-0.050355494022369385,0.06161433458328247,-0.0037682652473449707,-0.8182942664959973,-0.8350649925040582,-1.6473782383019369,-0.5066817998886108,0.7299810647964478,-0.45869511365890503,0.03161955624818802,-0.5316798686981201,-0.2806215286254883
1.3200430870056152,0.015144050121307373,0.011357724666595459,0.06397956609725952,-0.8137424613497317,-0.8485566010889278,-1.6524435304990424,-0.5153118968009949,0.7268624901771545,-0.4540095329284668,0.021975530311465263,-0.47322776913642883,-0.30254891514778137
1.340022087097168,0.03634381294250488,-0.008269429206848145,0.09132969379425049,-0.8063126996175833,-0.8625651736186677,-1.6583450789767553,-0.5257083773612976,0.7217398881912231,-0.4502469599246979,0.1998414695262909,-0.5067799687385559,-0.5472736358642578
1.3600540161132812,0.06923031806945801,-0.022662460803985596,0.10920959711074829,-0.7922244600647043,-0.8764931549210428,-1.6636883332056585,-0.5396892428398132,0.7119171619415283,-0.4493432641029358,0.3753341734409332,-0.5197678804397583,-0.7800197005271912
1.380086898803711,0.137395441532135,-0.039643943309783936,0.16314831376075745,-0.7733035751876176,-0.8938106857399815,-1.6728238955922137,-0.5577902793884277,0.6985031366348267,-0.44828930497169495,0.27940964698791504,-0.5759598612785339,-1.0970574617385864
1.4001269340515137,0.20047074556350708,-0.10688900947570801,0.20855826139450073,-0.7525931995819504,-0.9163401942159439,-1.6889707366814934,-0.5791022777557373,0.6835339069366455,-0.4443218410015106,0.07208836078643799,-0.5462252497673035,-1.2070057392120361
1.420032024383545,0.2682933211326599,-0.18854469060897827,0.2030649483203888,-0.7348326062628734,-0.9398668369974338,-1.7075992135806706,-0.5991037487983704,0.670462965965271,-0.4376688301563263,-0.08766142278909683,-0.5741786956787109,-1.025060772895813
1.440032958984375,0.29105526208877563,-0.21953749656677246,0.15931972861289978,-0.7203891436108366,-0.9635323010991688,-1.7253009385740634,-0.6171813011169434,0.6596772074699402,-0.4288509786128998,-0.12523315846920013,-0.6147347688674927,-0.9313519597053528
1.4600610733032227,0.274369478225708,-0.18811917304992676,0.12246757745742798,-0.7060027758880403,-0.9873431407439361,-1.7418707616747855,-0.6350719332695007,0.6487972140312195,-0.41922059655189514,-0.09010162204504013,-0.6937204599380493,-1.0118929147720337
1.480078935623169,0.22092723846435547,-0.09567582607269287,0.08712506294250488,-0.6869987322968236,-1.0127989869560026,-1.7586388564603987,-0.655879020690918,0.6342195868492126,-0.40937554836273193,0.09005191177129745,-0.7460957169532776,-1.2621567249298096
1.5000309944152832,0.22305744886398315,-0.09817540645599365,0.08077675104141235,-0.6637487288380025,-1.0342236959824196,-1.7704195901189226,-0.6769911646842957,0.6160740256309509,-0.402660995721817,0.2870029807090759,-0.6535419821739197,-1.1661208868026733
1.5200328826904297,0.24669378995895386,-0.09885722398757935,0.11530888080596924,-0.6417113942003327,-1.0490586137420363,-1.7760451625302518,-0.6944934129714966,0.5985672473907471,-0.399244487285614,0.41174232959747314,-0.43524807691574097,-0.9791858792304993
1.5400829315185547,0.19910919666290283,-0.061641037464141846,0.14502862095832825,-0.6204684418109933,-1.0556584197524388,-1.7775521500071474,-0.7080202102661133,0.5814163684844971,-0.400827020406723,0.5685341954231262,-0.18250113725662231,-0.9760545492172241
1.5601310729980469,0.16939252614974976,-0.02801567316055298,0.09699198603630066,-0.595396742122745,-1.0583136884913928,-1.7760528898387158,-0.7215622067451477,0.5608372688293457,-0.40596726536750793,0.7752209305763245,-0.20638960599899292,-1.1526432037353516
1.580033779144287,0.19675272703170776,-0.014423370361328125,0.07618391513824463,-0.5660524968448961,-1.0617747191628082,-1.7727128169966602,-0.7370206117630005,0.5363044738769531,-0.41131269931793213,0.8921741247177124,-0.33008280396461487,-1.268775463104248
1.600031852722168,0.21002912521362305,-0.0404934287071228,0.019702404737472534,-0.5351034494860754,-1.068236553269172,-1.7688459495917794,-0.7538522481918335,0.5099300146102905,-0.41434046626091003,0.8371845483779907,-0.5154198408126831,-1.287445068359375
1.620041847229004,0.16853046417236328,0.02220812439918518,0.017779916524887085,-0.505658531818226,-1.0775692631081608,-1.7672313178760424,-0.7705811262130737,0.4843836724758148,-0.41421857476234436,0.7013607621192932,-0.4246068000793457,-1.2124751806259155
1.640070915222168,0.04739069938659668,0.047756463289260864,0.048757851123809814,-0.4784536237101626,-1.0828625937352274,-1.767742661269189,-0.7841154932975769,0.46040698885917664,-0.416159063577652,0.5473471879959106,-0.08076262474060059,-1.2616257667541504
1.6600558757781982,-0.04800128936767578,0.047496914863586426,0.03643923997879028,-0.4495652049579029,-1.083332741425552,-1.7710435855550688,-0.7957334518432617,0.4345739781856537,-0.42184576392173767,0.6277210712432861,0.15118218958377838,-1.4289923906326294
1.6800329685211182,-0.04792386293411255,0.07032537460327148,-0.021735429763793945,-0.4165295122787924,-1.079761170284488,-1.7710356381156227,-0.8064462542533875,0.40458914637565613,-0.43122175335884094,0.8620541095733643,0.2033979892730713,-1.4677499532699585
1.7000350952148438,-0.008855223655700684,0.07287710905075073,0.02487802505493164,-0.3829639925801976,-1.077480307084547,-1.7737781503347698,-0.816965639591217,0.37367138266563416,-0.4392457902431488,0.46438151597976685,0.12710197269916534,-1.6045587062835693
1.720031976699829,0.047743141651153564,-0.008517682552337646,0.06464362144470215,-0.3536420099655147,-1.0795758979316619,-1.786268147734773,-0.8271925449371338,0.34631672501564026,-0.44251230359077454,-0.12400210648775101,0.1266797035932541,-1.5585867166519165
1.7400341033935547,0.14119189977645874,-0.0209658145904541,0.12454718351364136,-0.3303795633837589,-1.0836755295600728,-1.8081737536166929,-0.835893988609314,0.3244020938873291,-0.44276925921440125,-0.558916449546814,0.19635455310344696,-1.4193675518035889
1.7600619792938232,0.2932656407356262,-0.024399161338806152,0.14341795444488525,-0.31355424591714337,-1.0867335402261384,-1.831308901615641,-0.841956377029419,0.30844151973724365,-0.4426886737346649,-0.49551066756248474,0.22419221699237823,-1.1212464570999146
1.7800979614257812,0.33708858489990234,-0.03205105662345886,0.06431737542152405,-0.2964606337938433,-1.0874273106016417,-1.8427019346350129,-0.8468083143234253,0.292137086391449,-0.44449013471603394,0.420143187046051,0.025233406573534012,-0.9016098380088806
1.8000330924987793,0.2773916721343994,0.01851898431777954,0.029075920581817627,-0.27330776689557384,-1.0868862867823084,-1.83573408086747,-0.8523275256156921,0.26991790533065796,-0.4479755163192749,1.1375092267990112,-0.1776384860277176,-0.9385928511619568
1.8200340270996094,0.16219395399093628,-0.022050783038139343,0.06355786323547363,-0.2427820928741159,-1.0900216684468034,-1.8242087179884623,-0.860634446144104,0.24040405452251434,-0.4489033818244934,1.1859232187271118,-0.3974106013774872,-1.1763585805892944
1.8400418758392334,0.17663896083831787,-0.14518415927886963,0.07115423679351807,-0.21162536840284493,-1.0971876890390089,-1.8151141129443848,-0.8700745701789856,0.21004928648471832,-0.44592541456222534,0.9793412685394287,-0.5234674215316772,-1.1677329540252686
1.8600587844848633,0.1536765694618225,-0.1548415571451187,0.12326443195343018,-0.183860331117586,-1.1079873610256206,-1.8116171682857314,-0.8797202706336975,0.1828261911869049,-0.43893831968307495,0.6458480358123779,-0.5840296745300293,-1.1870421171188354
1.8800640106201172,-0.029639482498168945,-0.14205613732337952,0.09813672304153442,-0.15619450866470683,-1.117936245801453,-1.809699204756474,-0.8882529139518738,0.1555601805448532,-0.4322126805782318,0.7719296216964722,-0.4722406566143036,-1.261346459388733
1.9000840187072754,-0.09394383430480957,-0.08127854019403458,0.07593080401420593,-0.12415400307712807,-1.1268376844506276,-1.8070891670194147,-0.8961073160171509,0.12383529543876648,-0.42621156573295593,0.8144015669822693,-0.4708693027496338,-1.463149070739746
1.9200329780578613,-0.0015288591384887695,-0.03451972454786301,0.10052582621574402,-0.09105725669739664,-1.1356286198173668,-1.8066588508749049,-0.9030426144599915,0.0909314751625061,-0.4198160171508789,0.5972350239753723,-0.35818952322006226,-1.4810810089111328
1.940032958984375,0.2148645520210266,-0.11077868193387985,0.1963985562324524,-0.06142460159696559,-1.1423656635103725,-1.809659222586307,-0.9079034328460693,0.06138598173856735,-0.41466036438941956,0.4185941815376282,-0.34431517124176025,-1.339242935180664
1.9595918655395508,0.31489795446395874,-0.05452783778309822,0.07794457674026489,-0.03384339264127435,-1.1529440274946237,-1.8083140841783258,-0.913439154624939,0.033836930990219116,-0.4055660665035248,0.953783392906189,-0.7377113699913025,-1.1019952297210693
1.9800868034362793,0.123088538646698,0.12117595225572586,0.026115059852600098,-0.004678577941127048,-1.1670021065286291,-1.7919493293287656,-0.9195667505264282,0.004678560886532068,-0.39290592074394226,1.623443365097046,-0.5680336356163025,-0.9973738789558411
2.000123977661133,-0.1603403091430664,0.09118395298719406,0.14427107572555542,0.02838257852582986,-1.1745999413781267,-1.7728921137795592,-0.9221640229225159,-0.028378767892718315,-0.3857567608356476,1.3301093578338623,-0.1750146448612213,-1.355633020401001
2.020033836364746,-0.15478593111038208,0.006811380386352539,0.20356649160385132,0.060910912415742494,-1.176178650682634,-1.7632373366576892,-0.9214317202568054,-0.060873255133628845,-0.3837423324584961,0.8193456530570984,-0.05033370107412338,-1.2172422409057617
2.0401079654693604,-0.09663093090057373,0.023118019104003906,0.1362433135509491,0.08699416394200768,-1.1807791376057364,-1.7598158146266152,-0.9214048981666565,-0.08688447624444962,-0.3787665367126465,0.5899078845977783,-0.27739986777305603,-1.0797476768493652
2.060116767883301,-0.2600330114364624,0.1240878626704216,0.2051214873790741,0.11016563882233177,-1.1846132531433713,-1.7576871617443663,-0.9207378029823303,-0.10994293540716171,-0.3743720054626465,0.5276671648025513,-0.034663837403059006,-1.029102087020874
2.080080986022949,-0.27406221628189087,0.1657579094171524,0.2970927953720093,0.13043714656995936,-1.1829932468161481,-1.7550251833227895,-0.9178780317306519,-0.1300675868988037,-0.37494316697120667,0.5277037620544434,0.07094017416238785,-0.7316433191299438
2.1000349521636963,-0.29385894536972046,0.20971432328224182,0.26226261258125305,0.14437364999940927,-1.1835815209248906,-1.7461092787241566,-0.9163308143615723,-0.14387261867523193,-0.37368229031562805,0.7826691269874573,0.0004262399743311107,-0.18788903951644897
2.120041847229004,-0.6019981503486633,0.21466882526874542,0.2675790786743164,0.15101793620898837,-1.1839545553663795,-1.7305086963302934,-0.9155646562576294,-0.15044456720352173,-0.3729715943336487,0.8276373147964478,0.23869456350803375,0.09929616004228592
2.1400399208068848,-0.7592729330062866,0.09156718850135803,0.3806138038635254,0.15202759494537274,-1.177100650105907,-1.7160919757155584,-0.912846028804779,-0.15144264698028564,-0.3791794776916504,0.5271700024604797,0.7034956812858582,0.3652893006801605
2.1600890159606934,-0.603304386138916,-0.10888826847076416,0.4629492163658142,0.14596295634081818,-1.1621350217013968,-1.7023063822838416,-0.9078955054283142,-0.14544521272182465,-0.393155574798584,0.6011358499526978,0.972644031047821,0.6539608240127563
2.1800379753112793,-0.502498209476471,-0.20877327024936676,0.46631523966789246,0.14065857443299967,-1.1411148782844054,-1.6821566896882938,-0.9001201391220093,-0.14019522070884705,-0.41246700286865234,0.9294233322143555,1.370455265045166,0.6788628101348877
2.2000648975372314,-0.5326900482177734,-0.2895538806915283,0.3796568810939789,0.1363749981860537,-1.1153676388491243,-1.660023342153739,-0.889734148979187,-0.1359526664018631,-0.43576347827911377,0.8317937850952148,1.5111405849456787,0.7222501635551453
2.2200849056243896,-0.6618101596832275,-0.41128987073898315,0.3715290427207947,0.1227092734140177,-1.0839038059339812,-1.6408031078892749,-0.8771455883979797,-0.12240155786275864,-0.4643636643886566,0.1600850522518158,2.0244381427764893,1.3593676090240479
2.240032911300659,-1.0100247859954834,-0.4570069909095764,0.3953309655189514,0.09567491368894133,-1.0396359059304117,-1.6310096461786328,-0.8582766056060791,-0.09552901983261108,-0.5042176246643066,-0.5786193609237671,2.420006513595581,1.4758654832839966
2.2600350379943848,-1.0014227628707886,-0.48208150267601013,0.24609601497650146,0.05615600913969322,-0.9974603893303621,-1.6268132081921751,-0.8387718796730042,-0.05612649768590927,-0.5415825247764587,-1.131854772567749,1.710135579109192,2.265012264251709
2.2802820205688477,-0.7259954214096069,-0.35548698902130127,-0.010863661766052246,-0.0016356882689656412,-0.9759512828109687,-1.624930819478125,-0.8282343149185181,0.0016356875421479344,-0.560379683971405,-1.63469660282135,0.5996832847595215,2.707505702972412
2.2994349002838135,-0.8965907096862793,-0.12320813536643982,-0.15437322854995728,-0.06800847428783212,-0.9726642782481247,-1.6139279485936229,-0.8244785070419312,0.06795606017112732,-0.561798095703125,-1.2271815538406372,-0.1874350905418396,3.3368711471557617
2.32017183303833,-1.0569982528686523,-0.15340346097946167,-0.12160229682922363,-0.13712439108774355,-0.9733953477357545,-1.5903429823565687,-0.8190392851829529,0.13669507205486298,-0.5572154521942139,-0.621155858039856,-0.017656711861491203,3.6590027809143066
2.340139865875244,-1.2152624130249023,-0.11659188568592072,-0.16912996768951416,-0.20070021366297938,-0.9649496357249351,-1.552010017395718,-0.8055199384689331,0.19935554265975952,-0.5580276250839233,0.050107527524232864,0.16142062842845917,3.7480242252349854
2.360097885131836,-1.1094987392425537,-0.11045414209365845,-0.2664424180984497,-0.2609899888192425,-0.9547446473130554,-1.5095959476981045,-0.788526713848114,0.25803714990615845,-0.5582494139671326,-0.2999120056629181,-0.15531256794929504,3.4826300144195557
2.38004994392395,-1.020045280456543,-0.15993717312812805,-0.23086810111999512,-0.32165949155745377,-0.9546428412155795,-1.483437675310112,-0.774250864982605,0.31614136695861816,-0.5482609272003174,-1.159820795059204,-0.6147714853286743,2.9197826385498047
2.399630069732666,-0.8299793601036072,-0.10477352142333984,-0.251090407371521,-0.3820513145260272,-0.9687609413635756,-1.4747380227695126,-0.7647624015808105,0.37282466888427734,-0.5254904627799988,-1.5532981157302856,-1.003116488456726,2.612867593765259
2.420046806335449,-0.6376136541366577,0.05483102798461914,-0.24250751733779907,-0.43944727036812076,-0.9845923306968857,-1.4669105525298303,-0.7538962960243225,0.42543932795524597,-0.5006412863731384,-0.8876615166664124,-0.8584310412406921,2.5441317558288574
2.439974784851074,-0.5675244331359863,0.2786353826522827,-0.31961753964424133,-0.4852228251744559,-0.9915815534454226,-1.4453408924298385,-0.7402910590171814,0.4664054811000824,-0.48418495059013367,-0.21839144825935364,-0.8334877490997314,2.321380853652954
2.459980010986328,-0.39873480796813965,0.2657477855682373,-0.24560421705245972,-0.5257665333626311,-1.000980320414407,-1.4285086550462531,-0.7282793521881104,0.501876175403595,-0.46661514043807983,-0.8292702436447144,-0.9227334260940552,1.8631609678268433
2.4801249504089355,-0.29511886835098267,0.15652990341186523,-0.199604332447052,-0.5663852912266542,-1.02126431940319,-1.4305206975891498,-0.7196058034896851,0.5365853309631348,-0.44073083996772766,-1.3650389909744263,-0.9624488949775696,1.5471832752227783
2.4999728202819824,-0.13088750839233398,0.2852121591567993,-0.16966092586517334,-0.6059268824019813,-1.0453179246239817,-1.4402444184948582,-0.7110771536827087,0.5695241689682007,-0.41232460737228394,-1.2968518733978271,-0.9268054366111755,1.4062726497650146
2.520033836364746,0.021945714950561523,0.3347596526145935,-0.14880353212356567,-0.6405782855116231,-1.0677073577392164,-1.4472130123521505,-0.702411413192749,0.597659170627594,-0.3865511417388916,-0.9040747284889221,-0.9243577718734741,1.3757976293563843
2.540091037750244,0.17745089530944824,0.34102874994277954,-0.10564187169075012,-0.6720340130896784,-1.0876939153212846,-1.4494741115102254,-0.6929994821548462,0.6225789785385132,-0.36352017521858215,-0.7869372367858887,-0.9547267556190491,1.285129427909851
2.5600059032440186,0.28479164838790894,0.20028901100158691,-0.06380844116210938,-0.701085873418398,-1.1089489827635877,-1.452940169727638,-0.6840835809707642,0.6450478434562683,-0.3405037522315979,-0.835655152797699,-0.98610520362854,1.211714744567871
2.5801520347595215,0.4398254156112671,0.0740397572517395,-0.04251319169998169,-0.7302203995021226,-1.133829997282643,-1.4601000793755945,-0.6750243306159973,0.667033851146698,-0.3152902126312256,-0.9143917560577393,-1.010716199874878,1.1975443363189697
2.600200891494751,0.5381039381027222,-0.018575727939605713,0.019337773323059082,-0.7592050524238809,-1.1588701430987873,-1.4689756971979897,-0.6647060513496399,0.6883450150489807,-0.29042547941207886,-0.8680327534675598,-0.9362931251525879,1.170410394668579
2.620142936706543,0.6103871464729309,-0.0979151725769043,0.02165776491165161,-0.7864565034663754,-1.1827638264857847,-1.4768702827420719,-0.6538441777229309,0.7078547477722168,-0.267263263463974,-0.7313493490219116,-0.8774554133415222,1.18632173538208
2.6401329040527344,0.6832606792449951,-0.22592449188232422,0.025844961404800415,-0.8135986396029999,-1.206904324307047,-1.4849385183789272,-0.6419093608856201,0.7267637252807617,-0.24447298049926758,-0.7699580788612366,-0.9923860430717468,1.1089186668395996
2.6601569652557373,0.7069662809371948,-0.2976212501525879,0.0041959285736083984,-0.8390625571837714,-1.2331918594583038,-1.4932668897628494,-0.6304433941841125,0.7440170645713806,-0.22131329774856567,-0.6221550107002258,-1.0277118682861328,1.0903351306915283
2.6800858974456787,0.7180858254432678,-0.34954679012298584,-0.0399453341960907,-0.8619883326646955,-1.2584678871839972,-1.498063426336941,-0.6194376349449158,0.7591383457183838,-0.20001442730426788,-0.43008720874786377,-1.1241081953048706,1.021040916442871
2.7001309394836426,0.7645635008811951,-0.39235377311706543,-0.07348930835723877,-0.8826902850134106,-1.2813881908079963,-1.498353962213152,-0.6086643934249878,0.7724502086639404,-0.1812409907579422,-0.1892792135477066,-1.112969160079956,0.955305278301239
2.7284178733825684,0.8200225830078125,-0.4752728343009949,-0.18532155454158783,-0.9182623136967641,-1.2917220855026368,-1.473067725850578,-0.5837096571922302,0.7945476770401001,-0.16726332902908325,0.39123275876045227,-0.560728132724762,1.034476399421692
2.7400219440460205,0.8200225830078125,-0.4752728343009949,-0.18532155454158783,-0.9182623136967641,-1.2917220855026368,-1.473067725850578,-0.5837096571922302,0.7945476770401001,-0.16726332902908325,0.39123275876045227,-0.560728132724762,1.034476399421692
2.7600250244140625,0.9081252813339233,-0.5061889886856079,-0.19529545307159424,-0.9335469355037855,-1.2805296407555031,-1.445690765837379,-0.5700973272323608,0.8037353754043579,-0.17028991878032684,0.8277845978736877,-0.5634765625,0.8068459033966064
2.787405014038086,0.8747060894966125,-0.46889835596084595,-0.010762512683868408,-0.9371749149369271,-1.223547989397454,-1.3438420381491087,-0.5567281246185303,0.8058886528015137,-0.20148731768131256,1.8248517513275146,-0.525115966796875,0.378313809633255
2.80849289894104,0.8490768671035767,-0.5687551498413086,0.13675281405448914,-0.9275786943768047,-1.1832083011454324,-1.2819253018863683,-0.5552842020988464,0.8001700639724731,-0.2266882210969925,1.8717241287231445,-0.4739125072956085,0.0027144222985953093
2.828176975250244,0.8131369948387146,-0.45679783821105957,0.1335105299949646,-0.9128839799687551,-1.1616054530471756,-1.239218029038504,-0.5609855055809021,0.7912704944610596,-0.24328233301639557,1.0272854566574097,-0.8266924619674683,-0.42254266142845154
2.8484079837799072,0.6967822909355164,-0.3183414340019226,0.06699764728546143,-0.8920547314137593,-1.1665607727860152,-1.2200235921099365,-0.5772143602371216,0.7783634066581726,-0.2469293475151062,1.2012715339660645,-1.154133915901184,-0.9764208197593689
2.8680200576782227,0.6106076836585999,0.013313889503479004,-0.020748913288116455,-0.8549977388006897,-1.1622007221816262,-1.1793375582894252,-0.6022000312805176,0.754569411277771,-0.2607300579547882,2.705401659011841,-1.4388972520828247,-1.3534166812896729
2.887058973312378,0.5258777141571045,0.012212038040161133,0.2549489140510559,-0.8049408519940291,-1.1380982047076282,-1.11333195789846,-0.6292712092399597,0.7207896709442139,-0.2906545400619507,3.228475332260132,-1.101193904876709,-1.4922845363616943
2.908052921295166,0.31717318296432495,-0.29717791080474854,0.2626286447048187,-0.7462106799381253,-1.1246306697858428,-1.0555394678899677,-0.662388026714325,0.6788612604141235,-0.3168432116508484,2.91973876953125,-1.7182990312576294,-2.0327248573303223
2.9278650283813477,0.11800169944763184,-0.28736162185668945,0.23063385486602783,-0.6850723635556525,-1.1452594263086913,-1.0217089741233907,-0.7053124904632568,0.6327290534973145,-0.31966888904571533,1.932524561882019,-2.5369937419891357,-2.45436429977417
2.9470858573913574,-0.33496975898742676,-0.3077824115753174,0.2653052806854248,-0.623775480738993,-1.1917022877679826,-1.0128760409657744,-0.7540500164031982,0.5841038227081299,-0.30038532614707947,1.3381075859069824,-2.541808605194092,-2.9423680305480957
2.968000888824463,-0.8140860199928284,-0.12526601552963257,0.0884154736995697,-0.5510492399944545,-1.233831973973093,-0.9968008862771567,-0.8040629029273987,0.5235814452171326,-0.2816833555698395,2.758654832839966,-2.605766773223877,-3.297931432723999
2.9877657890319824,-1.040552020072937,0.18911117315292358,-0.14531448483467102,-0.4688032252811393,-1.2575558968997669,-0.9418908549634405,-0.8486995697021484,0.45181894302368164,-0.27489733695983887,4.151012897491455,-2.4497792720794678,-3.0700812339782715
3.0079197883605957,-1.2385872602462769,0.07473382353782654,-0.3002898693084717,-0.3853721046814511,-1.2765238437506135,-0.8777389390705498,-0.8868246674537659,0.3759039640426636,-0.2687714695930481,3.588287353515625,-1.9201687574386597,-2.9846391677856445
3.0275979042053223,-0.9356350302696228,-0.058559924364089966,-0.26951664686203003,-0.320262794798244,-1.2917894128531158,-0.8436498629388393,-0.9124484658241272,0.3148159980773926,-0.26139771938323975,1.243045449256897,-0.822552502155304,-2.3273181915283203
3.0493578910827637,-0.5290622115135193,0.019955456256866455,-0.11999011039733887,-0.286928637449256,-1.3012673124977225,-0.8532205387790313,-0.9244900345802307,0.28300777077674866,-0.2553914189338684,-1.1315206289291382,0.07881177216768265,-1.0937113761901855
3.0681028366088867,-0.21108657121658325,0.2581833004951477,-0.062329500913619995,-0.2857435959008114,-1.304977691744023,-0.887198388590358,-0.925754189491272,0.28187096118927,-0.2520473897457123,-1.4739267826080322,0.45702359080314636,0.09631101042032242
3.087538957595825,-0.1826719045639038,0.35907867550849915,-0.1500430703163147,-0.3001150861810461,-1.2968065213025364,-0.8986626295473978,-0.9196687340736389,0.29563015699386597,-0.2584805488586426,0.01573086902499199,0.6714886426925659,0.8227439522743225
3.1070659160614014,-0.29331499338150024,0.18202874064445496,-0.027744263410568237,-0.3126807324010725,-1.2779960729118895,-0.8831207168663755,-0.9110153913497925,0.30761048197746277,-0.27463921904563904,0.9470877051353455,0.7174264192581177,0.8159172534942627
3.1275649070739746,-0.24039649963378906,-0.10047134757041931,0.043421775102615356,-0.3233623485152169,-1.2563908092464484,-0.8567962144881562,-0.9016932845115662,0.31775644421577454,-0.29322341084480286,0.9740069508552551,0.6066834330558777,0.88194739818573
3.1475658416748047,-0.1805894374847412,-0.20410609245300293,0.09763067960739136,-0.33399970047101846,-1.2397137623267416,-0.8371422121574603,-0.8934308886528015,0.32782432436943054,-0.30710336565971375,0.4270426332950592,0.42041152715682983,0.6989089846611023
3.167360782623291,-0.07865452766418457,-0.16511541604995728,0.11200544238090515,-0.3463939022659327,-1.230054176435182,-0.8295211875139549,-0.8865249752998352,0.3395081162452698,-0.3143370449542999,-0.14187735319137573,0.2806469798088074,0.7874693870544434
3.1871018409729004,0.026543021202087402,-0.1465403139591217,0.028964459896087646,-0.36293663763359507,-1.2272361343259264,-0.8302985500539474,-0.8802264928817749,0.35502108931541443,-0.31489893794059753,-0.41350850462913513,-0.059029720723629,0.8103476166725159
3.206908941268921,0.0029578804969787598,-0.1560024619102478,-0.018292546272277832,-0.3815964537868488,-1.2309217925374407,-0.8288936779499225,-0.8749823570251465,0.3724025785923004,-0.30939003825187683,-0.11908869445323944,-0.3265557885169983,0.9585844278335571
3.2270569801330566,-0.04881161451339722,-0.14011332392692566,0.014761805534362793,-0.3992967523132994,-1.2363020912396951,-0.8207230912485082,-0.8702710270881653,0.38877052068710327,-0.30246633291244507,0.2508606016635895,-0.44184181094169617,1.0152884721755981
3.246147871017456,-0.09643566608428955,-0.15105223655700684,0.04301035404205322,-0.4170835827580391,-1.238135573317258,-0.8060706944292477,-0.864150881767273,0.40509578585624695,-0.2985645532608032,0.4539366662502289,-0.39529410004615784,1.0173386335372925
3.266925811767578,-0.18595343828201294,-0.1274040937423706,-0.05244329571723938,-0.43115037972063114,-1.241647640388019,-0.7883086142582162,-0.8597162365913391,0.4179161787033081,-0.29365667700767517,0.5166966319084167,-0.6649661064147949,0.8579891324043274
3.2876667976379395,-0.1698874831199646,-0.1382649838924408,0.017681986093521118,-0.4433581606211405,-1.2529389788159102,-0.7813332136985883,-0.8580665588378906,0.428975373506546,-0.2823151648044586,-0.1708432286977768,-0.6772325038909912,0.5230298042297363
3.30763578414917,-0.18665015697479248,-0.3224618434906006,0.08281007409095764,-0.45818344370966146,-1.265227648921407,-0.7874562002639885,-0.8553115725517273,0.4423196315765381,-0.2698066532611847,-0.8515792489051819,-0.3131678104400635,0.6929879188537598
3.3267440795898438,-0.1974206566810608,-0.3283553719520569,0.09056773781776428,-0.47754053116822975,-1.2770867346244348,-0.805791391945759,-0.8500953316688538,0.4595962464809418,-0.25711748003959656,-1.2112469673156738,-0.02551250346004963,0.700227677822113
3.347609043121338,-0.22536200284957886,-0.20108667016029358,0.04188781976699829,-0.49792826343621177,-1.2864184889389907,-0.8303072488111465,-0.8432872891426086,0.4776063859462738,-0.24649299681186676,-1.4051238298416138,0.19115029275417328,0.5618668794631958
3.368222951889038,-0.20583295822143555,-0.13542553782463074,0.028263822197914124,-0.5138165895179274,-1.2935723808085968,-0.8565346828885108,-0.8376239538192749,0.49150457978248596,-0.23834684491157532,-1.2561490535736084,0.3465743362903595,0.39405515789985657
3.3867149353027344,-0.1582738757133484,-0.1638466715812683,0.04224628210067749,-0.527565085433431,-1.2976639699824957,-0.8809297516472234,-0.8320062756538391,0.503430962562561,-0.2330726981163025,-1.1915727853775024,0.46877115964889526,0.34925946593284607
3.4065427780151367,-0.13278794288635254,-0.19154810905456543,0.0767560601234436,-0.5404604436318109,-1.3001455361090826,-0.9066741789750963,-0.8262574076652527,0.5145308375358582,-0.22925247251987457,-1.2905049324035645,0.5870667695999146,0.28736934065818787
3.4253978729248047,-0.1075555682182312,-0.18600302934646606,0.047229647636413574,-0.5536205942280987,-1.3018224801924523,-0.9338882918486944,-0.8200414776802063,0.5257704257965088,-0.22604747116565704,-1.3300553560256958,0.6622459888458252,0.3824039101600647
3.4465348720550537,-0.12812209129333496,-0.14194363355636597,0.013232022523880005,-0.5673035135357243,-1.3020738941130812,-0.9609802762828934,-0.8130859136581421,0.537359893321991,-0.22391019761562347,-1.2514708042144775,0.7222980856895447,0.29307135939598083
3.466485023498535,-0.10447388887405396,-0.10590225458145142,-0.032458752393722534,-0.5779056859195878,-1.3029512073577125,-0.9875815180882038,-0.8077424168586731,0.5462709069252014,-0.22167648375034332,-1.186177372932434,0.6507556438446045,0.17093485593795776
3.485379934310913,-0.026369571685791016,-0.11456090211868286,-0.014079451560974121,-0.5875630843243653,-1.3040977927842128,-1.0137771506383755,-0.8028693199157715,0.5543344616889954,-0.21934953331947327,-1.228033423423767,0.6645194888114929,0.1921747475862503
3.505192756652832,0.008389949798583984,-0.1384555697441101,-0.0004977434873580933,-0.5979383798210319,-1.3069444247439466,-1.0429694237241578,-0.7978948950767517,0.5629397630691528,-0.21555154025554657,-1.3646831512451172,0.7114764451980591,0.1939420849084854
3.525101900100708,0.04792219400405884,-0.1135716438293457,-0.026906251907348633,-0.6091920626020737,-1.3106725650637034,-1.0740328687205314,-0.7925205826759338,0.5722050666809082,-0.21093256771564484,-1.3598781824111938,0.6716952323913574,0.21448196470737457
3.546416759490967,0.10608530044555664,-0.07489413022994995,-0.0759015679359436,-0.6199164127988547,-1.31437083996567,-1.1029460248838687,-0.7873139381408691,0.580967128276825,-0.20643189549446106,-1.21864914894104,0.6474759578704834,0.22699688374996185
3.5650949478149414,0.1361561417579651,-0.021234869956970215,-0.09058061242103577,-0.6294233624949004,-1.3161772829355753,-1.1282436760888999,-0.7823048830032349,0.5886787176132202,-0.2036089152097702,-1.0004899501800537,0.6479567289352417,0.17024005949497223
3.585024833679199,0.16028040647506714,-0.020233988761901855,-0.0844879001379013,-0.6374769559182026,-1.3154515678181793,-1.150271431753176,-0.7775441408157349,0.5951698422431946,-0.20297245681285858,-0.9358494877815247,0.731582760810852,0.17686043679714203
3.604965925216675,0.16822826862335205,-0.02084881067276001,-0.12384161353111267,-0.6450420353445325,-1.3138561024062432,-1.171170650915613,-0.7728424072265625,0.6012320518493652,-0.20306271314620972,-0.9169910550117493,0.6529028415679932,0.12945900857448578
3.6259899139404297,0.19018012285232544,0.020934343338012695,-0.1500682234764099,-0.6517559126975643,-1.3143574249109344,-1.192499020920412,-0.7690222859382629,0.606583297252655,-0.20164689421653748,-0.9107156991958618,0.6255655884742737,0.12077642977237701
3.6460418701171875,0.21019840240478516,0.025730133056640625,-0.13019321858882904,-0.658986716619934,-1.3139227299217184,-1.2139637934779983,-0.7646721601486206,0.6123160719871521,-0.20086152851581573,-0.9503958225250244,0.7360317707061768,0.15675881505012512
3.664726972579956,0.213881254196167,0.041314899921417236,-0.13784921169281006,-0.6672279967246717,-1.3136873329974292,-1.238096530038904,-0.759718656539917,0.6188108325004578,-0.19975154101848602,-1.0900737047195435,0.7859382629394531,0.1442599594593048
3.6855578422546387,0.20295119285583496,0.08170253038406372,-0.1720276176929474,-0.67582654585414,-1.3150573763229356,-1.2650093921993661,-0.7548158764839172,0.625542402267456,-0.19735723733901978,-1.1619586944580078,0.7396992444992065,0.15952493250370026
3.70591402053833,0.2114967703819275,0.15518850088119507,-0.2217680662870407,-0.6841274761341479,-1.3192934914033372,-1.2929483617395965,-0.7505897283554077,0.6319970488548279,-0.19285905361175537,-1.1124533414840698,0.5808392763137817,0.12385999411344528
3.7255358695983887,0.232732355594635,0.19821864366531372,-0.25774243474006653,-0.6928411882632408,-1.3241292990811575,-1.3167958977592906,-0.7461447715759277,0.6387258768081665,-0.18787525594234467,-0.8942241072654724,0.47256484627723694,0.2918075621128082
3.7448978424072266,0.22569721937179565,0.19044214487075806,-0.253051221370697,-0.7047723923699434,-1.3269114412070864,-1.3351039970463687,-0.7392165064811707,0.6478604674339294,-0.18394529819488525,-0.7649303674697876,0.44844192266464233,0.5202205777168274
3.7638349533081055,0.16635125875473022,0.17877405881881714,-0.24526315927505493,-0.719339105613612,-1.326827414269525,-1.3487565548446085,-0.7299651503562927,0.6588876843452454,-0.18170833587646484,-0.6037858128547668,0.4528685510158539,0.6156996488571167
3.7858939170837402,0.14124727249145508,0.17078906297683716,-0.22801148891448975,-0.7335522167357342,-1.3237979131224502,-1.3579813626589632,-0.7202572226524353,0.6695124506950378,-0.18161074817180634,-0.43496614694595337,0.46999692916870117,0.5796246528625488
3.807147979736328,0.17062342166900635,0.10202938318252563,-0.17893679440021515,-0.7459104982466278,-1.31838123009622,-1.3642077798880203,-0.7111965417861938,0.6786408424377441,-0.18342901766300201,-0.33790323138237,0.4764851927757263,0.5079060196876526
3.8259668350219727,0.2133622169494629,0.01278775930404663,-0.14570677280426025,-0.756905460988643,-1.3143990603121656,-1.3708659857866092,-0.7031998038291931,0.6866751313209534,-0.18435616791248322,-0.4450649321079254,0.35114821791648865,0.4222871959209442
3.8468470573425293,0.22032380104064941,0.021479129791259766,-0.12079073488712311,-0.7662114788434509,-1.3168585275358182,-1.3821654910110255,-0.6974356174468994,0.6934104561805725,-0.18101294338703156,-0.565334141254425,0.20115748047828674,0.30007272958755493
3.863265037536621,0.2152760624885559,0.02919590473175049,-0.1110500693321228,-0.7749150334646525,-1.3233802771293135,-1.395346242855764,-0.6927235722541809,0.6996553540229797,-0.1749759465456009,-0.5697477459907532,0.06882109493017197,0.32211434841156006
3.8852248191833496,0.13276875019073486,0.09154850244522095,-0.13784974813461304,-0.7844993206632491,-1.3313374958510806,-1.4071253228826783,-0.6875478029251099,0.7064709067344666,-0.16786012053489685,-0.44143640995025635,-0.015143577009439468,0.41831037402153015
3.905247926712036,-0.028932273387908936,0.19551730155944824,-0.11806005239486694,-0.7948652459255267,-1.3336835557516258,-1.4124841296644282,-0.6807845234870911,0.713769257068634,-0.16451750695705414,-0.1277121752500534,0.215229794383049,0.4948495626449585
3.926701068878174,-0.16210174560546875,0.20904803276062012,-0.04822017252445221,-0.8044821710671693,-1.3213461581606012,-1.40676278268891,-0.6720200181007385,0.7204716205596924,-0.17120134830474854,0.2437286376953125,0.5976890325546265,0.5261830687522888
3.9440178871154785,-0.19449877738952637,0.09853142499923706,0.032365262508392334,-0.8122768237253127,-1.2985360994708288,-1.3954381049264755,-0.6625111103057861,0.7258551716804504,-0.1849684715270996,0.24790234863758087,0.8529372215270996,0.4023558795452118
3.965378761291504,-0.1828007698059082,-0.022660493850708008,0.11375987529754639,-0.818094218707073,-1.2768727516646234,-1.391103831172086,-0.6542963981628418,0.729844331741333,-0.19804948568344116,-0.15428829193115234,0.9675293564796448,0.24030055105686188
3.9851250648498535,-0.11258631944656372,-0.0962975025177002,0.1579236090183258,-0.8246769448370318,-1.2641696671283016,-1.4002150006375944,-0.6471335291862488,0.7343285083770752,-0.20489025115966797,-0.6361183524131775,0.9486339092254639,0.20541329681873322
4.005218982696533,-0.0776205062866211,-0.07933181524276733,0.16816188395023346,-0.8329216745732165,-1.2597841975885415,-1.4189518644908237,-0.6404427886009216,0.7398999929428101,-0.20586639642715454,-0.7518929839134216,0.8670384883880615,0.1726856529712677
4.024794101715088,-0.09145313501358032,-0.013992846012115479,0.14728744328022003,-0.8393623882377571,-1.2546489503214977,-1.4343463898052378,-0.6348345875740051,0.7442173957824707,-0.2076665461063385,-0.38886237144470215,0.7821409106254578,0.13093098998069763
4.0451507568359375,-0.036845624446868896,-0.022333979606628418,0.16242104768753052,-0.8433381029016886,-1.2426456133577404,-1.4389311116414727,-0.6294904351234436,0.7468670010566711,-0.214316263794899,-0.0745457261800766,0.7695432901382446,0.15023890137672424
4.064570903778076,0.0369189977645874,-0.12757742404937744,0.17718827724456787,-0.8464236789529905,-1.2270964816368608,-1.4383132384356678,-0.6239093542098999,0.7489153146743774,-0.22330038249492645,-0.005694287363439798,0.7330410480499268,0.1560557335615158
4.083559989929199,0.10495913028717041,-0.185998797416687,0.15752620995044708,-0.8495770184290654,-1.2125115823820956,-1.4369907996078173,-0.6183715462684631,0.7510011792182922,-0.23154665529727936,-0.017143869772553444,0.617956280708313,0.15840765833854675
4.1036810874938965,0.14421355724334717,-0.18596071004867554,0.12917418777942657,-0.8524124871581614,-1.2013996176785076,-1.4365890421862653,-0.6137721538543701,0.7528704404830933,-0.23763372004032135,-0.053548671305179596,0.4693155288696289,0.10306853801012039
4.123307943344116,0.16505807638168335,-0.18304193019866943,0.13305982947349548,-0.8540072458270278,-1.1927156430488828,-1.4370781901821266,-0.6105689406394958,0.7539190649986267,-0.24251122772693634,-0.02533050626516342,0.4535650312900543,0.05820591002702713
4.14453387260437,0.18548011779785156,-0.198344886302948,0.13783051073551178,-0.8552828962152635,-1.1831886110100078,-1.4365554140717944,-0.6073397994041443,0.754756510257721,-0.24795323610305786,0.01025298796594143,0.46632808446884155,0.03227178379893303
4.16461706161499,0.1654166579246521,-0.15435969829559326,0.13720574975013733,-0.8537580794945242,-1.1724163125078544,-1.4350825900262199,-0.6056936383247375,0.7537553906440735,-0.2549273371696472,0.11817190796136856,0.49031373858451843,-0.11197914928197861
4.184644937515259,0.19867336750030518,-0.086578369140625,0.10217303037643433,-0.8498864359669783,-1.162261009529865,-1.4332145123817785,-0.6057473421096802,0.7512054443359375,-0.2622225284576416,0.144757479429245,0.3866300582885742,-0.19667713344097137
4.204208850860596,0.2392212152481079,-0.059443533420562744,0.09012562036514282,-0.8454059823999424,-1.1536230870378137,-1.4310358715607252,-0.6065307259559631,0.7482405304908752,-0.2688060998916626,0.1750958412885666,0.33192187547683716,-0.13944363594055176
4.2241010665893555,0.27333539724349976,-0.037408292293548584,0.13317078351974487,-0.8425103083082425,-1.1438334675722295,-1.4264438330031166,-0.6058396697044373,0.7463163137435913,-0.27562686800956726,0.23212580382823944,0.281156986951828,-0.008773144334554672
4.244407892227173,0.25895512104034424,0.0335698127746582,0.14828988909721375,-0.8402293568309309,-1.1346018353773952,-1.4174881023774102,-0.6048107743263245,0.7447962164878845,-0.2819264233112335,0.4792712330818176,-0.06259471923112869,0.02064015530049801
4.264090061187744,0.23272234201431274,0.12278133630752563,0.0920148491859436,-0.833609612952281,-1.1249667659110827,-1.3951040585568093,-0.6065016388893127,0.7403625845909119,-0.2898603677749634,1.2153276205062866,-0.618315577507019,0.07687738537788391
4.284063816070557,0.18330985307693481,0.2983534336090088,0.10942217707633972,-0.8227939401183735,-1.1118058485871527,-1.354016516765666,-0.6097776293754578,0.7330490350723267,-0.3013472855091095,1.6805922985076904,-1.0841141939163208,0.08001678436994553
4.30071496963501,0.030843377113342285,0.4031326174736023,0.1459697186946869,-0.8059677790884854,-1.1046927628251593,-1.3107121934260393,-0.6185508370399475,0.7215011119842529,-0.3111766576766968,1.7049591541290283,-1.2620337009429932,-0.204942524433136
4.323816776275635,-0.02773261070251465,0.301086962223053,0.1972387135028839,-0.7896585140056361,-1.0997346785012663,-1.2745053098414263,-0.6274034380912781,0.7101128697395325,-0.3195379376411438,1.2155262231826782,-0.7804093956947327,-0.11067724227905273
4.344173908233643,-0.04554265737533569,0.14818274974822998,0.1813991665840149,-0.778018132477022,-1.095077122901344,-1.2529548246239282,-0.633213996887207,0.7018691301345825,-0.3262203633785248,0.7199370265007019,-0.3090289831161499,-0.25838181376457214
4.364439010620117,0.021274089813232422,0.11719119548797607,0.05755653977394104,-0.7666436850037599,-1.0914124293252012,-1.242023679922239,-0.6390566229820251,0.6937217712402344,-0.3321995139122009,0.5376321077346802,-0.16359421610832214,-0.40491440892219543
4.38375997543335,0.1034245491027832,0.10910850763320923,-0.004070162773132324,-0.752684900299864,-1.0909964415892082,-1.2368586628654017,-0.6474461555480957,0.6836007833480835,-0.33690282702445984,0.39021170139312744,-0.14539887011051178,-0.6593689322471619
4.403724908828735,0.1116144061088562,0.05766451358795166,0.0045258402824401855,-0.7366116859978047,-1.0962645860443148,-1.2414513200941988,-0.6589013338088989,0.6717818975448608,-0.33846452832221985,0.06472913175821304,-0.06874333322048187,-0.9481633901596069
4.4236159324646,0.1301242709159851,-0.03141593933105469,-0.0653870701789856,-0.7174544688080178,-1.1068247281777073,-1.255539959473759,-0.6738253831863403,0.6574687957763672,-0.3371856212615967,-0.12461484223604202,-0.06139646843075752,-1.225032091140747
4.443944931030273,0.21536892652511597,-0.0706523060798645,-0.09830063581466675,-0.6949596173074485,-1.121149863235044,-1.275771094948413,-0.6917330622673035,0.6403543949127197,-0.3338435888290405,-0.2491459995508194,-0.06733913719654083,-1.4851069450378418
4.46352481842041,0.26742976903915405,-0.135867178440094,-0.07318881154060364,-0.6692458337192558,-1.137826107076742,-1.3009775101731704,-0.7119181752204895,0.6203947067260742,-0.32906344532966614,-0.441718727350235,0.018205149099230766,-1.6561557054519653
4.483526945114136,0.3168555498123169,-0.21628326177597046,-0.030347049236297607,-0.6435914821751214,-1.1532134088582366,-1.3296694288182753,-0.7312079668045044,0.6000723242759705,-0.3244198262691498,-0.5348071455955505,0.17328953742980957,-1.581553339958191
4.503398895263672,0.43100976943969727,-0.24213141202926636,-0.05653613805770874,-0.6206114202673116,-1.164924314437981,-1.3552394247551531,-0.747431218624115,0.5815326571464539,-0.32119524478912354,-0.3779018521308899,0.110936239361763,-1.3585138320922852
4.5232319831848145,0.5428268909454346,-0.18093740940093994,-0.09179764986038208,-0.5989188063883716,-1.175684134519059,-1.372962901246071,-0.762309193611145,0.5637497901916504,-0.3179161250591278,-0.1330244243144989,-0.17216266691684723,-1.2559361457824707
4.543612003326416,0.5121524930000305,-0.17372804880142212,-0.06038463115692139,-0.575339719456814,-1.1877491824395454,-1.3845401149058014,-0.7782047390937805,0.5441198348999023,-0.3135778307914734,0.11692462861537933,-0.348671019077301,-1.310731291770935
4.5630879402160645,0.44233477115631104,-0.2724490761756897,0.004002898931503296,-0.5500427457865754,-1.1992209799590525,-1.3922640057566908,-0.7943243980407715,0.5227236747741699,-0.3095296323299408,0.13294577598571777,-0.3982671797275543,-1.2491203546524048
4.582166910171509,0.4023875594139099,-0.2761341333389282,0.07423949241638184,-0.5267859359130047,-1.2131220615858225,-1.4013804801715233,-0.8097208738327026,0.5027576088905334,-0.302633136510849,0.008664358407258987,-0.5402480363845825,-1.2489978075027466
4.602938890457153,0.28734487295150757,-0.17167633771896362,0.06454166769981384,-0.501641246879634,-1.228208907958204,-1.4095289629593366,-0.8258429169654846,0.4808652102947235,-0.2945374846458435,0.26080408692359924,-0.5488971471786499,-1.3538626432418823
4.622841835021973,0.27629297971725464,-0.10696351528167725,0.0333859920501709,-0.4728533358161202,-1.2389707677577078,-1.4084444882620066,-0.8417072296142578,0.4554283916950226,-0.2900235950946808,0.7832870483398438,-0.595034122467041,-1.307507872581482
4.642025947570801,0.3649030327796936,-0.12195044755935669,0.047103703022003174,-0.444351876286351,-1.2462791206571031,-1.3973551678097582,-0.8557630181312561,0.4298727810382843,-0.28788742423057556,1.0543614625930786,-0.5950556993484497,-1.081944465637207
4.662688970565796,0.36972153186798096,-0.1855241358280182,0.06287205219268799,-0.4189060169859939,-1.2497847640788884,-1.381344377175143,-0.8668680787086487,0.4067613184452057,-0.28824442625045776,1.1092274188995361,-0.41574743390083313,-0.8771727085113525
4.681830883026123,0.3422759771347046,-0.17566648125648499,0.08412051200866699,-0.39653277785626695,-1.2485102070005418,-1.3639905976163094,-0.8749145269393921,0.3862224817276001,-0.29215890169143677,1.1121898889541626,-0.16696017980575562,-0.7307421565055847
4.702965974807739,0.35181480646133423,-0.16662216186523438,0.05987986922264099,-0.3771608180181878,-1.2436152074888114,-1.3452681522800667,-0.8803945779800415,0.3682823181152344,-0.29878681898117065,1.190008282661438,-0.07330115884542465,-0.5586400032043457
4.722563982009888,0.28745436668395996,-0.13996854424476624,-0.01889362931251526,-0.3597609063324663,-1.2384372184065118,-1.3236813608668907,-0.884759783744812,0.35205045342445374,-0.3053862452507019,1.242496371269226,-0.2029205709695816,-0.4798382520675659
4.741841793060303,0.03902328014373779,-0.046847373247146606,-0.02282312512397766,-0.34166395865094834,-1.2364401129979576,-1.3035706884413905,-0.8900210857391357,0.33505532145500183,-0.30919286608695984,1.0931556224822998,-0.25136232376098633,-0.629834771156311
4.762654781341553,-0.2175203561782837,-0.07156124711036682,0.062263667583465576,-0.3236255128520438,-1.2349476978526086,-1.292042442127143,-0.8951199650764465,0.3180059492588043,-0.31246209144592285,0.43333789706230164,0.061405882239341736,-0.7149293422698975
4.78245997428894,-0.31239163875579834,-0.09945163130760193,0.17976447939872742,-0.3092043319112329,-1.2309303613495286,-1.2961877854190493,-0.8980879187583923,0.30430078506469727,-0.3175514042377472,-0.243906632065773,0.4347768723964691,-0.71794593334198
4.802408933639526,-0.2560521364212036,-0.034941405057907104,0.22671660780906677,-0.299835547145747,-1.2232852112918704,-1.307400009455507,-0.8982751369476318,0.29536309838294983,-0.32536470890045166,-0.2983509600162506,0.6195029020309448,-0.5593043565750122
4.82248592376709,-0.2378208041191101,0.02900215983390808,0.16652873158454895,-0.2896520922007108,-1.213029171890674,-1.311061150220743,-0.8976621031761169,0.2856188416481018,-0.3355961740016937,0.38620007038116455,0.47259804606437683,-0.5521131157875061
4.842483997344971,-0.2698953151702881,0.01006251573562622,0.1220482587814331,-0.27384979407751114,-1.2040952063893562,-1.3017227803729612,-0.8987295627593994,0.2704397737979889,-0.34517762064933777,0.9535257816314697,0.12246337532997131,-0.6183123588562012
4.861286878585815,-0.22122395038604736,-0.055776625871658325,0.12032425403594971,-0.25519268956024743,-1.2014349792285608,-1.2875752905672333,-0.9023569226264954,0.25243186950683594,-0.3493281900882721,0.9059596061706543,-0.16003142297267914,-0.6146163940429688
4.881993770599365,-0.24323058128356934,-0.08915954828262329,0.18570619821548462,-0.23890175690468607,-1.2020139179773113,-1.2764145214078426,-0.9062750339508057,0.2366357147693634,-0.3502418100833893,0.6882794499397278,-0.18794481456279755,-0.5363109707832336
4.9021079540252686,-0.2922601103782654,-0.07163502275943756,0.19865262508392334,-0.22306212866750785,-1.202671549311806,-1.2668237365833424,-0.9098883271217346,0.22121691703796387,-0.3509506583213806,0.8200984597206116,-0.06329797208309174,-0.5797473788261414
4.923573970794678,-0.3364124298095703,0.0030325502157211304,0.16610980033874512,-0.20307219846530739,-1.2003397878315243,-1.2518109308646364,-0.9130076766014099,0.20167934894561768,-0.35460165143013,1.4061553478240967,-0.0074987951666116714,-0.7412605881690979
4.9441869258880615,-0.42048364877700806,0.08227492868900299,0.18511974811553955,-0.17793991790567104,-1.1955132368915558,-1.2252118181858243,-0.9157131910324097,0.17700240015983582,-0.3607484698295593,1.8207932710647583,-0.09952858835458755,-0.7055752277374268
4.962117910385132,-0.5878026485443115,0.10080079734325409,0.3233776092529297,-0.15119363938604577,-1.1931794358631338,-1.199410182777496,-0.9189416766166687,0.15061825513839722,-0.36450010538101196,1.42655348777771,-0.01608402654528618,-0.7879201173782349
4.981907844543457,-0.5539520978927612,0.003264874219894409,0.40955546498298645,-0.13002045298198148,-1.190379208384962,-1.183642154258576,-0.920672595500946,0.1296544224023819,-0.3681737184524536,0.8208772540092468,0.13445061445236206,-0.5650845766067505
5.0021069049835205,-0.46686750650405884,0.022127695381641388,0.4649757146835327,-0.1161336464223588,-1.1856670606619257,-1.175783418001168,-0.9205073714256287,0.11587277054786682,-0.3731483817100525,0.5734450221061707,0.19207556545734406,-0.4330098330974579
5.022061824798584,-0.345147967338562,0.044330112636089325,0.383949875831604,-0.1043270484484896,-1.1809624266500258,-1.1619153067840342,-0.9199430346488953,0.10413789749145508,-0.37796851992607117,1.2614994049072266,0.0943005383014679,-0.11017780750989914
5.042113780975342,-0.2493477463722229,0.06741539388895035,0.255496621131897,-0.09152577766196353,-1.1781691762168602,-1.131373741758174,-0.9200398921966553,0.09139804542064667,-0.38101547956466675,2.014301061630249,-0.09170421957969666,0.031332895159721375
5.063106060028076,-0.28254878520965576,-0.02473381906747818,0.19494879245758057,-0.07762239418621338,-1.1777304253808225,-1.0893333232350757,-0.920957624912262,0.07754446566104889,-0.38186898827552795,2.1562068462371826,-0.2200610339641571,0.3023088574409485
5.081674098968506,-0.41460543870925903,-0.2393593043088913,0.2468339204788208,-0.07287407892940151,-1.1787673034956878,-1.0541300104513942,-0.9216828942298889,0.07280959188938141,-0.3810501992702484,1.2092796564102173,-0.08156317472457886,0.6194778084754944
5.10158896446228,-0.6590233445167542,-0.41217041015625,0.31586363911628723,-0.08249093809948602,-1.1734328464421513,-1.0350956279445314,-0.9189490079879761,0.08239741623401642,-0.3856726586818695,0.24918335676193237,0.4952682852745056,0.9959490895271301
5.121577978134155,-0.7811036109924316,-0.41639071702957153,0.2731533646583557,-0.10228366255763799,-1.1588110075312195,-1.0256186422441083,-0.9115385413169861,0.10210540890693665,-0.3983364999294281,0.008319757878780365,0.8191118240356445,1.2261821031570435
5.141542911529541,-0.8412655591964722,-0.39601022005081177,0.18117377161979675,-0.1265570964073497,-1.1390380844554846,-1.012161510447777,-0.9009676575660706,0.12621952593326569,-0.41512155532836914,0.2624515891075134,0.9002890586853027,1.6039690971374512
5.161664009094238,-0.8256332278251648,-0.4243839383125305,0.05578577518463135,-0.15604982896953443,-1.116787664306343,-0.9907115961268335,-0.8877761363983154,0.15541726350784302,-0.4332424998283386,0.3798641264438629,0.859392523765564,2.0232279300689697
5.181369781494141,-0.9141574501991272,-0.32046031951904297,-0.11178892850875854,-0.19195246410033467,-1.103173560483992,-0.9661535383355189,-0.876247763633728,0.19077585637569427,-0.44248661398887634,0.13480868935585022,0.11623299866914749,2.425020694732666
5.2019829750061035,-0.8617326021194458,-0.23659060895442963,-0.09080308675765991,-0.24089741082016766,-1.0993715230458398,-0.9415634541925322,-0.8651960492134094,0.23857422173023224,-0.4410420358181,-0.10230504721403122,-0.15971176326274872,2.942411184310913
5.222604751586914,-1.0785670280456543,-0.28414878249168396,-0.07625597715377808,-0.29409184226291224,-1.0931736795811646,-0.909309978835238,-0.8499607443809509,0.2898707985877991,-0.4399336278438568,0.5485787391662598,-0.0014425001572817564,3.2248754501342773
5.239989757537842,-1.0648460388183594,-0.1945052444934845,-0.09391137957572937,-0.34271527832615134,-1.0757743598317917,-0.8611958235860926,-0.8287848830223083,0.3360457122325897,-0.4474247097969055,1.1365625858306885,0.183428555727005,3.1363937854766846
5.259997844696045,-0.9652491211891174,-0.22404146194458008,-0.16730183362960815,-0.3862043822260184,-1.055958610495857,-0.8112036148819926,-0.8062657117843628,0.3766750693321228,-0.4561265707015991,0.6587729454040527,0.015409627929329872,2.953965902328491
5.2813568115234375,-0.8992343544960022,-0.30704569816589355,-0.14568328857421875,-0.43419236869636657,-1.043619421664891,-0.7781867419173665,-0.7840389013290405,0.4206778407096863,-0.4564133584499359,-0.40681034326553345,-0.06949710100889206,2.720144033432007
5.300883769989014,-0.8551068305969238,-0.2548293173313141,-0.18313515186309814,-0.48600167026797597,-1.0387609129444302,-0.7642398207132294,-0.7619890570640564,0.4670942723751068,-0.44854822754859924,-1.000590205192566,-0.04203733056783676,2.3244740962982178
5.3212080001831055,-0.7353172302246094,-0.033097147941589355,-0.24936172366142273,-0.5303787369709159,-1.0357693546365305,-0.7551726684515541,-0.7420691847801208,0.5058600902557373,-0.43981677293777466,-0.4124104380607605,-0.07424551248550415,1.9875082969665527
5.341034889221191,-0.5670621395111084,0.21714526414871216,-0.29546797275543213,-0.5662317376614646,-1.028168982559592,-0.7352569016789039,-0.7227022051811218,0.5364557504653931,-0.43579423427581787,-0.06486474722623825,-0.25173109769821167,1.9446059465408325
5.361005783081055,-0.5143067836761475,0.27502477169036865,-0.24837470054626465,-0.599529806000738,-1.0218648994696404,-0.7143796245662664,-0.70430588722229,0.5642543435096741,-0.43077877163887024,-0.3015235960483551,-0.317613422870636,1.7866766452789307
5.381248950958252,-0.41334450244903564,0.395613431930542,-0.17912882566452026,-0.6319820648513309,-1.0238807364308322,-0.7048626722241178,-0.6891639828681946,0.5907451510429382,-0.419610857963562,-0.7351208329200745,-0.4343698024749756,1.447860598564148
5.400692939758301,-0.25467872619628906,0.4270287752151489,-0.16331201791763306,-0.6642178871468205,-1.033139168305403,-0.702393920062332,-0.6763057112693787,0.6164435148239136,-0.4032469093799591,-0.680396318435669,-0.6147562265396118,1.460221529006958
5.420042037963867,-0.1477605104446411,0.4269710183143616,-0.15145087242126465,-0.6947362776551468,-1.0408465307557522,-0.6964142411685563,-0.6628473997116089,0.6401828527450562,-0.3883288502693176,-0.5392152667045593,-0.5692448616027832,1.3489574193954468
5.440639972686768,-0.05805480480194092,0.368463933467865,-0.21399107575416565,-0.721643286561644,-1.0503571798928437,-0.6927703788461334,-0.6513262391090393,0.6606191992759705,-0.37330445647239685,-0.6499965190887451,-0.5558176040649414,1.2337967157363892
5.460693836212158,0.04817366600036621,0.22016829252243042,-0.16073617339134216,-0.7509633341498358,-1.0623751506882129,-0.6987664519490323,-0.638566792011261,0.6823433041572571,-0.3558654487133026,-1.1561667919158936,-0.2524496912956238,1.0345768928527832
5.480703830718994,0.19863766431808472,0.16694259643554688,-0.16877198219299316,-0.7789944059619086,-1.0785130114612254,-0.7134984769124063,-0.6271197199821472,0.7025641798973083,-0.3363397717475891,-1.012792944908142,-0.39506322145462036,0.941754937171936
5.5003790855407715,0.40326017141342163,0.09959453344345093,-0.1464044153690338,-0.8047712931820958,-1.0959625150097727,-0.7260700526500665,-0.6165779829025269,0.7206721305847168,-0.31695932149887085,-1.0028468370437622,-0.4512578547000885,0.9055902361869812
5.52021598815918,0.488345205783844,-0.09157109260559082,-0.06656166911125183,-0.828873223210589,-1.1133046582263504,-0.739337885333565,-0.6062194108963013,0.7371704578399658,-0.29845914244651794,-0.9288200736045837,-0.3498339354991913,0.8383048176765442
5.539499759674072,0.5445492267608643,-0.13193416595458984,-0.07479435205459595,-0.8515393199893178,-1.1289121828474906,-0.7511598829818221,-0.5955440998077393,0.7522954344749451,-0.28174257278442383,-0.7898686528205872,-0.30991482734680176,0.9017068147659302
5.56003999710083,0.5905795097351074,-0.2027137279510498,-0.07324445247650146,-0.8738180844433956,-1.1410834265867285,-0.7605962540495713,-0.5835452079772949,0.7667853832244873,-0.2674233615398407,-0.7003322839736938,-0.25271105766296387,0.8484233617782593
5.580035924911499,0.6295700073242188,-0.23990386724472046,-0.08810698986053467,-0.8927236855373276,-1.1490193990306856,-0.7642344863044371,-0.5723190307617188,0.7787832021713257,-0.2568027079105377,-0.30679386854171753,-0.20067907869815826,0.8183333277702332
5.600194931030273,0.671787679195404,-0.3312969207763672,-0.049250125885009766,-0.9080621305886105,-1.149346364904065,-0.7596382784292365,-0.561436116695404,0.7883129119873047,-0.2516990005970001,-0.06422881036996841,-0.21632516384124756,0.7064328789710999
5.620099067687988,0.6695564389228821,-0.36548954248428345,-0.01340097188949585,-0.920105115660672,-1.144395892012769,-0.7485480780385121,-0.5514991879463196,0.7956653237342834,-0.2505303621292114,0.1300739049911499,-0.17659558355808258,0.6474111080169678
5.6402459144592285,0.6585796475410461,-0.4031565189361572,0.04396182298660278,-0.9294717987465847,-1.1377168760759022,-0.7364653868205772,-0.5430247783660889,0.801304042339325,-0.25106939673423767,0.19502286612987518,-0.10259362310171127,0.5666550993919373
5.660041809082031,0.6441307663917542,-0.3781983256340027,0.03753522038459778,-0.9372749055778016,-1.1230906745111662,-0.7164738757699775,-0.5336418151855469,0.8059478998184204,-0.25626999139785767,0.5590578317642212,-0.06507527083158493,0.6200132369995117
5.680025100708008,0.6641648411750793,-0.32419925928115845,0.10221964120864868,-0.941750791819944,-1.1038498810278414,-0.6906637028321636,-0.5253861546516418,0.8085894584655762,-0.26486313343048096,0.6437580585479736,-0.11432244628667831,0.46414434909820557
5.700098037719727,0.7814009785652161,-0.3864423632621765,0.1766889989376068,-0.944041071947751,-1.0820490554968376,-0.6602919219539622,-0.5178511738777161,0.8099348545074463,-0.275382936000824,0.8058909177780151,-0.20388056337833405,0.5377169847488403
5.720016002655029,0.8351078033447266,-0.3354860544204712,0.16253235936164856,-0.9437163405296087,-1.0611635225471727,-0.6247561851273404,-0.5122165083885193,0.8097443580627441,-0.28626587986946106,1.0858047008514404,-0.572060763835907,0.4415598213672638
5.740041971206665,0.850335419178009,-0.2918197512626648,0.2821153700351715,-0.9400921697168997,-1.037340103092678,-0.583308833843352,-0.5077755451202393,0.8076124787330627,-0.2998766005039215,1.1966381072998047,-0.25789523124694824,0.48884525895118713
5.760044097900391,0.9456914663314819,-0.3666374683380127,0.38339030742645264,-0.9342486513667174,-1.0034494130127718,-0.5376790263503738,-0.5012944340705872,0.8041526675224304,-0.3194407820701599,1.5363163948059082,-0.19520682096481323,0.41278955340385437
5.780025005340576,1.094032645225525,-0.2110496163368225,0.32644015550613403,-0.9194661321229123,-0.965301230816475,-0.47919517695156366,-0.4984668493270874,0.7952780723571777,-0.34505587816238403,2.2512338161468506,-0.7109432220458984,0.29061052203178406
5.80004096031189,1.0270121097564697,-0.2500556707382202,0.2978333532810211,-0.8921478934976201,-0.9315420578641972,-0.40926775795009407,-0.5037883520126343,0.7784218788146973,-0.3745088577270508,2.751884698867798,-1.631285309791565,-0.09801715612411499
5.820125102996826,0.9135074019432068,-0.25625085830688477,0.46001577377319336,-0.8565615198479586,-0.9219444198722377,-0.34409083582990313,-0.5219210982322693,0.7555946707725525,-0.39582204818725586,2.6193294525146484,-1.9600862264633179,0.002256855135783553
5.840041875839233,0.5592860579490662,-0.48193174600601196,0.6752017140388489,-0.8260249469165799,-0.9168224764487128,-0.2907637571758832,-0.5379542708396912,0.7352429032325745,-0.41233861446380615,2.350579261779785,-1.7939739227294922,-0.48150354623794556
5.860040903091431,0.29256266355514526,-0.12899547815322876,0.41141337156295776,-0.782874289243033,-0.9213697534796894,-0.2415977338325124,-0.5645810961723328,0.705319881439209,-0.4286864101886749,2.9708874225616455,-2.308969497680664,-0.9088992476463318
5.880043029785156,0.06763976812362671,-0.24046796560287476,0.2947661876678467,-0.7263679170550952,-0.9424336250197775,-0.1879635324409666,-0.6047949194908142,0.6641587018966675,-0.4394500255584717,3.4149012565612793,-3.479264736175537,-1.2178595066070557
5.9000818729400635,-0.20019912719726562,-0.37748467922210693,0.4280257225036621,-0.6715757570328056,-0.9826164463631831,-0.13931303645038198,-0.6512870192527771,0.6222203373908997,-0.434358149766922,2.728672742843628,-3.485929250717163,-1.1519662141799927
5.9200599193573,-0.9212073683738708,-0.4967108964920044,0.38294416666030884,-0.6206511410271928,-1.0302227903029166,-0.10409987382413202,-0.6975059509277344,0.5815649628639221,-0.41864970326423645,2.5077764987945557,-3.5711722373962402,-1.751395344734192
5.94007682800293,-1.3211913108825684,-0.3258754014968872,0.10579794645309448,-0.5600675270868445,-1.0835327695453152,-0.06862498050424165,-0.7486176490783691,0.5312433838844299,-0.396676242351532,3.071284770965576,-3.6853597164154053,-1.967294454574585
5.9601359367370605,-1.549902319908142,-0.19833847880363464,-0.10079929232597351,-0.49312180585803883,-1.1334103852184896,-0.02481361895755539,-0.7979369759559631,0.47337806224823,-0.3731081783771515,3.2244484424591064,-3.3742339611053467,-2.2843520641326904
5.9801719188690186,-1.541135311126709,-0.40335309505462646,-0.2534492015838623,-0.4360365943165443,-1.171162521730209,0.014681796713438342,-0.835008978843689,0.4223502278327942,-0.35267576575279236,2.1091105937957764,-2.077413320541382,-1.388900876045227
6.000101089477539,-1.1402153968811035,-0.31126412749290466,-0.2893438935279846,-0.4057237633442571,-1.1921306170668466,0.023250788170794064,-0.8537268042564392,0.3946838676929474,-0.33966922760009766,-0.28335756063461304,-0.352886438369751,-1.4368205070495605
6.020051956176758,-0.8073253631591797,0.08922931551933289,-0.06650334596633911,-0.38468097389104905,-1.194630915832519,-0.005109134456287609,-0.8621082305908203,0.3752634525299072,-0.3405096232891083,-1.0021991729736328,1.0688281059265137,-0.9959124326705933
6.040064811706543,-0.19385069608688354,0.20596152544021606,-0.010802090167999268,-0.3897207842209742,-1.1778629756270584,-0.022230967499657816,-0.8545196652412415,0.37993013858795166,-0.3541882038116455,-0.6159166693687439,1.0381189584732056,0.6711009740829468
6.060137987136841,-0.028192996978759766,0.23357036709785461,0.031798362731933594,-0.408993091824863,-1.1619334182269148,-0.018800176895349744,-0.8418936729431152,0.3976856768131256,-0.3647756576538086,0.28733474016189575,0.47536951303482056,1.1009066104888916
6.0800769329071045,-0.22935277223587036,0.22826886177062988,0.1510930061340332,-0.42097245135083233,-1.1413618394719478,0.011678008840873664,-0.8298208117485046,0.40864819288253784,-0.380005419254303,1.7730998992919922,0.41820207238197327,1.1330982446670532
6.100071907043457,-0.1776745319366455,0.16667261719703674,0.15799444913864136,-0.4236786573755724,-1.1107365085108127,0.06528119461676637,-0.8168018460273743,0.4111166298389435,-0.40474429726600647,2.1314024925231934,0.4495480954647064,1.1948026418685913
6.120124816894531,-0.12074482440948486,-0.05140778422355652,0.24459952116012573,-0.4309236808651459,-1.0876780189397655,0.10024067714006506,-0.8045939207077026,0.41771021485328674,-0.4220745265483856,0.26552629470825195,0.40300047397613525,0.8867788314819336
6.140284061431885,-0.04079920053482056,-0.19364267587661743,0.18496021628379822,-0.45138426451694696,-1.0807633117089308,0.099971606783933,-0.7939480543136597,0.43621158599853516,-0.4235161542892456,-1.0490293502807617,0.2629440724849701,0.9491207599639893
6.160084962844849,0.07250463962554932,0.10230523347854614,0.07871991395950317,-0.47912564277244385,-1.0843978532510121,0.08805250267368565,-0.7844797372817993,0.46100345253944397,-0.4148100018501282,-0.9435974359512329,-0.0668424516916275,1.016072392463684
6.180057048797607,0.11066591739654541,0.2711617946624756,-0.0026850104331970215,-0.5022880365274134,-1.0834045651799848,0.09254366108633705,-0.774423360824585,0.4814322292804718,-0.41047728061676025,0.26209956407546997,-0.06367799639701843,1.195390224456787
6.200028896331787,0.08979743719100952,0.2879294157028198,0.054082661867141724,-0.5170435733583978,-1.0712209482698962,0.11920263795836879,-0.7630456686019897,0.4943123161792755,-0.4164331257343292,0.873555064201355,-0.017423152923583984,1.1960214376449585
6.220057010650635,0.09676611423492432,0.18557387590408325,0.18415144085884094,-0.5311249796378346,-1.060069937755581,0.14448083414194016,-0.752207338809967,0.5065036416053772,-0.42147138714790344,0.26019012928009033,-0.1673535257577896,1.159748911857605
6.2400429248809814,0.23660224676132202,0.007939457893371582,0.08014419674873352,-0.5577117383232147,-1.0607525544619392,0.1555551925334565,-0.740477979183197,0.5292460918426514,-0.41423535346984863,-0.8538721203804016,-0.5572652220726013,1.595001459121704
6.260052919387817,0.2749238610267639,0.0010530948638916016,0.005040645599365234,-0.598273747776143,-1.0850287942905512,0.14099121069326265,-0.7307191491127014,0.5632169246673584,-0.38579320907592773,-2.017930746078491,-1.0004359483718872,1.308386206626892
6.280045986175537,0.21212226152420044,0.11701905727386475,-0.01575601100921631,-0.6378754819520233,-1.122802627240528,0.11085824816060416,-0.7240851521492004,0.595490038394928,-0.3479830324649811,-1.7241997718811035,-0.9305456876754761,1.2171211242675781
6.300041913986206,0.2020418643951416,0.2707095742225647,-0.04486954212188721,-0.669899486219773,-1.1454452644338087,0.09907502809885552,-0.7140352725982666,0.620907187461853,-0.3234623968601227,-0.38697925209999084,-0.6279919147491455,1.2619584798812866
6.320043087005615,0.22384440898895264,0.40126729011535645,-0.09265828132629395,-0.6926429918065677,-1.1469803244707724,0.11543623040789484,-0.7014750242233276,0.6385733485221863,-0.31647562980651855,0.43399447202682495,-0.6195603609085083,1.3369735479354858
6.340065956115723,0.2860730290412903,0.23296844959259033,-0.015308499336242676,-0.7151340839706076,-1.1458384985514596,0.1393001067548036,-0.6878522634506226,0.6557186841964722,-0.3112753927707672,0.23363356292247772,-0.8154323697090149,1.4681540727615356
6.360054016113281,0.26081573963165283,0.04258507490158081,0.05442437529563904,-0.7437464913677194,-1.1543287296233273,0.15299515892172408,-0.6730319261550903,0.6770498156547546,-0.29771050810813904,-0.3598465919494629,-0.9571982622146606,1.5249305963516235
6.380075931549072,0.2268848419189453,0.04737335443496704,-0.021875888109207153,-0.7736284285358245,-1.1688227846459447,0.16178607929254513,-0.658357560634613,0.6987355351448059,-0.27988195419311523,-0.15502981841564178,-1.0682016611099243,1.4458531141281128
6.4000420570373535,0.19468438625335693,0.09295845031738281,-0.06131437420845032,-0.7985824392144842,-1.174090341987803,0.1829400995878161,-0.6435369849205017,0.7163677215576172,-0.26958778500556946,0.5803130865097046,-0.9565021991729736,1.4050127267837524
6.420042991638184,0.1523953676223755,0.023293673992156982,-0.01937904953956604,-0.8180348082114065,-1.1674880582172718,0.217301218691524,-0.6288052797317505,0.729803740978241,-0.26831015944480896,0.7561065554618835,-0.9055142402648926,1.278868317604065
6.440078973770142,0.14922422170639038,-0.11270278692245483,0.021350830793380737,-0.8351017755589913,-1.162187389898528,0.24934759810049406,-0.6158531904220581,0.7413648366928101,-0.26665109395980835,0.5682225823402405,-0.920609712600708,1.1236507892608643
6.46005392074585,0.12386393547058105,-0.16215580701828003,-0.022412359714508057,-0.8505348653409238,-1.1607263877019418,0.2761652819912144,-0.6048973202705383,0.7516332864761353,-0.26295754313468933,0.4790048599243164,-0.9587267637252808,0.9986295104026794
6.480055809020996,0.0939435362815857,-0.09708946943283081,-0.04899287223815918,-0.8627614282433202,-1.1614577823577754,0.30044096653728725,-0.596613883972168,0.7596413493156433,-0.2588379681110382,0.5119619369506836,-0.8956862688064575,0.7661950588226318
6.500034809112549,0.0978630781173706,-0.11218118667602539,-0.03816843032836914,-0.8728406554410995,-1.1623644394275139,0.32027006176056094,-0.5897912383079529,0.7661575675010681,-0.25524285435676575,0.19317148625850677,-0.7698869705200195,0.6111388206481934
6.520042896270752,0.06361639499664307,-0.054452359676361084,-0.09251657128334045,-0.8795555118873373,-1.170265885078702,0.33021965412181903,-0.5870386362075806,0.7704555988311768,-0.24856308102607727,0.24216648936271667,-0.7732566595077515,0.3288833498954773
6.540052890777588,0.0902566909790039,0.06254607439041138,-0.16265468299388885,-0.883355504338334,-1.1734139939858055,0.34556397939724637,-0.5851144194602966,0.7728725075721741,-0.24557898938655853,0.47137194871902466,-0.7240620255470276,0.4023493826389313
6.560043811798096,0.05920708179473877,0.09875673055648804,-0.14415621757507324,-0.8874995892449021,-1.172478583094276,0.36410039564211977,-0.581927478313446,0.7754955291748047,-0.24488186836242676,0.4377064108848572,-0.6009411811828613,0.42017310857772827
6.580063819885254,-0.0019549131393432617,0.023363232612609863,-0.1433154046535492,-0.8924935547195963,-1.1714824608356296,0.379508299721145,-0.5781080722808838,0.7786387801170349,-0.24395273625850677,0.2445250302553177,-0.5199300646781921,0.4063846468925476
6.600043773651123,0.0015531182289123535,-0.032094597816467285,-0.15482014417648315,-0.8982648750371904,-1.1732420444730902,0.3899378771696464,-0.5743833184242249,0.7822471857070923,-0.24119119346141815,0.1808423548936844,-0.4703325927257538,0.38610604405403137
6.620043754577637,-0.028934001922607422,-0.04380154609680176,-0.14718268811702728,-0.9023959225919785,-1.1722628488154454,0.40189133621045386,-0.5711636543273926,0.7848140001296997,-0.24049736559391022,0.37359246611595154,-0.35568270087242126,0.2649952471256256
6.640044927597046,-0.09617412090301514,-0.04664909839630127,-0.11678814888000488,-0.9024112824993329,-1.1661573674540782,0.4171454865643369,-0.5696737170219421,0.7848235368728638,-0.24397540092468262,0.46757906675338745,-0.23617422580718994,0.09967523068189621
6.660080909729004,-0.11740189790725708,-0.07580876350402832,-0.10255229473114014,-0.900075777904531,-1.1619682914292102,0.42832830153835516,-0.5703269839286804,0.783374011516571,-0.24708765745162964,0.2294415682554245,-0.24636055529117584,-0.024635624140501022
6.680041790008545,-0.07635712623596191,-0.06278640031814575,-0.10503953695297241,-0.8988141476146085,-1.165218032863503,0.4307451870813081,-0.5720345973968506,0.7825891971588135,-0.2456226646900177,0.001503251027315855,-0.2606322467327118,-0.01308348122984171
6.700046062469482,-0.07143527269363403,0.0046797990798950195,-0.11969946324825287,-0.8990723362227994,-1.1699501477223835,0.43090397218508275,-0.5730043649673462,0.7827499508857727,-0.24283409118652344,0.02646145038306713,-0.22646984457969666,0.01754302717745304
6.720043897628784,-0.06011462211608887,0.0253104567527771,-0.11913691461086273,-0.8989239190927479,-1.1706983074297324,0.43475499157261865,-0.5732929706573486,0.7826575636863708,-0.24245060980319977,0.20946750044822693,-0.1477784961462021,0.0714946761727333
6.740050792694092,-0.06684309244155884,-0.023908555507659912,-0.09152033925056458,-0.8988412866913346,-1.1659504443442998,0.4432563301651413,-0.5721950531005859,0.7826061248779297,-0.24519535899162292,0.26305362582206726,-0.03994080051779747,0.09106256812810898
6.760044097900391,-0.12990230321884155,-0.06738078594207764,-0.08467525243759155,-0.8976164380760757,-1.1583529629182934,0.4530870288533042,-0.5711933374404907,0.7818430662155151,-0.24991947412490845,0.35581061244010925,0.07461400330066681,0.033859383314847946
6.780055999755859,-0.1787492036819458,-0.10178858041763306,-0.06899112462997437,-0.8956352490908133,-1.1454394524487694,0.46555511285662704,-0.5693281888961792,0.7806062698364258,-0.257913202047348,0.3846861720085144,0.23302769660949707,0.08625071495771408
6.800095081329346,-0.2054910659790039,-0.140702486038208,-0.043305784463882446,-0.8948118876527147,-1.132336109935999,0.47426177461740643,-0.5664815306663513,0.780091404914856,-0.26562365889549255,0.07657241821289062,0.3587828576564789,0.024841828271746635
6.820046901702881,-0.16609662771224976,-0.10830855369567871,-0.10354381799697876,-0.8948127542783292,-1.1301462526853596,0.46971580853512496,-0.565898060798645,0.7800919413566589,-0.26686331629753113,-0.2957703471183777,0.19452691078186035,-0.12106528878211975
6.840050935745239,-0.07381832599639893,-0.10631328821182251,-0.0998421311378479,-0.8966009156155759,-1.1355815408707015,0.4586487674490238,-0.5660742521286011,0.7812094688415527,-0.2631950080394745,-0.3435523509979248,0.15650585293769836,-0.014819322153925896
6.860084056854248,-0.04793936014175415,-0.093353271484375,-0.08737063407897949,-0.8992609461525546,-1.1374249948987198,0.4513860128196284,-0.5646704435348511,0.7828673124313354,-0.2612774074077606,-0.1620751917362213,0.23551137745380402,0.05891398712992668
6.880043029785156,0.015591681003570557,-0.07948070764541626,-0.08160015940666199,-0.9020087151949207,-1.1319285752830823,0.45135117896572535,-0.5612764954566956,0.7845739722251892,-0.263462096452713,0.045477502048015594,0.2971463203430176,0.17311792075634003
6.900134086608887,0.06922048330307007,-0.12457531690597534,-0.07746618986129761,-0.904580269582592,-1.1225754487380455,0.4556395026696371,-0.5569676756858826,0.7861658334732056,-0.2678249776363373,0.04548723250627518,0.3003411293029785,0.1508564054965973
6.920044898986816,0.12331521511077881,-0.20206326246261597,-0.04048144817352295,-0.9074556328792543,-1.1153006076303507,0.4574405828174945,-0.552972137928009,0.7879396080970764,-0.27087411284446716,-0.08424881845712662,0.2839323580265045,0.17206573486328125
6.940043926239014,0.16211634874343872,-0.24125444889068604,-0.019269734621047974,-0.9119897040794976,-1.1110410030771596,0.45605530942720934,-0.5486061573028564,0.7907233238220215,-0.2716390788555145,-0.17938169836997986,0.26114988327026367,0.18393537402153015
6.960043907165527,0.15505611896514893,-0.20151054859161377,-0.04483881592750549,-0.9163726965818301,-1.1078983759564731,0.4541520679639171,-0.5446435213088989,0.793398916721344,-0.2718115746974945,-0.06082233414053917,0.22575220465660095,0.12956412136554718
6.980071067810059,0.15548133850097656,-0.11905479431152344,-0.06267485022544861,-0.917757144095796,-1.1002140222597538,0.4582113264940975,-0.5415591597557068,0.7942408323287964,-0.2754904329776764,0.192206010222435,0.2036026120185852,0.11714237928390503
7.000062942504883,0.1489354968070984,-0.10487502813339233,-0.06440961360931396,-0.9173483699013234,-1.0885584246616187,0.46822141720368843,-0.5385991930961609,0.7939924001693726,-0.2819344103336334,0.35461339354515076,0.17857219278812408,0.13097557425498962
7.020044803619385,0.13004529476165771,-0.10842674970626831,-0.038212209939956665,-0.9163393318283554,-1.076508876292238,0.4798433948528643,-0.5358681082725525,0.7933785915374756,-0.28878363966941833,0.30588337779045105,0.12699244916439056,0.09838837385177612
7.040047883987427,0.12709897756576538,-0.08737260103225708,-0.04074287414550781,-0.9157426725952876,-1.0674830712152936,0.4885672887620595,-0.5336541533470154,0.7930152416229248,-0.2938365936279297,0.16184385120868683,0.06522032618522644,0.1171056479215622
7.0601067543029785,0.15307199954986572,-0.07460325956344604,-0.06529930233955383,-0.917175212478334,-1.064340591555477,0.4922381549198223,-0.5317341089248657,0.7938871383666992,-0.29496070742607117,-0.037929415702819824,-0.04314449802041054,0.10212467610836029
7.080041885375977,0.1644270420074463,-0.06837540864944458,-0.07193905115127563,-0.9194083427208838,-1.0662030010281505,0.4918101872507746,-0.5307295322418213,0.7952430248260498,-0.29311221837997437,-0.07653574645519257,-0.09559669345617294,0.09134048223495483
7.100054979324341,0.1922682523727417,-0.07423245906829834,-0.06376680731773376,-0.9216731137458659,-1.0689781100253808,0.4910642475650973,-0.5299606323242188,0.7966141104698181,-0.2907712161540985,-0.04556865245103836,-0.1379128247499466,0.07583358883857727
7.120045900344849,0.22218304872512817,-0.07551681995391846,-0.07672029733657837,-0.9227634719918196,-1.0712120788633412,0.49279075876541967,-0.5298460721969604,0.7972727417945862,-0.2891702651977539,0.10995188355445862,-0.23203523457050323,0.0518064945936203
7.140042781829834,0.2464696168899536,-0.019922733306884766,-0.11654672026634216,-0.9210107606578832,-1.0714392167980307,0.49997556285228184,-0.5311375260353088,0.7962135672569275,-0.28971853852272034,0.3246200680732727,-0.3888237774372101,0.0010469098342582583
7.160036087036133,0.25302064418792725,0.013132035732269287,-0.11838275194168091,-0.9164776128771513,-1.0707080278214285,0.5118303066008396,-0.5340875387191772,0.7934627532958984,-0.29183459281921387,0.5039751529693604,-0.4766986668109894,-0.06301859021186829
7.18004298210144,0.2349998950958252,-0.011498510837554932,-0.08114853501319885,-0.9101157077731545,-1.070624830518556,0.5245133807990238,-0.5384820699691772,0.7895747423171997,-0.29429399967193604,0.4768555164337158,-0.49810323119163513,-0.1361495852470398
7.200044870376587,0.2205275297164917,-0.021264255046844482,-0.05985173583030701,-0.9026912724207294,-1.0740460404337329,0.5329049681637943,-0.5446241497993469,0.7849969863891602,-0.2952355146408081,0.3018781244754791,-0.5078522562980652,-0.2815999984741211
7.2200798988342285,0.20811480283737183,0.002077639102935791,-0.033936262130737305,-0.894684233484655,-1.0870724213588745,0.5305365800128086,-0.5539705157279968,0.7800115346908569,-0.29103022813796997,-0.09501159936189651,-0.6504203081130981,-0.4906449019908905
7.24004602432251,0.13902133703231812,0.0575980544090271,-0.042706966400146484,-0.8858909708236185,-1.1152886371241395,0.5141352900675984,-0.5680985450744629,0.7744789123535156,-0.2782922089099884,-0.3147028386592865,-0.8611250519752502,-0.7639681696891785
7.260042905807495,0.08503967523574829,0.08915913105010986,-0.014548778533935547,-0.8730771930296868,-1.1453854565379085,0.4972759167910378,-0.5852075219154358,0.7663095593452454,-0.26514482498168945,-0.09366109222173691,-0.8610967993736267,-0.8309306502342224
7.280045032501221,0.1308375597000122,0.0286865234375,0.06524044275283813,-0.8586685375301927,-1.1681567633916812,0.4887594479607185,-0.6011897921562195,0.7569732069969177,-0.25605159997940063,0.16821624338626862,-0.7523680329322815,-0.7043160200119019
7.300052881240845,0.13760167360305786,-0.07458490133285522,0.13529878854751587,-0.8444244963990806,-1.181450147183296,0.4889429677761097,-0.6144540905952454,0.7475889921188354,-0.25210487842559814,0.3665335774421692,-0.6091883778572083,-0.6189603209495544
7.320056915283203,0.12280672788619995,-0.029054880142211914,0.11092430353164673,-0.829639829349192,-1.1897311315635641,0.495488515890763,-0.6267129778862,0.7376882433891296,-0.25109153985977173,0.6094939708709717,-0.7588046789169312,-0.5686913728713989
7.3401219844818115,0.1644776463508606,0.034967780113220215,0.03180733323097229,-0.8150471678534685,-1.1978580071187988,0.5090571263846723,-0.6386902928352356,0.7277579307556152,-0.2498859018087387,0.7946639060974121,-1.0275816917419434,-0.46348926424980164
7.36003303527832,0.21846497058868408,0.06175410747528076,0.04094880819320679,-0.8003117199225495,-1.2035022163786189,0.5299428611525141,-0.6500293612480164,0.7175732254981995,-0.2501010298728943,1.1159207820892334,-0.9991987943649292,-0.3838672637939453
7.37988805770874,0.250313937664032,0.006551146507263184,0.1035773754119873,-0.7851761905637386,-1.2009183955121927,0.5573263876449327,-0.659432590007782,0.7069498300552368,-0.2556770145893097,1.1761900186538696,-0.6685301661491394,-0.35763993859291077
7.399709939956665,0.26403188705444336,-0.10689300298690796,0.12846863269805908,-0.7699238401518326,-1.1939388681466923,0.5810312644067368,-0.6675810813903809,0.6960805654525757,-0.26421085000038147,0.9213739633560181,-0.29057416319847107,-0.45283278822898865
7.419987916946411,0.32163339853286743,-0.18772989511489868,0.14689213037490845,-0.7554398106118683,-1.186893987271579,0.5950900080895328,-0.6749811768531799,0.6856089234352112,-0.27265506982803345,0.5951964259147644,-0.026766233146190643,-0.5314647555351257
7.439982891082764,0.3770678639411926,-0.19837665557861328,0.1226063072681427,-0.7398693027109182,-1.1798751542801749,0.6043593590814749,-0.6828387379646301,0.674191415309906,-0.2814197838306427,0.6801056861877441,0.08230619132518768,-0.6589438915252686
7.459985971450806,0.3713008761405945,-0.12493324279785156,0.10700821876525879,-0.7196182128604716,-1.1688417064610077,0.6177482526747645,-0.692116916179657,0.6590976119041443,-0.2942183017730713,1.004696011543274,0.1238270029425621,-0.8098106384277344
7.480041027069092,0.3688674569129944,-0.13398128747940063,0.10690528154373169,-0.6956219002208156,-1.1556217116626915,0.6347332149016249,-0.7024399042129517,0.6408629417419434,-0.3096335530281067,1.0996475219726562,0.08415389060974121,-0.9041006565093994
7.500010013580322,0.3817906975746155,-0.06923490762710571,0.12896037101745605,-0.6694635916897124,-1.1441675144188155,0.6501607875866826,-0.713867723941803,0.6205654740333557,-0.32448646426200867,1.0825990438461304,0.11066805571317673,-1.002451777458191
7.520056962966919,0.36936885118484497,0.00836193561553955,0.19572466611862183,-0.641240709281372,-1.1328848408125718,0.6635433906917052,-0.7257378697395325,0.5981901288032532,-0.3398134112358093,1.0760294198989868,0.17449639737606049,-1.148161768913269
7.540013790130615,0.33232903480529785,-0.005607903003692627,0.17618978023529053,-0.609647728314621,-1.1246534524140572,0.67385183513779,-0.7396013736724854,0.5725786685943604,-0.353756308555603,1.0187147855758667,0.012202560901641846,-1.3298487663269043
7.560011863708496,0.2740556001663208,-0.02056783437728882,0.10118690133094788,-0.5762036314152932,-1.123439415714812,0.6801095936382937,-0.7560197114944458,0.5448444485664368,-0.362737774848938,0.9528632760047913,-0.1967964619398117,-1.4955732822418213
7.580010890960693,0.17431384325027466,0.04234886169433594,0.11630558967590332,-0.5400570023186578,-1.1254287172074051,0.6842758665022026,-0.7740147709846497,0.5141848921775818,-0.36947938799858093,1.02286958694458,-0.2177402824163437,-1.64078950881958
7.6000659465789795,0.0490759015083313,0.1551811397075653,0.15447747707366943,-0.4987557456149165,-1.1262775913595489,0.690738830454035,-0.7928350567817688,0.4783332347869873,-0.3776372969150543,1.2491551637649536,-0.1730482578277588,-1.832257628440857
7.6200480461120605,-0.1280185580253601,0.15984663367271423,0.11643871665000916,-0.4528723690500114,-1.126337181297826,0.6996306483358828,-0.8118312358856201,0.4375501573085785,-0.38662606477737427,1.375183343887329,-0.27376589179039,-2.0053207874298096
7.640045881271362,-0.40473562479019165,0.15736785531044006,0.05492526292800903,-0.40311352189950483,-1.1322861055374804,0.703273556141209,-0.8328132033348083,0.39228418469429016,-0.3905576169490814,0.9606544971466064,-0.47837674617767334,-2.2761449813842773
7.660088062286377,-0.5024648904800415,0.11723440885543823,0.11446085572242737,-0.3586353302275421,-1.143404076588632,0.6985770986308303,-0.8521493077278137,0.3509967029094696,-0.3881271779537201,0.5656558275222778,-0.3976386785507202,-1.9247500896453857
7.680044889450073,-0.5311141014099121,0.18560916185379028,0.17006725072860718,-0.32052218110764874,-1.1499419162256985,0.6946342600083919,-0.8662552833557129,0.31506219506263733,-0.38773390650749207,0.8696044683456421,-0.11370690166950226,-1.731540322303772
7.700138092041016,-0.3669772148132324,0.367972195148468,0.13462278246879578,-0.28076735921263857,-1.1471403001935552,0.7054932578061178,-0.8758968710899353,0.2770930528640747,-0.3949987292289734,1.6921888589859009,0.0820336639881134,-1.4825563430786133
7.7200469970703125,-0.26932770013809204,0.20639075338840485,0.14461910724639893,-0.23916583270780742,-1.1385774413624912,0.7284352271653516,-0.882192075252533,0.23689228296279907,-0.40696343779563904,1.9055362939834595,0.2490926831960678,-1.4471811056137085
7.740048885345459,-0.3174244165420532,-0.037994131445884705,0.2137293815612793,-0.19957946601568116,-1.1284428754693003,0.7471765717089212,-0.8858073949813843,0.19825716316699982,-0.4195704460144043,1.4237301349639893,0.30933213233947754,-1.3933216333389282
7.760044097900391,-0.37047910690307617,-0.09440900385379791,0.30167847871780396,-0.1668526054516377,-1.117962715806646,0.7561379528459067,-0.8867230415344238,0.16607949137687683,-0.43143925070762634,0.7650096416473389,0.5180074572563171,-1.1878865957260132
7.780045986175537,-0.47713547945022583,0.02377590537071228,0.35363805294036865,-0.14059672743416096,-1.1077235015667357,0.7584142202345427,-0.8858558535575867,0.14013397693634033,-0.44229164719581604,0.6290092468261719,0.6156895756721497,-0.931999146938324
7.800086975097656,-0.45621997117996216,0.11560076475143433,0.4295637011528015,-0.12486623731922389,-1.0955351369257302,0.7601729885812711,-0.8822504878044128,0.12454201281070709,-0.4540082514286041,0.3172197937965393,0.5409950017929077,-0.46093738079071045
7.8200459480285645,-0.6246939301490784,0.054361939430236816,0.47815144062042236,-0.12013636917132861,-1.0827027535364901,0.7600863600520675,-0.8768623471260071,0.11984759569168091,-0.4655629098415375,-0.158541738986969,0.7029165625572205,-0.12291965633630753
7.840063095092773,-0.7731688618659973,-0.0013375282287597656,0.5402405261993408,-0.12031039249617688,-1.0698382541913503,0.7560546237784304,-0.8707824945449829,0.12002035975456238,-0.4767944812774658,-0.04935082048177719,0.7022676467895508,0.06022462993860245
7.860045909881592,-0.6658785343170166,-0.21083030104637146,0.5869382619857788,-0.12494290674375821,-1.0523747533290428,0.7624319166352359,-0.8618314266204834,0.12461808323860168,-0.4916471242904663,0.35402795672416687,1.0025383234024048,0.5878346562385559
7.880044937133789,-0.7803112268447876,-0.35327523946762085,0.405698299407959,-0.1319321526021652,-1.0344668438457445,0.7815248053900804,-0.8521198034286499,0.13154974579811096,-0.5065435767173767,0.7741569876670837,0.39124247431755066,0.9357642531394958
7.900045871734619,-0.6536122560501099,-0.38987380266189575,0.2981358766555786,-0.1407654253894101,-1.0291516620769183,0.8100568816383389,-0.8483865857124329,0.14030100405216217,-0.5104466080665588,1.1337006092071533,-0.19441089034080505,1.3064923286437988
7.920042991638184,-0.6977980136871338,-0.48276689648628235,0.24460965394973755,-0.15328834186309145,-1.032282360595381,0.8419073602153287,-0.8484055995941162,0.15268874168395996,-0.5068472027778625,0.9291381239891052,-0.5139485597610474,1.4335802793502808
7.940077781677246,-0.6867772936820984,-0.4659614861011505,0.12427884340286255,-0.17608320461824067,-1.033931583210032,0.873602415631117,-0.8460291028022766,0.17517469823360443,-0.5035360455513,0.5824087262153625,-0.06780750304460526,2.1121597290039062
7.960047960281372,-0.8829939961433411,-0.3339090347290039,-0.04781121015548706,-0.2095386790055828,-1.0261660277096538,0.9056500351059518,-0.8366104364395142,0.20800869166851044,-0.5067694187164307,0.3971541225910187,0.22870992124080658,2.3996808528900146
7.980044841766357,-0.9541977643966675,-0.2151738703250885,-0.13647758960723877,-0.25109885087362943,-1.0140154892440298,0.9371363341488952,-0.8223372101783752,0.24846850335597992,-0.5118836164474487,0.0792427510023117,0.1841220259666443,2.7155020236968994
8.000044822692871,-0.9909303784370422,-0.17975205183029175,-0.09501606225967407,-0.2986109436641609,-1.002374170315137,0.9695123646671221,-0.805456280708313,0.294192910194397,-0.5144809484481812,-0.014171182177960873,0.17773613333702087,2.9663491249084473
8.020071029663086,-1.0272377729415894,-0.14801859855651855,0.030514419078826904,-0.34705163827163404,-0.9901991388254583,1.002047859420333,-0.7862845659255981,0.34012672305107117,-0.5158202052116394,-0.001261349767446518,2.6144320145249367e-05,2.831822156906128
8.040045976638794,-0.911356508731842,-0.10417839884757996,-0.031141936779022217,-0.39515941743599053,-0.9792970809836166,1.0363081269800216,-0.766133725643158,0.3849553167819977,-0.514634370803833,-0.03867010772228241,-0.15753835439682007,2.9261515140533447
8.060052871704102,-0.9579929113388062,-0.10872945189476013,-0.1190342903137207,-0.44419213547783426,-0.9697407119146695,1.0672873657012814,-0.7447048425674438,0.42972856760025024,-0.5106348991394043,-0.4468459188938141,-0.11424770206212997,2.695176124572754
8.08004903793335,-0.9659106135368347,-0.0880604088306427,-0.19257742166519165,-0.49344785584483436,-0.9641839183278982,1.0846766738953055,-0.7235730886459351,0.4736652374267578,-0.5020789504051208,-1.0046613216400146,-0.13253331184387207,2.2176921367645264
8.100046873092651,-0.758536159992218,-0.03168970346450806,-0.2355610728263855,-0.5373406614719514,-0.9634438173050763,1.0931520395363143,-0.7054378390312195,0.5118532180786133,-0.4902689754962921,-0.788801908493042,-0.17144201695919037,1.886338710784912
8.120049953460693,-0.5157238841056824,0.07554107904434204,-0.23265108466148376,-0.5739017569525208,-0.9600999200380524,1.1060031194348943,-0.6879961490631104,0.5429128408432007,-0.48156702518463135,-0.4432896375656128,-0.20501115918159485,1.6833722591400146
8.140078067779541,-0.4082651734352112,0.13931792974472046,-0.24118119478225708,-0.6045597451142024,-0.9591664007616677,1.1186066178236238,-0.6735982298851013,0.5683999061584473,-0.4724266231060028,-0.5694724917411804,-0.37007707357406616,1.4508079290390015
8.160082817077637,-0.29082125425338745,0.06383180618286133,-0.1690400242805481,-0.6350044501462015,-0.9636901463163601,1.1218450040573082,-0.6612051725387573,0.5931810736656189,-0.4592863917350769,-0.9564864039421082,-0.31033116579055786,1.1667126417160034
8.180047988891602,-0.15330398082733154,0.06015890836715698,-0.16984480619430542,-0.6637951449299369,-0.97444942655717,1.1149109362110838,-0.651703953742981,0.6161105632781982,-0.4423683285713196,-1.0743881464004517,-0.3290894329547882,0.9522426128387451
8.200071811676025,-0.023216843605041504,0.16655802726745605,-0.1598188579082489,-0.6878522485808763,-0.9847743752956027,1.1088455562209756,-0.6436989903450012,0.6348792910575867,-0.4272935092449188,-0.6396447420120239,-0.3394394516944885,0.8158549666404724
8.220046043395996,0.08518439531326294,0.25332945585250854,-0.12661179900169373,-0.7063280559470598,-0.9931253458856888,1.1074660191803622,-0.6373083591461182,0.6490446925163269,-0.4154261350631714,-0.5265783071517944,-0.4088093936443329,0.6985583901405334
8.240046977996826,0.18493181467056274,0.14562326669692993,-0.1326543092727661,-0.7255748685002106,-1.00524946847876,1.1038303652761472,-0.631632924079895,0.6635656356811523,-0.4008997678756714,-0.7799139022827148,-0.508650004863739,0.7652198076248169
8.260047912597656,0.24253541231155396,0.11632519960403442,-0.1175127625465393,-0.7480546561917217,-1.021615922603302,1.093667889737857,-0.6252259016036987,0.6802141070365906,-0.3826245367527008,-0.9362404942512512,-0.45960676670074463,0.7025611400604248
8.280046939849854,0.3296699523925781,0.11737746000289917,-0.1320350468158722,-0.7678688445547766,-1.0361678782339594,1.084241473922424,-0.6190070509910583,0.694603681564331,-0.3665458858013153,-0.688615083694458,-0.33554404973983765,0.6605318784713745
8.300010919570923,0.484308660030365,-0.021436214447021484,-0.06531637907028198,-0.7848995952097306,-1.0466893343425205,1.0790819262360112,-0.6124977469444275,0.7067541480064392,-0.3540409207344055,-0.47197210788726807,-0.350851446390152,0.6243577003479004
8.320047855377197,0.580377459526062,-0.14827656745910645,-0.019443511962890625,-0.8004775879661277,-1.0558472438561848,1.0761775986374742,-0.6060580611228943,0.7176887392997742,-0.342952698469162,-0.5209665298461914,-0.3492729961872101,0.6138935089111328
8.34007978439331,0.6344713568687439,-0.28445833921432495,0.008468002080917358,-0.8168490124397124,-1.0683678637514855,1.0679402028416667,-0.5999254584312439,0.7289925217628479,-0.32963499426841736,-0.8280129432678223,-0.35915979743003845,0.49321117997169495
