timestamp,acceleration_x,acceleration_y,acceleration_z,attitude_pitch,attitude_roll,attitude_yaw,gravity_x,gravity_y,gravity_z,rotation_x,rotation_y,rotation_z
0.0,-0.17848777770996094,0.4060007333755493,-0.03626835346221924,-0.10272468725125938,-1.3643786619638192,-2.8113800447174904,-0.9736117720603943,0.10254412144422531,-0.20387451350688934,-1.6756943464279175,-0.4225146770477295,-1.409608244895935
0.020153045654296875,-0.13974589109420776,0.3847033679485321,-0.04427795112133026,-0.08720883165314136,-1.3760340178924662,-2.858346137044176,-0.977365255355835,0.08709833025932312,-0.19279785454273224,-2.532362461090088,-0.28746625781059265,-1.0606207847595215
0.03899884223937988,-0.11206644773483276,0.4171789884567261,-0.026973292231559753,-0.07861419509013239,-1.3848713855244814,-2.9164523675526857,-0.9797303676605225,0.07853324711322784,-0.18428467214107513,-2.972161293029785,-0.1220252513885498,-0.8786812424659729
0.06001901626586914,-0.05761510133743286,0.42918628454208374,0.0749460905790329,-0.07358085910446167,-1.3890459939304347,-2.980680521302732,-0.9808676242828369,0.07351448386907578,-0.18026228249073029,-3.206130266189575,0.2733627259731293,-0.7930446863174438
0.07998919486999512,0.051740944385528564,0.3843756914138794,0.13955724239349365,-0.06975189079102324,-1.3823215696155147,-3.0455735001659803,-0.9799025654792786,0.06969534605741501,-0.18690527975559235,-3.055694103240967,0.8210371732711792,-0.7747200131416321
0.10030007362365723,0.23171639442443848,0.4292924702167511,0.10287225246429443,-0.06523004950590247,-1.3691650845785552,-3.1038854227352024,-0.9776575565338135,0.06518380343914032,-0.19984187185764313,-2.5150680541992188,0.7862151265144348,-0.7916188836097717
0.11997485160827637,0.3523139953613281,0.5585579872131348,-0.01494598388671875,-0.05800585639826408,-1.3607829771871,3.135491050040836,-0.9763831496238708,0.057973332703113556,-0.20812231302261353,-1.6122167110443115,0.32018110156059265,-0.7898207902908325
0.13995718955993652,0.3493335247039795,0.6135222315788269,-0.10790348052978516,-0.0477049701167338,-1.3595254173762545,3.108917775161352,-0.9766528010368347,0.047686878591775894,-0.2094641476869583,-0.845363438129425,-0.0037005580961704254,-0.7297065258026123
0.15996384620666504,0.26225847005844116,0.5359256267547607,-0.11311399936676025,-0.03674494615914352,-1.3604597772769729,3.093008149606464,-0.9773005843162537,0.03673667833209038,-0.20864811539649963,-0.5913883447647095,0.021534224972128868,-0.6345199346542358
0.17997407913208008,0.22669267654418945,0.44875848293304443,-0.07646173238754272,-0.02963938804005694,-1.3591512376110697,3.077032523658911,-0.9772571921348572,0.029635049402713776,-0.20997628569602966,-0.8710593581199646,0.13679246604442596,-0.35983559489250183
0.1993849277496338,0.24486404657363892,0.3914407193660736,-0.07849961519241333,-0.031003807259553432,-1.3573081392536241,3.055720843080007,-0.9768280982971191,0.030998840928077698,-0.21176834404468536,-1.2608150243759155,0.11400006711483002,0.05907539278268814
0.22014689445495605,0.21688294410705566,0.3678334057331085,-0.09696386754512787,-0.04196892495566666,-1.3550028511998442,3.029247100696173,-0.9759466052055359,0.04195660725235939,-0.2139340043067932,-1.5440025329589844,0.21374911069869995,0.44269657135009766
0.24004292488098145,0.17229622602462769,0.36003220081329346,-0.07935875654220581,-0.06070512219173172,-1.3510062931595002,2.999317932002075,-0.9741455316543579,0.060667846351861954,-0.21762311458587646,-1.7561415433883667,0.34803739190101624,0.7348323464393616
0.2599930763244629,0.1410965919494629,0.3368965983390808,-0.12841211259365082,-0.08469814571710609,-1.3455087930128644,2.9699805161156525,-0.9712356925010681,0.0845969170331955,-0.22258584201335907,-1.582350254058838,0.3982635736465454,0.9511333703994751
0.27994203567504883,0.1249266266822815,0.30433639883995056,-0.17464566230773926,-0.1108839174228074,-1.3392437015979701,2.948043295732463,-0.9673337936401367,0.11065683513879776,-0.22807961702346802,-1.116858720779419,0.43503889441490173,1.0972728729248047
0.30030202865600586,0.12778830528259277,0.23259587585926056,-0.13496893644332886,-0.13755796414828267,-1.3323858426344353,2.93400624877666,-0.962535560131073,0.13712455332279205,-0.23392756283283234,-0.9347414970397949,0.41240522265434265,1.166087031364441
0.31939196586608887,0.12114423513412476,0.13776221871376038,-0.10856430232524872,-0.16435300995926821,-1.3271485600170074,2.9220121045236045,-0.9573867917060852,0.16361409425735474,-0.23799332976341248,-0.8377603888511658,0.2719080150127411,1.1504050493240356
0.33994603157043457,0.08515721559524536,0.10035872459411621,-0.14879445731639862,-0.18968663146413586,-1.3249223946717696,2.9139587845558346,-0.9525277614593506,0.1885511577129364,-0.23903821408748627,-0.506645143032074,0.09336119145154953,1.1226320266723633
0.3601870536804199,0.04986768960952759,0.11377765238285065,-0.17321991920471191,-0.21201048657303728,-1.32411293738537,2.9145427984848147,-0.9480152130126953,0.21042579412460327,-0.23872165381908417,0.014267238788306713,-0.010418559424579144,1.0509933233261108
0.3792870044708252,0.05539065599441528,0.08903712034225464,-0.1445399522781372,-0.23029973624775932,-1.323082123160279,2.9233645447493557,-0.9438793659210205,0.22826935350894928,-0.23871512711048126,0.30903729796409607,-0.09335161000490189,0.9432726502418518
0.399921178817749,0.08983135223388672,0.057802408933639526,-0.08125296235084534,-0.24630079230632473,-1.3241811865064577,2.93416346940573,-0.9404783844947815,0.24381805956363678,-0.23675553500652313,0.2965916693210602,-0.2944749593734741,0.8730539083480835
0.4199340343475342,0.06189560890197754,0.0679188072681427,-0.07479172945022583,-0.2610554912363642,-1.3292482757225863,2.944625337896023,-0.9380704760551453,0.2581004202365875,-0.23110124468803406,0.3657817542552948,-0.45135554671287537,0.8079421520233154
0.43994998931884766,-0.008581578731536865,0.11342033743858337,-0.10590767860412598,-0.27391859692651405,-1.3351191830005888,2.9582285651643203,-0.9361053109169006,0.27050599455833435,-0.2247961163520813,0.6315518021583557,-0.4919053614139557,0.7661551833152771
0.45998501777648926,-0.03556948900222778,0.15975147485733032,-0.1263294517993927,-0.28515251154102444,-1.3402007235373528,2.978551667410013,-0.934218168258667,0.2813037931919098,-0.21932800114154816,1.0268069505691528,-0.6031584143638611,0.8005828857421875
0.47994399070739746,-0.049640536308288574,0.17758935689926147,-0.14113447070121765,-0.29590230925885547,-1.345017692299988,3.0085993782927716,-0.9322624206542969,0.29160305857658386,-0.21413595974445343,1.567529320716858,-0.740109920501709,0.9009222388267517
0.49993896484375,-0.13029444217681885,0.16936364769935608,-0.14807221293449402,-0.3058890791498197,-1.3474838256888193,3.050110517333834,-0.9299015402793884,0.3011411130428314,-0.21118079125881195,2.037870168685913,-0.695716917514801,0.9465351104736328
0.5199370384216309,-0.22340309619903564,0.14676985144615173,-0.09714965522289276,-0.3144247716856102,-1.344355285210342,3.098627359157698,-0.9266974925994873,0.3092694878578186,-0.21350406110286713,2.2371718883514404,-0.4805576503276825,0.9194447994232178
0.5400278568267822,-0.2699669599533081,0.0819755494594574,-0.017908960580825806,-0.32248000854855025,-1.3369819662301639,-3.1362380518643573,-0.9226447939872742,0.3169197142124176,-0.21974673867225647,1.9921940565109253,-0.29947227239608765,0.920497715473175
0.5599570274353027,-0.3081167936325073,0.012253135442733765,0.03722625970840454,-0.3320893127262623,-1.3280749051448648,-3.0965172406418597,-0.9176522493362427,0.32601889967918396,-0.22721347212791443,1.4154783487319946,-0.08070941269397736,0.8980835676193237
0.5799319744110107,-0.3213789463043213,-0.04611435532569885,0.03802520036697388,-0.3434291396150604,-1.3176347671173962,-3.06887652564874,-0.9115921854972839,0.33671796321868896,-0.23584015667438507,0.856433093547821,0.18227127194404602,0.8589058518409729
0.5999329090118408,-0.2363426685333252,-0.061294496059417725,-0.007994353771209717,-0.35614442664834883,-1.3060881127204162,-3.0504636360526574,-0.9046027660369873,0.34866321086883545,-0.24521003663539886,0.5197865962982178,0.29407280683517456,0.8279668688774109
0.6199290752410889,-0.1023600697517395,-0.04908433556556702,-0.021152466535568237,-0.3695574676704009,-1.295284237891123,-3.037089068152442,-0.8973193764686584,0.36120280623435974,-0.25367358326911926,0.35255011916160583,0.3072134554386139,0.812375009059906
0.6399261951446533,-0.010845601558685303,-0.06685739755630493,0.011257171630859375,-0.3835008899474148,-1.2847628341225428,-3.0261427433967865,-0.8896823525428772,0.37416934967041016,-0.26165392994880676,0.2303532212972641,0.3546317517757416,0.81916743516922
0.6599709987640381,0.03061509132385254,-0.0993657112121582,0.05022239685058594,-0.398279490055901,-1.273151369152067,-3.0181386667758323,-0.8812010288238525,0.3878330588340759,-0.2703152298927307,0.05106069892644882,0.5114668011665344,0.8070250153541565
0.6799240112304688,0.07207918167114258,-0.1322312355041504,0.04711556434631348,-0.4131907092114753,-1.2599229640315388,-3.0131915427968865,-0.8719449043273926,0.4015335738658905,-0.28014782071113586,-0.052633605897426605,0.5849159359931946,0.7633599638938904
0.6999218463897705,0.13793575763702393,-0.13716012239456177,0.04814687371253967,-0.42778327506931224,-1.2474796977373583,-3.009758561554323,-0.8627435564994812,0.41485485434532166,-0.28908321261405945,-0.11355715245008469,0.4974901080131531,0.7293482422828674
0.7199141979217529,0.16006392240524292,-0.1428622007369995,0.08466383814811707,-0.4418601078848559,-1.2379285670479765,-3.0084587858031493,-0.8543387651443481,0.42762166261672974,-0.29537245631217957,-0.2666088044643402,0.40645259618759155,0.6528040170669556
0.7399170398712158,0.12790435552597046,-0.17311468720436096,0.12189272046089172,-0.45558842949297773,-1.2309917413706057,-3.0118655151902796,-0.8466542363166809,0.4399907886981964,-0.2993066906929016,-0.48288899660110474,0.4346701502799988,0.5474256873130798
0.7599551677703857,0.10053741931915283,-0.19048956036567688,0.1399153470993042,-0.46865808538478293,-1.2262274870863072,-3.0205059258383127,-0.8397341966629028,0.4516894817352295,-0.3013686537742615,-0.6747851967811584,0.41026848554611206,0.42829737067222595
0.7799160480499268,0.08702152967453003,-0.17530682682991028,0.14197289943695068,-0.4801848839665449,-1.224501275076259,-3.032555319540438,-0.8342596888542175,0.4619431495666504,-0.30103054642677307,-0.6976251006126404,0.309581458568573,0.2858414649963379
0.7999389171600342,0.058286428451538086,-0.1501217782497406,0.12616175413131714,-0.4881580818297248,-1.2249905546105873,-3.0448158924998308,-0.8309151530265808,0.4689998924732208,-0.2993643283843994,-0.5846899151802063,0.22129234671592712,0.0879037156701088
0.8199210166931152,0.0293276309967041,-0.1412448287010193,0.14041242003440857,-0.4914130185984059,-1.2265547217241775,-3.0564759254820575,-0.829940915107727,0.4718721807003021,-0.29754745960235596,-0.5116796493530273,0.17287962138652802,-0.13040320575237274
0.839914083480835,0.018386423587799072,-0.1446288824081421,0.16918551921844482,-0.4904921996741761,-1.2298591951683124,-3.0692503211470186,-0.8313288688659668,0.4710601270198822,-0.2949485182762146,-0.5368494391441345,0.08962850272655487,-0.33066481351852417
0.8600108623504639,0.0021924376487731934,-0.13622301816940308,0.16761663556098938,-0.4861744769658704,-1.2361921089947119,-3.0844564000843944,-0.8350933194160461,0.4672470688819885,-0.29034310579299927,-0.5907833576202393,-0.008516352623701096,-0.5250564217567444
0.879953145980835,-0.023004472255706787,-0.11082175374031067,0.1526944935321808,-0.4783776804390296,-1.2451454149569532,-3.1018764098979164,-0.8410856127738953,0.46033957600593567,-0.2840116620063782,-0.6197251081466675,-0.07303284853696823,-0.7156751751899719
0.8999230861663818,-0.04273635149002075,-0.08560103178024292,0.12789469957351685,-0.4671881883143881,-1.2556991809679925,-3.1209051257903155,-0.8488804697990417,0.45037758350372314,-0.2766984701156616,-0.6377676725387573,-0.11591542512178421,-0.8736879825592041
0.9199020862579346,-0.051175832748413086,-0.07064497470855713,0.10362398624420166,-0.4534409265933697,-1.2668665177069642,-3.1411466161861883,-0.8577444553375244,0.43806132674217224,-0.26902928948402405,-0.6998348832130432,-0.0888768807053566,-0.9890450239181519
0.9399111270904541,-0.04992955923080444,-0.05968090891838074,0.10489609837532043,-0.43836257741587825,-1.2772907185494893,3.119018031141429,-0.8667268753051758,0.4244574308395386,-0.2619548439979553,-0.8564697504043579,0.04685724526643753,-1.0563058853149414
0.9600279331207275,-0.016915857791900635,-0.059370964765548706,0.10336384177207947,-0.42381243169906196,-1.287064144483985,3.0920441461621055,-0.8750823736190796,0.41123858094215393,-0.25517356395721436,-1.096969723701477,0.058872539550065994,-1.0209773778915405
0.9800670146942139,-0.019138038158416748,-0.040253907442092896,0.11238908767700195,-0.41152811548923784,-1.3011338762214977,3.060805184479515,-0.8833887577056885,0.4000103175640106,-0.24416403472423553,-1.3127670288085938,-0.2344633787870407,-0.9577774405479431
0.9998440742492676,-0.1884840726852417,0.02251526713371277,0.1173626184463501,-0.3995612928340613,-1.321569767783544,3.026217017222199,-0.8927689790725708,0.38901421427726746,-0.22722597420215607,-1.4464845657348633,-0.35389524698257446,-1.0596225261688232
1.0198619365692139,-0.42770034074783325,0.07867622375488281,0.08244961500167847,-0.3829794971414365,-1.3378375553441175,2.990201704571005,-0.9024998545646667,0.3736857771873474,-0.21413299441337585,-1.3734554052352905,0.1805340051651001,-1.3508918285369873
1.039910078048706,-0.3691977858543396,0.08239895105361938,-0.017892539501190186,-0.3611457020232413,-1.3416765589596564,2.9566890636932994,-0.9110451340675354,0.3533462584018707,-0.2124694436788559,-1.1763447523117065,0.5349791049957275,-1.4555584192276
1.0599310398101807,-0.016832590103149414,0.12315762042999268,-0.13051742315292358,-0.33830639855282163,-1.342830171685778,2.9277812487666712,-0.9189126491546631,0.33188995718955994,-0.2131868451833725,-0.9278419017791748,0.2888925075531006,-1.3571730852127075
1.079909086227417,0.23214304447174072,0.13956427574157715,-0.139698326587677,-0.3182817525373258,-1.3482742620474628,2.904884236943773,-0.926356852054596,0.31293508410453796,-0.20960593223571777,-0.8033435940742493,-0.09830864518880844,-1.0732531547546387
1.0998961925506592,0.22185611724853516,0.08254978060722351,-0.08035850524902344,-0.30335275698984576,-1.3599496637395023,2.882911936505969,-0.9332056045532227,0.2987215518951416,-0.19973187148571014,-0.9247176647186279,-0.34864577651023865,-0.8790793418884277
1.1199700832366943,-0.002258598804473877,0.10462296009063721,-0.1111709475517273,-0.2896379527045687,-1.3726215483546602,2.8606817265014404,-0.9395900964736938,0.2856052815914154,-0.18867957592010498,-0.8328177332878113,-0.22803016006946564,-0.9343165755271912
1.1399140357971191,-0.1716378927230835,0.22382596135139465,-0.15302836894989014,-0.27199271386544366,-1.3802785834056452,2.842996083905565,-0.9458089470863342,0.26865142583847046,-0.18240568041801453,-0.4928286075592041,-0.06938467174768448,-1.1378023624420166
1.1599140167236328,-0.13253861665725708,0.27100539207458496,-0.1549176126718521,-0.24966181434229212,-1.3849798852211395,2.830869263067004,-0.9523155689239502,0.24707627296447754,-0.17902104556560516,-0.2738639712333679,-0.1347123682498932,-1.2548645734786987
1.1798899173736572,-0.008307278156280518,0.2587817311286926,-0.15200428664684296,-0.22598590693890197,-1.3923605677415731,2.8221743056581676,-0.9590998291969299,0.2240673154592514,-0.17297744750976562,-0.13155297935009003,-0.3949599266052246,-1.217793345451355
1.1990158557891846,0.010392606258392334,0.3002498149871826,-0.17363190650939941,-0.20253580836660667,-1.4022824261686313,2.81723120308572,-0.9656842947006226,0.2011539489030838,-0.16428928077220917,0.07419515401124954,-0.46711376309394836,-1.1880850791931152
1.219877004623413,-0.02034813165664673,0.3668166995048523,-0.21724849939346313,-0.17847126142773745,-1.4106209037788007,2.8177363796842383,-0.9715189337730408,0.1775253266096115,-0.15695807337760925,0.3921176493167877,-0.371764600276947,-1.1668701171875
1.239933967590332,0.03028416633605957,0.41209375858306885,-0.23488491773605347,-0.15480799978258658,-1.415169139967893,2.8257561917421055,-0.9761002063751221,0.15419039130210876,-0.15314611792564392,0.7258287668228149,-0.24632394313812256,-1.0080649852752686
1.2598950862884521,0.1369648575782776,0.4197039008140564,-0.2036074995994568,-0.13548927615198686,-1.4174226045729172,2.8386029044160903,-0.9792041778564453,0.13507512211799622,-0.1513729989528656,0.7819401621818542,-0.183836430311203,-0.6973639726638794
1.2798750400543213,0.19772076606750488,0.37842482328414917,-0.16556750237941742,-0.12309117912355586,-1.4184495205936205,2.8509752383023024,-0.9809390306472778,0.12278057634830475,-0.15060992538928986,0.5955028533935547,-0.10516566783189774,-0.34690552949905396
1.2998709678649902,0.21381103992462158,0.35110220313072205,-0.14515256881713867,-0.1179823373987726,-1.4190277734367034,2.860168863059119,-0.9816333055496216,0.11770880967378616,-0.1501355618238449,0.4087565243244171,-0.08613355457782745,-0.032340291887521744
1.3198840618133545,0.19489753246307373,0.37349772453308105,-0.1485702246427536,-0.11841697658695101,-1.4202319604794125,2.868688868251545,-0.981762707233429,0.11814042180776596,-0.14894570410251617,0.4738704562187195,-0.14640018343925476,0.18098287284374237
1.3398668766021729,0.15374237298965454,0.4160725474357605,-0.14067666232585907,-0.12141115235611313,-1.4216803375428229,2.8818224753885398,-0.981623113155365,0.12111309170722961,-0.1474703550338745,0.8040773272514343,-0.15554973483085632,0.29544731974601746
1.3598899841308594,0.13822907209396362,0.42583295702934265,-0.11668288707733154,-0.12496810868604288,-1.4220580439153638,2.903256975971094,-0.9812466502189636,0.12464308738708496,-0.14703482389450073,1.2517775297164917,-0.1661226749420166,0.3780994415283203
1.3798670768737793,0.16487568616867065,0.4184165298938751,-0.0868377685546875,-0.1290759380082629,-1.422478354612803,2.933216591031159,-0.9807936549186707,0.1287178248167038,-0.14654548466205597,1.6245570182800293,-0.2674182057380676,0.4728997051715851
1.3999550342559814,0.18106979131698608,0.39608103036880493,-0.0727267861366272,-0.13399791442690298,-1.4244858593545218,2.970896145115137,-0.9804471731185913,0.133597269654274,-0.14448212087154388,2.0112874507904053,-0.4170169532299042,0.5636286735534668
1.4198870658874512,0.17794430255889893,0.38711071014404297,-0.08187711238861084,-0.13930989277444414,-1.4272693904566724,3.016311554559259,-0.9801293611526489,0.13885971903800964,-0.14164896309375763,2.376924753189087,-0.49236860871315,0.6190984845161438
1.440018892288208,0.20415067672729492,0.37008440494537354,-0.08915819227695465,-0.14550415150590612,-1.431147179997963,3.0690946278771762,-0.9798007607460022,0.14499127864837646,-0.13772480189800262,2.7174232006073,-0.6655728816986084,0.7487443089485168
1.4598610401153564,0.2008238434791565,0.3561898469924927,-0.0937863439321518,-0.15410869483931572,-1.4376560665172673,3.1287383429443554,-0.9794034361839294,0.15349942445755005,-0.1311740279197693,3.0236499309539795,-0.885002613067627,0.9026985168457031
1.4798650741577148,0.08718615770339966,0.36158233880996704,-0.0964246392250061,-0.16458073494561518,-1.4461479576365628,-3.088092594131719,-0.9788334965705872,0.16383874416351318,-0.12264584749937057,3.3881094455718994,-0.982847273349762,0.9561634063720703
1.4998600482940674,-0.08667051792144775,0.36599409580230713,-0.09039121866226196,-0.17479634662817292,-1.4498564807290897,-3.014871143919312,-0.9775689840316772,0.1739075928926468,-0.11880684643983841,3.6023290157318115,-0.5860508680343628,0.9473670721054077
1.5198791027069092,-0.1085854172706604,0.31154656410217285,-0.014832772314548492,-0.18559548830148823,-1.4441601015509975,-2.941273028951728,-0.9749562740325928,0.1845318228006363,-0.1241290345788002,3.39241099357605,-0.21760699152946472,1.0446498394012451
1.5399930477142334,-0.012475073337554932,0.22389940917491913,0.08271783590316772,-0.20038196117865092,-1.4344294287945227,-2.875100839622273,-0.9708928465843201,0.1990436613559723,-0.1332244724035263,2.8477156162261963,-0.10642755776643753,1.2878762483596802
1.5598499774932861,-0.010690391063690186,0.16664040088653564,0.1435968279838562,-0.22090940659445613,-1.4239717906142775,-2.8190383553338427,-0.9652007222175598,0.21911701560020447,-0.1427423506975174,2.3326189517974854,-0.0037110333796590567,1.4991477727890015
1.5798671245574951,-0.10663372278213501,0.16746880114078522,0.18262644112110138,-0.24408140274426887,-1.4110351231813187,-2.7693405179454618,-0.9580023884773254,0.2416650503873825,-0.15436719357967377,2.1980412006378174,0.1450985074043274,1.5119800567626953
1.599843978881836,-0.18284088373184204,0.2210623323917389,0.19421319663524628,-0.2648730855702831,-1.3934431736617028,-2.7158327159773945,-0.94998699426651,0.2617867887020111,-0.17027220129966736,2.65028977394104,0.2326463758945465,1.3960049152374268
1.619887113571167,-0.21408343315124512,0.3064044415950775,0.2126408964395523,-0.2793210157558401,-1.3707597434115304,-2.6494199578022926,-0.9420749545097351,0.2757030427455902,-0.1910039335489273,3.364184617996216,0.2403014600276947,1.2194558382034302
1.639841079711914,-0.1966238021850586,0.2916140854358673,0.289959192276001,-0.28646060130883283,-1.343754519615106,-2.571939500973111,-0.9346323013305664,0.2825588285923004,-0.21592354774475098,3.6674392223358154,0.27142050862312317,1.0550299882888794
1.6598479747772217,-0.15230023860931396,0.1936120092868805,0.42896032333374023,-0.2893197216731898,-1.3163514952304722,-2.495948289750361,-0.9275794625282288,0.28530028462409973,-0.24124668538570404,3.263573408126831,0.2879183292388916,0.9573342204093933
1.679837942123413,-0.14277976751327515,0.12440058588981628,0.5497938394546509,-0.292263737501733,-1.2904469904384503,-2.4326927988310287,-0.9202085137367249,0.28812071681022644,-0.2649580240249634,2.497542381286621,0.4896482527256012,0.9377850294113159
1.6998369693756104,-0.1356526017189026,0.08534044027328491,0.5651077032089233,-0.2980665852796629,-1.2650489271894314,-2.3846926915289104,-0.9115733504295349,0.2936725914478302,-0.2877334654331207,1.7854901552200317,0.6223190426826477,0.9311276078224182
1.7198541164398193,-0.09314686059951782,0.11176595091819763,0.506545901298523,-0.3055005545669313,-1.241661615119127,-2.346749030313705,-0.9025043249130249,0.3007705807685852,-0.3082578778266907,1.5157040357589722,0.5304317474365234,0.8996351957321167
1.7398250102996826,-0.04175931215286255,0.1820235550403595,0.4608140289783478,-0.31185234244813465,-1.2225253223581822,-2.3098648594046978,-0.8946267366409302,0.30682215094566345,-0.3248124420642853,1.6281580924987793,0.2658838927745819,0.8660473227500916
1.759831190109253,-0.0310857892036438,0.2160090208053589,0.4744625985622406,-0.31579443023888387,-1.206034528874883,-2.2692910044129873,-0.8880120515823364,0.31057170033454895,-0.3390865921974182,1.8358255624771118,0.13218216598033905,0.8369978070259094
1.779832124710083,-0.036020874977111816,0.19390416145324707,0.541061520576477,-0.3180533443081807,-1.1905274983502703,-2.2269784104711703,-0.8819936513900757,0.31271812319755554,-0.35255444049835205,1.814542531967163,0.11107324808835983,0.8310306072235107
1.7998778820037842,-0.013496041297912598,0.1480528712272644,0.5837093591690063,-0.32086451816324496,-1.1759308259220702,-2.1864492720529887,-0.8759388327598572,0.3153870701789856,-0.3650510013103485,1.6353493928909302,0.03923510015010834,0.8732167482376099
1.8198540210723877,-0.005520522594451904,0.13109594583511353,0.5773574113845825,-0.3251493499442878,-1.1652654697252034,-2.149472739795517,-0.8707459568977356,0.319450318813324,-0.3738356828689575,1.4467438459396362,-0.1522965133190155,0.8819628953933716
1.8398258686065674,-0.04371768236160278,0.14490726590156555,0.5651434659957886,-0.3301430884162858,-1.1586717857143203,-2.116226529207483,-0.8667895197868347,0.32417839765548706,-0.3789252042770386,1.250915288925171,-0.22958552837371826,0.8167650103569031
1.85984206199646,-0.05310416221618652,0.1333429515361786,0.5613927841186523,-0.3348386815756658,-1.1540928174634084,-2.0868915548729765,-0.8636438250541687,0.32861682772636414,-0.38226985931396484,1.109734058380127,-0.2779352366924286,0.7392160296440125
1.8798329830169678,0.0044258832931518555,0.1137896180152893,0.555735170841217,-0.3401177207863051,-1.152258568667934,-2.0607990280464525,-0.8613441586494446,0.3335980772972107,-0.38314297795295715,0.928617537021637,-0.4363632798194885,0.7441302537918091
1.8998260498046875,0.036015212535858154,0.08047866821289062,0.5499111413955688,-0.3467304330845885,-1.1554059939524406,-2.0381930548482634,-0.8605085611343384,0.3398246467113495,-0.37953153252601624,0.7597076296806335,-0.6277353763580322,0.7192341089248657
1.9198939800262451,0.0031669139862060547,0.021911948919296265,0.52907794713974,-0.35406106011060184,-1.1622370694999253,-2.0191500056508365,-0.860771894454956,0.34670981764793396,-0.3726448118686676,0.5984007716178894,-0.6915525794029236,0.6622992157936096
1.939913034439087,-0.02303987741470337,-0.028248578310012817,0.4747404456138611,-0.3609237916043198,-1.17102723095074,-2.003022134895406,-0.8618020415306091,0.35313865542411804,-0.36412951350212097,0.5440431833267212,-0.771213710308075,0.5530475378036499
1.9599499702453613,-0.016031980514526367,-0.0068180859088897705,0.38555610179901123,-0.36498037289099966,-1.1820503421355875,-1.9871491965662729,-0.8644306659698486,0.3569309711456299,-0.35406196117401123,0.7190019488334656,-0.8986180424690247,0.4088423252105713
1.9799559116363525,0.01050335168838501,-0.030300170183181763,0.3127545714378357,-0.36574693470343045,-1.1943322970912897,-1.9677377291831153,-0.8684592247009277,0.3576469123363495,-0.3433179259300232,0.9002774953842163,-1.0165643692016602,0.33310219645500183
1.999826192855835,0.014660775661468506,-0.08497852087020874,0.3067627549171448,-0.36474065293943175,-1.207459419453525,-1.9481198424588342,-0.873227059841156,0.35670700669288635,-0.3320160508155823,0.825086236000061,-0.9807553291320801,0.24486346542835236
2.019926071166992,-0.0036864876747131348,-0.15257886052131653,0.2933046221733093,-0.36379767550343045,-1.2202641526702371,-1.932376849573218,-0.8777222037315369,0.35582593083381653,-0.3209230601787567,0.5824412107467651,-0.8483511209487915,0.17297804355621338
2.039813995361328,-0.028079986572265625,-0.17949333786964417,0.2510855793952942,-0.36310981085308863,-1.2315272698104254,-1.922423421194246,-0.8815116286277771,0.3551829755306244,-0.3110983967781067,0.3404613435268402,-0.6437304019927979,0.07849731296300888
2.059859037399292,-0.0410078763961792,-0.18348297476768494,0.11234846711158752,-0.3608494033594793,-1.24143286729467,-1.9156698750136938,-0.8853073716163635,0.3530690670013428,-0.30261027812957764,0.377122163772583,-0.6012436151504517,-0.09809022396802902
2.079936981201172,-0.0382266640663147,-0.1487322449684143,0.06022787094116211,-0.35520555360037,-1.251215036653137,-1.9095934222864455,-0.8901028037071228,0.34778308868408203,-0.2945570945739746,0.30709078907966614,-0.5601214170455933,-0.2470109909772873
2.1000590324401855,-0.04867035150527954,-0.23156866431236267,0.09756016731262207,-0.34832630893591104,-1.2593809690478344,-1.9079866535775458,-0.894734799861908,0.3413251042366028,-0.28800511360168457,-0.028316611424088478,-0.2849116325378418,-0.35303059220314026
2.119824171066284,-0.01622551679611206,-0.3142163157463074,0.06776410341262817,-0.3430617791168727,-1.2659535409877671,-1.9161475624080215,-0.8983100056648254,0.3363720178604126,-0.2826536297798157,-0.4609496295452118,-0.17146426439285278,-0.3767278790473938
2.1400060653686523,0.04757344722747803,-0.30701056122779846,-0.07022327184677124,-0.33862184975498516,-1.2752733278245008,-1.9281395761020506,-0.9023250341415405,0.3321875035762787,-0.27470168471336365,-0.5037350058555603,-0.3623497188091278,-0.3850097358226776
2.1599318981170654,0.04333686828613281,-0.19918155670166016,-0.059237271547317505,-0.3338909146093351,-1.2887995399591636,-1.9410921077020098,-0.9074572920799255,0.3277215361595154,-0.2629062235355377,-0.49798688292503357,-0.5770663619041443,-0.42869752645492554
2.179882049560547,-0.08821684122085571,-0.1766837239265442,-0.0466882586479187,-0.3277533793992965,-1.3066069661395792,-1.9538150031865584,-0.9139193296432495,0.3219168186187744,-0.2472265213727951,-0.49575358629226685,-0.7250982522964478,-0.4831730127334595
2.199855089187622,-0.25895315408706665,-0.13983190059661865,-0.03647133708000183,-0.320057693842098,-1.321918837526962,-1.9652002782063096,-0.9199715256690979,0.31462132930755615,-0.23380759358406067,-0.3217929005622864,-0.3946281671524048,-0.5440489053726196
2.228654146194458,0.015650808811187744,-0.1107771098613739,-0.12645497918128967,-0.29921219809590394,-1.3419647633627694,-1.9730111113888016,-0.9306592345237732,0.29476749897003174,-0.21676096320152283,0.24079349637031555,-0.7256972193717957,-0.5186280608177185
2.2483460903167725,0.12068641185760498,-0.11689174175262451,-0.10005681216716766,-0.28879711583626777,-1.3579502666875471,-1.9695057332782049,-0.9369552731513977,0.28479936718940735,-0.20249441266059875,0.26433876156806946,-0.9269706606864929,-0.44260090589523315
2.2672650814056396,0.10337966680526733,-0.17529022693634033,-0.07513903081417084,-0.2793581692500282,-1.3748690922737004,-1.9675585616253666,-0.9428417682647705,0.27573874592781067,-0.18712900578975677,0.10544712096452713,-0.8050439953804016,-0.43613743782043457
2.288015127182007,0.12258529663085938,-0.16443204879760742,-0.057366132736206055,-0.27165811112390514,-1.39089541113697,-1.9681692999972156,-0.9477806091308594,0.26832911372184753,-0.17237018048763275,-0.006747059989720583,-0.8325062394142151,-0.31101012229919434
2.309669017791748,0.11472940444946289,-0.12176644802093506,-0.07926058769226074,-0.2669388862443792,-1.4081791996741062,-1.9684268897862547,-0.9518570899963379,0.26377996802330017,-0.15616728365421295,0.0910317525267601,-0.8207935094833374,-0.1614232063293457
2.3196539878845215,0.11472940444946289,-0.12176644802093506,-0.07926058769226074,-0.2669388862443792,-1.4081791996741062,-1.9684268897862547,-0.9518570899963379,0.26377996802330017,-0.15616728365421295,0.0910317525267601,-0.8207935094833374,-0.1614232063293457
2.3493120670318604,0.13810515403747559,-0.1835031509399414,0.005722463130950928,-0.2640921781941512,-1.4310199277114304,-1.965462103979189,-0.9559152722358704,0.2610330283641815,-0.13449139893054962,0.05349386855959892,-0.47043225169181824,0.03266853094100952
2.3672330379486084,0.22974538803100586,-0.27135169506073,0.005782708525657654,-0.2642540896507256,-1.4403470495011104,-1.9615578257925876,-0.9570861458778381,0.2611893117427826,-0.12556424736976624,0.32732468843460083,-0.5513284206390381,0.04613479971885681
2.3878018856048584,0.26490265130996704,-0.2838096618652344,-0.09661149233579636,-0.26388170730789656,-1.450293461884641,-1.9533502805043947,-0.9583840370178223,0.2608298361301422,-0.11605028808116913,0.46788468956947327,-0.6826335191726685,-0.028093736618757248
2.406831979751587,0.26358741521835327,-0.27191340923309326,-0.12058532238006592,-0.26014340352370613,-1.4622901183023567,-1.9446680904570826,-0.9606698751449585,0.257219135761261,-0.10464967042207718,0.3547186255455017,-0.7378913164138794,-0.24360628426074982
2.4283339977264404,0.2697368860244751,-0.2838197648525238,-0.09347731620073318,-0.2537269955870527,-1.4784508253848525,-1.9409252132516055,-0.9638593196868896,0.2510133683681488,-0.08926194906234741,0.04368571564555168,-0.9944044351577759,-0.3293490707874298
2.4481098651885986,0.19864755868911743,-0.25175368785858154,-0.1324746012687683,-0.24716730745988888,-1.4994288969870906,-1.9424113692426566,-0.9671412110328674,0.24465833604335785,-0.06913980841636658,-0.05942903459072113,-1.023030400276184,-0.33609381318092346
2.4675140380859375,0.09429895877838135,-0.16489078104496002,-0.18246036767959595,-0.24011307322708167,-1.5176532027875356,-1.9430943951414028,-0.9699397683143616,0.23781245946884155,-0.05159420892596245,0.01774749718606472,-0.7425880432128906,-0.38043832778930664
2.487355947494507,0.10838335752487183,-0.10496346652507782,-0.18565410375595093,-0.23158547340866192,-1.5298675694887633,-1.9429953666220279,-0.9724887013435364,0.22952096164226532,-0.03982499614357948,0.021417267620563507,-0.5576059222221375,-0.4639093279838562
2.506577968597412,0.20042353868484497,-0.09079974889755249,-0.2107868790626526,-0.22259239597427927,-1.5405837057243674,-1.9423291093591504,-0.9748833775520325,0.22075879573822021,-0.029462747275829315,0.0891333669424057,-0.5577619075775146,-0.41678333282470703
2.5264089107513428,0.19607681035995483,-0.0803026407957077,-0.24028903245925903,-0.21432495446742758,-1.5518776334066602,-1.939398165029748,-0.9769454598426819,0.2126878798007965,-0.01848473586142063,0.24327553808689117,-0.6115002036094666,-0.40856143832206726
2.5463550090789795,0.08777552843093872,-0.05262118577957153,-0.32535719871520996,-0.206318696278582,-1.5617326524191804,-1.9318429567578326,-0.9787514805793762,0.20485806465148926,-0.008871328085660934,0.488276869058609,-0.5151901245117188,-0.41137319803237915
2.5680229663848877,0.021302103996276855,0.015145108103752136,-0.2539796233177185,-0.1966919447973543,-1.5676816050113755,-1.9237622909342353,-0.9807137250900269,0.19542613625526428,-0.003054660279303789,0.2427101582288742,-0.21224933862686157,-0.547376275062561
2.5872719287872314,0.036414265632629395,-0.02072732150554657,-0.14746952056884766,-0.1851748876233696,-1.5686161370349299,-1.9231073346502334,-0.9829017519950867,0.18411843478679657,-0.0021429157350212336,-0.1902034729719162,0.0697326511144638,-0.5764291882514954
2.6060800552368164,0.04832953214645386,-0.02235381305217743,-0.18169009685516357,-0.17387867568167284,-1.5669889065134228,-1.9293471576639325,-0.9849139451980591,0.17300383746623993,-0.003749999450519681,-0.33601847290992737,0.18406924605369568,-0.5448665022850037
2.626955032348633,0.014536082744598389,0.07120299339294434,-0.25910407304763794,-0.1635182098564236,-1.5648058182959157,-1.9329440346835634,-0.9866430163383484,0.16279049217700958,-0.005910563748329878,0.06495793908834457,0.10388759523630142,-0.5205657482147217
2.6474711894989014,-0.08279186487197876,0.13472244143486023,-0.2809321880340576,-0.15306010460507535,-1.5617050985900465,-1.927765545685162,-0.9882683157920837,0.1524631679058075,-0.008984819985926151,0.39306074380874634,0.15524524450302124,-0.5287923812866211
2.6670470237731934,-0.1465510129928589,0.1372775435447693,-0.16039526462554932,-0.14205408640484746,-1.554852381251817,-1.9202362885749837,-0.9898014664649963,0.14157681167125702,-0.015782678499817848,0.2616617977619171,0.4372020959854126,-0.5485115051269531
2.6871490478515625,-0.12093085050582886,0.0657900720834732,-0.01323622465133667,-0.13179567599314446,-1.543632525789518,-1.9205591492028764,-0.9909618496894836,0.13141445815563202,-0.026924913749098778,-0.263338178396225,0.6689594984054565,-0.4878864884376526
2.706860065460205,-0.1473006010055542,0.048402152955532074,-0.07776468992233276,-0.1220359621668257,-1.5303906694045402,-1.9270127205976795,-0.991752564907074,0.12173327803611755,-0.04009423777461052,-0.23922397196292877,0.7266724705696106,-0.5303520560264587
2.7266640663146973,-0.18277877569198608,0.20127999782562256,-0.10978132486343384,-0.10920911649705618,-1.5164547488145663,-1.931314124236277,-0.9925752282142639,0.10899216681718826,-0.05399125814437866,-0.11453143507242203,0.6674234867095947,-0.8009704351425171
2.746685028076172,-0.22852396965026855,0.10718842595815659,-0.045013248920440674,-0.08871340022056791,-1.5039400928056839,-1.934896043909629,-0.9938423037528992,0.08859708160161972,-0.06654372811317444,-0.37340471148490906,0.7351894974708557,-1.5216718912124634
2.7666079998016357,-0.23666280508041382,-0.16808025538921356,0.2215694785118103,-0.06274420826949502,-1.4910295741149546,-1.955301711594903,-0.9948588013648987,0.06270305067300797,-0.07952539622783661,-1.4826191663742065,1.0370674133300781,-1.0041801929473877
2.7858190536499023,-0.23638176918029785,-0.4126075208187103,0.2914912700653076,-0.04868932722568063,-1.4693031350500734,-1.9968838999149139,-0.9936749339103699,0.04867009073495865,-0.1011989563703537,-2.4863479137420654,1.1466511487960815,-0.9109249114990234
2.806601047515869,-0.16325342655181885,-0.12170980870723724,0.23353701829910278,-0.03858949168294592,-1.4514043785713109,-2.0511785587436435,-0.9921420216560364,0.03857991471886635,-0.11901982873678207,-2.5790281295776367,0.8799607157707214,-0.6545003056526184
2.8268120288848877,-0.17715203762054443,0.13109219074249268,0.12370097637176514,-0.0323045268892247,-1.438123018634544,-2.0963910435280306,-0.9906945824623108,0.03229890763759613,-0.13221539556980133,-1.8039830923080444,0.633922815322876,-0.5838993191719055
2.846627950668335,-0.21892207860946655,0.1146937757730484,0.10366417467594147,-0.024697762557664257,-1.427629093715268,-2.1255495789331613,-0.9894671440124512,0.024695251137018204,-0.14263513684272766,-0.9483016729354858,0.4934827387332916,-0.5307645201683044
2.8663718700408936,-0.14367395639419556,0.09965504705905914,0.06774412095546722,-0.019441005241102753,-1.4196084506997955,-2.1373720975178676,-0.9884061813354492,0.019439781084656715,-0.1505841165781021,-0.20300079882144928,0.3101136386394501,-0.155603289604187
2.8863308429718018,-0.08731436729431152,0.10041409730911255,0.0991038829088211,-0.019109144435831726,-1.4153288101141228,-2.1358746004862192,-0.9877588152885437,0.019107980653643608,-0.1548137068748474,0.3001910448074341,0.1723783314228058,0.1436452716588974
2.907118082046509,-0.1484670639038086,0.061228252947330475,0.11527109146118164,-0.021369174174355746,-1.410213298781225,-2.126639235011564,-0.9869089126586914,0.021367548033595085,-0.15985725820064545,0.5836665630340576,0.3166810870170593,0.20349614322185516
2.9264519214630127,-0.16256457567214966,0.05117245763540268,0.06587512791156769,-0.02349094701569846,-1.4026742646779702,-2.1132111290223485,-0.9856287240982056,0.023488786071538925,-0.1672850102186203,0.6409913301467896,0.38678666949272156,0.19295471906661987
2.9463160037994385,-0.13327258825302124,0.07758995145559311,0.06422041356563568,-0.02325745299427281,-1.3955563419262689,-2.1011597305287744,-0.984418511390686,0.023255355656147003,-0.17429731786251068,0.5099049806594849,0.30860424041748047,0.022503981366753578
2.9661128520965576,-0.14111804962158203,0.02416776865720749,0.07588215172290802,-0.022068108031483718,-1.388189684066573,-2.093482306672059,-0.9831342101097107,0.02206631749868393,-0.18154926598072052,0.2947922646999359,0.38112807273864746,-0.01619863137602806
2.9862589836120605,-0.15443474054336548,-0.022265348583459854,0.060867369174957275,-0.02008466871111462,-1.3794526908288691,-2.0885270383732397,-0.9815515875816345,0.020083317533135414,-0.19013981521129608,0.24915418028831482,0.4929478168487549,-0.06942803412675858
3.0061419010162354,-0.13174068927764893,0.08882293850183487,0.028513669967651367,-0.01628028815485618,-1.3707277343215447,-2.0821541390308917,-0.9799230694770813,0.016279568895697594,-0.19871021807193756,0.4885976016521454,0.4132813811302185,-0.163257896900177
3.0252180099487305,-0.13240081071853638,0.11563053727149963,0.043126076459884644,-0.010147811276892007,-1.3609463192213953,-2.071237072875146,-0.9780116677284241,0.010147636756300926,-0.20830245316028595,0.7105699777603149,0.5300316214561462,-0.2507738471031189
3.045799970626831,-0.1525171399116516,0.07422561943531036,0.06827980279922485,-0.001824141632096331,-1.3497030538193253,-2.0584789515642785,-0.9756566882133484,0.0018241406651213765,-0.21929605305194855,0.6841291785240173,0.5755239725112915,-0.2536492645740509
3.067131996154785,-0.14884287118911743,0.08030783385038376,-0.002744317054748535,0.006623227913429323,-1.3397032025662106,-2.0468036237678957,-0.9733952879905701,-0.006623179651796818,-0.22903671860694885,0.6495113372802734,0.41762298345565796,-0.2822308838367462
3.0821189880371094,-0.12769955396652222,0.11449267715215683,-0.05237153172492981,0.013678313301615314,-1.3337306302041747,-2.035344891242764,-0.9719403982162476,-0.013677886687219143,-0.23482945561408997,0.624629557132721,0.21242409944534302,-0.15831169486045837
3.1042890548706055,-0.15508884191513062,0.1070142462849617,-0.0532228946685791,0.019246917572510222,-1.3290866990446604,-2.023531000988323,-0.9707503914833069,-0.019245728850364685,-0.2393185794353485,0.663356602191925,0.3193415105342865,-0.1288047730922699
3.1258749961853027,-0.20583254098892212,0.10120580345392227,0.009356141090393066,0.023846038187331137,-1.322341278126795,-2.010851695790885,-0.9690179228782654,-0.023843778297305107,-0.24583682417869568,0.7033106088638306,0.3998721241950989,0.08476895838975906
3.146127939224243,-0.2163206934928894,0.1749679297208786,-0.02202141284942627,0.02264141991738866,-1.3152933533177948,-1.9974291451154056,-0.9672883152961731,-0.022639485076069832,-0.25266730785369873,0.5408293604850769,0.2270897775888443,0.3571304678916931
3.165735960006714,-0.2503398060798645,0.28072115778923035,-0.11773207783699036,0.01869834257836821,-1.3154959663426977,-1.9873747671829232,-0.9674183130264282,-0.018697252497076988,-0.25249189138412476,0.2955162823200226,-0.5279864072799683,0.3367080092430115
3.1855599880218506,-0.19466006755828857,0.24652548134326935,-0.15143316984176636,0.014973937948233863,-1.3283235649039127,-1.9629124603563346,-0.9706383943557739,-0.014973378740251064,-0.24007686972618103,1.1147000789642334,-0.6378668546676636,0.8493574261665344
3.205432176589966,-0.2504427433013916,0.13305801153182983,0.003668069839477539,0.006547456157655113,-1.342081579341361,-1.9309838194323112,-0.9739376902580261,-0.006547409575432539,-0.22672106325626373,1.6763609647750854,-0.5445588827133179,0.804613471031189
3.2254390716552734,-0.3977375626564026,0.25031179189682007,0.09317493438720703,-0.0014429244081561176,-1.3434033589129226,-1.895115203915403,-0.9742564558982849,0.0014429239090532064,-0.22543814778327942,1.6012331247329712,0.28111979365348816,0.6669036149978638
3.2446839809417725,-0.3951655626296997,0.16193149983882904,-0.01822391152381897,-0.007364817855677917,-1.337404369122931,-1.8665515972045121,-0.9728612303733826,0.0073647513054311275,-0.2312725931406021,0.9883824586868286,0.22613254189491272,0.6853538751602173
3.265641927719116,-0.1991230845451355,0.015524206683039665,0.06300142407417297,-0.019984294302236798,-1.3363406674631404,-1.852332915937819,-0.972446620464325,0.019982963800430298,-0.23226715624332428,0.19073961675167084,-0.10743174701929092,0.8345407247543335
3.2846429347991943,-0.2031061053276062,0.09648958593606949,0.09865601360797882,-0.03694164094641075,-1.3394321177582993,-1.845085411236047,-0.9726902842521667,0.03693323954939842,-0.22914911806583405,0.22330908477306366,-0.22695645689964294,0.9807640314102173
3.3054211139678955,-0.2089085578918457,0.18453878164291382,0.061313748359680176,-0.05665665837628886,-1.344318878220256,-1.833674619117431,-0.972899854183197,0.05662635341286659,-0.2241860330104828,0.3482218086719513,-0.2631014287471771,1.244098424911499
3.3252460956573486,-0.27334946393966675,0.12344107776880264,0.10187865793704987,-0.08273847284977522,-1.3477398395623685,-1.823472276155237,-0.9718897342681885,0.08264410495758057,-0.22045467793941498,0.051056649535894394,-0.11787595599889755,1.5411670207977295
3.3450839519500732,-0.3523566722869873,0.13785377144813538,0.12066593766212463,-0.11545424789219834,-1.348020730672173,-1.8176350182731282,-0.9687949419021606,0.11519792675971985,-0.21946658194065094,-0.11525071412324905,-0.01376153714954853,1.798766851425171
3.365126848220825,-0.31453853845596313,0.15588507056236267,0.14358176290988922,-0.15469823379208783,-1.3474771424775058,-1.810048121708755,-0.9635223150253296,0.15408194065093994,-0.21882285177707672,0.04015233740210533,-0.07654023170471191,2.2037203311920166
3.385154962539673,-0.31138545274734497,0.12839871644973755,0.10753661394119263,-0.19914793469846417,-1.3473768295719526,-1.7921387502716621,-0.9558722376823425,0.19783417880535126,-0.21718628704547882,0.7484073638916016,-0.20899778604507446,2.5251471996307373
3.4050800800323486,-0.3414149284362793,0.15096163749694824,0.09805357456207275,-0.24519512357352333,-1.3452820337913738,-1.759104021221664,-0.9455265998840332,0.24274562299251556,-0.21691955626010895,1.3497099876403809,-0.3444868326187134,2.672820806503296
3.425446033477783,-0.39972567558288574,0.05808892846107483,0.07254904508590698,-0.29326462525767066,-1.3428138378261092,-1.715711566865936,-0.932534396648407,0.2890790104866028,-0.21636313199996948,1.514393925666809,-0.6190468668937683,2.953371286392212
3.4453020095825195,-0.4663430452346802,0.048638761043548584,0.17461800575256348,-0.3467736178787085,-1.343005498242628,-1.673385848963222,-0.9161795377731323,0.3398652672767639,-0.21238349378108978,1.1480274200439453,-0.5537119507789612,3.2486751079559326
3.4647271633148193,-0.5226969122886658,-0.07737037539482117,0.22165371477603912,-0.40646356700641195,-1.3405257126103625,-1.6374292701407194,-0.894279956817627,0.3953635096549988,-0.20964500308036804,0.8486763834953308,-0.6310338973999023,3.295367479324341
3.485111951828003,-0.4141796827316284,-0.04930266737937927,0.16040927171707153,-0.4669857445094711,-1.3416463346632839,-1.60160685549802,-0.8695880174636841,0.4501968026161194,-0.20282873511314392,0.9404150247573853,-1.0058012008666992,3.3458335399627686
3.504693031311035,-0.37260913848876953,-0.1200762391090393,0.2175244688987732,-0.5277145310511707,-1.3426011227741985,-1.561670515621039,-0.8415632247924805,0.5035601258277893,-0.1954450011253357,1.0993311405181885,-0.9471348524093628,3.382351875305176
3.524596929550171,-0.34232085943222046,-0.13668662309646606,0.16360419988632202,-0.5850541071733008,-1.3429925519680113,-1.5213893092554025,-0.812143862247467,0.5522444844245911,-0.18827761709690094,0.9480559229850769,-1.2715890407562256,2.970167398452759
3.5446150302886963,-0.23812061548233032,-0.15912067890167236,0.09708498418331146,-0.6374595455575037,-1.3479857260256645,-1.4836132693912432,-0.783745288848877,0.5951558351516724,-0.17757508158683777,0.9390988349914551,-1.3741315603256226,2.8385074138641357
3.56449818611145,-0.14534801244735718,-0.17139697074890137,0.03405427932739258,-0.684582607960148,-1.351838821534829,-1.4416252702794823,-0.7561870217323303,0.6323497295379639,-0.1682705581188202,1.3415627479553223,-1.6211360692977905,2.507040500640869
3.584529161453247,-0.06767696142196655,-0.11219346523284912,-0.010357320308685303,-0.7257232547540944,-1.3494976174827606,-1.387753158032983,-0.7297779321670532,0.6636766195297241,-0.1641879677772522,1.6766023635864258,-1.6016565561294556,2.3780648708343506
3.6045730113983154,-0.03041970729827881,-0.20399069786071777,0.015181183815002441,-0.7609809846538296,-1.3424313579072429,-1.329504387436594,-0.7053591012954712,0.6896321773529053,-0.16393910348415375,1.7286871671676636,-1.6226308345794678,2.0884945392608643
3.623530149459839,0.04768061637878418,-0.256757915019989,-0.016282960772514343,-0.7927172695807307,-1.3330687815430695,-1.2707912614849193,-0.6821715235710144,0.7122631669044495,-0.16529662907123566,1.6163817644119263,-1.6191747188568115,1.905259132385254
3.6440839767456055,0.11894512176513672,-0.3080630302429199,-0.042744383215904236,-0.8190575002533669,-1.3226386095890703,-1.2110068578506472,-0.6619901061058044,0.7305024862289429,-0.16773535311222076,1.8442349433898926,-1.6262788772583008,1.6878083944320679
3.666672945022583,0.1938280463218689,-0.27462661266326904,-0.05395150184631348,-0.8373975226229006,-1.3017705032728808,-1.1397811079506346,-0.6453203558921814,0.7429035305976868,-0.17792102694511414,2.432046413421631,-1.5404866933822632,1.2844767570495605
3.6872050762176514,0.26299476623535156,-0.23849886655807495,-0.0817427933216095,-0.8418383476863062,-1.262403671276717,-1.048698410809428,-0.6346684098243713,0.7458688616752625,-0.2021775245666504,3.207930326461792,-1.2458049058914185,0.8903120756149292
3.702072858810425,0.3715904951095581,-0.3202117681503296,-0.031972095370292664,-0.833450580654133,-1.2057733329439355,-0.9455726288152005,-0.6280295848846436,0.7402557134628296,-0.24000051617622375,3.4810705184936523,-0.8522106409072876,0.6005388498306274
3.720576047897339,0.49491989612579346,-0.3998138904571533,-0.03018525242805481,-0.8157785547569391,-1.1500044102297131,-0.8457044308264863,-0.6255199313163757,0.7282593846321106,-0.2799343764781952,3.5219194889068604,-0.9588702917098999,0.39885571599006653
3.739784002304077,0.5677424073219299,-0.3386356830596924,-0.009250044822692871,-0.7882913485708484,-1.0960471216669398,-0.7428814921054788,-0.6270838379859924,0.7091495990753174,-0.32229289412498474,4.23708438873291,-1.0698578357696533,0.1777310073375702
3.7588350772857666,0.49389904737472534,-0.08018136024475098,0.17495673894882202,-0.7443816826852694,-1.0474402371671983,-0.6378913882984019,-0.6370570063591003,0.6775171756744385,-0.36759892106056213,4.438799858093262,-1.1660302877426147,-0.3242335915565491
3.7795960903167725,0.3800097703933716,-0.18395167589187622,0.15328282117843628,-0.693712460033257,-1.0023292869367664,-0.5419005311293758,-0.6479541063308716,0.6393960118293762,-0.4139181971549988,4.228794097900391,-0.8620344996452332,-0.35095685720443726
3.799659013748169,0.2761539816856384,-0.236283540725708,0.22146767377853394,-0.6473686574877687,-0.9636013076434613,-0.4670400458978694,-0.6550907492637634,0.6030895709991455,-0.45512548089027405,2.983330726623535,-0.30239376425743103,-0.052894946187734604
3.8196170330047607,0.40530407428741455,-0.34898895025253296,0.19183582067489624,-0.6179507957054761,-0.9494978617143119,-0.4114229123542759,-0.6627503633499146,0.579366147518158,-0.47444382309913635,2.516671657562256,-2.0458245277404785,0.04732580482959747
3.8424370288848877,0.31898266077041626,-0.10201483964920044,0.2688747048377991,-0.5895586720023565,-0.9638305340017486,-0.36518744976155554,-0.6827216148376465,0.5559942722320557,-0.4740900993347168,2.741438627243042,-1.9462242126464844,-0.1592416614294052
3.859621047973633,-0.46049803495407104,-0.5114367604255676,0.03329712152481079,-0.564178358510669,-0.9686859529556112,-0.3309045099396299,-0.696423351764679,0.5347216725349426,-0.4786095917224884,0.6612770557403564,-0.4082353413105011,-0.24707679450511932
3.87962007522583,-0.05857008695602417,-0.48029381036758423,0.2021614909172058,-0.5619050427096083,-0.987217284979709,-0.33282032383092736,-0.7061851024627686,0.5327993035316467,-0.4662910997867584,-0.16596727073192596,-1.6809680461883545,0.026244396343827248
3.901298999786377,0.09571307897567749,-0.05678433179855347,0.1838395595550537,-0.5615243948176204,-1.0258148631716055,-0.329486779812011,-0.7238258719444275,0.5324771404266357,-0.4387986958026886,0.3016594648361206,-1.9141267538070679,-0.01785401999950409
3.9205620288848877,-0.35131770372390747,-0.2846177816390991,0.16185760498046875,-0.5577843911001457,-1.0513015204188068,-0.32357646730492096,-0.73649662733078,0.5293077230453491,-0.42119595408439636,0.18749350309371948,-1.0869901180267334,-0.031162699684500694
3.9421050548553467,-0.21584147214889526,-0.41338539123535156,0.16737604141235352,-0.5586463292313393,-1.0745214374747973,-0.32577994932221976,-0.745675802230835,0.5300388336181641,-0.40376511216163635,-0.37832534313201904,-1.2514591217041016,0.11265382915735245
3.9633290767669678,-0.10589843988418579,-0.5574142336845398,0.20389360189437866,-0.5743626836874671,-1.1119858341624138,-0.3432673174483764,-0.7527136206626892,0.5432998538017273,-0.37181657552719116,-1.851398229598999,-1.442801594734192,0.5383593440055847
3.9831721782684326,-0.30881446599960327,-0.4574834108352661,0.13249722123146057,-0.6014468447154873,-1.1652466064783868,-0.3937691149162217,-0.7576375007629395,0.5658360123634338,-0.3252919912338257,-2.789949893951416,-1.0229425430297852,0.08895000070333481
4.003201007843018,-0.4440438747406006,-0.32766401767730713,0.008823364973068237,-0.6178280861115489,-1.208025951468484,-0.44819778023173734,-0.7620869874954224,0.5792661309242249,-0.28926461935043335,-1.831706166267395,-0.07476292550563812,-0.26344698667526245
4.023061037063599,-0.38271671533584595,-0.16392576694488525,-0.03919675946235657,-0.6133472432988998,-1.2197007906874235,-0.4782256178269637,-0.7678416967391968,0.5756078362464905,-0.28123775124549866,-0.316540390253067,0.5706404447555542,-1.0112296342849731
4.043586015701294,-0.24054741859436035,-0.2641414403915405,0.023632526397705078,-0.590626266572425,-1.2088288177862891,-0.4870585656258174,-0.7767713069915771,0.556881308555603,-0.2941250801086426,0.20528437197208405,0.9852199554443359,-1.2697948217391968
4.064335107803345,-0.08724325895309448,-0.4505149722099304,0.14618536829948425,-0.5674578889547529,-1.1945802746390557,-0.4993889356294997,-0.7842930555343628,0.5374901294708252,-0.30982065200805664,-0.4336009621620178,1.0963274240493774,-1.3028569221496582
4.07964015007019,-0.015316545963287354,-0.49963247776031494,0.169498473405838,-0.5486597056981215,-1.1874909819682187,-0.5286880738696104,-0.7913088798522949,0.5215440988540649,-0.3190956711769104,-1.1718759536743164,1.1540758609771729,-1.3532633781433105
4.10462498664856,0.04303246736526489,-0.39042192697525024,0.15540257096290588,-0.5347116904068383,-1.1867268617711033,-0.5720498248254895,-0.7977320551872253,0.5095930099487305,-0.3223947286605835,-1.6680452823638916,1.1402426958084106,-1.355279803276062
4.122636079788208,0.07475745677947998,-0.25056809186935425,0.06594911217689514,-0.5201881253607165,-1.1899287684708506,-0.6214752094246702,-0.8055467009544373,0.4970434010028839,-0.3225562274456024,-1.7124143838882446,1.0516722202301025,-1.649513840675354
4.1425089836120605,0.08763957023620605,-0.12290236353874207,-0.008791148662567139,-0.4975482523914274,-1.1925624484807285,-0.6693890089052336,-0.816643476486206,0.47727248072624207,-0.32450658082962036,-1.3295344114303589,1.0264735221862793,-1.9429455995559692
4.162407159805298,0.20440882444381714,-0.13741230964660645,-3.859400749206543e-05,-0.47125139591944193,-1.193202715816894,-0.7122221076379136,-0.8282337784767151,0.45400163531303406,-0.32849833369255066,-1.233138084411621,0.8680423498153687,-1.9107781648635864
4.182471990585327,0.35407018661499023,-0.17803716659545898,-0.04042452573776245,-0.44372160022688195,-1.1969536369444114,-0.751710876054556,-0.8407798409461975,0.4293036460876465,-0.32982999086380005,-1.0799180269241333,0.4998071491718292,-1.9656951427459717
4.202263116836548,0.4605500102043152,-0.13011160492897034,-0.03373804688453674,-0.4139587196650178,-1.2054075223000624,-0.788862910053074,-0.8550963997840881,0.40223681926727295,-0.32713228464126587,-0.9662539958953857,0.2163408100605011,-2.0457983016967773
4.2225658893585205,0.46866661310195923,-0.10742565989494324,-0.05112561583518982,-0.38160419884188435,-1.217175457807661,-0.8220217983034189,-0.8706440329551697,0.37240976095199585,-0.3213871717453003,-0.7844415307044983,-0.11108870804309845,-2.0853323936462402
4.242224931716919,0.38764286041259766,0.04220867156982422,0.02803170680999756,-0.3456284457000618,-1.2335277473064734,-0.8522888560696819,-0.8878564834594727,0.3387880325317383,-0.31134164333343506,-0.6690547466278076,-0.4284757375717163,-2.2731850147247314
4.262294054031372,0.20071351528167725,0.1511078178882599,-0.004841148853302002,-0.3057677126788537,-1.251680904169849,-0.8822562708095405,-0.90547114610672,0.3010253608226776,-0.2991749048233032,-0.8376593589782715,-0.4194643199443817,-2.382341146469116
4.282141923904419,0.08291220664978027,0.10489672422409058,0.008434116840362549,-0.2677363265947359,-1.271300860546233,-0.9207900256745103,-0.9214437007904053,0.2645491063594818,-0.28452661633491516,-1.5375126600265503,-0.4928247034549713,-2.385559320449829
4.302154064178467,0.00432974100112915,0.11313532292842865,-0.014223575592041016,-0.23164311680937297,-1.294524398817577,-0.9652874125796144,-0.9363822937011719,0.22957706451416016,-0.2654852569103241,-1.327405333518982,-0.7227039933204651,-2.2944750785827637
4.321876049041748,-0.1497553586959839,0.3972989618778229,0.010424643754959106,-0.1921068329664706,-1.313737309260632,-0.9928941869113762,-0.9493505358695984,0.1909273862838745,-0.2495604157447815,-0.17613528668880463,-0.532969057559967,-2.280924081802368
4.341853857040405,-0.3002379536628723,0.5902310013771057,0.07734987139701843,-0.1454034962190802,-1.319802583971318,-0.9977906769717584,-0.9584444165229797,0.1448916792869568,-0.24574583768844604,0.7033799886703491,0.01757383719086647,-2.3319718837738037
4.3612380027771,-0.17052513360977173,0.417371541261673,0.17598316073417664,-0.0998843233476269,-1.3163909716320312,-0.994402061449351,-0.962989330291748,0.09971831738948822,-0.250415563583374,0.7019538879394531,0.15978547930717468,-1.9154835939407349
4.3819239139556885,-0.04714310169219971,0.26754796504974365,0.07960230112075806,-0.06674534730074123,-1.3146982876760254,-0.9908896204926995,-0.965231716632843,0.06669580191373825,-0.25274378061294556,0.408473402261734,-0.016540367156267166,-1.2074404954910278
4.401707887649536,-0.06744712591171265,0.29251936078071594,0.04827231168746948,-0.046960167874921514,-1.3151862909869423,-0.9914544159278773,-0.9664426445960999,0.04694290831685066,-0.2525569498538971,0.014062134549021721,0.030833274126052856,-0.8409154415130615
4.421606063842773,-0.12257218360900879,0.41447895765304565,0.1623431146144867,-0.0319681512933073,-1.3119352451064854,-1.0002482529431072,-0.9661883115768433,0.03196270763874054,-0.2558489739894867,-0.46531879901885986,0.34970417618751526,-0.806190013885498
4.441699981689453,-0.10566133260726929,0.3491806387901306,0.19937434792518616,-0.021655422809927053,-1.3026046103284605,-1.0132325218188756,-0.9640256762504578,0.021653730422258377,-0.26492613554000854,-0.4177458584308624,0.570360541343689,-0.5065327882766724
4.461554050445557,-0.061509668827056885,0.2718552052974701,0.18683141469955444,-0.016933454605930917,-1.2915817366870133,-1.0203497221594844,-0.9611343741416931,0.016932645812630653,-0.27556121349334717,-0.10733789205551147,0.5024558305740356,-0.14587460458278656
4.481580018997192,-0.054130494594573975,0.3315139412879944,0.18334317207336426,-0.016722916631972593,-1.283358906820607,-1.0193091179837295,-0.958839476108551,0.016722137108445168,-0.28345608711242676,0.16667354106903076,0.35360437631607056,0.12529930472373962
4.5018310546875,-0.12284690141677856,0.2747759222984314,0.192091703414917,-0.01764441345778182,-1.2765784298170746,-1.0130429403091312,-0.9568802118301392,0.01764349825680256,-0.2899462878704071,0.40113240480422974,0.31096842885017395,0.11308620125055313
4.521465063095093,-0.15034282207489014,0.22743605077266693,0.1460784673690796,-0.017666803971043393,-1.2712083470998854,-1.0028502668231802,-0.9553090333938599,0.017665885388851166,-0.2950805127620697,0.5920623540878296,0.15547604858875275,0.19973888993263245
4.541529893875122,-0.11882835626602173,0.1349099725484848,0.12728634476661682,-0.019143928297157692,-1.2696111724201196,-0.9904437980927348,-0.9548106789588928,0.0191427581012249,-0.2965978682041168,0.45875751972198486,0.00973464548587799,0.3056269884109497
4.561873197555542,-0.11876791715621948,0.0577346533536911,0.1915421485900879,-0.024970585429916373,-1.2697140091074892,-0.9834151580500872,-0.9547184109687805,0.024967990815639496,-0.2964615821838379,0.06686028838157654,-0.017998626455664635,0.47279873490333557
4.581721067428589,-0.17622554302215576,0.0072686634957790375,0.15699917078018188,-0.03410453428551317,-1.270298506628404,-0.9808096355150794,-0.9546338319778442,0.03409792482852936,-0.2958236336708069,-0.026498980820178986,-0.014060876332223415,0.4763474762439728
4.601165056228638,-0.20355355739593506,0.024364732205867767,0.10451927781105042,-0.04327573576336,-1.269537949345503,-0.9773819160874764,-0.9540697932243347,0.04326222836971283,-0.2964443564414978,0.13717973232269287,0.013039538636803627,0.45636698603630066
4.620929956436157,-0.1790916919708252,-0.016812745481729507,0.038222044706344604,-0.04968535105912428,-1.2710744633427566,-0.9687306375083455,-0.9542394876480103,0.04966491088271141,-0.29489007592201233,0.48128899931907654,-0.19740495085716248,0.4373767673969269
4.641025066375732,-0.2076985239982605,-0.06010652333498001,-0.008084714412689209,-0.05344862430559967,-1.2752621454267457,-0.9534623774324502,-0.9552805423736572,0.05342318117618561,-0.2908349931240082,0.8412188291549683,-0.2819719612598419,0.36891990900039673
4.659970998764038,-0.25451284646987915,-0.09122657775878906,-0.030150771141052246,-0.055228655111124396,-1.2800236035752042,-0.935483060514726,-0.9565619230270386,0.05520058423280716,-0.28625547885894775,0.7968639135360718,-0.28486573696136475,0.34578296542167664
4.6808600425720215,-0.2994251847267151,-0.15099859237670898,-0.05020493268966675,-0.05761615134065462,-1.2840533779155328,-0.9194468483211324,-0.9575785994529724,0.05758427828550339,-0.28236034512519836,0.6225975155830383,-0.15726180374622345,0.3584904074668884
4.699940919876099,-0.34302616119384766,-0.18236353993415833,-0.06499660015106201,-0.061002433274361126,-1.2863424175402605,-0.9078462610718374,-0.9580297470092773,0.06096460670232773,-0.2801113724708557,0.3880099654197693,-0.16296513378620148,0.2765355706214905
4.7214601039886475,-0.37148725986480713,-0.21830616891384125,-0.07502865791320801,-0.06449650784306366,-1.2889450178134616,-0.9013592751113925,-0.9585450887680054,0.06445179879665375,-0.2775561213493347,0.20005103945732117,-0.09582658112049103,0.2398495376110077
4.740794897079468,-0.40059536695480347,-0.21159298717975616,-0.07388055324554443,-0.07009458460791901,-1.2893892105981875,-0.8969142244574597,-0.958306610584259,0.07003720104694366,-0.2770257592201233,0.0578421875834465,-0.05605936795473099,0.4845091998577118
4.761013984680176,-0.43426066637039185,-0.18090683221817017,-0.14048683643341064,-0.07673408345528653,-1.2916225987879864,-0.8905710154083811,-0.9584547877311707,0.07665880024433136,-0.27475059032440186,0.2694986164569855,-0.24275760352611542,0.29307153820991516
4.780536890029907,-0.4659782648086548,-0.1888912320137024,-0.164255291223526,-0.08230995290818605,-1.295215433404029,-0.8784795069476194,-0.9590094685554504,0.08221704512834549,-0.2711847126483917,0.6970576643943787,-0.22114552557468414,0.513139545917511
4.800593137741089,-0.47977524995803833,-0.20431597530841827,-0.1131892204284668,-0.0884798449360742,-1.2985560979296482,-0.8620969153501903,-0.9594032764434814,0.08836444467306137,-0.2678380012512207,0.7416509389877319,-0.21271422505378723,0.5211614966392517
4.820509195327759,-0.504356324672699,-0.21221154928207397,-0.13155174255371094,-0.09541290690228255,-1.298797790164883,-0.8440375083042716,-0.9588546752929688,0.09526820480823517,-0.26743507385253906,0.7230935096740723,0.06885194033384323,0.6716652512550354
4.839699029922485,-0.4983641505241394,-0.19400295615196228,-0.1200522780418396,-0.10711047381328466,-1.293162018400259,-0.8296316398080044,-0.9561951756477356,0.10690578073263168,-0.2725106179714203,0.32246115803718567,0.31755948066711426,0.8445627093315125
4.862116098403931,-0.49806278944015503,-0.14126703143119812,-0.09962621331214905,-0.12605185894705379,-1.2839182252188313,-0.8214030345279747,-0.9515221118927002,0.12571831047534943,-0.2807142734527588,-0.034716710448265076,0.4930647313594818,1.2320923805236816
4.879590034484863,-0.5087400674819946,-0.12004680931568146,-0.09786123037338257,-0.15314598313385294,-1.2731061879626528,-0.8147830742960857,-0.9448273777961731,0.15254804491996765,-0.28987979888916016,-0.08262399584054947,0.49647897481918335,1.5342692136764526
4.901064157485962,-0.5651901364326477,-0.03557473421096802,-0.035573750734329224,-0.18449248229100554,-1.2600204312736702,-0.8057552910314645,-0.9359389543533325,0.18344765901565552,-0.3006078898906708,0.02827080339193344,0.692943811416626,1.7036572694778442
4.920435190200806,-0.5752609968185425,-0.0497460663318634,-0.017694532871246338,-0.21629997342089421,-1.2410649382700807,-0.7890072962298368,-0.9240828156471252,0.2146172970533371,-0.3162440359592438,0.5373300313949585,0.8281810283660889,1.8182157278060913
4.9396069049835205,-0.5034262537956238,-0.00878000259399414,-0.062268197536468506,-0.24473631922733757,-1.2194786934852455,-0.7608564334064064,-0.9109414219856262,0.24230051040649414,-0.3338804543018341,1.0337809324264526,0.6950729489326477,1.815016269683838
4.960188150405884,-0.49179691076278687,-0.08687183260917664,0.020629405975341797,-0.27180091399261697,-1.1972063984156347,-0.7291231256994585,-0.8968443870544434,0.26846668124198914,-0.3515620529651642,0.7670404314994812,0.7725821137428284,1.7680498361587524
4.9799559116363525,-0.5142812132835388,-0.16198042035102844,0.12907367944717407,-0.3008999500338978,-1.1748569149379908,-0.7090284138907049,-0.8811807632446289,0.29637983441352844,-0.3683467507362366,-0.10972597450017929,0.8740333914756775,1.675731897354126
4.999583959579468,-0.4246007800102234,-0.1622512936592102,0.14166420698165894,-0.33551842753976446,-1.157137541069532,-0.7058689403160939,-0.8645989894866943,0.3292587399482727,-0.37954866886138916,-0.9569883942604065,0.7758580446243286,1.6119571924209595
5.020063161849976,-0.2702981233596802,-0.09284707903862,0.08523178100585938,-0.37239053584689535,-1.1468755635370325,-0.7122405041267265,-0.8490102291107178,0.36384317278862,-0.3831442892551422,-0.9065610766410828,0.4613668918609619,1.5700632333755493
5.04059100151062,-0.14316529035568237,0.03035864233970642,0.04718494415283203,-0.4057140593376839,-1.1383085408809974,-0.70829220439932,-0.8342211246490479,0.39467495679855347,-0.3851061165332794,-0.04822878912091255,0.2526204288005829,1.556005835533142
5.061516046524048,-0.19282948970794678,0.13725510239601135,0.004624545574188232,-0.42794962487027616,-1.1235719931231727,-0.6851995541918107,-0.8203387260437012,0.41500622034072876,-0.39346420764923096,0.8206928968429565,0.3056018054485321,1.3592771291732788
5.079568147659302,-0.18923866748809814,0.034368425607681274,0.07939180731773376,-0.4436503959858179,-1.1058115300178686,-0.6599397952710379,-0.8072975277900696,0.42923933267593384,-0.4049990475177765,0.385913223028183,0.41304242610931396,1.097177267074585
5.100564002990723,-0.0719030499458313,-0.14112651348114014,0.11185002326965332,-0.4625778455946996,-1.0940126205150849,-0.6503107309798429,-0.7951013445854187,0.44625651836395264,-0.4106934070587158,-0.4603341519832611,0.32651692628860474,1.008411169052124
5.119909048080444,0.04360932111740112,-0.07987380027770996,0.12159371376037598,-0.48745384812388237,-1.0908857537631114,-0.6552638916841259,-0.7837216258049011,0.4683777987957001,-0.40792492032051086,-0.9735475778579712,0.22395169734954834,0.9799558520317078
5.1395790576934814,0.0678250789642334,0.029188722372055054,0.09561443328857422,-0.511555064580997,-1.0903586055626062,-0.6641245055498493,-0.7732693552970886,0.48953384160995483,-0.4030027389526367,-0.7382676005363464,0.27608126401901245,0.7724828720092773
5.15959906578064,0.13954687118530273,0.11200958490371704,0.11686202883720398,-0.5272734301493011,-1.0841603037916623,-0.6641955005129692,-0.7638601660728455,0.5031789541244507,-0.4041391909122467,0.012760927900671959,0.3453556001186371,0.6531296372413635
5.179715871810913,0.23482435941696167,0.10280883312225342,0.09139317274093628,-0.535716366172498,-1.0721162169650003,-0.6526192770094008,-0.7551795840263367,0.5104571580886841,-0.4112631678581238,0.3448459804058075,0.2348586618900299,0.5700486898422241
5.1995508670806885,0.29101264476776123,-0.005151569843292236,0.10447031259536743,-0.542424750366007,-1.0621697083120896,-0.6403923114591982,-0.7480438947677612,0.5162141919136047,-0.41707709431648254,0.19182635843753815,0.1857450008392334,0.5445536375045776
5.219577074050903,0.3346591591835022,-0.11043095588684082,0.16120082139968872,-0.5515467344991939,-1.0551138256665133,-0.6349589540237227,-0.7409549355506897,0.5240052342414856,-0.4200051724910736,-0.22663827240467072,0.23875361680984497,0.4561294913291931
5.239559888839722,0.42178601026535034,-0.176907479763031,0.19648641347885132,-0.5620903082298367,-1.052073255519178,-0.6380685495905702,-0.7348353266716003,0.532956063747406,-0.4194936156272888,-0.49759015440940857,0.1861998587846756,0.34450283646583557
5.259602069854736,0.5136250257492065,-0.15806818008422852,0.1967712938785553,-0.5722821510922571,-1.053627996256819,-0.6451749563837663,-0.7307270169258118,0.5415520071983337,-0.4156433343887329,-0.4802851974964142,0.08070016652345657,0.2408164143562317
5.279572010040283,0.5522322654724121,-0.14197945594787598,0.21525460481643677,-0.5787867734272338,-1.0545077111082202,-0.6507485981323515,-0.7280134558677673,0.5470086932182312,-0.413252592086792,-0.21030211448669434,0.11875300854444504,0.08100678026676178
5.299571990966797,0.6028101444244385,-0.12002915143966675,0.21007081866264343,-0.5792327386093823,-1.0522804021636967,-0.6505868890535595,-0.7268792986869812,0.5473819971084595,-0.41475218534469604,0.17707453668117523,0.08241479843854904,8.539925329387188e-05
5.319570064544678,0.6531733870506287,-0.107138991355896,0.20132452249526978,-0.5776698156536567,-1.0493830262785797,-0.6466792124613916,-0.7264155745506287,0.546073317527771,-0.4172821640968323,0.09544701874256134,-0.00937167089432478,0.04090267792344093
5.339590072631836,0.6584718823432922,-0.1318126916885376,0.22841641306877136,-0.579674909363474,-1.0513108141673189,-0.6481391670104035,-0.726266622543335,0.5477519631385803,-0.415336549282074,-0.26150909066200256,-0.08531401306390762,0.07571909576654434
5.359575986862183,0.6365512013435364,-0.08223307132720947,0.21054917573928833,-0.5837794952651081,-1.0549215737197688,-0.6521873673497954,-0.7257998585700989,0.551181435585022,-0.41159898042678833,-0.18060386180877686,-0.08631625771522522,0.07763282209634781
5.37956690788269,0.6218411326408386,0.04652833938598633,0.14586752653121948,-0.5845201444709794,-1.05794301066333,-0.6497412767598495,-0.7266842126846313,0.5517992377281189,-0.4092037081718445,0.36702942848205566,-0.32727310061454773,0.17668582499027252
5.3995678424835205,0.5242628455162048,0.1308377981185913,0.04878419637680054,-0.5832344139772976,-1.0581159608202797,-0.6354847062698303,-0.7273725867271423,0.5507265329360962,-0.40942567586898804,0.7432664036750793,-0.4587535560131073,0.21868383884429932
5.4195849895477295,0.36876600980758667,0.13779228925704956,0.0436519980430603,-0.5776002796720212,-1.0543009476205802,-0.6141680002663606,-0.7284919619560242,0.5460150837898254,-0.4137233793735504,1.0511599779129028,-0.2802635431289673,0.15337350964546204
5.439563989639282,0.3527975082397461,0.055043935775756836,0.10607302188873291,-0.5673798931024555,-1.046801563634082,-0.590013071788954,-0.7301626205444336,0.5374243259429932,-0.421945184469223,1.2443575859069824,-0.3537692725658417,-0.04344869405031204
5.459599018096924,0.3910364508628845,0.0032482147216796875,0.10175883769989014,-0.552333752076785,-1.0422565819163998,-0.5631844221913873,-0.735137403011322,0.5246753692626953,-0.42928874492645264,1.4722732305526733,-0.6212335228919983,-0.10110979527235031
5.479680061340332,0.32640010118484497,-0.05537372827529907,0.10529148578643799,-0.5330682300650773,-1.043308712801842,-0.532208264441531,-0.7441856861114502,0.5081782341003418,-0.4335232079029083,1.8662930727005005,-1.1304731369018555,-0.25733017921447754
5.499694108963013,0.1116492748260498,0.09033611416816711,-0.02064037322998047,-0.5049987352478469,-1.051247965972422,-0.49528629620449777,-0.7596900463104248,0.4838063418865204,-0.43451404571533203,2.316096067428589,-1.3370522260665894,-0.644685685634613
5.519613981246948,-0.13194644451141357,0.050841182470321655,-0.039870262145996094,-0.46859225857683784,-1.0538343087386568,-0.45472000174556726,-0.7756158113479614,0.45163074135780334,-0.4409646689891815,2.3718035221099854,-0.9005909562110901,-0.6521750092506409
5.539686918258667,-0.04321795701980591,-0.13525840640068054,0.1393720507621765,-0.44225989046613495,-1.058088457749828,-0.42411199280120404,-0.7875772714614868,0.42798301577568054,-0.4433424174785614,1.2230069637298584,-0.8690667152404785,-0.2058952897787094
5.559747934341431,-0.2659319043159485,-0.2540299594402313,-0.28936877846717834,-0.4306054317560338,-1.069810779593528,-0.41263639433910354,-0.7970410585403442,0.41742104291915894,-0.43644601106643677,0.7349058389663696,-0.4033873379230499,-0.45179370045661926
5.579694986343384,-0.7555804252624512,-0.3063579797744751,-0.7707754373550415,-0.4130336494848587,-1.0685930998065052,-0.4027971515915363,-0.8028148412704468,0.4013897180557251,-0.4408791959285736,0.640993058681488,-0.0034239445813000202,-0.3881567716598511
5.599619150161743,-0.4026658535003662,-0.2403220236301422,-0.4380435049533844,-0.41475469530235853,-1.0734417439768766,-0.4149932746686136,-0.804334819316864,0.4029654264450073,-0.4366512596607208,-1.554857611656189,-0.11879874020814896,-0.2778700590133667
5.619562864303589,-0.25729846954345703,-0.21453633904457092,-0.10668563842773438,-0.4240287540157347,-1.0930366476889317,-0.4527375575723905,-0.8093823790550232,0.4114357531070709,-0.4190711975097656,-1.6982879638671875,-0.15675464272499084,-0.2809217572212219
5.639557123184204,-0.36533123254776,-0.08330819010734558,-0.07476890087127686,-0.4384880297008499,-1.103355817666204,-0.4811435722487936,-0.8082680106163025,0.4245710074901581,-0.40797337889671326,-1.210590124130249,0.24747087061405182,0.2485877275466919
5.659555196762085,-0.2615160346031189,0.12100481986999512,-0.018817245960235596,-0.44820327662206066,-1.1057834801116346,-0.4950157019815769,-0.8055310249328613,0.4333469867706299,-0.4041411280632019,-0.21655260026454926,0.022043775767087936,0.04052663594484329
5.679547071456909,-0.17022383213043213,0.06104162335395813,-0.04396921396255493,-0.44748805702875416,-1.1066063230021046,-0.4897340679659024,-0.8061402440071106,0.43270230293273926,-0.40361684560775757,0.47144219279289246,-0.29033926129341125,0.17865952849388123
5.699556112289429,-0.22092008590698242,-0.11874929070472717,0.08672860264778137,-0.45024488289714293,-1.108680401056003,-0.48073987295104065,-0.8059048056602478,0.4351860284805298,-0.4014105796813965,0.01656489446759224,-0.2599734365940094,0.4000781774520874
5.719588041305542,-0.22749853134155273,-0.26720818877220154,0.1539190411567688,-0.46126347180045674,-1.1142675297363305,-0.48306419859770966,-0.8037819862365723,0.44507989287376404,-0.3947637677192688,-0.6638611555099487,-0.2329609990119934,0.492656946182251
5.739590883255005,-0.18108302354812622,-0.2719644010066986,0.17486709356307983,-0.4784575418613444,-1.1255017309544453,-0.4980843728246662,-0.8011404275894165,0.460410475730896,-0.3823561370372772,-1.220531702041626,-0.18514785170555115,0.41271790862083435
5.759541988372803,-0.19701582193374634,-0.24878787994384766,0.18746119737625122,-0.49177559342441307,-1.1357447855544545,-0.5201361260335086,-0.7993830442428589,0.47219181060791016,-0.3715127408504486,-1.0589869022369385,0.16750749945640564,0.003982209600508213
5.779541015625,-0.21077722311019897,-0.2046726644039154,0.12128406763076782,-0.4970256272458108,-1.1372789953044353,-0.534280202000978,-0.7976913452148438,0.4768131673336029,-0.3692394196987152,-0.261842280626297,0.37354275584220886,0.0005040557589381933
5.799540996551514,-0.19190949201583862,-0.12057065963745117,0.12408196926116943,-0.49571185718565874,-1.1293481314538047,-0.5348809617570096,-0.7953036427497864,0.47565793991088867,-0.37582144141197205,0.1912461370229721,0.4046127200126648,-0.21695727109909058
5.81955885887146,-0.18208950757980347,-0.1600894331932068,0.15438896417617798,-0.48686696100746457,-1.121267317466266,-0.533910076693696,-0.7959988713264465,0.4678592085838318,-0.3840489983558655,0.18573565781116486,0.3712054193019867,-0.49299243092536926
5.8395609855651855,-0.15641498565673828,-0.2363854944705963,0.21042242646217346,-0.4783595081970715,-1.115978624258429,-0.5396719472227578,-0.7975034117698669,0.4603234529495239,-0.3899878263473511,-0.34206119179725647,0.4345696270465851,-0.49488791823387146
5.859600067138672,-0.1532500982284546,-0.26498451828956604,0.222448468208313,-0.474929554740271,-1.1156570970984165,-0.558438803696128,-0.7987915277481079,0.4572758078575134,-0.390936017036438,-0.9824568033218384,0.45799562335014343,-0.5517938137054443
5.879536867141724,-0.15042638778686523,-0.24408945441246033,0.2182106375694275,-0.47454558140466857,-1.1189353773225001,-0.5867552181057001,-0.8002266883850098,0.4569343030452728,-0.3883918821811676,-1.1842639446258545,0.5196627974510193,-0.5822906494140625
5.899528980255127,-0.13274306058883667,-0.13878515362739563,0.19326406717300415,-0.47282715601514086,-1.1207316938252643,-0.6143738499626159,-0.8016290068626404,0.4554050862789154,-0.38729485869407654,-0.9020797610282898,0.5621122121810913,-0.6574823260307312
5.91953706741333,-0.09221720695495605,-0.09055662155151367,0.18880337476730347,-0.46691088767817196,-1.1195871401377215,-0.6358065545686632,-0.8035957217216492,0.45012998580932617,-0.3893801271915436,-0.6274375915527344,0.5146216154098511,-0.6939254403114319
5.939548969268799,-0.05411797761917114,-0.12171858549118042,0.2328546643257141,-0.45978487682786806,-1.118964001356678,-0.6555849078544099,-0.8062182664871216,0.4437553286552429,-0.3912714123725891,-0.6817443370819092,0.4495730996131897,-0.7416105270385742
5.95959210395813,-0.054926276206970215,-0.11649176478385925,0.2302546501159668,-0.4515003111825321,-1.119900759730898,-0.678046135002124,-0.8098655343055725,0.43631598353385925,-0.3921045660972595,-0.7794773578643799,0.4484406113624573,-0.8778972029685974
5.979552984237671,-0.028563499450683594,-0.10390573740005493,0.21426832675933838,-0.4428048009718168,-1.1221896975569583,-0.7044582998413481,-0.8141489028930664,0.42847543954849243,-0.3918805718421936,-0.9822875261306763,0.42831361293792725,-0.928697407245636
5.999530076980591,0.007749319076538086,-0.11876237392425537,0.18968519568443298,-0.4354990820515174,-1.1275501607501344,-0.734325555927316,-0.8190438151359558,0.42186295986175537,-0.3888428807258606,-1.1446584463119507,0.34104183316230774,-0.8950055241584778
6.019569158554077,0.0177345871925354,-0.08845901489257812,0.2083677053451538,-0.42968451295577714,-1.1350087652562815,-0.7678441630511551,-0.8241310119628906,0.4165840148925781,-0.3837521970272064,-1.375409483909607,0.3435899317264557,-0.9269770383834839
6.039610147476196,0.014757394790649414,-0.07218915224075317,0.21413260698318481,-0.4247845670074389,-1.1435885668279535,-0.806004158374794,-0.8292410969734192,0.41212451457977295,-0.3775085210800171,-1.5652892589569092,0.390141099691391,-0.969045877456665
6.059582948684692,0.022816359996795654,-0.05252617597579956,0.17678982019424438,-0.41953826412973433,-1.1521755770269633,-0.8465740012967681,-0.8344161510467529,0.40733879804611206,-0.371247798204422,-1.5646125078201294,0.4228205680847168,-1.0030499696731567
6.079538106918335,0.04551577568054199,-0.005969911813735962,0.11308255791664124,-0.41294656772193206,-1.1599501301187538,-0.8858393717033383,-0.839720606803894,0.4013099670410156,-0.36581388115882874,-1.492034673690796,0.4264971613883972,-1.0200024843215942
6.099500894546509,0.06929248571395874,0.009509831666946411,0.10798043012619019,-0.4056367910411988,-1.16849330246538,-0.9249873936307949,-0.8454918265342712,0.394603967666626,-0.3597657084465027,-1.5361155271530151,0.34346407651901245,-1.0215730667114258
6.119502067565918,0.07082045078277588,-0.014558017253875732,0.13731634616851807,-0.4000191250683425,-1.17753124259772,-0.9659893225136941,-0.8507429361343384,0.38943594694137573,-0.3529535233974457,-1.7732309103012085,0.39085349440574646,-0.9384631514549255
6.13949990272522,0.063620924949646,-0.023906588554382324,0.16419366002082825,-0.3974305667085524,-1.1864516246752634,-1.0114562928679023,-0.8547890782356262,0.38705044984817505,-0.34572741389274597,-1.9700665473937988,0.4892982244491577,-0.8845939040184021
6.159607172012329,0.07015013694763184,0.0156557559967041,0.1102491021156311,-0.39581342576964074,-1.1946024450705017,-1.0580977173238422,-0.8581597208976746,0.3855588436126709,-0.3389783203601837,-1.9731166362762451,0.5125150084495544,-0.8678764700889587
6.179546117782593,0.09398800134658813,0.041314661502838135,0.07912036776542664,-0.39377060704351924,-1.202477677424967,-1.1042679195038458,-0.8615356683731079,0.38367316126823425,-0.3324925899505615,-1.9134007692337036,0.4611884653568268,-0.8697201609611511
6.19951605796814,0.1090659499168396,0.031204581260681152,0.07195630669593811,-0.39070858864816005,-1.2109390142645327,-1.1483560620387196,-0.86541348695755,0.3808436989784241,-0.3256031274795532,-1.7925643920898438,0.40693581104278564,-0.8604193925857544
6.219511985778809,0.09128350019454956,0.054326802492141724,0.0880914032459259,-0.3875201362677006,-1.2186667061192857,-1.1908335919932582,-0.8690391778945923,0.3778935968875885,-0.31932300329208374,-1.8351821899414062,0.43692752718925476,-0.8249462842941284
6.239556074142456,0.09551864862442017,0.05932018160820007,0.09161508083343506,-0.3844690534173983,-1.2271593342327567,-1.2350411260650895,-0.8728013634681702,0.37506699562072754,-0.31231820583343506,-1.8910048007965088,0.44978028535842896,-0.8530287742614746
6.259514093399048,0.11796706914901733,0.07299047708511353,0.06551775336265564,-0.38213444813335157,-1.2354712780333408,-1.2799364622126281,-0.8761914968490601,0.3729017972946167,-0.30534011125564575,-1.9382450580596924,0.353101521730423,-0.7624181509017944
6.279513120651245,0.10770881175994873,0.08916330337524414,0.04036000370979309,-0.37980204080566077,-1.2457607103033181,-1.3233716804305353,-0.8801088333129883,0.37073662877082825,-0.2965855896472931,-1.8572171926498413,0.24851562082767487,-0.7727785706520081
6.2995100021362305,0.06201183795928955,0.12465512752532959,0.046870917081832886,-0.3763378106033307,-1.2574085230049867,-1.3675156442092586,-0.8847199082374573,0.36751705408096313,-0.2867085337638855,-1.900076150894165,0.23095208406448364,-0.8626798987388611
6.319506883621216,0.04546332359313965,0.12990984320640564,0.006888270378112793,-0.37021927819737566,-1.2688874534751424,-1.410898964221028,-0.8900830149650574,0.361819863319397,-0.2771976888179779,-1.7833585739135742,0.20861250162124634,-0.8979871869087219
6.339508056640625,0.07150423526763916,0.17983698844909668,-0.024991482496261597,-0.36412084270913353,-1.2803933217550933,-1.4520010098935492,-0.8953109383583069,0.35612791776657104,-0.26756522059440613,-1.7137432098388672,0.11474326997995377,-0.8217324614524841
6.358839988708496,0.06096392869949341,0.18967199325561523,-0.038132697343826294,-0.35823991210658357,-1.2927543313930085,-1.4918364508056348,-0.9005482196807861,0.3506264388561249,-0.25704851746559143,-1.7551660537719727,0.04949492961168289,-0.7703842520713806
6.37951397895813,0.04381805658340454,0.21383965015411377,-0.046525582671165466,-0.354237151699241,-1.307563652666495,-1.5344852612397342,-0.90560382604599,0.34687498211860657,-0.24404752254486084,-1.979630470275879,-0.017513131722807884,-0.7014678716659546
6.399532079696655,0.019022881984710693,0.2523152232170105,-0.09619157016277313,-0.3512854275432981,-1.3236251182790737,-1.5797962540472914,-0.9103955030441284,0.3441050052642822,-0.22972089052200317,-2.037240743637085,-0.010237554088234901,-0.6382979154586792
6.4195029735565186,0.039695024490356445,0.27765071392059326,-0.14591048657894135,-0.35001181705872925,-1.339315452521064,-1.6238417839389667,-0.9143134951591492,0.34290891885757446,-0.21550914645195007,-1.9254897832870483,-0.06029566377401352,-0.47572389245033264
6.439511060714722,0.057052552700042725,0.32144466042518616,-0.18474742770195007,-0.3497181647043605,-1.3539374080188304,-1.662082586995358,-0.9174650311470032,0.34263303875923157,-0.20213916897773743,-1.5734195709228516,-0.08735647797584534,-0.34966737031936646
6.459557056427002,0.051991283893585205,0.34175926446914673,-0.19623208045959473,-0.3503786860272976,-1.3667534093150366,-1.694053958233483,-0.9197586178779602,0.3432535231113434,-0.19031879305839539,-1.437168002128601,-0.09056035429239273,-0.224824458360672
6.47959303855896,0.0465693473815918,0.34022268652915955,-0.20593351125717163,-0.3516900691987833,-1.3788683535524995,-1.7243150437180468,-0.9215540289878845,0.34448492527008057,-0.17907625436782837,-1.3486539125442505,-0.07010923326015472,-0.20965157449245453
6.499498128890991,0.06712305545806885,0.3547779321670532,-0.2436680644750595,-0.35287858484026385,-1.388878022922297,-1.7498883192744141,-0.9228968620300293,0.3456004559993744,-0.16976876556873322,-1.0089714527130127,-0.05664144828915596,-0.09937480092048645
6.519500017166138,0.09824228286743164,0.3295125961303711,-0.2495814561843872,-0.3551688776353619,-1.3960900872385078,-1.7678003624409433,-0.9233154654502869,0.34774869680404663,-0.1629704385995865,-0.7235074043273926,-0.046029459685087204,0.022234469652175903
6.539504051208496,0.10118275880813599,0.27086493372917175,-0.2151966094970703,-0.3584670618518768,-1.4009432875943713,-1.78057135210965,-0.9229600429534912,0.35083913803100586,-0.158292755484581,-0.5176380276679993,0.015696220099925995,0.09958492964506149
6.559527158737183,0.0862683653831482,0.2441788911819458,-0.20013344287872314,-0.36232995529598155,-1.4028424836546398,-1.7894751200152859,-0.9219158887863159,0.3544538617134094,-0.15631186962127686,-0.3692967891693115,0.09821143001317978,0.1286160796880722
6.579500913619995,0.09302878379821777,0.2266930341720581,-0.20803140103816986,-0.3656275249241596,-1.4025398975604573,-1.7949326100206424,-0.9207112193107605,0.3575354218482971,-0.15639422833919525,-0.1801609843969345,0.12305551767349243,0.10746926069259644
6.5994908809661865,0.11969524621963501,0.20658719539642334,-0.1983838528394699,-0.3681066147940419,-1.4007974518311634,-1.7965070770407372,-0.9195608496665955,0.3598495423793793,-0.1578478217124939,-0.02484065480530262,0.10277537256479263,0.11233309656381607
6.6194939613342285,0.12538444995880127,0.18548449873924255,-0.16388481855392456,-0.3702661059216533,-1.3987947978635304,-1.795903510684204,-0.9184752106666565,0.36186352372169495,-0.15955571830272675,0.037050940096378326,0.06796786189079285,0.09589473158121109
6.6394898891448975,0.09701758623123169,0.15919631719589233,-0.14851397275924683,-0.37126180422831906,-1.397009732419715,-1.794152311125685,-0.9178336262702942,0.3627915680408478,-0.16113261878490448,0.10976804792881012,0.04770519584417343,0.02377624809741974
6.659487009048462,0.07102036476135254,0.1636820137500763,-0.15288549661636353,-0.3702963153740211,-1.3951889690295114,-1.7904450542515076,-0.9178831577301025,0.3618916869163513,-0.16286462545394897,0.2493557184934616,-0.014442773535847664,-0.06385006755590439
6.679525136947632,0.048457443714141846,0.17896726727485657,-0.14158475399017334,-0.36684925172297284,-1.3936218184805618,-1.7839769267309105,-0.9188493490219116,0.35867610573768616,-0.16452178359031677,0.4070819020271301,-0.07098674029111862,-0.1830778270959854
6.699617147445679,0.02085113525390625,0.17558234930038452,-0.15488791465759277,-0.36012046413440574,-1.3918237742105317,-1.7739500827317993,-0.9209060072898865,0.3523869812488556,-0.16659951210021973,0.6279845833778381,-0.11727718263864517,-0.3214048743247986
6.71948504447937,0.014927923679351807,0.19576489925384521,-0.12247683107852936,-0.3506205978967284,-1.3892552150445403,-1.761360920935224,-0.9237262606620789,0.3434807062149048,-0.16956114768981934,0.6710856556892395,-0.0645788237452507,-0.41150423884391785
6.7395288944244385,0.03277587890625,0.18324846029281616,-0.06410141289234161,-0.339987397731684,-1.385500301115422,-1.7502777916599312,-0.926620602607727,0.3334752023220062,-0.1736915558576584,0.5174526572227478,0.047585707157850266,-0.4531781077384949
6.759481191635132,0.055817365646362305,0.15615516901016235,0.0020635277032852173,-0.33014072439548775,-1.3812138289825304,-1.7444059923699473,-0.9290472865104675,0.324176162481308,-0.17827202379703522,0.21466894447803497,0.18397799134254456,-0.41167333722114563
6.77947998046875,0.0620732307434082,0.1382882297039032,0.04027760028839111,-0.3226809549380886,-1.3754134671040321,-1.7438647527977387,-0.9303441047668457,0.3171102702617645,-0.18412218987941742,0.004101699683815241,0.3609354794025421,-0.3365376591682434
6.799479007720947,0.048100173473358154,0.14906150102615356,0.059409499168395996,-0.31684569642078986,-1.3670171303608407,-1.7457899679392228,-0.9305616617202759,0.31157082319259644,-0.1922983080148697,-0.047172874212265015,0.52536940574646,-0.2885306477546692
6.819481134414673,0.03097832202911377,0.1646285355091095,0.08275184035301208,-0.3119005854989504,-1.3552894397866047,-1.7471469771718602,-0.9297363758087158,0.3068680763244629,-0.20352517068386078,0.0312812440097332,0.6716179847717285,-0.23583725094795227
6.839477062225342,0.0036771297454833984,0.18162745237350464,0.13372570276260376,-0.3077982762006486,-1.3400023108034018,-1.7475049099009765,-0.9277341961860657,0.3029611110687256,-0.21799996495246887,0.01866445131599903,0.8742395043373108,-0.19508163630962372
6.859523057937622,-0.016377151012420654,0.1558329463005066,0.19150954484939575,-0.30510106196823333,-1.3210321979459763,-1.7492455869667116,-0.9242204427719116,0.3003895580768585,-0.23576001822948456,-0.14770206809043884,1.0515263080596924,-0.10852380096912384
6.879473924636841,-0.03278142213821411,0.11013618111610413,0.25138425827026367,-0.30549751274098286,-1.300885975714227,-1.7549345510159424,-0.9191685914993286,0.3007676899433136,-0.25429868698120117,-0.390716552734375,1.1585749387741089,-0.008387698791921139
6.899497985839844,-0.07530462741851807,0.046160727739334106,0.32371780276298523,-0.30917469720521384,-1.2793991038519774,-1.7653810040519107,-0.9124272465705872,0.3042725622653961,-0.27366891503334045,-0.6949723958969116,1.2886335849761963,0.06907398998737335
6.919561147689819,-0.10309135913848877,-0.022287994623184204,0.3765641450881958,-0.3158270601995298,-1.2585197413674276,-1.7821751001195356,-0.9045683741569519,0.31060272455215454,-0.2920304238796234,-1.0201822519302368,1.2987903356552124,0.0779256746172905
6.93949294090271,-0.13514751195907593,-0.04449501633644104,0.4055282175540924,-0.3245942582847082,-1.2410825567664197,-1.8049848253326999,-0.8967280387878418,0.3189242482185364,-0.3068648874759674,-1.2873975038528442,1.1775920391082764,0.0365084633231163
6.959492921829224,-0.19897836446762085,-0.04638907313346863,0.41779273748397827,-0.332980064114687,-1.2276173661895968,-1.8313366265843403,-0.8899651169776917,0.32686084508895874,-0.31800025701522827,-1.3083553314208984,1.0578172206878662,-0.10285155475139618
6.979471921920776,-0.2188984751701355,-0.08319523930549622,0.4231932461261749,-0.33797548893069856,-1.2150992736886967,-1.858186379469958,-0.8843730688095093,0.3315778076648712,-0.3285429775714874,-1.2460993528366089,1.0663210153579712,-0.30253782868385315
6.9994800090789795,-0.0993337631225586,-0.1543036699295044,0.41150015592575073,-0.3394988707028559,-1.2050984155180933,-1.884779855837182,-0.8805704116821289,0.3330146074295044,-0.33718985319137573,-1.1552625894546509,0.7737113833427429,-0.4346432685852051
7.019468069076538,0.03640538454055786,-0.17897894978523254,0.3401789665222168,-0.3388373309476612,-1.2033527013825855,-1.9103497274815482,-0.8801859021186829,0.33239075541496277,-0.3388056457042694,-1.056274175643921,0.2576630413532257,-0.5064113140106201
7.039469957351685,0.10146933794021606,-0.1630558967590332,0.2702808082103729,-0.33532009705750043,-1.210704965274013,-1.9336545961977425,-0.8837416172027588,0.3290714621543884,-0.3327350318431854,-0.8637691140174866,-0.18361662328243256,-0.6038679480552673
7.059535026550293,0.13044285774230957,-0.18505626916885376,0.23604440689086914,-0.3290221043780795,-1.2235466126713015,-1.9531512657657253,-0.8898727893829346,0.323117733001709,-0.32205817103385925,-0.6450161337852478,-0.4261091649532318,-0.6139956116676331
7.079596996307373,0.16017669439315796,-0.2515237033367157,0.23335039615631104,-0.3220328718530201,-1.2386522849514745,-1.9687404674595261,-0.896748960018158,0.3164955973625183,-0.30930864810943604,-0.5440853834152222,-0.586359441280365,-0.5382726192474365
7.09948205947876,0.14953184127807617,-0.2816341519355774,0.20254215598106384,-0.31581925490112434,-1.2563725502440688,-1.9829589438536581,-0.9039416909217834,0.31059530377388,-0.29397282004356384,-0.5219551920890808,-0.749423623085022,-0.5034863948822021
7.1194610595703125,0.0397452712059021,-0.25356271862983704,0.11038151383399963,-0.30849680664270124,-1.2760716289237157,-1.9961613433543228,-0.9117087125778198,0.30362674593925476,-0.27676331996917725,-0.49989053606987,-0.7809593081474304,-0.5874627232551575
7.139484167098999,-0.10877090692520142,-0.1746324896812439,0.12144175171852112,-0.29941707580835814,-1.2956390228212311,-2.0133066852079438,-0.9195647835731506,0.2949632704257965,-0.2596100866794586,-0.867298424243927,-0.6383042931556702,-0.769655168056488
7.159458875656128,-0.24531757831573486,-0.12093192338943481,0.1326504945755005,-0.28844344225285734,-1.3137205278309816,-2.0409958122080303,-0.9271829724311829,0.28446030616760254,-0.24374976754188538,-1.4069188833236694,-0.3705180883407593,-0.9731360673904419
7.17947793006897,-0.2898852229118347,-0.051211267709732056,0.07096745073795319,-0.27606361928831785,-1.3289232697402942,-2.077283657971756,-0.934128999710083,0.2725704312324524,-0.2304522693157196,-1.6035856008529663,-0.13324159383773804,-1.0502618551254272
7.199548959732056,-0.18946939706802368,0.056480973958969116,-0.02479332685470581,-0.26386138438777845,-1.3412263548583943,-2.1137643241598076,-0.940062403678894,0.2608102262020111,-0.21968300640583038,-1.506885290145874,-0.18726825714111328,-0.9608120918273926
7.21945595741272,-0.062400758266448975,0.14242656528949738,-0.12240886688232422,-0.2520645737960818,-1.355623569621209,-2.1453282757022842,-0.9460678696632385,0.24940381944179535,-0.20676901936531067,-1.1870564222335815,-0.44751039147377014,-0.8562136292457581
7.239454030990601,-0.009616613388061523,0.19149965047836304,-0.20390421152114868,-0.2406095002839467,-1.3724952006428435,-2.1684732976884704,-0.952160120010376,0.23829461634159088,-0.19132891297340393,-0.7980929613113403,-0.6364239454269409,-0.734501302242279
7.2594521045684814,-0.009828329086303711,0.21375468373298645,-0.2321828007698059,-0.2295398029006682,-1.3889560399711303,-2.1841088054059337,-0.9577162265777588,0.22752942144870758,-0.1760966181755066,-0.5062536001205444,-0.6348697543144226,-0.6459366083145142
7.2794530391693115,0.016201138496398926,0.2137335240840912,-0.2320137768983841,-0.21971642186398793,-1.4033376786219827,-2.1954316549849695,-0.9623071551322937,0.2179528772830963,-0.1626700609922409,-0.4519873857498169,-0.5483170747756958,-0.509936511516571
7.299448013305664,0.08145946264266968,0.19883334636688232,-0.2597307562828064,-0.2125847227190894,-1.41618200638143,-2.207065314815382,-0.9658282399177551,0.2109871357679367,-0.1505323201417923,-0.5551163554191589,-0.49158287048339844,-0.385372132062912
7.319449186325073,0.15998756885528564,0.18200600147247314,-0.28557586669921875,-0.20791648283787292,-1.4287745277110695,-2.2194520303095966,-0.9686118364334106,0.20642170310020447,-0.13849641382694244,-0.5437708497047424,-0.511785089969635,-0.25263628363609314
7.339511156082153,0.21739888191223145,0.1957191675901413,-0.31160253286361694,-0.20525513398427314,-1.4413394160472517,-2.229011953108604,-0.9708167910575867,0.2038169503211975,-0.12638577818870544,-0.34289899468421936,-0.5467396378517151,-0.14648747444152832
7.359446048736572,0.2436268925666809,0.21758247911930084,-0.32801151275634766,-0.2034033288314455,-1.4534210786987478,-2.234465267877263,-0.9726460576057434,0.20200365781784058,-0.11469175666570663,-0.14640486240386963,-0.5668171644210815,-0.11437933146953583
7.379446029663086,0.2651675343513489,0.20706085860729218,-0.33118736743927,-0.20168279673894549,-1.4652029822850243,-2.2348335825138004,-0.9742740392684937,0.20031830668449402,-0.10326092690229416,0.12565596401691437,-0.6047714948654175,-0.04454486072063446
7.399510145187378,0.2785900831222534,0.22317920625209808,-0.3451847434043884,-0.2010546383936608,-1.4763495208339863,-2.2297513475510686,-0.9754894971847534,0.19970282912254333,-0.09240679442882538,0.3905206322669983,-0.6196252703666687,0.01913212053477764
7.4194700717926025,0.27729159593582153,0.22023838758468628,-0.36222654581069946,-0.20097256457362228,-1.4866206779339863,-2.219290125649027,-0.9764034748077393,0.19962240755558014,-0.08238407224416733,0.6043694019317627,-0.6203777194023132,0.08412446826696396
7.439429044723511,0.2823915481567383,0.21511897444725037,-0.35731613636016846,-0.20375306830173875,-1.4959850722413606,-2.2047321261120403,-0.976574718952179,0.20234617590904236,-0.07319538295269012,0.7777510285377502,-0.5973460674285889,0.2641659080982208
7.459433078765869,0.24849307537078857,0.20581455528736115,-0.34486669301986694,-0.208192216696901,-1.5043287921987274,-2.187750465648841,-0.9762457609176636,0.20669148862361908,-0.06498437374830246,0.8462744951248169,-0.594856858253479,0.3236384391784668
7.479449033737183,0.17674791812896729,0.21300846338272095,-0.3308471441268921,-0.21430250946055984,-1.510722880000438,-2.16914048538381,-0.9753623604774475,0.21266594529151917,-0.05866396799683571,0.9336516857147217,-0.4121004045009613,0.3627595007419586
7.498585939407349,0.09751784801483154,0.22067926824092865,-0.30674564838409424,-0.22062026173238633,-1.512776907054729,-2.1498767719302436,-0.9741200804710388,0.21883489191532135,-0.05658138543367386,0.8882680535316467,-0.20776306092739105,0.39645475149154663
7.519559144973755,0.08261042833328247,0.19882729649543762,-0.2820358872413635,-0.22827518305251984,-1.5115708910028811,-2.1328094211487016,-0.9723504781723022,0.2262977957725525,-0.05765530839562416,0.7239982485771179,-0.07104861736297607,0.46817439794540405
7.539473056793213,0.0954967737197876,0.1814086139202118,-0.2504175305366516,-0.23759915501375503,-1.5093140105314868,-2.1193378607520468,-0.9700694680213928,0.23536990582942963,-0.05971738323569298,0.5384308099746704,-0.034984443336725235,0.554531991481781
7.559437036514282,0.0646868348121643,0.19664251804351807,-0.22845488786697388,-0.24896021100904836,-1.5075099291369944,-2.10823063582917,-0.967228889465332,0.24639636278152466,-0.06129428744316101,0.49269840121269226,-0.06379105895757675,0.6332616806030273
7.579232931137085,-0.03500699996948242,0.22116291522979736,-0.21014606952667236,-0.26066055961194146,-1.506606215067049,-2.096585254759829,-0.964229941368103,0.25771886110305786,-0.061979178339242935,0.59461909532547,-0.1559193879365921,0.5907044410705566
7.59948992729187,-0.1944655179977417,0.26487842202186584,-0.22971642017364502,-0.2701965504885493,-1.5061944600894377,-2.0806584116084754,-0.961708128452301,0.26692086458206177,-0.06221471354365349,0.9071099162101746,-0.19948896765708923,0.44282737374305725
7.619436979293823,-0.35800278186798096,0.31868505477905273,-0.23159682750701904,-0.2755637198207884,-1.502382135545757,-2.057727248870578,-0.9600207209587097,0.272089421749115,-0.06578170508146286,1.2434890270233154,0.012770649045705795,0.24745318293571472
7.639430999755859,-0.3523085117340088,0.3093060255050659,-0.17894232273101807,-0.2777155728340073,-1.4907451386244115,-2.0310899946828926,-0.9586044549942017,0.2741594612598419,-0.07690176367759705,1.2369486093521118,0.4258666932582855,0.19460944831371307
7.65942907333374,-0.11251729726791382,0.23159608244895935,-0.08799391984939575,-0.28158607029262867,-1.4731551375054583,-2.0082474835029305,-0.9560404419898987,0.27787959575653076,-0.09364672005176544,0.8905623555183411,0.6547823548316956,0.4272283613681793
7.679437875747681,0.09909611940383911,0.1498410999774933,-0.015893295407295227,-0.29308819868883795,-1.4564210643873916,-1.9925597892833653,-0.9511011838912964,0.2889100909233093,-0.10925929248332977,0.5271793603897095,0.5226001739501953,0.8858892917633057
7.6994240283966064,0.06745892763137817,0.10574325919151306,-0.026003174483776093,-0.31374642612119014,-1.443952439527014,-1.9797151571156517,-0.9435422420501709,0.3086243271827698,-0.12032859772443771,0.48960572481155396,0.3761976957321167,1.2605302333831787
7.719434976577759,-0.19751405715942383,0.14000505208969116,-0.06227385997772217,-0.3378678152968132,-1.4297386156552607,-1.96344091422053,-0.9340929388999939,0.33147621154785156,-0.13264191150665283,0.6928839683532715,0.5591945648193359,1.3122080564498901
7.739413022994995,-0.39046329259872437,0.1890629231929779,-0.0176226943731308,-0.36060209268213467,-1.4085407383274724,-1.941934774499479,-0.9233946800231934,0.3528376519680023,-0.1511547565460205,1.0254523754119873,0.827226459980011,1.224942922592163
7.7594239711761475,-0.4234657883644104,0.16749531030654907,0.04260827600955963,-0.3812881474960489,-1.378616825151183,-1.9112990128186367,-0.911098301410675,0.37211641669273376,-0.17728233337402344,1.3582772016525269,1.0272634029388428,1.351219654083252
7.779422998428345,-0.39131373167037964,0.10797011852264404,0.13040506839752197,-0.404164351824424,-1.3429732750720413,-1.8766776626550061,-0.8956735730171204,0.39325058460235596,-0.20766033232212067,1.2281522750854492,1.2275547981262207,1.5489444732666016
7.799432039260864,-0.359042227268219,-0.010448366403579712,0.2182520031929016,-0.43125431095011535,-1.3042223086803497,-1.8467393570637136,-0.8763551712036133,0.4180105924606323,-0.23930911719799042,0.7548424601554871,1.4338048696517944,1.762939691543579
7.819443941116333,-0.3098222017288208,-0.10554477572441101,0.25008830428123474,-0.4639955268398757,-1.2638367305038145,-1.8227071737714622,-0.8524703979492188,0.447524756193161,-0.27021467685699463,0.4459635317325592,1.5547809600830078,1.9989560842514038
7.839421033859253,-0.24818438291549683,-0.13063734769821167,0.24244216084480286,-0.5003445436885275,-1.2219025345189216,-1.798492554450483,-0.8245542049407959,0.4797278642654419,-0.29995253682136536,0.48993512988090515,1.4782956838607788,2.1085093021392822
7.859471082687378,-0.21873831748962402,-0.12340980768203735,0.22217810153961182,-0.5339687464097043,-1.177956296273578,-1.7662982277428207,-0.7952234745025635,0.5089536309242249,-0.32952365279197693,0.9269911646842957,1.350313663482666,2.0310592651367188
7.879415988922119,-0.20391494035720825,-0.12117147445678711,0.2496725618839264,-0.5602029596305336,-1.129303532149557,-1.723165947519321,-0.7659183740615845,0.5313581228256226,-0.361977219581604,1.3655741214752197,1.2749701738357544,1.8571935892105103
7.8994140625,-0.1797339916229248,-0.1783808469772339,0.31354638934135437,-0.5786336692769058,-1.078077227540386,-1.6739789091905168,-0.7376243472099304,0.5468805432319641,-0.39602014422416687,1.4344526529312134,1.1693942546844482,1.6755290031433105
7.91941499710083,-0.18950963020324707,-0.26219236850738525,0.3490532636642456,-0.5929108503814534,-1.0308568555489923,-1.6275159148469143,-0.7113387584686279,0.558777391910553,-0.4263390004634857,1.191713571548462,1.0400195121765137,1.4822251796722412
7.939450979232788,-0.2489200234413147,-0.3254393935203552,0.3921286463737488,-0.605976194537418,-0.9884622096626189,-1.590395380898666,-0.6864743232727051,0.569564700126648,-0.4520499110221863,0.687869668006897,1.1166678667068481,1.2576948404312134
7.959447145462036,-0.2434309720993042,-0.36404430866241455,0.43361732363700867,-0.6200428386687059,-0.9519237003841485,-1.5660075916060745,-0.662910521030426,0.5810700058937073,-0.4721304774284363,0.17954176664352417,1.1161737442016602,1.0398324728012085
7.979418992996216,-0.19634729623794556,-0.3702213764190674,0.4466717541217804,-0.6355562129219812,-0.923655513572795,-1.5530706690736982,-0.6420315504074097,0.5936251878738403,-0.4851849377155304,-0.22787338495254517,0.9491479396820068,0.8266817927360535
7.999420881271362,-0.20855778455734253,-0.36453813314437866,0.4428347945213318,-0.650764498756278,-0.9038930124397732,-1.5496055538630573,-0.6251519322395325,0.6057948470115662,-0.4921359121799469,-0.45342424511909485,0.845100462436676,0.5373249053955078
8.019443988800049,-0.24222218990325928,-0.3610382080078125,0.44499292969703674,-0.6626831174329942,-0.889488633173067,-1.5531107646413471,-0.6123462915420532,0.6152342557907104,-0.49650657176971436,-0.4901076555252075,0.8020691275596619,0.22383932769298553
8.03942608833313,-0.22409707307815552,-0.3545893430709839,0.43363821506500244,-0.6692882554248648,-0.8800771991560441,-1.5611418584985919,-0.604500949382782,0.6204279661178589,-0.49964770674705505,-0.40520673990249634,0.6204289197921753,-0.11136701703071594
8.059460878372192,-0.21233344078063965,-0.3465725779533386,0.41460978984832764,-0.6698840263160895,-0.8777164211815864,-1.5736350237146561,-0.6030352115631104,0.6208950877189636,-0.5008371472358704,-0.4051622450351715,0.403208464384079,-0.4723522961139679
8.078999996185303,-0.23924905061721802,-0.3402899503707886,0.39823436737060547,-0.6653811584138837,-0.8831228982526211,-1.5929325960823897,-0.607888400554657,0.6173590421676636,-0.49933913350105286,-0.48196151852607727,0.2843042314052582,-0.8400856852531433
8.0988130569458,-0.2456061840057373,-0.3257482051849365,0.38481974601745605,-0.656797818703364,-0.8939553114804235,-1.6191712895864112,-0.6173699498176575,0.610584020614624,-0.49602583050727844,-0.596067488193512,0.25336310267448425,-1.1138484477996826
8.11940312385559,-0.20677262544631958,-0.31830310821533203,0.39563697576522827,-0.6466272795935283,-0.909609749667369,-1.6519975987849056,-0.6299278140068054,0.6024979948997498,-0.49008888006210327,-0.8505619764328003,0.170091912150383,-1.3091298341751099
8.139402151107788,-0.19014954566955566,-0.32646268606185913,0.40753456950187683,-0.6368885281439665,-0.9315213842752686,-1.6934096834817556,-0.6451928019523621,0.5946968793869019,-0.47964757680892944,-1.2161297798156738,0.12575632333755493,-1.4773122072219849
8.159419059753418,-0.21420907974243164,-0.31232017278671265,0.3942963480949402,-0.6274911785813805,-0.9596443281100459,-1.7440046292854743,-0.6629729270935059,0.5871157050132751,-0.4645020365715027,-1.5165536403656006,0.03851719945669174,-1.6998757123947144
8.179401159286499,-0.2517625093460083,-0.2614107131958008,0.35024648904800415,-0.61427637062673,-0.9938491543186722,-1.801115276751809,-0.6849135160446167,0.5763673186302185,-0.44575121998786926,-1.5655492544174194,-0.14408545196056366,-2.0057806968688965
8.19943904876709,-0.30445384979248047,-0.18892806768417358,0.3232489824295044,-0.5939700966704249,-1.0327694339321627,-1.8607193364618608,-0.711644172668457,0.5596555471420288,-0.4246741831302643,-1.5445376634597778,-0.33714765310287476,-2.335407257080078
8.21943998336792,-0.36591315269470215,-0.14280784130096436,0.32629117369651794,-0.5660850854707303,-1.0746153891287473,-1.9233531265720822,-0.7422258257865906,0.5363319516181946,-0.40180689096450806,-1.661991000175476,-0.39692845940589905,-2.67879319190979
8.23940110206604,-0.3459551930427551,-0.12144672870635986,0.3154858648777008,-0.5326458584129632,-1.117827758804663,-1.9897210893046822,-0.7745891809463501,0.5078144073486328,-0.3770092725753784,-1.8579621315002441,-0.48270177841186523,-2.8739678859710693
8.259397029876709,-0.2710542678833008,-0.06279143691062927,0.271247535943985,-0.49597868064106304,-1.1630278262099683,-2.058264157960683,-0.8073912262916565,0.4758926331996918,-0.3487774729728699,-2.0223898887634277,-0.663882315158844,-2.956634044647217
8.279397010803223,-0.23176109790802002,-0.001345515251159668,0.20534935593605042,-0.4563181642576645,-1.2077735455474252,-2.1255084315966393,-0.8391769528388977,0.4406459927558899,-0.3187679350376129,-2.0146267414093018,-0.7100111842155457,-2.964946985244751
8.299412965774536,-0.18830019235610962,0.05194878578186035,0.13666769862174988,-0.4141502351889159,-1.2481950082281785,-2.1875319944896625,-0.8682337403297424,0.40241214632987976,-0.29023221135139465,-1.853929042816162,-0.7243295907974243,-2.884734630584717
8.319393873214722,-0.13182324171066284,0.12113207578659058,0.07437601685523987,-0.3711730235428065,-1.2837801564930837,-2.2414906054470274,-0.8937810063362122,0.36270883679389954,-0.26381388306617737,-1.620252251625061,-0.7598291635513306,-2.7117180824279785
8.339392900466919,-0.12924283742904663,0.17272987961769104,0.06081444025039673,-0.3299594656776153,-1.3145936159184601,-2.288589566069544,-0.9151754975318909,0.3240046799182892,-0.23973901569843292,-1.604325532913208,-0.6746647357940674,-2.44907283782959
8.359390020370483,-0.17367392778396606,0.1704498529434204,0.09457623958587646,-0.2934609431011597,-1.3398114206334204,-2.335377360037582,-0.9318253397941589,0.2892669439315796,-0.21914900839328766,-1.885318636894226,-0.39805400371551514,-2.1745822429656982
