timestamp,acceleration_x,acceleration_y,acceleration_z,attitude_pitch,attitude_roll,attitude_yaw,gravity_x,gravity_y,gravity_z,rotation_x,rotation_y,rotation_z
0.0,0.21765756607055664,0.02438989281654358,-0.10382235050201416,-0.49871293353464896,-1.0855033415011557,-2.382442487585872,-0.7768005728721619,0.47829562425613403,-0.4096512794494629,-0.8907491564750671,0.2676655054092407,-0.36704784631729126
0.019979000091552734,0.19797372817993164,0.06293722987174988,-0.12769442796707153,-0.49928227047052276,-1.0896477740722945,-2.4004892365757495,-0.7782501578330994,0.4787955582141876,-0.406302273273468,-0.5223808884620667,0.164606511592865,-0.33807551860809326
0.03941011428833008,0.264817476272583,0.057675838470458984,-0.1505953073501587,-0.49625727109618933,-1.091968627265788,-2.4079210641428666,-0.7804729342460632,0.476137638092041,-0.40516045689582825,0.11839209496974945,-0.06329847127199173,-0.20454207062721252
0.05998992919921875,0.33449065685272217,0.0687539279460907,-0.1887040138244629,-0.4896058254699078,-1.0922322270341858,-2.400824103655626,-0.7833737134933472,0.4702780544757843,-0.40640419721603394,0.7094596028327942,-0.2626233994960785,-0.1235048845410347
0.07998514175415039,0.34452706575393677,0.096047043800354,-0.16627007722854614,-0.4784575130382939,-1.0905533528691622,-2.3836003336106226,-0.7872912883758545,0.4604104459285736,-0.4101155400276184,1.1109784841537476,-0.31187793612480164,-0.13303160667419434
0.10007095336914062,0.3468990921974182,0.014884859323501587,-0.178348571062088,-0.465096717154098,-1.087074057101611,-2.3597884459983844,-0.7912349104881287,0.44850924611091614,-0.41567620635032654,1.3890643119812012,-0.4424363672733307,-0.02956775762140751
0.1199798583984375,0.38638341426849365,-0.024891376495361328,-0.16817668080329895,-0.4513455371550145,-1.084482201948588,-2.3309529380584437,-0.7955325245857239,0.43617671728134155,-0.4205685257911682,1.6081719398498535,-0.6262027621269226,-0.018800606951117516
0.14008498191833496,0.38527846336364746,0.007931679487228394,-0.18074166774749756,-0.4345564295540691,-1.0860203561822872,-2.297809618994736,-0.8025453090667725,0.4210081100463867,-0.4226977527141571,1.8066680431365967,-0.892848014831543,-0.10693810135126114
0.15963411331176758,0.3393321633338928,-0.01154676079750061,-0.1253354549407959,-0.41438770605683084,-1.0894381031717826,-2.2641472273034307,-0.8113476037979126,0.4026295244693756,-0.4237980246543884,1.7404829263687134,-0.8516562581062317,-0.2540559768676758
0.18009495735168457,0.33327484130859375,-0.10797122120857239,0.0015674233436584473,-0.3943918682911748,-1.0968452663964312,-2.23966001820134,-0.8214645385742188,0.384246826171875,-0.421367347240448,1.2250566482543945,-0.8684487342834473,-0.48806142807006836
0.2000110149383545,0.3401437997817993,-0.167324036359787,-0.030583679676055908,-0.37450331240629925,-1.1109490533128532,-2.223661023241733,-0.8340097665786743,0.3658103048801422,-0.41305047273635864,1.1039375066757202,-1.161055326461792,-0.5878389477729797
0.2190260887145996,0.3255857825279236,-0.08375093340873718,-0.0954962968826294,-0.35363361581539815,-1.130103748870696,-2.207480617018067,-0.8484892249107361,0.3463088572025299,-0.40017032623291016,1.1619372367858887,-1.2977064847946167,-0.7023904323577881
0.23924684524536133,0.2966846227645874,-0.022847920656204224,0.0020116567611694336,-0.32841773264034113,-1.150264938852253,-2.193043810814517,-0.8640826940536499,0.32254573702812195,-0.38642647862434387,1.146963357925415,-1.2209981679916382,-0.9739819169044495
0.2600078582763672,0.3389378786087036,-0.025593161582946777,0.12928640842437744,-0.30191813519681643,-1.1706858710574863,-2.1776484471171975,-0.8793584108352661,0.297352135181427,-0.371901273727417,1.3428113460540771,-1.334651231765747,-0.824471652507782
0.27997803688049316,0.3310566544532776,0.027394264936447144,0.16289108991622925,-0.2758020889846782,-1.1928226577452086,-2.1543307245581507,-0.8942890763282776,0.2723188102245331,-0.3550909161567688,1.7507679462432861,-1.587287187576294,-0.853064775466919
0.30003786087036133,0.19401204586029053,0.10708361864089966,0.08376878499984741,-0.24210687163129163,-1.2178981017014001,-2.1236658432028195,-0.911007285118103,0.23974858224391937,-0.33553892374038696,2.2480554580688477,-1.6365159749984741,-1.1976916790008545
0.31996703147888184,0.10146617889404297,0.15324123203754425,0.007848590612411499,-0.2021051402997212,-1.2404977901192877,-2.0872072588872856,-0.9266919493675232,0.2007320672273636,-0.31772416830062866,2.3636794090270996,-1.4565197229385376,-1.432403326034546
0.3399648666381836,0.16504442691802979,0.12647075951099396,0.09834682941436768,-0.15887996528859863,-1.262130816454624,-2.0533350186549733,-0.9407402276992798,0.15821237862110138,-0.2999613285064697,2.097050666809082,-1.3522312641143799,-1.563178539276123
0.3599669933319092,0.22562772035598755,0.09681721776723862,0.16711574792861938,-0.11833293823761286,-1.2869006052066387,-2.0244377149635997,-0.9532583355903625,0.11805696785449982,-0.27813878655433655,1.874681830406189,-1.5256340503692627,-1.5082852840423584
0.37996506690979004,0.06774294376373291,0.15416626632213593,0.16135594248771667,-0.07862641458353661,-1.3124645279096216,-1.9982148973757776,-0.9638305306434631,0.07854542881250381,-0.25467878580093384,1.735210657119751,-1.2716823816299438,-1.6143232583999634
0.4000239372253418,-0.14572352170944214,0.19474264979362488,0.24606269598007202,-0.036909294433537194,-1.3290431631638584,-1.976999885721215,-0.9702585339546204,0.03690091520547867,-0.23924213647842407,1.2801820039749146,-0.3847128748893738,-1.8978205919265747
0.4199850559234619,-0.2778266668319702,0.15575598180294037,0.24341018497943878,0.006662512410064897,-1.332093692689993,-1.9660246302433342,-0.971623957157135,-0.006662463303655386,-0.23643699288368225,0.9014708399772644,0.04430762305855751,-2.0616025924682617
0.4400448799133301,-0.20729511976242065,0.15983474254608154,0.33834531903266907,0.04560810727769358,-1.3271160871318195,-1.9601282778235207,-0.9694474935531616,-0.0455922968685627,-0.24102488160133362,0.48204195499420166,0.2726002037525177,-1.525699496269226
0.4599759578704834,-0.08848267793655396,0.17770349979400635,0.42828822135925293,0.07312397161630967,-1.321368429613739,-1.9657359369008565,-0.9664642214775085,-0.07305882126092911,-0.24618995189666748,-0.2513521611690521,0.27798306941986084,-1.3233423233032227
0.4799661636352539,-0.15163147449493408,0.20689375698566437,0.37774941325187683,0.09447020484122108,-1.3152300672141852,-1.9788175705435598,-0.9632060527801514,-0.09432975202798843,-0.2516660988330841,-0.38655561208724976,0.34989699721336365,-1.0658917427062988
0.49996495246887207,-0.20167243480682373,0.37975114583969116,0.36085718870162964,0.11197976155815303,-1.3060324009676987,-1.9883718137291284,-0.9591094255447388,-0.11174587905406952,-0.2600424885749817,-0.003049885854125023,0.29340097308158875,-0.9224376678466797
0.5200128555297852,-0.20638912916183472,0.46204954385757446,0.31471773982048035,0.13084923605016505,-1.3017979397360662,-1.9857108330472424,-0.955796480178833,-0.13047616183757782,-0.263494074344635,0.8344752192497253,0.2173939198255539,-0.7631182074546814
0.5393581390380859,-0.24963271617889404,0.48792821168899536,0.26241156458854675,0.14994278249805534,-1.2985533837526575,-1.9672551376480039,-0.9523631930351257,-0.14938156306743622,-0.2658753991127014,1.291985034942627,0.49984467029571533,-0.6557466983795166
0.5599770545959473,-0.27289819717407227,0.4190967381000519,0.36427071690559387,0.16881412766816467,-1.288394670694477,-1.9474038993310483,-0.946736752986908,-0.16801345348358154,-0.27470168471336365,1.0884766578674316,0.7088254690170288,-0.5784041881561279
0.5799641609191895,-0.21078479290008545,0.22844402492046356,0.40186208486557007,0.18112348062269212,-1.2774950354002936,-1.932406339223378,-0.941635251045227,-0.18013478815555573,-0.2843847870826721,0.6013709306716919,0.62044757604599,-0.1511431634426117
0.5999650955200195,-0.23500406742095947,0.1879238337278366,0.4361175000667572,0.18361334846009833,-1.2704430576927235,-1.9247671479270685,-0.9391749501228333,-0.18258336186408997,-0.29088443517684937,0.3617538511753082,0.37360909581184387,0.15048009157180786
0.620398998260498,-0.3564629554748535,0.24416135251522064,0.5199082493782043,0.18014707088707874,-1.259461980176346,-1.9162201569744275,-0.936521053314209,-0.1791742593050003,-0.3013719320297241,0.41124528646469116,0.8270299434661865,0.2622024714946747
0.6400270462036133,-0.3572009801864624,0.22079189121723175,0.5113458633422852,0.17984400403469414,-1.2440470479287817,-1.9048423110206818,-0.9318156838417053,-0.1788761019706726,-0.3157893419265747,0.5607665777206421,0.7573161721229553,0.1916481852531433
0.6599700450897217,-0.17508119344711304,0.18899771571159363,0.4184912443161011,0.18001984007722022,-1.23727043056408,-1.8907962887128735,-0.9296245574951172,-0.17904908955097198,-0.32208627462387085,0.712162971496582,0.1384824961423874,0.36632126569747925
0.6799659729003906,-0.20420384407043457,0.25268805027008057,0.4051937162876129,0.17882589214529326,-1.2388952263821957,-1.8724295967875288,-0.9303480982780457,-0.17787431180477142,-0.3206448256969452,1.043929100036621,-0.05441274121403694,0.3174131512641907
0.6999979019165039,-0.5296087265014648,0.2780153155326843,0.06401494145393372,0.17784674278381005,-1.253701799465843,-1.8467468073017637,-0.9351586699485779,-0.17691069841384888,-0.3068890869617462,1.022057294845581,-0.7474967837333679,0.8272475600242615
0.719965934753418,-0.32960426807403564,0.3067060708999634,0.7641100287437439,0.1573454975769776,-1.2633849585598271,-1.8270893824924967,-0.9413459897041321,-0.15669704973697662,-0.29885441064834595,0.22781586647033691,-0.06004061922430992,1.5484133958816528
0.7400579452514648,-0.4268704652786255,0.25216037034988403,0.5829598903656006,0.13244544491744437,-1.2752040223830525,-1.812992163470224,-0.9482514262199402,-0.13205856084823608,-0.2887552082538605,0.5328956842422485,-0.7301610112190247,1.3151273727416992
0.7600898742675781,-0.5268185138702393,0.219345822930336,0.5581903457641602,0.11122244467555376,-1.2902334694563644,-1.7890814719994708,-0.954962432384491,-0.11099327355623245,-0.27518564462661743,1.1574923992156982,-0.4256623685359955,1.3349069356918335
0.7799689769744873,-0.6283553242683411,0.18976037204265594,0.6251363158226013,0.09225029344584519,-1.2979371124859524,-1.7554861519319487,-0.9589096903800964,-0.09211950749158859,-0.268340140581131,1.3640998601913452,-0.06556153297424316,1.5299770832061768
0.7999649047851562,-0.5920282006263733,0.06672167032957077,0.6343315839767456,0.06408011783489749,-1.3023360380649145,-1.7255566784997949,-0.9622016549110413,-0.06403627246618271,-0.26470282673835754,0.6981165409088135,-0.27647632360458374,1.9537466764450073
0.8200299739837646,-0.4941609501838684,-0.08771851658821106,0.5998374819755554,0.027840013354300676,-1.3194196071133961,-1.7014866536247741,-0.9681955575942993,-0.02783641777932644,-0.2486412674188614,0.786992609500885,-1.15044367313385,2.1995410919189453
0.8400740623474121,-0.5757537484169006,0.07491248100996017,0.5352891683578491,-0.009789084068499,-1.3441849276701034,-1.6702968078217424,-0.9743866324424744,0.009788927622139454,-0.22466608881950378,1.4528669118881226,-1.3221489191055298,2.115854263305664
0.8603000640869141,-0.8071768879890442,0.1423966884613037,0.3772503435611725,-0.04447696319951781,-1.3652393573883546,-1.6284198549588709,-0.977979302406311,0.04446230083703995,-0.20391057431697845,1.8291995525360107,-0.8847406506538391,2.2525634765625
0.8801209926605225,-0.8455479145050049,-0.03092484176158905,0.25688737630844116,-0.08406323183607324,-1.3789244079360523,-1.5835020128413715,-0.9781825542449951,0.0839642584323883,-0.19002340734004974,1.6712067127227783,-0.8029997944831848,2.5263702869415283
0.9014129638671875,-0.8425037264823914,-0.14293304085731506,0.1868889331817627,-0.1321323403098185,-1.392136311225655,-1.5457042874660891,-0.9755047559738159,0.13174819946289062,-0.1761620193719864,1.136115550994873,-0.7683985233306885,2.881700038909912
0.9201679229736328,-0.8561050891876221,-0.20830543339252472,0.257845401763916,-0.18936976923261647,-1.4020598364216614,-1.5164293991940072,-0.9681746959686279,0.1882399618625641,-0.16493472456932068,0.7633731961250305,-0.639040470123291,3.0567028522491455
0.9399991035461426,-0.8214253187179565,-0.18335485458374023,0.14671963453292847,-0.2460407784250344,-1.4100667101492816,-1.4903427984766573,-0.9573832750320435,0.2435658872127533,-0.15521879494190216,0.8874487280845642,-0.7634009718894958,2.94425106048584
0.9599871635437012,-0.7789109349250793,-0.17534467577934265,0.02956773340702057,-0.30005055790184576,-1.4155807575399417,-1.4586120162459018,-0.9438368678092957,0.2955684959888458,-0.14768609404563904,1.3017334938049316,-0.6370737552642822,2.8279290199279785
0.9799699783325195,-0.8436609506607056,-0.24619421362876892,-0.12483948469161987,-0.3494546786742092,-1.4170688892824401,-1.4232447131702772,-0.9284796118736267,0.34238550066947937,-0.1438678801059723,1.0894088745117188,-0.578161895275116,2.6580851078033447
0.9999871253967285,-0.7426746487617493,-0.3671892285346985,0.00491410493850708,-0.4004835197458694,-1.418861903033133,-1.4023385260896382,-0.910264253616333,0.38986364006996155,-0.13937458395957947,0.06405804306268692,-0.42796972393989563,2.6600606441497803
1.0287959575653076,-0.7125256657600403,-0.39907461404800415,-0.2125430554151535,-0.5002627451139202,-1.437898984401624,-1.421123800235302,-0.8697191476821899,0.4796561002731323,-0.11626867204904556,-1.226123571395874,0.1021772250533104,1.9734002351760864
1.039039134979248,-0.7125256657600403,-0.39907461404800415,-0.2125430554151535,-0.5002627451139202,-1.437898984401624,-1.421123800235302,-0.8697191476821899,0.4796561002731323,-0.11626867204904556,-1.226123571395874,0.1021772250533104,1.9734002351760864
1.0681538581848145,-0.8283175230026245,-0.08673340082168579,-0.5112300515174866,-0.5704319035959016,-1.4371118482145901,-1.475872852958585,-0.834158182144165,0.5399956107139587,-0.1121830940246582,-1.9410799741744995,1.159792423248291,1.3317818641662598
1.0883731842041016,-0.5925507545471191,-0.17359894514083862,-0.37259000539779663,-0.6031752981067876,-1.4381909085030509,-1.520627206334363,-0.8163085579872131,0.5672603249549866,-0.10888591408729553,-2.029911518096924,1.1464554071426392,1.4021283388137817
1.108260154724121,-0.49342799186706543,-0.05397462844848633,-0.2973700165748596,-0.6326667565245067,-1.4364793073768976,-1.5582485316155885,-0.7991898655891418,0.591297447681427,-0.10799503326416016,-1.4077765941619873,1.189260721206665,1.0499022006988525
1.1282360553741455,-0.48128288984298706,0.04052734375,-0.24321073293685913,-0.6528685602928221,-1.4302223755846295,-1.585088682545662,-0.7865089178085327,0.607467532157898,-0.11129675060510635,-1.0840623378753662,1.115601658821106,0.6900351047515869
1.149519920349121,-0.46227049827575684,-0.06916356086730957,-0.1404741406440735,-0.66987854221743,-1.4242261609066325,-1.6126630018399273,-0.7754920721054077,0.6208907961845398,-0.1144849956035614,-1.438286304473877,1.2398109436035156,0.6676856875419617
1.1680231094360352,-0.48708879947662354,-0.08987289667129517,-0.09527987241744995,-0.6847054235057072,-1.4204858063190018,-1.6480380089143447,-0.7658714652061462,0.6324448585510254,-0.11599341034889221,-1.4309301376342773,1.3861773014068604,0.4237486720085144
1.1878039836883545,-0.2726113796234131,0.02061563730239868,-0.04222065210342407,-0.6948535269427532,-1.4130345196811989,-1.6777879952625139,-0.7586081624031067,0.6402729153633118,-0.12068227678537369,-0.8668505549430847,1.149387240409851,0.22529864311218262
1.2068290710449219,-0.104622483253479,0.11698222160339355,-0.11134420335292816,-0.7014371724857426,-1.3996407456529394,-1.6893797933435948,-0.7527536749839783,0.6453162431716919,-0.1301109790802002,-0.3164246678352356,0.966518223285675,0.23138327896595
1.2268471717834473,-0.08842319250106812,0.12366312742233276,-0.07009701430797577,-0.7043202099492628,-1.3848693186895868,-1.697402742854113,-0.7489181756973267,0.6475159525871277,-0.14087112247943878,-0.2707240879535675,1.1266223192214966,0.04359062761068344
1.2476449012756348,0.07046794891357422,-0.0342373251914978,-0.04004162549972534,-0.7064077998328189,-1.3682670331522628,-1.7052694983488652,-0.745150625705719,0.6491053700447083,-0.15301266312599182,-0.2986900210380554,0.9681441783905029,-0.0299517959356308
1.2669401168823242,0.3178712725639343,-0.030471503734588623,-0.050654053688049316,-0.7063116379934126,-1.3528713209879069,-1.70862349212361,-0.7427676320075989,0.6490322351455688,-0.16447970271110535,0.1107533648610115,0.9008796215057373,-0.0425153523683548
1.2879390716552734,0.5217571258544922,-0.05305802822113037,0.019393667578697205,-0.7004341952967086,-1.3294282541454836,-1.7024441420368586,-0.7423993349075317,0.6445497274398804,-0.18275436758995056,0.5013976693153381,0.977658748626709,-0.42564857006073
1.306689977645874,0.7698579430580139,-0.05915480852127075,0.018396496772766113,-0.686417614767573,-1.3002418388041876,-1.6850177153632668,-0.7453829050064087,0.633770227432251,-0.20673581957817078,1.0101391077041626,0.8272231817245483,-0.5165645480155945
1.3276469707489014,0.9790683388710022,-0.034864723682403564,0.05460935831069946,-0.672181232813431,-1.2728427822685475,-1.6640923202789129,-0.747989296913147,0.622694194316864,-0.22970405220985413,0.9227349162101746,0.5846520662307739,-0.3450924754142761
1.3474650382995605,1.1586942672729492,-0.19799327850341797,0.1715192347764969,-0.6615548705014921,-1.2511562946878712,-1.643821915056895,-0.7490720748901367,0.6143444180488586,-0.24793533980846405,1.0451548099517822,0.2903507649898529,-0.19084063172340393
1.366487979888916,1.2607967853546143,-0.07209813594818115,0.1146615743637085,-0.650009994979575,-1.2266485652971328,-1.6121293786840771,-0.7493985295295715,0.6051943898200989,-0.26859232783317566,1.7120115756988525,0.2937079668045044,-0.14701129496097565
1.3872251510620117,1.2475272417068481,-0.08355671167373657,0.10498356819152832,-0.632585338500976,-1.1950253841947116,-1.56754515740314,-0.7502281069755554,0.5912318229675293,-0.295977920293808,2.2491114139556885,0.19837361574172974,-0.1594453752040863
1.4074678421020508,1.2964040040969849,-0.24508947134017944,0.15385431051254272,-0.6113360764418639,-1.1659079222503963,-1.5195946787384231,-0.7526723742485046,0.5739620327949524,-0.3225708603858948,2.230630397796631,-0.2289101630449295,-0.371970534324646
1.4271810054779053,1.3783082962036133,-0.23007124662399292,0.12970399856567383,-0.584341301820584,-1.1480037915051284,-1.4671450254035092,-0.7606325745582581,0.5516501069068909,-0.342228502035141,2.7648932933807373,-0.8021450042724609,-0.34816890954971313
1.446998119354248,1.3550399541854858,-0.3826938271522522,0.5565434694290161,-0.556049877340444,-1.1326092804165473,-1.410128800117073,-0.7691025733947754,0.5278353095054626,-0.3603765666484833,2.6989011764526367,-0.6794716119766235,-0.34085822105407715
1.4670159816741943,1.1399238109588623,-0.44744616746902466,0.4344968795776367,-0.5243005397712057,-1.1210045579592944,-1.3579841292497068,-0.7795723080635071,0.5006076097488403,-0.3763761520385742,2.784821033477783,-0.8855147361755371,-0.5970666408538818
1.487091064453125,1.060079574584961,-0.2292160987854004,0.2909700274467468,-0.4863537898209596,-1.118598929402452,-1.3078729889705842,-0.7951869964599609,0.4674055874347687,-0.3862764537334442,2.8545215129852295,-1.3937448263168335,-0.9025229811668396
1.5062689781188965,0.9182643294334412,-0.09920716285705566,0.0856788158416748,-0.44549275989669257,-1.1315406634336609,-1.2600484182008755,-0.8167324066162109,0.4309026002883911,-0.3837593197822571,2.535407781600952,-2.0480968952178955,-0.8959993124008179
1.5268940925598145,0.738844633102417,-0.2345067262649536,0.32007187604904175,-0.4079438920861044,-1.156883701088313,-1.2187000431339519,-0.8404224514961243,0.39672279357910156,-0.36918994784355164,2.5458641052246094,-2.281620502471924,-0.9158681631088257
1.5474400520324707,0.4801812171936035,-0.04395967721939087,0.2280104160308838,-0.36946163456053954,-1.1910157234358192,-1.177071944479852,-0.8660759925842285,0.36111345887184143,-0.3457014858722687,2.5449490547180176,-2.7926011085510254,-1.2093316316604614
1.5668401718139648,0.2400079369544983,-0.050721973180770874,0.20447471737861633,-0.327285438514619,-1.2378440713031889,-1.135231082500866,-0.8949151635169983,0.32147374749183655,-0.30948567390441895,2.5592663288116455,-3.351123571395874,-1.4130423069000244
1.586717128753662,-0.014165043830871582,-0.13910827040672302,0.21258097887039185,-0.28378632170787754,-1.298678450826601,-1.0952862931930776,-0.9246777892112732,0.2799925208091736,-0.25802168250083923,2.369384765625,-3.908474922180176,-1.6516691446304321
1.6067800521850586,-0.34457606077194214,-0.2986433804035187,0.2210005819797516,-0.23666798808446018,-1.3676332238544948,-1.0569058480697084,-0.9521312713623047,0.23446480929851532,-0.19614402949810028,2.264554023742676,-3.88218092918396,-2.0730743408203125
1.626582145690918,-0.8073777556419373,-0.41953855752944946,0.19497276842594147,-0.18904928190541537,-1.4273976969876825,-1.0271539083173986,-0.9721022248268127,0.18792520463466644,-0.14036153256893158,1.0697683095932007,-2.6412923336029053,-2.0753672122955322
1.6465179920196533,-1.2350387573242188,-0.8203281164169312,0.20054525136947632,-0.14905001416154254,-1.4630428472522872,-1.0341895046727259,-0.9831771850585938,0.1484987437725067,-0.10635269433259964,-1.2619389295578003,-0.7166397571563721,-1.7517262697219849
1.6665940284729004,-1.3226182460784912,-0.7005627155303955,0.11396430432796478,-0.12605173195531677,-1.4690650175501783,-1.0851859429112205,-0.9869369864463806,0.12571819126605988,-0.10075020045042038,-3.1100986003875732,0.43020233511924744,-1.1262565851211548
1.6866888999938965,-0.5655026435852051,-0.25774282217025757,0.025095589458942413,-0.11807849689125079,-1.4669728197720635,-1.143942653905887,-0.9876894950866699,0.11780430376529694,-0.1029154360294342,-2.1484689712524414,0.4650856554508209,-0.34829768538475037
1.7040691375732422,-0.11215400695800781,0.20956894755363464,-0.03663034737110138,-0.11757538972695285,-1.4581273173572304,-1.1679686597482264,-0.986799418926239,0.11730468273162842,-0.11165457218885422,-0.2797006368637085,0.7054548263549805,-0.1338261365890503
1.726409912109375,-0.16044723987579346,-0.21896260976791382,-0.12292881309986115,-0.11704138133923456,-1.437694330824932,-1.1695180171318864,-0.9843740463256836,0.11677434295415878,-0.13180141150951385,-0.0024129380472004414,1.2181404829025269,0.0995573028922081
1.746068000793457,-0.031850218772888184,-0.5947935581207275,0.052326321601867676,-0.1228887372916525,-1.4167594729586643,-1.176968436703109,-0.9807078242301941,0.1225796639919281,-0.15227138996124268,-0.7594463229179382,0.9338993430137634,0.37915658950805664
1.7661771774291992,-0.16401392221450806,-0.5791298151016235,0.14168399572372437,-0.1357134804104196,-1.4017834880125866,-1.1953908713374197,-0.9766874313354492,0.1352972686290741,-0.16666267812252045,-1.248767375946045,0.8482142686843872,0.5462082028388977
1.7862739562988281,-0.4555063843727112,-0.4726952314376831,0.20558559894561768,-0.15121872439468184,-1.3870883626061592,-1.2194286231648042,-0.9719533920288086,0.15064306557178497,-0.18059173226356506,-1.1780439615249634,0.9988461136817932,0.524223268032074
1.8059768676757812,-0.546406090259552,-0.3126509487628937,0.26007920503616333,-0.16463559603191433,-1.3675975496056818,-1.2357459606556673,-0.9661824703216553,0.16389286518096924,-0.19907458126544952,-0.838171660900116,1.0882185697555542,0.43413934111595154
1.8250000476837158,-0.5462051630020142,-0.3581140637397766,0.27681073546409607,-0.17690629153607298,-1.3504884508783563,-1.253106319726519,-0.9606004357337952,0.17598499357700348,-0.21511946618556976,-1.0822136402130127,0.9538183808326721,0.46660351753234863
1.8458571434020996,-0.5290527939796448,-0.4657188355922699,0.310222864151001,-0.19155846705573104,-1.3359356004564695,-1.274173110560578,-0.9547576308250427,0.19038908183574677,-0.22845102846622467,-1.2618132829666138,0.936633288860321,0.48413875699043274
1.865082025527954,-0.5858984589576721,-0.31482258439064026,0.3122204542160034,-0.20785644257062436,-1.3221672266123647,-1.2985205973695324,-0.9483880996704102,0.20636296272277832,-0.24077880382537842,-1.4278314113616943,0.9636788964271545,0.5562248229980469
1.8846468925476074,-0.5925201773643494,-0.2597842216491699,0.319487601518631,-0.22612267625095295,-1.30677912863334,-1.3220773253085214,-0.94077467918396,0.22420060634613037,-0.25431740283966064,-1.2299532890319824,1.1160575151443481,0.7199026942253113
1.9056859016418457,-0.5018473267555237,-0.13609904050827026,0.25166547298431396,-0.24745763503273263,-1.290557160095079,-1.3397332032957117,-0.9317159652709961,0.24493983387947083,-0.26816022396087646,-1.0249215364456177,0.9508150219917297,0.8942074179649353
1.9256579875946045,-0.375028133392334,-0.1620509922504425,0.2543312907218933,-0.2731147477833604,-1.2752140129329874,-1.35406552214727,-0.9211753606796265,0.2697320282459259,-0.2805001139640808,-1.078616976737976,0.9689372777938843,1.1823675632476807
1.947573184967041,-0.2877156734466553,-0.2177039086818695,0.29544293880462646,-0.3034393779548097,-1.2600878807246132,-1.3707571057534818,-0.908619225025177,0.29880422353744507,-0.29176566004753113,-1.3627400398254395,1.059592366218567,1.1878643035888672
1.9679598808288574,-0.2838194966316223,-0.20238587260246277,0.27706897258758545,-0.3347630511038663,-1.2437255009834935,-1.3894960902808347,-0.894418478012085,0.32854539155960083,-0.3034362196922302,-1.3461676836013794,1.1614428758621216,1.2837495803833008
1.9870109558105469,-0.2647364139556885,-0.21791517734527588,0.21919843554496765,-0.36649102376848364,-1.2282052158727876,-1.409418124101465,-0.8793372511863708,0.35834169387817383,-0.3136199414730072,-1.3822710514068604,1.081058382987976,1.0719906091690063
2.0054469108581543,-0.19519120454788208,-0.2460680603981018,0.194256991147995,-0.3955045353368046,-1.2145671749947253,-1.4296475351558624,-0.8648673892021179,0.385273814201355,-0.3218204975128174,-1.4245277643203735,0.9958807229995728,1.061505913734436
2.0257511138916016,-0.11255019903182983,-0.283538818359375,0.17382636666297913,-0.4273315692752441,-1.2070797718361674,-1.4534860081350782,-0.8505387306213379,0.41444382071495056,-0.3237592279911041,-1.831697940826416,0.7850532531738281,1.160696268081665
2.045366048812866,-0.14542049169540405,-0.1436007022857666,0.23776891827583313,-0.45978584986936405,-1.2061641264280707,-1.491056515299073,-0.8372302651405334,0.44375619292259216,-0.319571316242218,-2.244903802871704,1.0116310119628906,0.5514873266220093
2.0653491020202637,-0.19680815935134888,-0.12124380469322205,0.15448904037475586,-0.4828003467615978,-1.2027988471871904,-1.53103452067666,-0.8264005184173584,0.4642612636089325,-0.3186279535293579,-2.0357742309570312,1.118647813796997,0.5182704925537109
2.085258960723877,-0.06945556402206421,-0.13852375745773315,0.09810119867324829,-0.5061245955774942,-1.1998518749888598,-1.5695324671520017,-0.8151422142982483,0.4847913384437561,-0.31704965233802795,-2.0557234287261963,1.0537339448928833,0.3441624343395233
2.1051158905029297,-0.022545218467712402,-0.12243664264678955,0.10771164298057556,-0.525802524432299,-1.1989910693400874,-1.6124994114586795,-0.8058239221572876,0.5019072890281677,-0.31422415375709534,-2.168466567993164,1.157173752784729,0.20714543759822845
2.125247001647949,0.08872902393341064,-0.17900407314300537,0.1555507779121399,-0.54709186026218,-1.199178281070341,-1.6588237990347887,-0.7957450747489929,0.5202057361602783,-0.31012237071990967,-2.4214513301849365,1.1946418285369873,0.3772929608821869
2.1457910537719727,0.1233295202255249,-0.1023489236831665,0.16682767868041992,-0.5692608086555108,-1.2027636970963391,-1.7111061710576811,-0.7858967185020447,0.5390095710754395,-0.3030429780483246,-2.2864937782287598,1.2593659162521362,0.021361753344535828
2.165163993835449,0.04626744985580444,-0.021733880043029785,-0.043542295694351196,-0.5805482013197365,-1.2011416115709919,-1.75479961031544,-0.7796810269355774,0.5484824180603027,-0.30209988355636597,-1.6424813270568848,1.313727855682373,-0.188889741897583
2.1841931343078613,0.07382625341415405,-0.018007755279541016,-0.1008368730545044,-0.5876050645609613,-1.1986575314516932,-1.7966745685678072,-0.775303304195404,0.5543693900108337,-0.30262085795402527,-1.854273796081543,1.245827555656433,-0.3544194996356964
2.204859972000122,0.15540540218353271,-0.0880466103553772,0.04926961660385132,-0.5979272458177792,-1.1987805635410098,-1.8477423390110472,-0.7699684500694275,0.5629305243492126,-0.3004293739795685,-2.4413042068481445,1.5849109888076782,-0.269863486289978
2.226248025894165,0.2231452465057373,-0.053152382373809814,0.007315695285797119,-0.6083431103387488,-1.2002721158398597,-1.9060159347136154,-0.7649085521697998,0.5715085864067078,-0.29714125394821167,-2.347676992416382,1.497833013534546,-0.4663381278514862
2.245706081390381,0.32186514139175415,0.04129064083099365,-0.17806008458137512,-0.6131967466522779,-1.2079616007898246,-1.9617031963979437,-0.7645683884620667,0.5754847526550293,-0.29026278853416443,-2.0804073810577393,0.9779784083366394,-0.6913868188858032
2.262974977493286,0.39947450160980225,0.10268628597259521,-0.1884201169013977,-0.6127747917278453,-1.2203744982074,-2.011854019467479,-0.768340528011322,0.575139582157135,-0.28083351254463196,-1.9467828273773193,0.735481858253479,-0.618852436542511
2.2809009552001953,0.39827948808670044,0.10154116153717041,-0.1403026580810547,-0.6147355378925156,-1.2356683196044658,-2.06424993093295,-0.7714789509773254,0.5767424702644348,-0.26867884397506714,-2.0920257568359375,0.7787470817565918,-0.5962387323379517
2.3011200428009033,0.36365562677383423,0.16235029697418213,-0.21209362149238586,-0.61654491735376,-1.2521850960002503,-2.1187987645067747,-0.7748188972473145,0.5782196521759033,-0.2555730938911438,-2.1724274158477783,0.6632291674613953,-0.7169451117515564
2.319981098175049,0.38218241930007935,0.3294990062713623,-0.2810213565826416,-0.6120587069738724,-1.2700631243595015,-2.170584407097311,-0.7817338109016418,0.5745536684989929,-0.24244675040245056,-1.76716947555542,0.5019888281822205,-0.9037423133850098
2.339907169342041,0.4499884843826294,0.3666279911994934,-0.30760329961776733,-0.6065642534284247,-1.2897427733488274,-2.217827182627871,-0.7893745303153992,0.5700479745864868,-0.22788874804973602,-1.7357505559921265,0.28093579411506653,-0.733472466468811
2.3599019050598145,0.4306994676589966,0.30856162309646606,-0.287890762090683,-0.6042714385644815,-1.3081613721638772,-2.2595490058210457,-0.7946979999542236,0.5681626796722412,-0.21365053951740265,-1.5182825326919556,0.3160615563392639,-0.38847848773002625
2.3832499980926514,0.3403693437576294,0.3320345878601074,-0.26530274748802185,-0.6037461678538646,-1.3171093679032386,-2.291215037329446,-0.7968664169311523,0.5677303671836853,-0.2066059410572052,-0.9894140958786011,0.5845000147819519,-0.4060245454311371
2.3999900817871094,0.2668832540512085,0.31769078969955444,-0.24672673642635345,-0.5986953361901224,-1.3150401463519688,-2.311583040065324,-0.799201250076294,0.563565194606781,-0.20897714793682098,-0.548625648021698,0.7365173101425171,-0.4531141519546509
2.422773838043213,0.3322508931159973,0.17256486415863037,-0.11937189102172852,-0.5928142846577069,-1.3074904121678896,-2.3238959577193183,-0.8007872700691223,0.5586973428726196,-0.21586385369300842,-0.337436318397522,0.6704225540161133,-0.4078429937362671
2.439919948577881,0.36206144094467163,0.11429488658905029,-0.041995853185653687,-0.5852495746590802,-1.3014902131168475,-2.332878984576959,-0.8035288453102112,0.552407443523407,-0.22178299725055695,-0.209581196308136,0.4270397424697876,-0.5310937166213989
2.4633798599243164,0.27269792556762695,0.09853237867355347,-0.017681896686553955,-0.5747422850350633,-1.2988859877051413,-2.3414546233975315,-0.808495044708252,0.5436185002326965,-0.2254212647676468,-0.23122528195381165,0.32430553436279297,-0.6781916618347168
2.4812779426574707,0.12387800216674805,0.11057013273239136,-0.00887972116470337,-0.5640728214475708,-1.2971308013467262,-2.352557067385273,-0.8136363625526428,0.5346325039863586,-0.22839459776878357,-0.42707785964012146,0.518092930316925,-0.5507115125656128
2.5012640953063965,0.04271221160888672,0.18807250261306763,0.002041652798652649,-0.5583917781769125,-1.2910674513531704,-2.3666710566665383,-0.8151426315307617,0.5298229455947876,-0.23415853083133698,-0.5402854681015015,0.821803629398346,-0.346808522939682
2.5234060287475586,0.07102727890014648,0.2097111940383911,-0.005427718162536621,-0.5554239115777071,-1.2802675702991189,-2.378273061463687,-0.8140692114830017,0.5273035168647766,-0.243397518992424,-0.2655585706233978,0.832714319229126,-0.22285231947898865
2.5438599586486816,0.16309326887130737,0.19528424739837646,0.007796764373779297,-0.5517553405137233,-1.2651695170043409,-2.3804193376277536,-0.8121411204338074,0.524182915687561,-0.25624051690101624,0.14503519237041473,0.7598620057106018,-0.2091009020805359
2.5637400150299072,0.17186802625656128,0.09214740991592407,0.03897017240524292,-0.5462134406285558,-1.24802741322049,-2.3786129204557938,-0.8103720545768738,0.5194553732872009,-0.27104127407073975,0.12098906189203262,0.8898603916168213,-0.2900535762310028
2.583621025085449,0.18700456619262695,-0.032679200172424316,0.11788535118103027,-0.540039986160652,-1.2296144314149704,-2.3802824653064114,-0.808250904083252,0.5141702890396118,-0.2869834005832672,-0.07009869813919067,1.0052783489227295,-0.33038952946662903
2.603714942932129,0.24632316827774048,-0.10286909341812134,0.14561232924461365,-0.5349943291865255,-1.2133900699539237,-2.3870384521774226,-0.8059086799621582,0.5098361372947693,-0.3009621798992157,-0.26928749680519104,0.9203855991363525,-0.36429163813591003
2.623471975326538,0.27869486808776855,-0.147682785987854,0.13023272156715393,-0.5307411908584801,-1.1998224194934608,-2.3961102514547434,-0.8037648797035217,0.5061727166175842,-0.31265169382095337,-0.3613043427467346,0.8991245031356812,-0.30751562118530273
2.643362045288086,0.29734188318252563,-0.1748673915863037,0.13534212112426758,-0.5281171630132493,-1.1883027657001142,-2.4087023077796763,-0.8013396263122559,0.5039079189300537,-0.3223845362663269,-0.5334442853927612,0.8735327124595642,-0.35692867636680603
2.6615748405456543,0.34931766986846924,-0.16725027561187744,0.1374562382698059,-0.5251131565896986,-1.1791690753675703,-2.423205309767962,-0.7997571229934692,0.5013109445571899,-0.33026641607284546,-0.48756295442581177,0.7721914649009705,-0.41184118390083313
2.683397054672241,0.37472784519195557,-0.15149050951004028,0.10233104228973389,-0.5189724906623029,-1.1703228745422918,-2.435589090352965,-0.7996240854263306,0.4959881901741028,-0.3385219871997833,-0.2479570508003235,0.7591837644577026,-0.5827601552009583
2.705145835876465,0.38947367668151855,-0.15864059329032898,0.10777801275253296,-0.5083832171987407,-1.1592373243774046,-2.445470751721042,-0.800591230392456,0.4867655634880066,-0.3494468331336975,-0.20077118277549744,0.8201094269752502,-0.7325930595397949
2.7231578826904297,0.4181840419769287,-0.18307054042816162,0.09165340662002563,-0.49597191941672936,-1.1497023726549962,-2.458048694140539,-0.8026749491691589,0.47588667273521423,-0.3595063090324402,-0.28226399421691895,0.7217820286750793,-0.8309547305107117
2.7432520389556885,0.43564873933792114,-0.2114953100681305,0.03250950574874878,-0.4828301734850553,-1.1426792806740405,-2.471469917030317,-0.8057506084442139,0.464287668466568,-0.36769944429397583,-0.22625963389873505,0.5989967584609985,-0.8829277753829956
2.7623350620269775,0.38781261444091797,-0.1620728075504303,0.00853729248046875,-0.466669699237977,-1.136002473298978,-2.4827074112690735,-0.8099774718284607,0.4499145746231079,-0.3761827051639557,-0.01602788269519806,0.5985448956489563,-1.031833529472351
2.783255100250244,0.3253016471862793,-0.1414213478565216,0.0011040270328521729,-0.44504565045372796,-1.1291681623639704,-2.4918420822880285,-0.8159936666488647,0.4304990768432617,-0.3857782185077667,0.1486808806657791,0.5046803951263428,-1.2578651905059814
2.8030519485473633,0.29303985834121704,-0.1479485034942627,0.016222119331359863,-0.42043392982181027,-1.122303791932469,-2.501991189023783,-0.8226266503334045,0.4081566333770752,-0.3958456218242645,0.0932362899184227,0.6028687953948975,-1.3654775619506836
2.822050094604492,0.3073522448539734,-0.19361400604248047,0.017025768756866455,-0.39541162506206967,-1.1160445254698832,-2.514034818146529,-0.8290502429008484,0.3851880729198456,-0.4053468406200409,-0.0010379343293607235,0.4733266234397888,-1.3572638034820557
2.8429489135742188,0.34260135889053345,-0.1810750961303711,0.05492764711380005,-0.37111495171773423,-1.1133744711286342,-2.5265840722576467,-0.8361164331436157,0.3626547157764435,-0.4115715026855469,0.05977797135710716,0.28700530529022217,-1.3651421070098877
2.8630409240722656,0.3269194960594177,-0.11466032266616821,0.09679049253463745,-0.34503762119764964,-1.1123439882383517,-2.537678140174698,-0.843887209892273,0.3382320702075958,-0.4164775013923645,0.2133069634437561,0.16761641204357147,-1.447790265083313
2.8820319175720215,0.29005247354507446,-0.08492463827133179,0.10285872220993042,-0.3149757643915148,-1.1123589756132803,-2.543244403439677,-0.8526288270950317,0.3097934424877167,-0.42077577114105225,0.6381701827049255,0.05615939944982529,-1.5085684061050415
2.9029078483581543,0.2527138590812683,-0.055863767862319946,0.13703685998916626,-0.27867996785292964,-1.1143753467742181,-2.5428483882713455,-0.8630043268203735,0.27508679032325745,-0.4237343370914459,0.9955223798751831,-0.3568439781665802,-1.745476484298706
2.9226670265197754,0.1741703748703003,-0.035617128014564514,0.0900147557258606,-0.23565284810576942,-1.1257892479879648,-2.538676241468935,-0.8776615262031555,0.23347784578800201,-0.4185671806335449,1.1992249488830566,-0.7995191812515259,-1.9907549619674683
2.942607879638672,-0.0018797516822814941,-0.02859722077846527,0.0637822151184082,-0.18782648030144425,-1.1398480063348435,-2.5332037863651946,-0.8925904631614685,0.18672405183315277,-0.41038569808006287,1.24215829372406,-0.6305487751960754,-2.018352746963501
2.962440013885498,-0.07988893985748291,-0.04705159366130829,0.09099352359771729,-0.1426120368403031,-1.148183792693788,-2.5275066108535578,-0.9027619361877441,0.14212912321090698,-0.4059808552265167,1.2287142276763916,-0.3781047761440277,-1.8866298198699951
2.982419967651367,-0.05551725625991821,0.008631482720375061,0.0313953161239624,-0.09898245069513155,-1.1564093175549615,-2.5155962767180933,-0.910882830619812,0.09882090240716934,-0.40065813064575195,1.7418601512908936,-0.7319290041923523,-1.6503841876983643
3.002652168273926,-0.09809428453445435,0.11584079265594482,0.006566554307937622,-0.051616792928033624,-1.1713864238103675,-2.4922447840177977,-0.9200636148452759,0.051593877375125885,-0.3883568346500397,2.2445263862609863,-0.7789337635040283,-1.8839746713638306
3.022334098815918,-0.3810657262802124,0.2235935479402542,0.04176515340805054,0.004752039676700098,-1.1815322894293696,-2.463138672837776,-0.9251782298088074,-0.004752021748572588,-0.3795033395290375,2.4259743690490723,-0.3291400969028473,-2.1143808364868164
3.042335033416748,-0.5141162872314453,0.13096988201141357,0.10700070858001709,0.05646070816285356,-1.1872638068098622,-2.439019947089562,-0.9258708953857422,-0.056430716067552567,-0.37360242009162903,1.6404619216918945,-0.2794311046600342,-1.6911969184875488
3.0622711181640625,-0.45006126165390015,0.030298694968223572,0.24114418029785156,0.08905592923949449,-1.1967885579310684,-2.432679473825594,-0.9271817207336426,-0.08893825858831406,-0.3639012575149536,0.14493627846240997,-0.6519169211387634,-1.1831333637237549
3.082162857055664,-0.5417220592498779,0.09170395880937576,0.3758932054042816,0.10747473579573581,-1.2088260263912953,-2.4487882951856466,-0.9298049807548523,-0.10726795345544815,-0.35207435488700867,-0.6763600707054138,-0.5960242748260498,-1.220924735069275
3.1020970344543457,-0.7493170499801636,0.27854806184768677,0.40395572781562805,0.1282031589389558,-1.2134339097915403,-2.4642581501163265,-0.9291343688964844,-0.12785226106643677,-0.3469337224960327,-0.02187083102762699,-0.05303499847650528,-1.182769536972046
3.1221230030059814,-0.675214946269989,0.28544357419013977,0.45280012488365173,0.1495409965305303,-1.215100654535053,-2.468636220190691,-0.9269427061080933,-0.14898426830768585,-0.34435608983039856,0.3374473452568054,-0.27132126688957214,-0.9806013703346252
3.142068862915039,-0.5360493659973145,0.20818878710269928,0.4894953966140747,0.16780705305001964,-1.2256343617190362,-2.464933747285071,-0.927802562713623,-0.16702060401439667,-0.33359643816947937,0.7044467329978943,-0.7866577506065369,-0.5446515679359436
3.1628761291503906,-0.4468197226524353,0.22803260385990143,0.4977581799030304,0.17723170927474213,-1.2428395845505216,-2.4567344755117086,-0.9318728446960449,-0.17630532383918762,-0.31706365942955017,0.36942365765571594,-0.8950722217559814,-0.3236451745033264
3.1811041831970215,-0.4522686004638672,0.20853517949581146,0.32591885328292847,0.18755338054719264,-1.2623012231519994,-2.4501119662310638,-0.9360827803611755,-0.18645574152469635,-0.298300564289093,0.4881603419780731,-0.8463611006736755,-0.2501717507839203
3.201756000518799,-0.44145911931991577,0.12144236266613007,0.23155289888381958,0.18817907322764232,-1.275236211046144,-2.4431835318334683,-0.9397510290145874,-0.18707042932510376,-0.28613367676734924,0.10944776237010956,-0.18530958890914917,0.40863484144210815
3.221950054168701,-0.5543849468231201,0.047197550535202026,0.1840309202671051,0.17406711500812064,-1.2741173164733486,-2.439275341917895,-0.9418614506721497,-0.1731894314289093,-0.28792819380760193,-0.012601418420672417,0.19920514523983002,1.0508965253829956
3.2417659759521484,-0.5238076448440552,0.013794764876365662,0.09378406405448914,0.15073273895716036,-1.2739833641394134,-2.4297718460026663,-0.9454306960105896,-0.15016260743141174,-0.28915777802467346,0.2525375783443451,-0.026553412899374962,1.3624675273895264
3.260754108428955,-0.5175691843032837,0.0025220364332199097,0.2381543219089508,0.12740871778172438,-1.2787661654864655,-2.4114575272062693,-0.9498990178108215,-0.1270642876625061,-0.28556346893310547,0.8408801555633545,-0.1281370222568512,1.4058222770690918
3.2824289798736572,-0.6772239208221436,-0.22930574417114258,0.3003982603549957,0.1050395611575689,-1.2815003053175726,-2.3874414047008155,-0.9531623721122742,-0.1048465147614479,-0.2837052345275879,0.7476370334625244,0.08596043288707733,1.3889586925506592
3.3023228645324707,-0.7617232203483582,-0.46260687708854675,0.21039855480194092,0.08015781124959738,-1.282238594330962,-2.367911259572889,-0.9555771350860596,-0.08007200062274933,-0.28365615010261536,0.37338799238204956,0.06006048619747162,1.6094932556152344
3.321697950363159,-0.685874879360199,-0.4032946825027466,0.129402756690979,0.04794138523018848,-1.2832200231763453,-2.3530627413720806,-0.9578323364257812,-0.047923021018505096,-0.28330302238464355,0.17344528436660767,-0.022915979847311974,1.9434689283370972
3.3418078422546387,-0.7251895070075989,-0.271196186542511,0.10348454117774963,0.0066969787186759305,-1.2827190407172708,-2.3364779595162677,-0.9587703943252563,-0.006696928758174181,-0.2841028869152069,0.2802443504333496,0.29354220628738403,2.4400017261505127
3.3615660667419434,-0.7820780277252197,-0.2120104730129242,0.21847230195999146,-0.04113883465145457,-1.2744233547089046,-2.313859206787453,-0.9555928707122803,0.04112723097205162,-0.2918061316013336,0.7873233556747437,0.471767783164978,2.7994515895843506
3.3813509941101074,-0.8039194941520691,-0.1728716492652893,0.12056699395179749,-0.08946428188003525,-1.2613895839262566,-2.2777696024409186,-0.9487051367759705,0.08934498578310013,-0.3032758831977844,1.2625187635421753,0.6424322724342346,2.834275722503662
3.401221990585327,-0.9102290868759155,-0.26487717032432556,0.1624261438846588,-0.13667058601156876,-1.244549801316745,-2.2382161380684766,-0.9384189248085022,0.1362455040216446,-0.3175012767314911,0.8793742656707764,0.6540765166282654,2.939579725265503
3.421083927154541,-0.8854469656944275,-0.465422123670578,0.36199790239334106,-0.18881678080079398,-1.226493443132763,-2.209201877506026,-0.9245811104774475,0.18769682943820953,-0.3315414786338806,0.2696845233440399,0.5207024812698364,2.9164464473724365
3.4411778450012207,-0.835520327091217,-0.42730551958084106,0.27920639514923096,-0.24174112468939302,-1.2131171431130445,-2.187760072351084,-0.9094747304916382,0.23939348757266998,-0.3399212062358856,0.006879457272589207,0.400587797164917,2.736569404602051
3.4612889289855957,-0.7829084992408752,-0.34479019045829773,0.2332257330417633,-0.29090777037902554,-1.2016573889891424,-2.16836301022453,-0.8934525847434998,0.28682196140289307,-0.34565258026123047,-0.019338911399245262,0.23812663555145264,2.5200321674346924
3.481083869934082,-0.6784599423408508,-0.29604294896125793,0.1685272455215454,-0.3362968870240195,-1.1938464497429975,-2.1488847930675425,-0.8777076601982117,0.32999369502067566,-0.34746718406677246,-0.08307065814733505,-0.05012540519237518,2.3708062171936035
3.5011720657348633,-0.6525144577026367,-0.23075541853904724,0.1884019374847412,-0.3795258376431717,-1.189499952633598,-2.1347492243251738,-0.8621339797973633,0.37048009037971497,-0.34564387798309326,-0.39312082529067993,-0.013833888806402683,2.2014503479003906
3.521059989929199,-0.5895347595214844,-0.2507219612598419,0.1542271375656128,-0.4229986963091114,-1.189060388037858,-2.130548460525316,-0.8462257385253906,0.41049668192863464,-0.33969783782958984,-0.8408327102661133,-0.08204454928636551,1.9928776025772095
3.5407209396362305,-0.4725002646446228,-0.18887394666671753,0.12307518720626831,-0.4645937769610715,-1.1926547782305328,-2.133463607212433,-0.830844521522522,0.44805967807769775,-0.33006078004837036,-0.8903359174728394,-0.14826378226280212,1.7705703973770142
3.5606141090393066,-0.40927088260650635,-0.06886312365531921,0.08739158511161804,-0.5013458697691126,-1.196837914314649,-2.136242762680906,-0.8163301944732666,0.48060622811317444,-0.3203476369380951,-0.7073612809181213,-0.1849120706319809,1.5553386211395264
3.580631971359253,-0.3510865569114685,-0.0342753529548645,0.0537620484828949,-0.5346155258707944,-1.2018735735061756,-2.139531112881503,-0.8025693297386169,0.5095102787017822,-0.3102928698062897,-0.7649640440940857,-0.14090518653392792,1.4812880754470825
3.5999510288238525,-0.22589516639709473,-0.06301999092102051,0.049132585525512695,-0.5676410834786879,-1.2071594143771582,-2.1448885669267743,-0.7880361676216125,0.5376445651054382,-0.29989561438560486,-0.8662514686584473,-0.1533937305212021,1.436664342880249
3.6204538345336914,-0.08460986614227295,-0.04369759559631348,0.019692450761795044,-0.5998585701317857,-1.214339551614575,-2.152708894246035,-0.7735291123390198,0.5645257234573364,-0.2880336344242096,-0.8874202966690063,-0.12387455254793167,1.3734898567199707
3.6405458450317383,0.05600863695144653,-0.05323445796966553,-0.03976672887802124,-0.629765503760746,-1.2229333104818854,-2.161349289453912,-0.759759247303009,0.588955283164978,-0.2754952907562256,-0.7999854683876038,-0.2192142903804779,1.2271530628204346
3.6605000495910645,0.2019329071044922,-0.06306314468383789,-0.07221898436546326,-0.6577165265123933,-1.2340685374092,-2.171109826635111,-0.7469463348388672,0.6113113164901733,-0.2614756226539612,-0.9071130156517029,-0.2997466027736664,1.1262006759643555
3.6802611351013184,0.3344731330871582,-0.10623317956924438,-0.08183413743972778,-0.682622875033117,-1.2475424082022828,-2.1845555781292685,-0.7357335090637207,0.6308303475379944,-0.24647408723831177,-0.8519332408905029,-0.19221773743629456,0.8739011287689209
3.702000141143799,0.5391739010810852,-0.09987199306488037,-0.04363664984703064,-0.7013925890834027,-1.265339761405875,-2.203089074439917,-0.7285813093185425,0.6452821493148804,-0.2297399938106537,-0.9254591464996338,-0.29591119289398193,0.5025020241737366
3.7200398445129395,0.7424968481063843,-0.0945432186126709,-0.05982893705368042,-0.7132117409565008,-1.283436985160516,-2.219380236735328,-0.7252544164657593,0.6542660593986511,-0.2143411487340927,-0.41506803035736084,-0.46895134449005127,0.2592432498931885
3.740251064300537,0.9005752205848694,0.038773953914642334,-0.11433574557304382,-0.7190156311598322,-1.2887275516090717,-2.2116347660766964,-0.7227188348770142,0.6586443185806274,-0.209440678358078,0.7733361124992371,-0.5830078125,0.44921278953552246
3.759963035583496,0.9262616634368896,0.06323617696762085,-0.20885497331619263,-0.7209811307295874,-1.2803796257019604,-2.1804025898451647,-0.7197034955024719,0.6601219773292542,-0.2150953710079193,1.2909119129180908,-0.5762525796890259,0.38331714272499084
3.7804479598999023,0.9070639610290527,-0.2179882526397705,-0.3022523522377014,-0.7193231738720608,-1.2674276456409852,-2.1482418911271024,-0.7179007530212402,0.6588757038116455,-0.22472530603408813,1.041854977607727,-0.24369558691978455,0.17666183412075043
3.8003101348876953,1.0153257846832275,-0.40507960319519043,-0.3204215466976166,-0.7150556428686285,-1.259915134254505,-2.125679942798449,-0.7188628315925598,0.6556594371795654,-0.23097018897533417,0.8865482211112976,-0.5145238041877747,-0.03821316361427307
3.820216178894043,1.116431474685669,-0.3143908977508545,-0.3312382102012634,-0.7057489912201871,-1.255902243173208,-2.0992867849721946,-0.7237008810043335,0.6486040949821472,-0.23573273420333862,1.4664409160614014,-0.5985074043273926,-0.1600656509399414
3.840127944946289,0.9049293994903564,-0.2616423964500427,-0.2901134788990021,-0.6894241685586268,-1.2368891298125126,-2.0605912440286422,-0.7289955615997314,0.6360929608345032,-0.2528858780860901,1.7851263284683228,-0.040568653494119644,-0.5398939251899719
3.8600029945373535,0.7247276902198792,-0.22772246599197388,-0.3797554671764374,-0.665725888783019,-1.2125489662918183,-2.023694745747122,-0.7365379929542542,0.6176301836967468,-0.2757622003555298,1.6776946783065796,0.04533134028315544,-0.7519774436950684
3.880002021789551,0.7855681777000427,-0.2578325867652893,-0.3976728320121765,-0.6389257943779716,-1.198854648254022,-1.9953642316832825,-0.7478485107421875,0.5963335037231445,-0.2917346656322479,1.4975889921188354,-0.3770805299282074,-0.9588251709938049
3.9000890254974365,0.8130642771720886,-0.12628614902496338,-0.3257913589477539,-0.6094758960441682,-1.1940781873802677,-1.9703460690791248,-0.7624509334564209,0.5724378228187561,-0.30163493752479553,1.4842194318771362,-0.5518124103546143,-0.9870074987411499
3.920027017593384,0.800547182559967,-0.1569880247116089,-0.10484972596168518,-0.580402528695463,-1.1927277142941874,-1.9478560565483851,-0.7771859169006348,0.5483605861663818,-0.3086787760257721,1.3973618745803833,-0.5900389552116394,-1.020721197128296
3.9400880336761475,0.7725239396095276,-0.0941053032875061,-0.04200145602226257,-0.551906490047123,-1.1948462375481328,-1.926493178173347,-0.7920553088188171,0.5243116021156311,-0.31264346837997437,1.2451059818267822,-0.8627249598503113,-1.0764504671096802
3.9599640369415283,0.7423914074897766,-0.026511043310165405,-0.10556527972221375,-0.5212819914382523,-1.2087957450778486,-1.90974166673383,-0.8109796047210693,0.49799227714538574,-0.30710873007774353,1.2900292873382568,-1.4226183891296387,-1.2745779752731323
3.9799630641937256,0.7629766464233398,0.09223619103431702,-0.11042043566703796,-0.48553078789513787,-1.2340524512421953,-1.890012280858921,-0.8347539305686951,0.46667787432670593,-0.2922285795211792,1.573919653892517,-2.062009811401367,-1.4694501161575317
3.9999630451202393,0.7869176864624023,0.0660315752029419,0.09645652770996094,-0.44865573612194054,-1.2677650142189352,-1.8627709343539196,-0.8599768280982971,0.43375471234321594,-0.2688809931278229,1.8449885845184326,-2.6036059856414795,-1.2546780109405518
4.019963026046753,0.607761800289154,-0.04581061005592346,0.0406080037355423,-0.4142461350709904,-1.3178053239331307,-1.8303486963989577,-0.8862804174423218,0.4024999439716339,-0.22913041710853577,1.897524118423462,-3.8339927196502686,-1.2925546169281006
4.040008068084717,0.15089046955108643,-0.07673272490501404,-0.09459573030471802,-0.3773085204680321,-1.3932816214665538,-1.7969144035561888,-0.9150506258010864,0.3684196472167969,-0.16416291892528534,1.9006129503250122,-4.742969036102295,-1.708458662033081
4.0596160888671875,-0.5891386866569519,-0.21517422795295715,-0.056887492537498474,-0.3335048019895614,-1.4652175988546263,-1.7631634924825095,-0.9396393895149231,0.3273567259311676,-0.0995761901140213,1.9629614353179932,-3.3500137329101562,-2.2524237632751465
4.079969882965088,-1.3145883083343506,-0.2194695770740509,-0.08918404579162598,-0.2852260351040666,-1.499877233235081,-1.718085306509316,-0.9571859836578369,0.28137436509132385,-0.0679967999458313,2.611582040786743,-1.5770319700241089,-2.0702836513519287
4.099963188171387,-1.3792335987091064,0.09709584712982178,-0.1786748170852661,-0.24496141178693226,-1.5075833676633799,-1.6728561355765317,-0.9682091474533081,0.24251888692378998,-0.06128501519560814,1.85579252243042,-0.5899423360824585,-1.2843362092971802
4.119961977005005,-0.9229251146316528,-0.08413967490196228,-0.04116647690534592,-0.23847787150883984,-1.4972686590042807,-1.6433206181201034,-0.9690730571746826,0.23622384667396545,-0.07138236612081528,0.8105180263519287,1.0112208127975464,-0.3567343056201935
4.139936923980713,-0.666571319103241,-0.14158375561237335,0.16676664352416992,-0.2377659185401829,-1.4792567441919164,-1.635435667458425,-0.967797577381134,0.2355319857597351,-0.0888400748372078,0.4907045066356659,0.7131481170654297,0.823036789894104
4.160001039505005,-0.3211785554885864,0.08950090408325195,0.12705479562282562,-0.2554621614346551,-1.4591346369459401,-1.6154916195774025,-0.9615211486816406,0.2526926100254059,-0.10781353712081909,1.009696364402771,0.7960286140441895,0.8313177824020386
4.180065155029297,-0.48286938667297363,-0.22172603011131287,0.28169184923171997,-0.2671278021594545,-1.4345303827807296,-1.5944187812928756,-0.9555918574333191,0.2639622092247009,-0.13102662563323975,0.8179175853729248,1.0096341371536255,0.6397047638893127
4.200089931488037,-0.28759801387786865,-0.43617182970046997,0.22537976503372192,-0.27690064384328955,-1.4145850256043655,-1.5810585964100827,-0.9501950144767761,0.27337566018104553,-0.149650439620018,0.28646817803382874,0.5876572728157043,0.5318670868873596
4.219995975494385,-0.22952336072921753,-0.3122771084308624,0.16348589956760406,-0.28914368285144254,-1.402589901572463,-1.5777790055509933,-0.94496089220047,0.285131573677063,-0.16046471893787384,-0.14585472643375397,0.5729032754898071,0.706418514251709
4.240048885345459,-0.30918675661087036,-0.20672163367271423,0.1644173413515091,-0.30593894462692617,-1.3886620660595363,-1.579331023762958,-0.9377920031547546,0.3011886477470398,-0.17271815240383148,-0.25560981035232544,0.8613096475601196,0.9522729516029358
4.259989023208618,-0.31999409198760986,-0.13642644882202148,0.13903029263019562,-0.3280224180088532,-1.3698142120211476,-1.5799105166157332,-0.9276254773139954,0.32217150926589966,-0.18898765742778778,-0.19860664010047913,1.0197758674621582,1.2106060981750488
4.280534982681274,-0.30231261253356934,-0.1578781008720398,0.10922540724277496,-0.3544957024902858,-1.3475345142778474,-1.5772057796056953,-0.9145452976226807,0.34711745381355286,-0.20764464139938354,-0.16115015745162964,1.1002455949783325,1.387386441230774
4.3000359535217285,-0.28667306900024414,-0.18063735961914062,0.12901324033737183,-0.38226189574555913,-1.323945034666192,-1.5736280430450507,-0.8996978402137756,0.3730200529098511,-0.22671540081501007,-0.11965633183717728,1.1704460382461548,1.4245492219924927
4.319969177246094,-0.2308456301689148,-0.23623937368392944,0.15524093806743622,-0.41108022933252797,-1.2986597364281114,-1.5685455095971887,-0.8829543590545654,0.3995997905731201,-0.246397003531456,-0.16443957388401031,1.1456866264343262,1.4400585889816284
4.340078830718994,-0.1768760085105896,-0.2726658880710602,0.14833438396453857,-0.43878697302889563,-1.2748388221437623,-1.5638632449281051,-0.8659096956253052,0.42484167218208313,-0.2640266418457031,-0.22638534009456635,1.0657531023025513,1.3673930168151855
4.359958171844482,-0.12134724855422974,-0.25112777948379517,0.15206727385520935,-0.4654792279490995,-1.2532993452426557,-1.5621626329564953,-0.8489440679550171,0.4488511085510254,-0.2789747416973114,-0.4006267786026001,1.029120683670044,1.2198537588119507
4.380038022994995,-0.07053381204605103,-0.2909725606441498,0.13329404592514038,-0.4902288486243097,-1.2318753892562568,-1.561975451307829,-0.8320388793945312,0.47082778811454773,-0.29331305623054504,-0.4088919758796692,1.0995053052902222,1.1155978441238403
4.399976968765259,-0.012689650058746338,-0.2579277455806732,0.09875920414924622,-0.5109506466772495,-1.2106044349928755,-1.5617112657544068,-0.8163051009178162,0.4890066981315613,-0.3074384331703186,-0.24401414394378662,0.9866472482681274,0.8977298736572266
4.419972896575928,0.05594336986541748,-0.23345047235488892,0.04151207208633423,-0.527945726886921,-1.1905553281797803,-1.5585338695900464,-0.8021439909934998,0.5037598609924316,-0.3206106722354889,-0.1333092749118805,0.8912268280982971,0.7696134448051453
4.439960956573486,0.1099538803100586,-0.2462451457977295,0.06874924898147583,-0.5416998009914903,-1.17328195852751,-1.55704021385251,-0.7900229096412659,0.5155931711196899,-0.3317040205001831,-0.29565396904945374,0.7616541981697083,0.5640067458152771
4.459964990615845,0.1586793065071106,-0.2917460799217224,0.08210426568984985,-0.5538174168261071,-1.161337066808275,-1.5613031435633826,-0.7802156209945679,0.5259378552436829,-0.338604599237442,-0.5309709310531616,0.6546111106872559,0.4119114875793457
4.47996711730957,0.23628175258636475,-0.3163056969642639,0.11546522378921509,-0.563093190652967,-1.1561660685524513,-1.5736555973958581,-0.7739558219909668,0.5338043570518494,-0.34065455198287964,-0.7555915117263794,0.5031834840774536,0.05646630749106407
4.4999840259552,0.31070464849472046,-0.3234190344810486,0.09950181841850281,-0.5683199530582026,-1.158167236771653,-1.5915332435093106,-0.7720693349838257,0.5382168292999268,-0.3379814922809601,-0.871877908706665,0.25780540704727173,-0.16820381581783295
4.520349025726318,0.3745737075805664,-0.3452978730201721,0.11904177069664001,-0.5699656737240915,-1.169104172146683,-1.6154912781385826,-0.7749033570289612,0.5396031737327576,-0.3291706442832947,-1.0474252700805664,-0.06920864433050156,-0.4808908998966217
4.539967060089111,0.3769300580024719,-0.2951120138168335,0.06935226917266846,-0.5673945934417232,-1.1894418752440827,-1.6435215031630785,-0.7827223539352417,0.5374367237091064,-0.3138591945171356,-0.9454511404037476,-0.4109496474266052,-0.6203815937042236
4.560009002685547,0.273279070854187,-0.10312306880950928,-0.06993666291236877,-0.5623149279327727,-1.2089495465738849,-1.6656971839494987,-0.7912387251853943,0.53314608335495,-0.2994939386844635,-0.6843315362930298,-0.30166494846343994,-0.547985851764679
4.579967975616455,0.11445200443267822,0.05616277456283569,-0.1996752917766571,-0.5570399070412329,-1.2234704773336578,-1.6861713920454944,-0.7981373071670532,0.52867591381073,-0.28892648220062256,-0.8213173151016235,-0.0651574432849884,-0.5065719485282898
4.599961996078491,0.06685143709182739,0.09485858678817749,-0.2519053816795349,-0.5564833926976953,-1.2363888569286454,-1.7115864263856144,-0.8020809888839722,0.5282034277915955,-0.27868857979774475,-1.1987696886062622,0.0881209746003151,-0.27727070450782776
4.619974136352539,0.032409608364105225,0.16924118995666504,-0.29835599660873413,-0.5610590410859186,-1.2501123795066125,-1.7423339662434731,-0.8035277724266052,0.5320831537246704,-0.26689064502716064,-1.3688865900039673,0.21591000258922577,-0.12555629014968872
4.639970064163208,-0.030005991458892822,0.2706807851791382,-0.3495786488056183,-0.5681765025400118,-1.260343517948045,-1.7718633318770125,-0.8025897741317749,0.5380959510803223,-0.257492333650589,-1.2056912183761597,0.337384432554245,-0.000784560979809612
4.659974098205566,-0.08846116065979004,0.3578399419784546,-0.3885028660297394,-0.5741971878313218,-1.2664215714017826,-1.7957359041689906,-0.8010346293449402,0.5431609153747559,-0.2516339421272278,-0.9014567136764526,0.3242970108985901,-0.021014850586652756
4.679963111877441,-0.13206511735916138,0.39307093620300293,-0.39101099967956543,-0.5791319438696797,-1.2685330683472327,-1.8133243172445803,-0.7989957332611084,0.5472976565361023,-0.24914111196994781,-0.674064576625824,0.4105308949947357,0.06925705075263977
4.6999311447143555,-0.1451495885848999,0.38938236236572266,-0.4019176959991455,-0.585118840546235,-1.2664150495847066,-1.8253912995068753,-0.7953259348869324,0.5522984862327576,-0.24984632432460785,-0.46878066658973694,0.4674575626850128,0.21822327375411987
4.719985008239746,-0.1268123984336853,0.42454540729522705,-0.4250026047229767,-0.5928548265689265,-1.2598800639321706,-1.8299185134491207,-0.7895848155021667,0.558730959892273,-0.253723680973053,-0.07154878973960876,0.4546976387500763,0.4222583770751953
4.7399749755859375,-0.06752413511276245,0.3682410717010498,-0.3539239764213562,-0.602971042359493,-1.245360873435334,-1.8220972994902547,-0.780422031879425,0.5670920610427856,-0.26333993673324585,0.28260016441345215,0.47618934512138367,0.7518583536148071
4.760004043579102,0.025357484817504883,0.1901721954345703,-0.13051185011863708,-0.6167629992776061,-1.227220261669281,-1.8084072202097443,-0.7680790424346924,0.5783975720405579,-0.27479222416877747,0.2979836165904999,0.5638026595115662,0.8687744736671448
4.779983997344971,0.05271238088607788,0.09217232465744019,-0.02344721555709839,-0.6297205086706974,-1.208133620325354,-1.7935350510000616,-0.7556237578392029,0.588918924331665,-0.28671830892562866,0.43064454197883606,0.4331110417842865,0.7619928121566772
4.799975872039795,0.05835336446762085,0.13597357273101807,-0.04230353236198425,-0.6386884890562825,-1.1911704399516925,-1.7729899527386774,-0.7457160353660583,0.5961429476737976,-0.297525018453598,0.7625386714935303,0.01651984453201294,0.6699908971786499
4.819316864013672,0.060602664947509766,0.1909669041633606,-0.07257258892059326,-0.643409313723885,-1.178966733531872,-1.7472530666004267,-0.739420473575592,0.5999265909194946,-0.3055250346660614,0.92979896068573,-0.2774439752101898,0.5675585865974426
4.840025901794434,0.1083722710609436,0.15963321924209595,0.09321358799934387,-0.6471619357714266,-1.1646560690291214,-1.718776284057789,-0.7328992486000061,0.602924644947052,-0.3151833117008209,0.9559786319732666,-0.054294586181640625,0.6947332620620728
4.859964847564697,0.14555567502975464,0.12559545040130615,0.26164400577545166,-0.6548482135040213,-1.1464513056442382,-1.6937051759271697,-0.7227957248687744,0.6090388894081116,-0.32655495405197144,0.5843638777732849,0.352804034948349,0.7862980365753174
4.879962921142578,0.16371870040893555,0.06083863973617554,0.1900656521320343,-0.6656262854374144,-1.1259522651041274,-1.6723170880569602,-0.7099834680557251,0.617551863193512,-0.33845746517181396,0.5311897993087769,0.2993839383125305,0.8790283203125
4.899962902069092,0.20808827877044678,0.1378389596939087,0.03721851110458374,-0.6738534689988694,-1.1119513168399635,-1.6492850319142158,-0.700596272945404,0.6240018010139465,-0.3461023271083832,0.7981863617897034,-0.3410755693912506,0.5396000146865845
4.920006036758423,0.2563013434410095,0.22371864318847656,0.03015422821044922,-0.6685103399481825,-1.101458056806173,-1.6166349263176378,-0.6998896598815918,0.6198176741600037,-0.3549376428127289,1.6636669635772705,-0.5301753878593445,0.3249763548374176
4.939979076385498,0.33289825916290283,0.07889384031295776,0.19408312439918518,-0.6627918041455042,-1.0827337227495604,-1.571271468437181,-0.6962406039237976,0.6153199672698975,-0.3696356415748596,1.6564610004425049,-0.3878592252731323,0.7611387372016907
4.959964036941528,0.32502084970474243,-0.05650264024734497,0.2750789523124695,-0.6632630756656673,-1.0646450433967933,-1.5295985900671567,-0.6891871690750122,0.6156913638114929,-0.38202792406082153,1.1082992553710938,-0.43408069014549255,0.7707306146621704
4.980051040649414,0.30726003646850586,0.002905607223510742,0.25938379764556885,-0.6649027249386706,-1.0550087286571508,-1.4991557569728513,-0.6845946907997131,0.6169825792312622,-0.3881528079509735,1.0032594203948975,-0.5071125626564026,0.5561572313308716
4.999423980712891,0.31407105922698975,0.08030092716217041,0.20286205410957336,-0.6636007869788528,-1.0474253028617893,-1.4687085522764034,-0.6823266744613647,0.6159574389457703,-0.393734335899353,1.1482388973236084,-0.604073703289032,0.5191745162010193
5.019932985305786,0.2836914658546448,0.11953693628311157,0.2157825231552124,-0.659378128388058,-1.0387151163760202,-1.4352488035759627,-0.681106686592102,0.6126254796981812,-0.4009785056114197,1.3098500967025757,-0.5863004922866821,0.45102906227111816
5.039732933044434,0.21853965520858765,0.11254370212554932,0.19366547465324402,-0.6543549449403994,-1.0304702764967604,-1.402749651583695,-0.6804080009460449,0.6086475849151611,-0.4081583321094513,1.151289701461792,-0.6025053262710571,0.4283749759197235
5.05996298789978,0.16270744800567627,0.1529906988143921,0.14630460739135742,-0.6491396386158831,-1.025582284932473,-1.3742929263632646,-0.681109607219696,0.6045012474060059,-0.4131198525428772,1.1358524560928345,-0.6426572799682617,0.303584486246109
5.079998016357422,0.11880373954772949,0.182245671749115,0.14549389481544495,-0.6432863067988561,-1.020755739022568,-1.347030586493305,-0.6821125149726868,0.5998281240463257,-0.4182448089122772,1.021057367324829,-0.52261883020401,0.3010903000831604
5.099971055984497,0.027141451835632324,0.13929986953735352,0.09946033358573914,-0.6375488189549418,-1.0153407443696063,-1.3241753729453045,-0.6827506422996521,0.5952275395393372,-0.4237401783466339,0.7881003618240356,-0.30656400322914124,0.18841063976287842
5.119961977005005,0.026043057441711426,0.08845871686935425,0.08427444100379944,-0.6335844782889366,-1.0108677644039006,-1.3085266461554323,-0.6828423738479614,0.5920373201370239,-0.4280397593975067,0.5076237320899963,-0.22274130582809448,0.12875084578990936
5.139974117279053,0.0940251350402832,0.060215651988983154,0.10919970273971558,-0.630916324954728,-1.0096492032991327,-1.2979445014981599,-0.683655321598053,0.5898849368095398,-0.42971065640449524,0.3576336205005646,-0.2933906018733978,0.08465161174535751
5.159964084625244,0.039464354515075684,0.07037734985351562,0.07123774290084839,-0.627727262020156,-1.0117485234678045,-1.2916708219977209,-0.686147153377533,0.587306797504425,-0.4292699992656708,0.2549433708190918,-0.24712041020393372,-0.126649409532547
5.179966926574707,-0.0909498929977417,0.06505310535430908,0.0043814778327941895,-0.6210306129673298,-1.0146796804417655,-1.2914036737804515,-0.6907274127006531,0.5818736553192139,-0.42932361364364624,0.06712932139635086,-0.02895478345453739,-0.3941052556037903
5.199965000152588,-0.11010086536407471,0.02350074052810669,0.05365854501724243,-0.6147439570783924,-1.0193041870624362,-1.300902491871324,-0.6958073973655701,0.5767493844032288,-0.4280329644680023,-0.41259390115737915,0.022097568958997726,-0.5543725490570068
5.219962120056152,-0.07811206579208374,-0.0023654699325561523,0.05514556169509888,-0.6101224126097092,-1.0328176069212596,-1.3219747080506203,-0.703809380531311,0.5729677677154541,-0.41995278000831604,-0.7290485501289368,-0.17805877327919006,-0.7701259851455688
5.239965915679932,-0.10176223516464233,0.07541131973266602,0.006945401430130005,-0.602617001563861,-1.0534292539206667,-1.3491060159633113,-0.7160326242446899,0.5668004155158997,-0.4074734151363373,-0.7221534848213196,-0.33881181478500366,-0.9693192839622498
5.259999990463257,-0.12187439203262329,0.21374154090881348,-0.0527380108833313,-0.5912410052280622,-1.0718509587827079,-1.373492087885313,-0.7290319800376892,0.5573918223381042,-0.3972742557525635,-0.45407816767692566,-0.09492430090904236,-1.0116082429885864
5.279962062835693,-0.12278240919113159,0.15738976001739502,-0.1164509654045105,-0.581660972997272,-1.0818429656316808,-1.3907699761510592,-0.7376455664634705,0.5494125485420227,-0.39246025681495667,-0.5337896943092346,0.14384272694587708,-0.5327857136726379
5.299964904785156,0.0035744309425354004,0.1387384533882141,-0.05318012833595276,-0.5772721409486183,-1.087372184281975,-1.4054383958426429,-0.7419319748878479,0.5457401275634766,-0.3894926607608795,-0.3488183915615082,0.07765812426805496,-0.3852178454399109
5.319985866546631,0.06349682807922363,0.04373610019683838,-0.0647432804107666,-0.5759266226475609,-1.090926843566669,-1.4145402267457812,-0.7439625859260559,0.5446121692657471,-0.3871915638446808,-0.18419915437698364,0.07535377144813538,-0.16951331496238708
5.339302062988281,0.047264158725738525,-0.04004162549972534,-0.06483227014541626,-0.5731719431183857,-1.0910113114645972,-1.4176657155681478,-0.7453233003616333,0.5422998070716858,-0.38781973719596863,0.04825916141271591,0.08063757419586182,-0.17811548709869385
5.359966039657593,0.05384421348571777,-0.10534393787384033,-0.02024206519126892,-0.5690303792897917,-1.0889777731280255,-1.4174802947189056,-0.7465169429779053,0.5388154983520508,-0.39037197828292847,0.16990764439105988,0.08211367577314377,-0.2109050750732422
5.379978179931641,0.04477643966674805,-0.1771308183670044,-0.0004898905754089355,-0.563544970242122,-1.0871823061805375,-1.4163452284868145,-0.7484202980995178,0.5341863632202148,-0.3930801451206207,0.13429121673107147,0.0781342089176178,-0.2373766005039215
5.4000091552734375,0.002773284912109375,-0.1637781858444214,0.03456518054008484,-0.5577960322352632,-1.08601971777913,-1.4180592969546126,-0.7506675720214844,0.5293175578117371,-0.3953745663166046,-0.04133438318967819,0.11978249251842499,-0.34921395778656006
5.4199700355529785,-0.04438984394073486,-0.1692516803741455,0.04170981049537659,-0.553193296702605,-1.0863420063983424,-1.4255551758666463,-0.7529429793357849,0.5254068970680237,-0.396263062953949,-0.2935425639152527,0.24646791815757751,-0.34158170223236084
5.4399800300598145,-0.053070068359375,-0.16004890203475952,0.04730653762817383,-0.5507899497929528,-1.0864973216685054,-1.4367191449376486,-0.7541198134422302,0.5233604907989502,-0.3967328667640686,-0.3968276381492615,0.3248908817768097,-0.33484333753585815
5.45996618270874,-0.01578885316848755,-0.12482213973999023,0.06308627128601074,-0.5479699319614428,-1.0853413797964664,-1.4481130885151627,-0.7549631595611572,0.5209554433822632,-0.3982914388179779,-0.3225346505641937,0.3729822635650635,-0.3676541745662689
5.479964971542358,0.04504364728927612,-0.1400967836380005,0.05849289894104004,-0.5440782182507223,-1.085096066604969,-1.4595622811400726,-0.7566526532173157,0.5176296234130859,-0.3994200825691223,-0.3711220324039459,0.27402016520500183,-0.45848092436790466
5.499961853027344,0.10177868604660034,-0.23574429750442505,0.11017614603042603,-0.5384230146182841,-1.0864426266045055,-1.4744813000815142,-0.7597682476043701,0.5127827525138855,-0.3997575044631958,-0.5476590991020203,0.3435523808002472,-0.650111198425293
5.519963026046753,0.18985134363174438,-0.3621545433998108,0.17244386672973633,-0.5316015902918162,-1.0922615348702955,-1.496941683649256,-0.7651687264442444,0.5069145560264587,-0.3969312310218811,-0.815199077129364,0.16060520708560944,-0.8506284356117249
5.540011882781982,0.27213501930236816,-0.3944173753261566,0.07965275645256042,-0.522005439098955,-1.1059708926345748,-1.5221402026954898,-0.7748510837554932,0.4986194968223572,-0.3885670304298401,-0.6238456964492798,-0.2424914687871933,-1.0004534721374512
5.559972047805786,0.31174278259277344,-0.34611940383911133,0.03346461057662964,-0.505356933527828,-1.1221625738966778,-1.5412101004612333,-0.7884120941162109,0.48411980271339417,-0.3795188367366791,-0.1727384626865387,-0.4030752182006836,-1.224295973777771
5.5799641609191895,0.33703917264938354,-0.2999759316444397,0.03688579797744751,-0.4828759514578079,-1.138786387517373,-1.5542476253903057,-0.8042938709259033,0.46432822942733765,-0.3708244860172272,0.02134702540934086,-0.6961643099784851,-1.2638601064682007
5.599989891052246,0.35034942626953125,-0.22080513834953308,0.00477108359336853,-0.4618756243551119,-1.1601520496691244,-1.565213353549167,-0.8207931518554688,0.44562798738479614,-0.3573712110519409,-0.017794981598854065,-0.9369483590126038,-1.047620177268982
5.619974136352539,0.2500125765800476,-0.07051420211791992,-0.06832760572433472,-0.44502914387754144,-1.1825334690351388,-1.5733478540032946,-0.8354160785675049,0.43048417568206787,-0.34170663356781006,0.03482528403401375,-0.9055185914039612,-0.8054566383361816
5.6399641036987305,0.13418787717819214,0.07065340876579285,-0.14670267701148987,-0.43041305541648156,-1.201258175178059,-1.5763565278139684,-0.8474447131156921,0.4172462224960327,-0.32824239134788513,0.2610044479370117,-0.8220407962799072,-0.6722295880317688
5.659964084625244,0.10194289684295654,0.1591537594795227,-0.20380949974060059,-0.4158711625825456,-1.216132626506654,-1.5729982810218763,-0.8578328490257263,0.40398699045181274,-0.3176749348640442,0.5003518462181091,-0.8069750666618347,-0.5768854022026062
5.679970979690552,0.11951804161071777,0.17481273412704468,-0.220855712890625,-0.4030426308184794,-1.2288632442524814,-1.5668857454298941,-0.8666189312934875,0.3922189772129059,-0.3084412217140198,0.4481755495071411,-0.7190446257591248,-0.46802014112472534
5.6999311447143555,0.15997278690338135,0.12509241700172424,-0.24078112840652466,-0.3926725634719129,-1.2401327917012732,-1.5619782594177696,-0.8738400340080261,0.3826589286327362,-0.2999599277973175,0.32386207580566406,-0.5927042961120605,-0.335254043340683
5.719995975494385,0.258497416973114,0.13418492674827576,-0.22986364364624023,-0.3852207049119576,-1.2492171399277658,-1.5564858770561651,-0.8792097568511963,0.3757636845111847,-0.29290252923965454,0.43671831488609314,-0.5373067855834961,-0.239233136177063
5.739964008331299,0.33656954765319824,0.16909876465797424,-0.19965797662734985,-0.37823088152298895,-1.2558620041200406,-1.5476404515408848,-0.8836124539375305,0.3692769706249237,-0.2878604233264923,0.5727008581161499,-0.48217660188674927,-0.16018036007881165
5.759961128234863,0.4006221890449524,0.13597634434700012,-0.1270650029182434,-0.3726988882537738,-1.2615900182329545,-1.5357425189143021,-0.8871792554855347,0.3641303479671478,-0.2834117114543915,0.6055804491043091,-0.5506983995437622,-0.04422587901353836
5.779971122741699,0.4481680393218994,0.1116810142993927,-0.0450727641582489,-0.3660592578371988,-1.2707608057673077,-1.5225376162164095,-0.8920309543609619,0.3579385578632355,-0.2759722173213959,0.8776276111602783,-0.7768177390098572,-0.2752334177494049
5.799967050552368,0.3916473984718323,0.11876758933067322,-0.11078062653541565,-0.3515807164783364,-1.2871158514532783,-1.501261747255586,-0.9013062119483948,0.34438225626945496,-0.2627698481082916,1.4264450073242188,-1.519827961921692,-0.5323792695999146
5.820075035095215,0.21726387739181519,0.18611931800842285,-0.07578146457672119,-0.3270497466962139,-1.3118199599191858,-1.4720471100538943,-0.915414571762085,0.3212505578994751,-0.2425169050693512,1.8724828958511353,-1.867509126663208,-1.1344064474105835
5.839962005615234,-0.0032761096954345703,0.16642197966575623,0.026776880025863647,-0.29114985715013425,-1.3399307250084815,-1.4399692852666497,-0.9324998259544373,0.2870538830757141,-0.21919023990631104,1.888129472732544,-1.9004237651824951,-1.5432562828063965
5.859966993331909,-0.15146654844284058,0.1430526226758957,0.10954850912094116,-0.25258403369528126,-1.3671690239650913,-1.4121130656717393,-0.948265016078949,0.24990683794021606,-0.19580645859241486,1.6059147119522095,-1.609899878501892,-1.636907935142517
5.879962921142578,-0.20594769716262817,0.13636961579322815,0.07988476753234863,-0.21576435400291458,-1.3897403617274071,-1.3873056055572381,-0.9608461856842041,0.2140941172838211,-0.1758931577205658,1.5122884511947632,-1.2838802337646484,-1.5433813333511353
5.899993896484375,-0.13554710149765015,0.24774186313152313,0.0307733416557312,-0.1802651767782421,-1.4101384689137093,-1.361140979536324,-0.9711270928382874,0.17929045855998993,-0.1573755443096161,1.6414785385131836,-1.2568291425704956,-1.4958566427230835
5.919977188110352,-0.07230204343795776,0.28413528203964233,0.04673059284687042,-0.14698096555867263,-1.428333999641379,-1.3316407743270682,-0.9791963696479797,0.14645232260227203,-0.14045004546642303,1.6904171705245972,-1.0191223621368408,-1.3972080945968628
5.939968109130859,-0.06609803438186646,0.23748931288719177,0.0779915452003479,-0.11533563670042699,-1.4420975726034677,-1.3054081000409519,-0.9851410388946533,0.1150801032781601,-0.12749110162258148,1.3079453706741333,-0.7306970357894897,-1.402340292930603
5.959962844848633,-0.03603905439376831,0.17603987455368042,0.04718047380447388,-0.08661093349016345,-1.4530334713583994,-1.2867633266617,-0.9893516302108765,0.08650268614292145,-0.11705046147108078,0.8737582564353943,-0.5445709228515625,-1.202730417251587
5.980030059814453,-0.017194509506225586,0.1396474838256836,0.05062286555767059,-0.06231224786897374,-1.459640321932437,-1.2780384987605666,-0.991899847984314,0.062271930277347565,-0.1107119768857956,0.30529651045799255,-0.17571306228637695,-1.142519235610962
5.999971866607666,-0.0197908878326416,0.16442379355430603,0.1091868132352829,-0.041428964731864255,-1.45831595263337,-1.2780877170260927,-0.9928282499313354,0.041417114436626434,-0.11214704811573029,-0.10012038797140121,0.2730356752872467,-0.9316288828849792
6.019973039627075,0.02269667387008667,0.15264247357845306,0.1243758276104927,-0.02382753248662996,-1.4521051041325987,-1.2842345529999093,-0.9926826357841492,0.023825278505682945,-0.1183791309595108,-0.25618359446525574,0.3588598966598511,-0.8879314661026001
6.040189027786255,0.06564635038375854,0.20777785778045654,0.1626121997833252,-0.0068674211590734665,-1.4443434236919093,-1.292434984145133,-0.991992175579071,0.006867367308586836,-0.12611320614814758,-0.3168061673641205,0.40733712911605835,-0.964439332485199
6.059966087341309,0.0787358283996582,0.16819226741790771,0.2197147011756897,0.01269044814264865,-1.4363134439407812,-1.301566163600253,-0.9908909797668457,-0.012690107338130474,-0.1340670883655548,-0.3212791085243225,0.38938137888908386,-1.058479905128479
6.0799641609191895,0.09540700912475586,0.12389779090881348,0.24184809625148773,0.03268674301136904,-1.4293230842827245,-1.3099966114316026,-0.9894806146621704,-0.032680921256542206,-0.14092649519443512,-0.1959046870470047,0.38621917366981506,-1.0465682744979858
6.0999650955200195,0.0732119083404541,0.16432170569896698,0.28247177600860596,0.05443971773884251,-1.4187558927860489,-1.3172413483960483,-0.9869998097419739,-0.054412830621004105,-0.15123097598552704,-0.1665012091398239,0.6226325631141663,-1.2420077323913574
6.120037078857422,0.048319458961486816,0.1751750111579895,0.2115267515182495,0.0797243625143431,-1.4047818603269029,-1.3209156455712103,-0.9831186532974243,-0.07963993400335312,-0.1647280603647232,0.19412726163864136,0.7290847301483154,-1.284785270690918
6.139971971511841,0.16443496942520142,0.22754287719726562,0.26788222789764404,0.10442644750780668,-1.3925587356237878,-1.3190322312370608,-0.9787964820861816,-0.10423675924539566,-0.17632953822612762,0.3570970296859741,0.4749673902988434,-1.1039340496063232
6.1599650382995605,0.13045239448547363,0.19724950194358826,0.2768418788909912,0.12346639692212782,-1.385127413263827,-1.3185028166746875,-0.9753314852714539,-0.1231529489159584,-0.1831987351179123,0.011719618923962116,0.3371725082397461,-0.780308187007904
6.179803848266602,-0.051091134548187256,0.227291077375412,0.3141668140888214,0.13518861441084454,-1.3754287422806821,-1.3219897579776814,-0.9720258116722107,-0.13477720320224762,-0.1923559010028839,-0.09066306054592133,0.6668983697891235,-0.42773643136024475
6.199966907501221,-0.13736337423324585,0.3132358193397522,0.33649927377700806,0.1396630907748686,-1.3590753414886823,-1.3261228012739783,-0.9681511521339417,-0.13920949399471283,-0.20809660851955414,-0.20017530024051666,0.8479861617088318,-0.17738613486289978
6.219964027404785,-0.1082732081413269,0.21301347017288208,0.36751091480255127,0.14204920555355002,-1.342949632351815,-1.3280394251295566,-0.9643433094024658,-0.1415719836950302,-0.22360531985759735,0.05132889375090599,0.8327168226242065,-0.04306740313768387
6.239966869354248,-0.07338970899581909,0.14698170125484467,0.44361412525177,0.1389600204756141,-1.3268323838078684,-1.3270618690782754,-0.9610341191291809,-0.1385132372379303,-0.2392226755619049,-0.0129050612449646,0.806935727596283,0.29271039366722107
6.259970188140869,-0.11023557186126709,0.13832831382751465,0.44715332984924316,0.1301045475140091,-1.3105892610727363,-1.3263708705289576,-0.9581695795059204,-0.12973780930042267,-0.25510621070861816,-0.12252423167228699,0.8333544135093689,0.5556477904319763
6.279968023300171,-0.12197685241699219,0.14452561736106873,0.3408769369125366,0.11829695468555457,-1.2950300663814724,-1.3243704728336954,-0.9554920196533203,-0.11802123486995697,-0.270381361246109,0.04371511936187744,0.6782783269882202,0.6457713842391968
6.299972057342529,-0.04266411066055298,0.11289585381746292,0.2534095048904419,0.1059530303286771,-1.2873975065280168,-1.317075446600146,-0.9547265768051147,-0.10575490444898605,-0.2780524790287018,0.40867164731025696,0.12604935467243195,0.7089462280273438
6.319967985153198,-0.13289451599121094,0.17388278245925903,0.2615410387516022,0.09659469340590522,-1.288888996622889,-1.298912017897351,-0.9560489058494568,-0.09644454717636108,-0.2768913507461548,0.9540776610374451,0.017438191920518875,0.7607229351997375
6.339990139007568,-0.5756538510322571,0.2297152876853943,0.2787696123123169,0.08772283342022517,-1.2842419425677265,-1.2752056620726917,-0.9555351138114929,-0.08761037141084671,-0.2815619707107544,0.9632658362388611,0.7804631590843201,0.7749897837638855
6.359964847564697,-0.8128641247749329,0.17470547556877136,0.41809388995170593,0.07375932191862347,-1.2642608850265957,-1.254123347959162,-0.9507926106452942,-0.0736924558877945,-0.3009369671344757,0.5732121467590332,1.2520684003829956,1.260890007019043
6.3799729347229,-0.554610550403595,0.08754605054855347,0.48188817501068115,0.04501991854523945,-1.2421674268010539,-1.236538981239792,-0.9455267786979675,-0.0450047105550766,-0.32241860032081604,0.29813066124916077,1.0417348146438599,2.0148680210113525
6.400020122528076,-0.529116153717041,0.06541243195533752,0.3080292344093323,0.007352982164594059,-1.2244088994900182,-1.214528216223791,-0.9405799508094788,-0.007352916058152914,-0.3394928574562073,0.6147449612617493,0.7351616621017456,2.1424331665039062
6.419961929321289,-0.8122925758361816,0.1764127016067505,0.09167701005935669,-0.022411024489829443,-1.2125358938449997,-1.1832520289478319,-0.9362731575965881,0.022409148514270782,-0.3505576252937317,1.3069145679473877,0.5497270226478577,1.8687458038330078
6.439965009689331,-0.9126330614089966,0.0794253796339035,0.19484961032867432,-0.05191492812358324,-1.1991936949086588,-1.1435101222552222,-0.9304913878440857,0.05189161002635956,-0.36261996626853943,1.2537062168121338,0.5769367814064026,2.303982734680176
6.4599928855896,-0.9843944311141968,-0.15203014016151428,0.28226810693740845,-0.09015559825086486,-1.1856634494115859,-1.1040211245468978,-0.922984778881073,0.09003351628780365,-0.37415656447410583,1.0031564235687256,0.4890415668487549,2.68365740776062
6.479968070983887,-1.0128467082977295,-0.1361888349056244,0.2662612199783325,-0.13427243295210392,-1.1744797704140584,-1.0648709536876204,-0.9141858220100403,0.13386933505535126,-0.382548451423645,1.0050777196884155,0.27691343426704407,2.889051914215088
6.499988079071045,-1.026090383529663,-0.19493141770362854,0.26267892122268677,-0.1832600076467864,-1.1631454304329518,-1.024274187546632,-0.9026817083358765,0.1822359561920166,-0.38981515169143677,0.8489154577255249,0.2633045017719269,2.989466905593872
6.519965171813965,-1.0562090873718262,-0.3109329640865326,0.23259013891220093,-0.2290215616626478,-1.1511257599185087,-0.9838259700294741,-0.8893780708312988,0.22702474892139435,-0.39682045578956604,1.0001463890075684,0.11073644459247589,2.8193185329437256
6.539967060089111,-1.0447132587432861,-0.35858696699142456,0.17380577325820923,-0.27075742192192087,-1.139806609344766,-0.939019261802956,-0.8754528760910034,0.2674613296985626,-0.40255025029182434,1.2436236143112183,-0.03363236039876938,2.795787811279297
6.559964179992676,-1.029892921447754,-0.3899296522140503,0.20403355360031128,-0.30995348780431964,-1.1273339216837037,-0.8933543947063904,-0.8602285981178284,0.30501434206962585,-0.4086233973503113,1.0233055353164673,-0.06273601204156876,2.538503885269165
6.580007076263428,-1.0868654251098633,-0.4305016100406647,0.10734444856643677,-0.34552354515173134,-1.1196114437146552,-0.8563684435822304,-0.8467435836791992,0.33868932723999023,-0.4102618992328644,0.4963844418525696,-0.36732006072998047,2.2439072132110596
6.599961042404175,-0.9639071822166443,-0.4651660621166229,0.0701567530632019,-0.3826545078026908,-1.1192333481910393,-0.831224959575659,-0.8346921801567078,0.3733842968940735,-0.4048125445842743,-0.017457960173487663,-0.483362078666687,2.0890116691589355
6.619961977005005,-0.9239517450332642,-0.36410602927207947,0.024097979068756104,-0.41712843458871945,-1.1209151088871605,-0.814180658666595,-0.8232864737510681,0.4051367938518524,-0.3975721001625061,0.08193949609994888,-0.3552570939064026,1.764747977256775
6.6399641036987305,-0.8775416612625122,-0.16042298078536987,-0.17636984586715698,-0.4442222447385805,-1.121149999588154,-0.7934070250503465,-0.8131933212280273,0.4297557473182678,-0.39246249198913574,0.43686968088150024,-0.5011562705039978,1.4929252862930298
6.659956932067871,-0.7069655656814575,-0.13468816876411438,-0.2222585678100586,-0.4644380515849945,-1.1197973864281259,-0.7695392538773971,-0.8046770095825195,0.44792044162750244,-0.3896951675415039,0.44405806064605713,-0.41903063654899597,1.2301963567733765
6.679985046386719,-0.590785801410675,-0.18649515509605408,-0.16153255105018616,-0.48259896275944053,-1.1176851359485662,-0.7535399614079986,-0.7964060306549072,0.46408286690711975,-0.38776853680610657,-0.08948421478271484,-0.2521609663963318,1.0267277956008911
6.699985980987549,-0.3248281478881836,-0.28354015946388245,-0.1881013810634613,-0.50159067037342,-1.1218576320560922,-0.7496347315411261,-0.7899332642555237,0.4808208644390106,-0.38054782152175903,-0.3929015100002289,-0.35605141520500183,0.800001859664917
6.719974040985107,-0.16549915075302124,-0.11056479811668396,-0.23399460315704346,-0.5156173037411239,-1.1261630166338283,-0.7474097883094271,-0.7853982448577881,0.4930720031261444,-0.37420547008514404,-0.03620158135890961,-0.18805301189422607,0.5270653367042542
6.739964008331299,0.03887540102005005,-0.051977723836898804,-0.22057321667671204,-0.5218447704087056,-1.1250003173439216,-0.7410252480764754,-0.7821767926216125,0.4984802305698395,-0.3737871050834656,0.2692497670650482,-0.04377962648868561,0.3087475895881653
6.75999116897583,0.2927880883216858,-0.1283823847770691,-0.16980767250061035,-0.5222894544799596,-1.1202682065738143,-0.7300402426269448,-0.7801997065544128,0.49886566400527954,-0.37738773226737976,0.526898205280304,-0.002372531220316887,0.17833781242370605
6.7799999713897705,0.3957013487815857,-0.09263396263122559,-0.16638663411140442,-0.5204275438213767,-1.1135221554974168,-0.7195770002743238,-0.778468132019043,0.49725112318992615,-0.3830517828464508,0.3723786771297455,0.13365569710731506,0.07374894618988037
6.799962997436523,0.5960695147514343,-0.21892845630645752,-0.12920886278152466,-0.5178061638613226,-1.1076646159333863,-0.7103620860841209,-0.7773745656013489,0.49497509002685547,-0.38818609714508057,0.529102623462677,-0.050335973501205444,0.03600076586008072
6.819962024688721,0.7198449969291687,-0.09532594680786133,-0.23219871520996094,-0.5118032956815567,-1.1028480870148785,-0.6945028510296275,-0.7781336903572083,0.4897502660751343,-0.3932589590549469,1.0095856189727783,-0.1632034033536911,0.04422345012426376
6.8399879932403564,0.6755072474479675,-0.03502807021141052,-0.27422553300857544,-0.5016518303051956,-1.092993917007278,-0.6700157755449476,-0.7785957455635071,0.48087450861930847,-0.4031730890274048,1.3156709671020508,-0.011504510417580605,0.021966781467199326
6.859984874725342,0.6703040599822998,-0.026544302701950073,-0.21130847930908203,-0.4904091763295373,-1.0780715848763467,-0.6417674274122416,-0.7772071957588196,0.47098687291145325,-0.4172772467136383,1.382271409034729,0.09940549731254578,0.1277374029159546
6.879962921142578,0.7232017517089844,-0.047934144735336304,-0.1462850570678711,-0.47780348295864267,-1.0619992385138917,-0.6103383404543059,-0.7755242586135864,0.45982977747917175,-0.43257230520248413,1.7865062952041626,0.05320382118225098,0.07493355870246887
6.899969100952148,0.7057127952575684,0.08613499999046326,-0.09166035056114197,-0.4569450052095975,-1.0405920731068197,-0.5677073177028311,-0.7741943001747131,0.4412086009979248,-0.45382604002952576,2.4896786212921143,0.14694876968860626,-0.04148232564330101
6.920026063919067,0.7231267690658569,0.0968942940235138,-0.0056615471839904785,-0.4280851564365175,-1.0159847880615807,-0.5175333130023934,-0.7732977867126465,0.41512951254844666,-0.47924748063087463,2.8737123012542725,0.1322658807039261,-0.09075402468442917
6.939965009689331,0.8468220233917236,0.020514488220214844,0.15802085399627686,-0.3943349553134546,-0.9920372806544792,-0.46316099489345885,-0.7728933691978455,0.3841942846775055,-0.5050055980682373,3.1494410037994385,0.1465623527765274,-0.08684484660625458
6.959964990615845,0.9073565602302551,-0.05997741222381592,0.28500688076019287,-0.3559601519792702,-0.972067729009738,-0.40487654707319426,-0.7742695212364197,0.34849047660827637,-0.5282623767852783,3.5911388397216797,-0.390979140996933,-0.06064750254154205
6.979980945587158,1.0059888362884521,0.04884451627731323,0.3287537693977356,-0.31297511395536737,-0.9635027766493484,-0.3384581167827052,-0.7813032865524292,0.3078905940055847,-0.5429260730743408,3.9907419681549072,-0.9241862297058105,0.02903946116566658
6.999994993209839,0.895946741104126,0.022450506687164307,0.40811431407928467,-0.2687520757966531,-0.964163258103742,-0.2664273584358257,-0.792080283164978,0.26552852988243103,-0.5496395230293274,4.1514177322387695,-1.2259186506271362,0.25751712918281555
7.019988059997559,0.8934500813484192,0.11138011515140533,0.4185177683830261,-0.23145536464700772,-0.9756255207505972,-0.19174466628026188,-0.8059715628623962,0.2293943166732788,-0.5456996560096741,3.9613277912139893,-1.8004943132400513,0.705830991268158
7.039963006973267,0.900836706161499,0.10087133944034576,0.564142107963562,-0.2037582196848944,-1.0032209935451082,-0.11672693622968697,-0.8257635831832886,0.20235122740268707,-0.5264680981636047,3.7608726024627686,-2.505581855773926,0.9859462976455688
7.060075044631958,0.8013926148414612,0.20426568388938904,0.690837025642395,-0.1822548367097347,-1.0411239767380256,-0.04107661883739561,-0.8486796617507935,0.1812475174665451,-0.4968824088573456,3.7075610160827637,-2.7269482612609863,1.0141352415084839
7.079730987548828,0.6674205660820007,0.1640133112668991,0.72105872631073,-0.1630632631314546,-1.08497176288401,0.03479742511092357,-0.8725597858428955,0.16234159469604492,-0.46074357628822327,3.829866647720337,-2.965712785720825,0.9497687220573425
7.099967956542969,0.5298998355865479,0.145497664809227,0.6110632419586182,-0.14524990019240336,-1.1334501271167348,0.11301175381512335,-0.8963397741317749,0.14473970234394073,-0.4190770089626312,3.8365163803100586,-3.129547119140625,0.893738865852356
7.120009899139404,0.3999081254005432,-0.0004195272922515869,0.5016053915023804,-0.13088930191255896,-1.1898435120552826,0.18483265604277438,-0.9203702211380005,0.13051588833332062,-0.36862480640411377,3.232551097869873,-3.5323643684387207,0.5710566639900208
7.139965057373047,0.263324499130249,-0.11000949889421463,0.46096017956733704,-0.11620648065462122,-1.2560987986073013,0.24568118449516432,-0.944476842880249,0.11594511568546295,-0.30744126439094543,3.0206353664398193,-3.741018533706665,0.040528152137994766
7.159970045089722,0.005246460437774658,-0.0411345437169075,0.38608425855636597,-0.09203035724219615,-1.3236554103905351,0.30270008327354025,-0.9655126333236694,0.09190050512552261,-0.24359753727912903,3.14617657661438,-3.638921022415161,-0.7380775809288025
7.180011034011841,-0.1526842713356018,-0.1652947962284088,0.3130953311920166,-0.05987704793945007,-1.3926892330345786,0.3567991322016651,-0.982417106628418,0.059841275215148926,-0.17684943974018097,2.6685538291931152,-3.730980157852173,-1.231684923171997
7.199548006057739,-0.31122714281082153,-0.37566831707954407,0.29457181692123413,-0.02775620097749624,-1.4673303777798006,0.39669656485557614,-0.9942690134048462,0.02775263786315918,-0.10324165970087051,1.7325520515441895,-3.918789863586426,-1.297003984451294
7.219990015029907,-0.5267727375030518,-0.3576885461807251,0.24632662534713745,-0.0008312244837987515,-1.5445596782218434,0.4211100907527355,-0.9996554851531982,0.0008312243735417724,-0.026233630254864693,0.9957777857780457,-3.623749017715454,-1.2548211812973022
7.240084171295166,-0.8809950947761536,-0.20640155673027039,0.18238162994384766,0.021978521470340077,-1.6015925164997866,0.43676008995529525,-0.9992846250534058,-0.02197675220668316,0.030783891677856445,0.5557917356491089,-1.9768224954605103,-0.9329689741134644
7.2599568367004395,-1.1345008611679077,-0.1374356597661972,-0.07994318008422852,0.03262934708127283,-1.6245949703997487,0.4453427690403695,-0.9980217814445496,-0.03262355923652649,0.05374407768249512,0.09391158819198608,-0.4612467288970947,-0.2799944281578064
7.279921054840088,-0.8507401943206787,0.016966622322797775,-0.0627889558672905,0.035131827126623924,-1.6281438671313369,0.4440592436249552,-0.9977401494979858,-0.03512459993362427,0.057280752807855606,0.15491418540477753,0.0030849070753902197,0.13906314969062805
7.299981117248535,-0.3957310914993286,0.031030986458063126,-0.055990807712078094,0.026975436942407376,-1.6248802281580041,0.45126062314203363,-0.9981746673583984,-0.02697216533124447,0.05403788015246391,0.45150795578956604,0.41176143288612366,0.4826311469078064
7.320021152496338,-0.32864826917648315,-0.12585601210594177,0.19557547569274902,0.019012093038536182,-1.6084521336513535,0.461441597926261,-0.9991105198860168,-0.01901094801723957,0.037640105932950974,0.5283488035202026,1.2710987329483032,0.32573533058166504
7.339910984039307,-0.3103616237640381,-0.380586177110672,0.2378443479537964,0.011336078962879182,-1.5813508784925272,0.4674314489482985,-0.9998800754547119,-0.011335835792124271,0.010553677566349506,0.1509244590997696,1.2496323585510254,0.2787007987499237
7.359992980957031,-0.26283806562423706,-0.40117347240448,0.23753643035888672,0.00454250323179596,-1.5636371289028355,0.46797213807167387,-0.9999641180038452,-0.004542487673461437,-0.007159063126891851,-0.2078232318162918,0.6761558055877686,0.5793994069099426
7.379925012588501,-0.24995094537734985,-0.5005167722702026,0.46421748399734497,-0.008100455315480641,-1.5519508514108395,0.45352027141320994,-0.9997895956039429,0.008100367151200771,-0.018843740224838257,-1.2893266677856445,0.47269368171691895,0.518406093120575
7.399963855743408,-0.2812345027923584,-0.6486309766769409,0.5023294687271118,-0.017482567774017542,-1.5449006486582149,0.41889912537843876,-0.9995119571685791,0.01748167723417282,-0.025888826698064804,-2.0905299186706543,0.267754465341568,0.2794409990310669
7.419965028762817,-0.2132074236869812,-0.35554012656211853,0.4286082983016968,-0.026365303186855732,-1.5443060581973662,0.37502006151951395,-0.9993016719818115,0.02636224962770939,-0.026477962732315063,-2.122941255569458,0.11163543909788132,0.49380621314048767
7.439931869506836,-0.27874547243118286,-0.02109507843852043,0.38718438148498535,-0.03515564002075182,-1.5352520269762508,0.34039182299500576,-0.9987510442733765,0.03514839708805084,-0.035514865070581436,-1.4153153896331787,1.0738660097122192,0.2966553568840027
7.459954023361206,-0.2442353367805481,-0.114768385887146,0.4899653196334839,-0.043523545177320176,-1.5125210369587165,0.31158817432166547,-0.9973571300506592,0.04350980371236801,-0.05818715691566467,-1.647055745124817,1.154677391052246,0.43014857172966003
7.479978084564209,-0.0990980863571167,-0.36753374338150024,0.37775182723999023,-0.056070138277613014,-1.4956820538686952,0.2731136990598657,-0.9956132173538208,0.05604076385498047,-0.0749257281422615,-2.2750182151794434,0.7460288405418396,0.5595260262489319
7.500027179718018,-0.1104629635810852,-0.25902462005615234,0.28981709480285645,-0.07308497014441548,-1.4857281869980907,0.2267435998312173,-0.9937241077423096,0.07301992177963257,-0.08473876118659973,-2.3887269496917725,0.6943364143371582,0.7688499093055725
7.520050048828125,-0.2821384072303772,-0.1131327748298645,0.24610108137130737,-0.09212956733037724,-1.4702952910482432,0.18240813227214805,-0.9907345175743103,0.09199929237365723,-0.09990643709897995,-2.178187370300293,1.2974399328231812,0.674140453338623
7.540220022201538,-0.32986652851104736,-0.15591086447238922,0.31511569023132324,-0.10886927282339953,-1.4418178732501326,0.14039058918223132,-0.9858226180076599,0.10865433514118195,-0.1278596669435501,-2.235079050064087,1.8940987586975098,0.5170221328735352
7.559607028961182,-0.2059016227722168,-0.24463996291160583,0.3122596740722656,-0.1251543592380877,-1.4084151157415,0.09450496212897336,-0.979126513004303,0.12482788413763046,-0.1604040563106537,-2.515573263168335,1.9482343196868896,0.42581021785736084
7.57958197593689,-0.1326645016670227,-0.23025958240032196,0.16548669338226318,-0.1404344068907537,-1.378738351179287,0.04393569246355174,-0.9719498753547668,0.1399732530117035,-0.18900029361248016,-2.6815266609191895,1.6864129304885864,0.22612857818603516
7.600019931793213,-0.14586156606674194,-0.1589508354663849,0.034363165497779846,-0.15522458928069777,-1.3527413570748672,-0.007963184212358587,-0.9645816087722778,0.15460199117660522,-0.2137300670146942,-2.61832594871521,1.7804993391036987,0.17615991830825806
7.620046138763428,-0.14263927936553955,-0.09119109809398651,0.04534333944320679,-0.16976406697197471,-1.3220611890939262,-0.057077697448986116,-0.9552916884422302,0.16894981265068054,-0.24263934791088104,-2.4853761196136475,2.0590765476226807,0.17010559141635895
7.640142917633057,-0.053285181522369385,-0.04329228401184082,0.07536762952804565,-0.18837090399385287,-1.2871833479438026,-0.10642896162988807,-0.9430680871009827,0.18725886940956116,-0.2748761773109436,-2.73826265335083,2.3431451320648193,0.34701088070869446
7.660039901733398,0.014686346054077148,-0.016781508922576904,0.0579032301902771,-0.2123901238530847,-1.2483363604094653,-0.158807702298549,-0.9271467924118042,0.21079692244529724,-0.30977991223335266,-2.8268511295318604,2.5519800186157227,0.4283924102783203
7.680052995681763,0.04535174369812012,0.04994140565395355,-0.07079464197158813,-0.24146048804149625,-1.2085538407754914,-0.20966348067946267,-0.9079769253730774,0.23912100493907928,-0.3440916836261749,-2.7434535026550293,2.634884834289551,0.6636536121368408
7.708042144775391,0.1559550166130066,0.11783868074417114,-0.13584735989570618,-0.29569200364376336,-1.1293820021347216,-0.29868154974328204,-0.8649089336395264,0.2914018929004669,-0.4086776673793793,-2.266119956970215,2.404851198196411,0.3066655993461609
7.727695941925049,0.2766273617744446,0.07696959376335144,-0.08561474084854126,-0.32267408393191305,-1.095310538117927,-0.33631073773876224,-0.8431863188743591,0.317103773355484,-0.4341452717781067,-2.160200595855713,2.194463014602661,0.5233983993530273
7.748363971710205,0.28613972663879395,0.02874329686164856,-0.05859184265136719,-0.3507655275152299,-1.0642000210820877,-0.36995403125823284,-0.821158766746521,0.3436168134212494,-0.45565980672836304,-2.0173890590667725,2.0668208599090576,0.438398540019989
7.768251895904541,0.24096322059631348,-0.01856553554534912,-0.10341331362724304,-0.37885105526516333,-1.0356996575710018,-0.4021375303421147,-0.7992213368415833,0.3698532283306122,-0.4737655818462372,-1.9741305112838745,1.9693711996078491,0.5428579449653625
7.788433074951172,0.22673028707504272,0.0003458857536315918,-0.06668344140052795,-0.4080552350511554,-1.005661957215735,-0.4286476585818098,-0.775177001953125,0.39682498574256897,-0.4915592670440674,-1.6602442264556885,2.0063891410827637,0.6197730898857117
7.80814790725708,0.24602341651916504,0.09154710173606873,-0.11687016487121582,-0.4317350723529862,-0.9762442815640967,-0.44899271792191614,-0.7523864507675171,0.4184472858905792,-0.5087400674819946,-1.0784125328063965,1.7797296047210693,0.34793707728385925
7.827988147735596,0.28258728981018066,0.14884445071220398,-0.15795421600341797,-0.4464515727311501,-0.9479275874005956,-0.4587924335472237,-0.7325996160507202,0.43176764249801636,-0.5261887311935425,-0.5039264559745789,1.5727360248565674,0.41957640647888184
7.845990180969238,0.2836662530899048,0.05385643243789673,-0.10053330659866333,-0.4579043453819816,-0.9148028464690089,-0.4559158361028753,-0.7108056545257568,0.44206932187080383,-0.5471106171607971,-0.2605926990509033,1.574441909790039,0.6725870966911316
7.867918968200684,0.3040066957473755,-0.10299387574195862,0.022427141666412354,-0.47647043922206345,-0.8862821764603884,-0.4552858552538241,-0.68843674659729,0.45864561200141907,-0.5618709921836853,-0.9298240542411804,1.1948198080062866,0.769493579864502
7.888238906860352,0.3610721826553345,-0.06846219301223755,0.06501805782318115,-0.502298271366762,-0.8722843982938477,-0.464271495845729,-0.6712071895599365,0.4814411997795105,-0.5636447668075562,-1.0465435981750488,0.6010655760765076,0.7797280550003052
7.907745838165283,0.38646823167800903,0.11169084906578064,-0.025197148323059082,-0.5218416579965054,-0.8660108573096507,-0.4644490871474679,-0.6603636145591736,0.4984775185585022,-0.5616406202316284,-0.19226858019828796,0.11273407936096191,0.675627589225769
7.927795886993408,0.23534762859344482,0.3510957360267639,-0.0981023907661438,-0.5266598203083259,-0.8553854383446577,-0.4513094363649094,-0.6525382399559021,0.5026485919952393,-0.5670434236526489,0.6400039196014404,0.31829479336738586,0.45970118045806885
7.947726011276245,0.10469299554824829,0.2763928771018982,-0.0816793441772461,-0.5254729177429399,-0.8379444292367743,-0.4336119363493864,-0.6429926753044128,0.501622200012207,-0.5787362456321716,0.46561774611473083,0.4921443462371826,0.49742263555526733
7.967655181884766,0.16089355945587158,0.047467052936553955,-0.026866436004638672,-0.5310182631036514,-0.8222444949069408,-0.4206183592555894,-0.6317799091339111,0.5064116716384888,-0.5868573188781738,-0.1015913337469101,0.3932359516620636,0.6991478800773621
7.987818002700806,0.21198147535324097,-0.04510903358459473,0.009070932865142822,-0.548040013376379,-0.8122374137255528,-0.4138748977629614,-0.619528591632843,0.5210152864456177,-0.587134838104248,-0.5772292613983154,0.26274746656417847,0.8980627059936523
8.006556034088135,0.22274744510650635,0.019354701042175293,0.014990389347076416,-0.5692250633396081,-0.8058507992260515,-0.4092326604426295,-0.6076657772064209,0.5389794707298279,-0.5833038687705994,-0.5454742908477783,0.13589462637901306,0.9105607867240906
8.026456832885742,0.22260558605194092,0.1290096640586853,-0.011996090412139893,-0.5876979447928726,-0.7999434823230701,-0.40040488002746877,-0.5969648361206055,0.5544466972351074,-0.5798465013504028,-0.18868836760520935,-0.02816861867904663,0.9335299134254456
8.046463012695312,0.2164674997329712,0.15847361087799072,-0.021357297897338867,-0.6005336553979151,-0.7926053372127957,-0.38548256733907493,-0.587576687335968,0.565082848072052,-0.5791676044464111,0.19328606128692627,-0.08948399871587753,0.8450983166694641
8.067276000976562,0.23903846740722656,0.11737102270126343,0.03376346826553345,-0.6079447845600371,-0.7834253089163932,-0.36391241642739736,-0.5792638063430786,0.5711817145347595,-0.5815539360046387,0.490861177444458,-0.25066232681274414,0.9893573522567749
8.086501121520996,0.2709130644798279,0.07490408420562744,0.025323808193206787,-0.6155329413803243,-0.7745873711281953,-0.33519095860404524,-0.5710535049438477,0.5773937106132507,-0.5835360288619995,0.6166553497314453,-0.5031757354736328,1.176670789718628
8.107073068618774,0.2268044352531433,0.06294965744018555,0.042262136936187744,-0.6221164023409153,-0.7660412760652238,-0.3016574882671816,-0.5633981823921204,0.5827563405036926,-0.5856428146362305,0.849073588848114,-0.5689523220062256,1.2607240676879883
8.12730598449707,0.1995977759361267,0.08940935134887695,0.07747048139572144,-0.6258192853354342,-0.7535058383791231,-0.2611894845251845,-0.5545325875282288,0.5857614874839783,-0.5910812616348267,1.1475754976272583,-0.5128276944160461,1.3411387205123901
8.146103858947754,0.16827070713043213,0.08356297016143799,0.08174622058868408,-0.625125625868351,-0.7373652374372852,-0.21685012781457924,-0.5451934337615967,0.5851991176605225,-0.600255012512207,1.3511269092559814,-0.46668195724487305,1.2735432386398315
8.164187908172607,0.13167637586593628,0.07675755023956299,0.0848928689956665,-0.6213110009058719,-0.7192019390695006,-0.17165046745000134,-0.5356682538986206,0.5821016430854797,-0.6117330193519592,1.3510332107543945,-0.3634898066520691,1.200243353843689
8.186470985412598,0.1022757887840271,0.06974810361862183,0.12584227323532104,-0.617045841751566,-0.7024960731403262,-0.13067008033625482,-0.5269737839698792,0.5786283016204834,-0.6224852800369263,1.0848559141159058,-0.3645288050174713,1.0431761741638184
8.206899166107178,0.07235133647918701,0.0795547366142273,0.13948780298233032,-0.6156305276900901,-0.6922122577118084,-0.09986256639585092,-0.5210667252540588,0.5774734020233154,-0.6285014152526855,0.6624290943145752,-0.36426833271980286,0.7849849462509155
8.2259521484375,0.03011983633041382,0.12747663259506226,0.14205032587051392,-0.6160677480386039,-0.6869025371509009,-0.07936245882834972,-0.5175620317459106,0.5778303146362305,-0.6310639381408691,0.4160338342189789,-0.2850686013698578,0.5600789189338684
8.247828960418701,0.002636849880218506,0.19589632749557495,0.13405263423919678,-0.6163117261272169,-0.6825266357561018,-0.06461271095675483,-0.5147067308425903,0.5780293941497803,-0.6332133412361145,0.34336960315704346,-0.1421867161989212,0.3850424289703369
8.267032146453857,0.009945392608642578,0.180769681930542,0.19215857982635498,-0.6153834051365076,-0.6761089756314418,-0.05153187159644219,-0.5109679102897644,0.5772716403007507,-0.6369217038154602,0.34411510825157166,0.015921343117952347,0.4316834807395935
8.286885976791382,0.07090771198272705,0.12265312671661377,0.26079875230789185,-0.6185772995013726,-0.668353459972846,-0.03982240203538774,-0.5048677921295166,0.5798766613006592,-0.6394150257110596,0.017649400979280472,0.03102634847164154,0.490275114774704
8.306661128997803,0.09499722719192505,0.05801236629486084,0.2240206003189087,-0.625548821951449,-0.6648020623597816,-0.031628214927925793,-0.5000877380371094,0.5855422616004944,-0.6380066871643066,-0.14572107791900635,-0.180888831615448,0.46350693702697754
8.326596021652222,0.09771078824996948,0.07669287919998169,0.18455535173416138,-0.6338324028931349,-0.6661756005395576,-0.02559693452065986,-0.4979489743709564,0.592237114906311,-0.6334841251373291,-0.1684434860944748,-0.26302969455718994,0.43816766142845154
8.346184968948364,0.06993067264556885,0.07951009273529053,0.1599869728088379,-0.6413213115666344,-0.6671434339011452,-0.019598582015218104,-0.4958036243915558,0.5982547402381897,-0.6294999122619629,-0.13643045723438263,-0.19164791703224182,0.3987329602241516
