timestamp,acceleration_x,acceleration_y,acceleration_z,attitude_pitch,attitude_roll,attitude_yaw,gravity_x,gravity_y,gravity_z,rotation_x,rotation_y,rotation_z
0.0,0.24235334992408752,0.3658732771873474,-0.20961052179336548,-0.9334834779771262,-0.7303907119578311,-1.9885328939579237,-0.3969859480857849,0.8036975860595703,-0.44325196743011475,-2.9605679512023926,-0.36069679260253906,-1.4373224973678589
0.015708208084106445,0.3544306457042694,0.27465325593948364,-0.1513320803642273,-0.9709889585672391,-0.9153509240611247,-2.189177221274966,-0.4475092887878418,0.8254443407058716,-0.34405970573425293,-2.3661320209503174,-0.740916907787323,-1.2406753301620483
0.033471107482910156,0.397236704826355,0.3783479928970337,-0.20493918657302856,-0.9669263090699178,-1.0300653775776105,-2.289061333546254,-0.48682108521461487,0.823144257068634,-0.2922988831996918,0.050530821084976196,-0.8769064545631409,-0.5423510074615479
0.05022907257080078,0.457205593585968,0.21714264154434204,-0.0893310010433197,-0.9481487224437152,-1.0613490366342568,-2.2791753149702823,-0.5091312527656555,0.8123372793197632,-0.28441765904426575,0.3759598135948181,-1.051257848739624,-0.1716313511133194
0.07012319564819336,0.30844324827194214,0.2540227174758911,-0.06302320957183838,-0.9499309335300796,-1.1152628565996776,-2.278100643483562,-0.5224172472953796,0.8133753538131714,-0.25593119859695435,-0.10450567305088043,-0.6089087724685669,0.237601637840271
0.08818817138671875,0.1944616436958313,0.3192558288574219,-0.11740320920944214,-0.9581853966037421,-1.1031911673582917,-2.2436579814950606,-0.5132788419723511,0.8181495070457458,-0.2591836154460907,0.7372915744781494,-0.25175583362579346,0.5711573958396912
0.11659908294677734,0.05564168095588684,0.0882951021194458,-0.006782114505767822,-0.9783861512450727,-1.0354149575450953,-2.157060617249453,-0.48023277521133423,0.8295973539352417,-0.2848590612411499,0.2662384808063507,0.14354638755321503,0.7596176862716675
0.13326811790466309,-0.04331672191619873,0.06034308671951294,-0.0112934410572052,-1.0007832153315925,-0.9923362745073572,-2.1184079970506207,-0.45184630155563354,0.8418939113616943,-0.2950419485569,0.1662084013223648,0.43596386909484863,0.7060086727142334
0.15036630630493164,-0.11078429222106934,-0.011635422706604004,0.03062307834625244,-1.0151729739006152,-0.9277713528411765,-2.0738304578293585,-0.42212894558906555,0.8495718240737915,-0.3162827789783478,0.3074941337108612,0.8591504096984863,0.5142457485198975
0.17514920234680176,-0.19795647263526917,0.059236347675323486,0.12151265144348145,-1.013276556501439,-0.8490321464165398,-2.050599546909276,-0.3971515893936157,0.8485699892044067,-0.34957045316696167,-0.2706652283668518,1.0358567237854004,-0.2555660605430603
0.18804717063903809,-0.03941619396209717,0.037136971950531006,0.07453691959381104,-1.0227302713035065,-0.8516907822207599,-2.095632312722149,-0.3920260965824127,0.8535338044166565,-0.34321358799934387,-0.6684020161628723,0.6724400520324707,-0.09315186738967896
0.21651506423950195,-0.04887747764587402,-0.0058342814445495605,0.03674393892288208,-1.0210972664089837,-0.8356201712251086,-2.0984839870616216,-0.38749340176582336,0.8526817560195923,-0.3504035472869873,0.630813479423523,0.04651233181357384,-0.06815898418426514
0.23377132415771484,-0.003728419542312622,-0.10172033309936523,0.11617052555084229,-1.0002739219643626,-0.8089407302227488,-2.0689105525658857,-0.39077237248420715,0.8416189551353455,-0.3727927505970001,0.49899592995643616,0.028390763327479362,-0.1786525845527649
0.4055752754211426,0.019204258918762207,-0.12802422046661377,0.08597564697265625,-0.9853001715409114,-0.8009028665557629,-2.0587517370582344,-0.3967677652835846,0.833437979221344,-0.3846511244773865,0.25567686557769775,-0.10122821480035782,-0.20622268319129944
0.4581789970397949,-0.0205538272857666,-0.05315673351287842,0.027245819568634033,-0.9706741823551761,-0.8067290871262692,-2.055736744461951,-0.4077604115009308,0.8252666592597961,-0.39072537422180176,0.38049060106277466,-0.31829509139060974,-0.2511790096759796
0.46976327896118164,-0.047770291566848755,0.059167444705963135,-0.10072296857833862,-0.933516134998781,-0.8018516117160043,-2.018340413827396,-0.42760205268859863,0.8037170171737671,-0.4137575328350067,0.9723876714706421,-0.5257227420806885,-0.1588631421327591
0.4886002540588379,0.18104377388954163,-0.06868946552276611,-0.17664015293121338,-0.8808024338496717,-0.8275698066677338,-1.9679857896966322,-0.468671977519989,0.7712498903274536,-0.43072059750556946,0.26773950457572937,-0.7691788673400879,-0.12344036996364594
0.5120840072631836,0.14427083730697632,0.03388923406600952,-0.2179214060306549,-0.8696443783819542,-0.8457073511288662,-1.9525197937009071,-0.4828175902366638,0.7640995979309082,-0.42783045768737793,0.45330071449279785,-0.6691408753395081,0.04966903477907181
0.5338001251220703,0.1440906524658203,0.03214973211288452,-0.21052542328834534,-0.8652092203038249,-0.8484177974453232,-1.9400344261695355,-0.4865131080150604,0.7612309455871582,-0.4287566840648651,0.43065398931503296,-0.5603317022323608,0.14321677386760712
0.5559661388397217,0.16474351286888123,-0.011024773120880127,-0.19191071391105652,-0.8628472731673699,-0.8493835423455576,-1.9277167903034633,-0.4882756173610687,0.7596971392631531,-0.4294728636741638,0.3154653012752533,-0.4850008189678192,0.2171555757522583
0.5750250816345215,0.18752792477607727,-0.045652806758880615,-0.17014092206954956,-0.8636545153414883,-0.8502511129774443,-1.9167087998696106,-0.48818713426589966,0.7602218389511108,-0.4286443889141083,0.18411362171173096,-0.4508275091648102,0.31438642740249634
0.5928583145141602,0.1928820013999939,-0.049024224281311035,-0.15127116441726685,-0.8668536845925202,-0.8505662504510886,-1.9055049418375423,-0.4864916503429413,0.7622963190078735,-0.426884263753891,0.17470383644104004,-0.4426356852054596,0.4059601426124573
0.6139402389526367,0.18062403798103333,-0.03676480054855347,-0.13065505027770996,-0.8708372193191571,-0.848718726008705,-1.891681483242458,-0.4834195375442505,0.7648685574531555,-0.42577195167541504,0.2395172268152237,-0.4418003559112549,0.4925258159637451
0.6339602470397949,0.15855300426483154,-0.018489062786102295,-0.12823110818862915,-0.8750946559310374,-0.8448366357846682,-1.8744125077242895,-0.4793233275413513,0.7676041722297668,-0.42547979950904846,0.32052573561668396,-0.5067374110221863,0.5556644201278687
0.654116153717041,0.11638569831848145,0.029676318168640137,-0.12665089964866638,-0.878468399890271,-0.8391522811223016,-1.8532338830721036,-0.47496724128723145,0.7697620987892151,-0.42646482586860657,0.46613067388534546,-0.5436734557151794,0.6020442843437195
0.676152229309082,0.06707295775413513,0.07531875371932983,-0.11508917808532715,-0.8802339769480132,-0.8302875264448212,-1.827660455664808,-0.47016438841819763,0.7708879113197327,-0.4297410547733307,0.6182308793067932,-0.5472254753112793,0.6107701063156128
0.6947402954101562,0.02250981330871582,0.13203704357147217,-0.11349308490753174,-0.8799203916640581,-0.8206773701545251,-1.800410974123663,-0.4661896228790283,0.7706881761550903,-0.434404194355011,0.6726564764976501,-0.6126643419265747,0.53573077917099
0.7159433364868164,-0.040163129568099976,0.24168825149536133,-0.1576003134250641,-0.8774312925211313,-0.8134485971294724,-1.7738521495432213,-0.46442973613739014,0.7690997123718262,-0.43907928466796875,0.7425628900527954,-0.7153701782226562,0.45063695311546326
0.7343692779541016,-0.11686649918556213,0.38362741470336914,-0.20076662302017212,-0.8725009796539176,-0.8076951065666717,-1.7468841705735108,-0.46463069319725037,0.7659392356872559,-0.4443596303462982,0.875360906124115,-0.7554395794868469,0.38715052604675293
0.7539262771606445,-0.1480143964290619,0.375244140625,-0.1499742567539215,-0.8656790614268047,-0.7986406801655175,-1.717838398499299,-0.4643207788467407,0.7615355253219604,-0.45218324661254883,0.8905853629112244,-0.5215753316879272,0.44742873311042786
0.7744870185852051,-0.04276791214942932,0.20080971717834473,0.00015160441398620605,-0.8632279574896911,-0.7849040193408752,-1.6906932188431603,-0.4593835473060608,0.7599446773529053,-0.45983779430389404,0.47680428624153137,-0.17630574107170105,0.6236576437950134
0.7943062782287598,0.09037202596664429,0.0009185671806335449,0.11482268571853638,-0.8702778413383953,-0.7719170045536798,-1.6709582554613638,-0.4496249556541443,0.764508068561554,-0.4619143009185791,-0.09250552952289581,-0.1055113822221756,0.7581387758255005
0.8148250579833984,0.16160038113594055,-0.08875042200088501,0.12738698720932007,-0.8853387244535044,-0.768782733432136,-1.6608978074997294,-0.44011905789375305,0.7741294503211975,-0.4549930989742279,-0.43832966685295105,-0.397470623254776,0.7381471991539001
0.8344731330871582,0.15465852618217468,-0.04063516855239868,0.052862703800201416,-0.8989441791993176,-0.7729048466241368,-1.6505181080001274,-0.43459632992744446,0.7826701402664185,-0.44559338688850403,0.04370001330971718,-0.8177799582481384,0.6758963465690613
0.8543052673339844,0.07101830840110779,0.11709535121917725,-0.008618175983428955,-0.9000963814412747,-0.7703304962640227,-1.623112192594482,-0.4328194558620453,0.7833868265151978,-0.44606316089630127,1.081930160522461,-1.0374648571014404,0.6337875723838806
0.8739352226257324,-0.03863745927810669,0.16934841871261597,0.057734787464141846,-0.8876133247142065,-0.754869691599048,-1.5768296546139244,-0.4325386881828308,0.775567352771759,-0.4597885310649872,1.7135390043258667,-1.0047763586044312,0.5838356614112854
0.8897151947021484,-0.09611976146697998,0.07412129640579224,0.18675976991653442,-0.869936725008033,-0.7346170921439039,-1.52749141589778,-0.43226158618927,0.7642881274223328,-0.47855353355407715,1.6234130859375,-0.7588872313499451,0.551357626914978
0.9094161987304688,-0.1038835346698761,0.004732847213745117,0.2535967528820038,-0.8579175938008793,-0.7160560373033883,-1.4870585123085172,-0.429304301738739,0.7564823031425476,-0.4933885335922241,0.9741179347038269,-0.4778244197368622,0.6118135452270508
0.9302000999450684,-0.1086646020412445,-0.03209888935089111,0.24257898330688477,-0.8562351243509594,-0.7042315670498293,-1.4610155244201548,-0.42426392436027527,0.7553808689117432,-0.4993996322154999,0.30609461665153503,-0.3273794949054718,0.5570504069328308
0.950322151184082,-0.07194474339485168,-0.04920780658721924,0.2356913685798645,-0.8611447036061706,-0.6980151229717375,-1.4459003342213472,-0.4187626540660858,0.7585889101028442,-0.4991800785064697,0.014446306973695755,-0.20851489901542664,0.5289690494537354
0.9734761714935303,-0.023772388696670532,-0.0594329833984375,0.24593132734298706,-0.8678950705716136,-0.6930444968797743,-1.434369848369921,-0.4129951596260071,0.7629699110984802,-0.4973045289516449,-0.0160205215215683,-0.18193629384040833,0.46207815408706665
0.9934482574462891,-0.006184935569763184,-0.07835519313812256,0.2359302043914795,-0.8721092086209279,-0.6890260946293955,-1.4236865251705544,-0.4089456796646118,0.7656872868537903,-0.4964739680290222,0.14115285873413086,-0.23963314294815063,0.33626696467399597
1.0126452445983887,-0.0015646815299987793,-0.08195936679840088,0.23977917432785034,-0.8719005618021892,-0.6863294965752607,-1.4132061477957012,-0.4077065587043762,0.7655531167984009,-0.49769842624664307,0.2884312570095062,-0.30059343576431274,0.17327964305877686
1.033419132232666,0.022091031074523926,-0.06348228454589844,0.237601637840271,-0.868447056179404,-0.6866854832011741,-1.404566475243192,-0.40955743193626404,0.7633266448974609,-0.49959492683410645,0.3139834403991699,-0.3925926983356476,0.05514036491513252
1.0499062538146973,0.04934641718864441,-0.04061371088027954,0.2401999831199646,-0.8647064818240484,-0.6903937751444684,-1.398453490521011,-0.4132227599620819,0.760904848575592,-0.5002707242965698,0.2062353938817978,-0.44419896602630615,0.017006350681185722
1.0706911087036133,0.06373375654220581,-0.022872865200042725,0.23232507705688477,-0.8629759729776926,-0.6979350543633438,-1.3961123097310046,-0.4178292155265808,0.7597808241844177,-0.4981483519077301,0.014086486771702766,-0.5017892122268677,-0.012183365412056446
1.093515157699585,0.06834325194358826,0.025092780590057373,0.184503436088562,-0.8633873622529822,-0.7099554869176169,-1.397900150860919,-0.42358309030532837,0.7600482702255249,-0.49285295605659485,-0.09298974275588989,-0.5669150352478027,-0.04597962275147438
1.1133460998535156,0.08566665649414062,0.07822871208190918,0.12725821137428284,-0.8638730340210461,-0.7237320745260578,-1.4002615806254466,-0.43008798360824585,0.760363757610321,-0.4866941273212433,-0.01699848845601082,-0.6347044110298157,-0.03356153890490532
1.134437084197998,0.11284959316253662,0.13106966018676758,0.08753138780593872,-0.8623711886921659,-0.7354334069523967,-1.3984475616876348,-0.43651899695396423,0.7593874931335449,-0.48247453570365906,0.21374759078025818,-0.665658175945282,0.03347087651491165
1.1533942222595215,0.13839605450630188,0.12300270795822144,0.08130508661270142,-0.8590866588577125,-0.7427891667625457,-1.3906475729103327,-0.4417407512664795,0.7572463750839233,-0.48108527064323425,0.3415555953979492,-0.6669747233390808,0.10781413316726685
1.174962043762207,0.16241326928138733,0.07293355464935303,0.07387304306030273,-0.855783282854591,-0.7493262605401729,-1.381420739960979,-0.44657766819000244,0.7550846934318542,-0.48001617193222046,0.2997298240661621,-0.6955530047416687,0.10722462832927704
1.1934471130371094,0.17964088916778564,0.0693274736404419,0.04470816254615784,-0.8530256797067884,-0.7575711445115249,-1.3732167689155577,-0.45194917917251587,0.7532738447189331,-0.4778288006782532,0.27788227796554565,-0.747222363948822,0.10155855864286423
1.2110390663146973,0.1595524549484253,0.11319750547409058,0.00830337405204773,-0.8501288273764663,-0.7664999398514855,-1.3651021345194259,-0.4577091634273529,0.7513654232025146,-0.47534430027008057,0.3071402907371521,-0.750078022480011,0.0787058100104332
1.2333040237426758,0.13027828931808472,0.15426534414291382,-0.024127542972564697,-0.8464963290612594,-0.7748974592383363,-1.3569212783926627,-0.46359124779701233,0.7489634156227112,-0.4734310209751129,0.3207584619522095,-0.7066873908042908,0.06096535176038742
1.2532830238342285,0.10737526416778564,0.19125163555145264,-0.045954227447509766,-0.8431420782129798,-0.7823744380769186,-1.3489385294800054,-0.4688864052295685,0.7467366456985474,-0.4717305898666382,0.28760871291160583,-0.6304005980491638,0.08485443145036697
1.2729301452636719,0.07672405242919922,0.21809768676757812,-0.061466068029403687,-0.8408191652638016,-0.7880748231686487,-1.3410598108672207,-0.47279641032218933,0.7451896071434021,-0.47027212381362915,0.25215092301368713,-0.5226436853408813,0.11556363850831985
1.293044090270996,0.06626370549201965,0.20773005485534668,-0.06728437542915344,-0.83897799909954,-0.7914081208043824,-1.332905343533242,-0.4753365218639374,0.7439605593681335,-0.4696570634841919,0.2627043128013611,-0.44384390115737915,0.13913656771183014
1.3121042251586914,0.07025179266929626,0.20723676681518555,-0.09411248564720154,-0.8368870999375382,-0.7934171196136878,-1.323767767195603,-0.4773867726325989,0.7425617575645447,-0.4697912335395813,0.3394859731197357,-0.4544390141963959,0.13388727605342865
1.3333263397216797,0.028245508670806885,0.2517423629760742,-0.13682672381401062,-0.8331196321403476,-0.7953474367972536,-1.3128969759301286,-0.4802870750427246,0.7400331497192383,-0.47082391381263733,0.4544072151184082,-0.5319662094116211,0.0906914547085762
1.353682041168213,-0.06734257936477661,0.2962854504585266,-0.15642374753952026,-0.826605103377808,-0.7971700046385093,-1.301319149235426,-0.4845830202102661,0.7356359958648682,-0.4733063876628876,0.5287259817123413,-0.4956531226634979,-0.022513890638947487
1.3716521263122559,-0.1459878385066986,0.3011896014213562,-0.12188604474067688,-0.8182539509947324,-0.7993449142720542,-1.2927680511023767,-0.4899984300136566,0.7299535274505615,-0.47651779651641846,0.4419393241405487,-0.3358176350593567,-0.15996035933494568
1.392843246459961,-0.13522294163703918,0.2530514597892761,-0.06374973058700562,-0.8117308150538203,-0.8008552639214211,-1.2892089666937945,-0.49412575364112854,0.7254794836044312,-0.4790816009044647,0.1872503161430359,-0.07225879281759262,-0.08743211627006531
1.4103660583496094,-0.003780275583267212,0.1206555962562561,-0.020576894283294678,-0.8117018605545248,-0.7978736581837779,-1.285694771478626,-0.4927101731300354,0.7254595756530762,-0.48056742548942566,0.003927127458155155,0.06642097234725952,0.2653055787086487
1.4322421550750732,0.08658689260482788,-0.01839292049407959,0.011421918869018555,-0.8187042770709516,-0.7915736792141845,-1.2773383002287058,-0.4860466718673706,0.7302612662315369,-0.4800802767276764,-0.07911529392004013,-0.10285620391368866,0.589915931224823
1.453120231628418,0.07157617807388306,-0.13206380605697632,0.03574395179748535,-0.8284833297004491,-0.7871427428429303,-1.2643494851964323,-0.4788331985473633,0.7369069457054138,-0.4771654009819031,0.07234130799770355,-0.4160774052143097,0.6922466158866882
1.4714951515197754,-0.0042268335819244385,-0.17826378345489502,0.035641103982925415,-0.8340702700859663,-0.7835708886531311,-1.2444089638570035,-0.4742124080657959,0.7406721711158752,-0.47594863176345825,0.5149492621421814,-0.6999157071113586,0.6195201873779297
1.492368221282959,-0.10252910852432251,-0.17002195119857788,0.027842432260513306,-0.8302823695717084,-0.7794005461958952,-1.2174992778384455,-0.4741920232772827,0.7381219267845154,-0.47991445660591125,1.001916527748108,-0.8488883972167969,0.38060835003852844
1.5123400688171387,-0.1641588807106018,-0.1778116226196289,0.10346075892448425,-0.8182500887337197,-0.7757415586460191,-1.1901009445636415,-0.4786175489425659,0.7299509048461914,-0.4879516065120697,1.1104897260665894,-0.7742091417312622,0.09644240885972977
1.5320372581481934,-0.14186781644821167,-0.20868390798568726,0.16832900047302246,-0.8044707246584905,-0.7741483282943208,-1.1695054419754103,-0.48482584953308105,0.7204636931419373,-0.4958588480949402,0.7897358536720276,-0.575435996055603,-0.013085471466183662
1.5521631240844727,-0.056432753801345825,-0.2273482084274292,0.1607147455215454,-0.7967169364707428,-0.7779127480440036,-1.1596866081366501,-0.4905948042869568,0.7150648832321167,-0.49799492955207825,0.2816762924194336,-0.547365128993988,-0.04291914775967598
1.5719101428985596,0.03847882151603699,-0.2231157422065735,0.1033220887184143,-0.7937663889362291,-0.7880515378700266,-1.1570801298715445,-0.4971121847629547,0.712999165058136,-0.4944811165332794,0.11186208575963974,-0.671807050704956,-0.022015608847141266
1.5920310020446777,0.08801060914993286,-0.1790168285369873,0.078695148229599,-0.7914825257227386,-0.8008970748994431,-1.1542312060191837,-0.5045906901359558,0.7113959789276123,-0.48918697237968445,0.23676548898220062,-0.8156159520149231,-0.03376247361302376
1.6113500595092773,0.08553844690322876,-0.16704070568084717,0.07427549362182617,-0.7849932205014979,-0.8135449265830084,-1.148163072162834,-0.5140814781188965,0.7068203687667847,-0.485927015542984,0.5087801218032837,-0.8680097460746765,-0.13448315858840942
1.6308202743530273,0.0925183892250061,-0.16352033615112305,0.08079516887664795,-0.7747410822748204,-0.8248054113108962,-1.1395191514329739,-0.5248150825500488,0.699531078338623,-0.4850004315376282,0.6031315326690674,-0.8767359852790833,-0.1967722624540329
1.648799180984497,0.11184513568878174,-0.16329503059387207,0.07947063446044922,-0.7641035331696,-0.8374221501364232,-1.1319689799787038,-0.5363903641700745,0.6918900012969971,-0.48329442739486694,0.5063909292221069,-0.9186488389968872,-0.19715724885463715
1.6716601848602295,0.10220193862915039,-0.1290684938430786,0.0573238730430603,-0.755787193620115,-0.8523019131917291,-1.1262863024542138,-0.5478348135948181,0.6858617663383484,-0.47903093695640564,0.36445537209510803,-0.9581923484802246,-0.17272278666496277
1.6919081211090088,0.07895350456237793,-0.0634947419166565,0.017050445079803467,-0.7483187211247405,-0.8683826629640449,-1.121879495580029,-0.5593611598014832,0.6804076433181763,-0.4734560549259186,0.37957996129989624,-0.9472967386245728,-0.177390456199646
1.7106831073760986,0.08787477016448975,-0.017068684101104736,0.00882500410079956,-0.7406714342287584,-0.8835753536922697,-1.1170816134071448,-0.5704950094223022,0.6747835874557495,-0.4681908190250397,0.3990665674209595,-0.9136102199554443,-0.18166667222976685
1.7314720153808594,0.11585217714309692,-0.04554241895675659,-0.0015819966793060303,-0.7331722838644853,-0.8975894201323323,-1.1110054900536228,-0.5809399485588074,0.6692301630973816,-0.4632921814918518,0.4159291386604309,-0.9031625390052795,-0.10196425020694733
1.749509334564209,0.11715251207351685,-0.07224452495574951,0.012924730777740479,-0.7274567123468378,-0.9106681186115245,-1.10371871424154,-0.5899612307548523,0.6649723052978516,-0.4579930305480957,0.34927892684936523,-0.8969224095344543,-0.03029305674135685
1.7706413269042969,0.10526955127716064,-0.06505554914474487,0.020218968391418457,-0.7229885018671309,-0.9245584235741925,-1.0979001894249856,-0.5986319184303284,0.6616284847259521,-0.4515390992164612,0.27987176179885864,-0.8860381841659546,-0.0735144093632698
1.7905001640319824,0.11244261264801025,-0.060401976108551025,-0.009078621864318848,-0.7177508044472818,-0.9396560156173618,-1.0932231435562916,-0.6081700921058655,0.6576920747756958,-0.44448885321617126,0.3687649667263031,-0.9283590912818909,-0.12068399786949158
1.811272144317627,0.1259448528289795,-0.08250731229782104,-0.0373879075050354,-0.7110593234716256,-0.9535748381555261,-1.0854544679055642,-0.6178728938102722,0.6526367664337158,-0.4385184049606323,0.46594738960266113,-0.9768540859222412,-0.0853344053030014
1.8310961723327637,0.13979530334472656,-0.09829223155975342,-0.025033175945281982,-0.704241732893644,-0.9682161172379351,-1.0775536824249994,-0.6278780698776245,0.6474561095237732,-0.43193700909614563,0.4228549301624298,-1.0110630989074707,-0.13957703113555908
1.8500912189483643,0.14935892820358276,-0.09583425521850586,-0.023340344429016113,-0.6975516143167866,-0.9850669022738061,-1.072075373272736,-0.6386623978614807,0.6423431038856506,-0.4236810803413391,0.30254504084587097,-1.0290106534957886,-0.16793978214263916
1.8708741664886475,0.16274994611740112,-0.09287470579147339,-0.03068763017654419,-0.6921691881541394,-1.0037743728258228,-1.0691159527126086,-0.6493831276893616,0.6382086873054504,-0.4135109484195709,0.19745558500289917,-1.0353764295578003,-0.1618359088897705
1.891158103942871,0.17407971620559692,-0.0516703724861145,-0.03880155086517334,-0.6874538711553898,-1.0237401902514034,-1.0677219170411902,-0.6600720882415771,0.6345714330673218,-0.4020248353481293,0.15881231427192688,-1.0678246021270752,-0.18386955559253693
1.9109001159667969,0.1943942904472351,-0.030625581741333008,-0.02351662516593933,-0.6826422246139285,-1.0438826483423516,-1.0657259534271715,-0.6706667542457581,0.6308453679084778,-0.3901795744895935,0.23261018097400665,-1.0606026649475098,-0.12166628241539001
1.929887294769287,0.23183965682983398,-0.027141869068145752,0.023381710052490234,-0.6794740747120441,-1.0610269071496692,-1.0607198421693076,-0.6789984107017517,0.628383994102478,-0.37959814071655273,0.2411443591117859,-0.9786005020141602,0.01207819301635027
1.9515652656555176,0.2779504060745239,0.022907555103302002,0.04019349813461304,-0.676417106018958,-1.0776855479682084,-1.0560884508459574,-0.6869164109230042,0.6260030269622803,-0.36914244294166565,0.26762253046035767,-1.0073493719100952,-0.15085728466510773
1.9699430465698242,0.31248486042022705,0.051529645919799805,0.04010593891143799,-0.6684050659426104,-1.0959949091569519,-1.0512166333086734,-0.697998046875,0.619735062122345,-0.3587856888771057,0.409227192401886,-1.1525025367736816,-0.37351396679878235
1.9900522232055664,0.2877349853515625,-0.0286024808883667,0.04124608635902405,-0.6572267931252206,-1.1176628563932407,-1.0455827851739925,-0.7117918729782104,0.610923707485199,-0.3465896546840668,0.46733319759368896,-1.360060691833496,-0.38526150584220886
2.0110549926757812,0.26136964559555054,-0.09106308221817017,0.09715548157691956,-0.648035167315516,-1.1427600512714962,-1.0418195426179133,-0.7253435254096985,0.6036210656166077,-0.33093535900115967,0.15528470277786255,-1.3755531311035156,-0.40159204602241516
2.0309641361236572,0.22180473804473877,-0.0022780895233154297,0.034870147705078125,-0.6377285551732251,-1.1717144959363108,-1.0438899835786424,-0.7403135299682617,0.5953719615936279,-0.31219860911369324,0.19888100028038025,-1.4456177949905396,-0.5591526627540588
2.0521183013916016,0.19424968957901,0.18219614028930664,-0.0474894642829895,-0.6239027622165806,-1.1994721209832855,-1.0385130982044146,-0.7562918066978455,0.5842071175575256,-0.2944904863834381,0.8313737511634827,-1.5713908672332764,-0.5310676097869873
2.0705370903015137,0.18359899520874023,0.14731407165527344,0.056263893842697144,-0.6079756564940821,-1.21441586263709,-1.0152760219969559,-0.7692312002182007,0.5712070465087891,-0.28636640310287476,1.408319115638733,-1.2260395288467407,-0.28327250480651855
2.0905041694641113,0.21045929193496704,0.0074100494384765625,0.18727952241897583,-0.5941688561866523,-1.2142446954770694,-0.9828810353264364,-0.7764992713928223,0.5598202347755432,-0.28922346234321594,1.5297802686691284,-0.5776896476745605,-0.08272938430309296
2.1104581356048584,0.24752390384674072,-0.04743248224258423,0.2424095869064331,-0.5847182383263582,-1.202702083511781,-0.9518558777459679,-0.7780108451843262,0.5519644618034363,-0.3000572621822357,1.129719614982605,-0.05472968891263008,0.05248625576496124
2.130369186401367,0.19956815242767334,-0.06862974166870117,0.1792660653591156,-0.5770189360057164,-1.1915709331448305,-0.9311449868383573,-0.7785475254058838,0.5455279350280762,-0.3102627098560333,0.7894373536109924,-0.011368457227945328,-0.18128882348537445
2.150825023651123,0.1587499976158142,-0.06475263833999634,0.15671852231025696,-0.5654629086724212,-1.185830472770053,-0.9200287540759031,-0.7825443744659424,0.5358067154884338,-0.31707310676574707,0.5329617857933044,-0.04297787323594093,-0.5201825499534607
2.1707231998443604,0.1926572322845459,-0.06766307353973389,0.1659640073776245,-0.550475140445243,-1.1858378479308944,-0.9153512679343793,-0.7899013757705688,0.5230922102928162,-0.3200472593307495,0.40676674246788025,-0.19784291088581085,-0.7175843715667725
2.190237045288086,0.18064993619918823,0.0068351030349731445,0.19827818870544434,-0.5328572192021495,-1.1882219147265567,-0.9121728423178932,-0.7990885972976685,0.5079964995384216,-0.3215539753437042,0.5356349349021912,-0.18753229081630707,-0.8123107552528381
2.210081100463867,0.12644344568252563,0.06660014390945435,0.22492364048957825,-0.511803789347733,-1.1885941912005917,-0.9062564810150413,-0.8089538216590881,0.4897507131099701,-0.32517388463020325,0.7513816952705383,-0.1378605216741562,-0.9439771771430969
2.2303521633148193,0.09606516361236572,0.02423340082168579,0.24674981832504272,-0.4883216644990941,-1.1862615984539486,-0.8970418840710516,-0.8186297416687012,0.46914437413215637,-0.33128345012664795,0.8115851283073425,-0.09048236161470413,-0.9301176071166992
2.249965190887451,0.0737716555595398,0.003392249345779419,0.2310870885848999,-0.46520237264070907,-1.1853275229397542,-0.889353722347277,-0.8281508088111877,0.44860368967056274,-0.3360370397567749,0.7142054438591003,-0.1831377148628235,-0.9678366184234619
2.26922607421875,0.04567831754684448,0.06131011247634888,0.20601043105125427,-0.44100561222676726,-1.1884652654982109,-0.8835955613426676,-0.8390283584594727,0.4268490672111511,-0.3373885750770569,0.7122318744659424,-0.36389967799186707,-1.0909709930419922
2.289722204208374,0.03037184476852417,0.06768530607223511,0.22928982973098755,-0.41499543385884224,-1.1944303129845129,-0.8781163702534883,-0.8510656952857971,0.40318575501441956,-0.33634549379348755,0.687425434589386,-0.48514410853385925,-1.142271876335144
2.3096742630004883,-0.06470537185668945,0.022560328245162964,0.23906147480010986,-0.3886717196874353,-1.2047738332554156,-0.8753021277859296,-0.8641123175621033,0.3789595365524292,-0.33120933175086975,0.4597163200378418,-0.6411067247390747,-1.2356231212615967
2.329493999481201,-0.2242429256439209,0.010802030563354492,0.2277197241783142,-0.3621764814993969,-1.2192759373190645,-0.8802804368018874,-0.8779451251029968,0.35431036353111267,-0.3219884932041168,0.009418618865311146,-0.6315568685531616,-1.4133245944976807
2.3490610122680664,-0.2542579174041748,0.012760818004608154,0.2059900462627411,-0.33710922956325906,-1.2372121143577572,-0.8958689363196746,-0.8916923999786377,0.3307604193687439,-0.30900219082832336,-0.5665278434753418,-0.6101105213165283,-1.4041789770126343
2.3685622215270996,-0.18908274173736572,0.058178484439849854,0.21175026893615723,-0.31723295635589854,-1.256163455692313,-0.920638471110377,-0.903461754322052,0.3119387924671173,-0.2940256595611572,-0.963699460029602,-0.462007611989975,-1.2184412479400635
2.38973331451416,-0.03657734394073486,0.11163583397865295,0.24730393290519714,-0.30146381800005084,-1.2694160483419976,-0.9460096281542004,-0.9118630290031433,0.2969183325767517,-0.28345194458961487,-0.7611293196678162,-0.07066000998020172,-1.0180494785308838
2.409621238708496,0.16840583086013794,0.15627962350845337,0.18489867448806763,-0.28702198917322347,-1.2724679298032358,-0.9583048569766887,-0.9167272448539734,0.2830972969532013,-0.2818987965583801,0.1857898235321045,0.04535190388560295,-0.7211512327194214
2.4293692111968994,0.26122361421585083,0.1855660378932953,0.06119978427886963,-0.26951301812147616,-1.271480255542237,-0.9456517013470027,-0.9210440516471863,0.2662620544433594,-0.28422224521636963,1.4968904256820679,-0.35324615240097046,-0.659397304058075
2.4493632316589355,0.14614641666412354,0.11203530430793762,0.06909215450286865,-0.24488188702268332,-1.2739949892139788,-0.913430262077978,-0.9277473092079163,0.24244174361228943,-0.28373757004737854,2.046354055404663,-0.68384850025177,-0.8029444813728333
2.4693682193756104,-0.06102818250656128,-0.03478717803955078,0.16698330640792847,-0.21577915733492126,-1.2811412195826024,-0.8824102979833456,-0.9361183643341064,0.21410858631134033,-0.27899810671806335,1.5579694509506226,-0.6481322050094604,-1.0796756744384766
2.4880170822143555,-0.13178962469100952,-0.051098838448524475,0.16589364409446716,-0.18862912865593182,-1.2888073284370303,-0.8648176959682882,-0.9434666037559509,0.18751251697540283,-0.27333077788352966,0.9984214901924133,-0.5213753581047058,-0.999289333820343
2.5091841220855713,-0.15027862787246704,0.14008040726184845,-0.013454467058181763,-0.16452445263081356,-1.298921435313541,-0.8495228604546569,-0.9502612948417664,0.1637832224369049,-0.2649116516113281,1.2012262344360352,-0.7657448053359985,-0.9435746669769287
2.528881072998047,-0.3226701021194458,0.21818244457244873,-0.06955268979072571,-0.13759810996813496,-1.3132501680558724,-0.8271619026630713,-0.9578778147697449,0.13716432452201843,-0.2523009479045868,1.619059443473816,-0.9642766118049622,-1.1386481523513794
2.549063205718994,-0.5721418857574463,0.05694779008626938,0.10890127718448639,-0.10633856187230363,-1.324743076034419,-0.8055805159183168,-0.9644027352333069,0.10613826662302017,-0.24220208823680878,1.0258439779281616,-0.3950852155685425,-1.345436453819275
2.5690841674804688,-0.6434140801429749,-0.13288332521915436,0.26588064432144165,-0.08081685165800151,-1.3243368924333765,-0.800206671581251,-0.9666169881820679,0.08072890341281891,-0.24317561089992523,-0.10166309773921967,0.4128517210483551,-0.843885064125061
2.589139223098755,-0.6745690107345581,-0.08296674489974976,0.4085620045661926,-0.07196634701284174,-1.3106205785804128,-0.8210325198659134,-0.9638434052467346,0.0719042420387268,-0.256584495306015,-1.4945257902145386,1.0426102876663208,-0.6254887580871582
2.609175205230713,-0.6542251706123352,0.014332309365272522,0.4169621765613556,-0.07367083616789445,-1.2894601092892204,-0.8584451031253296,-0.9580795168876648,0.07360421121120453,-0.2768864929676056,-2.056976556777954,1.2781699895858765,-0.2031535655260086
2.628847122192383,-0.7137710452079773,-0.05562237650156021,0.38406333327293396,-0.08581811792034683,-1.2678446964474301,-0.895180922432382,-0.9509474635124207,0.08571282029151917,-0.2972407639026642,-1.7431082725524902,1.099631428718567,0.32539087533950806
2.6487550735473633,-0.9033735394477844,-0.16420280933380127,0.25061795115470886,-0.10350506080809146,-1.2519371237928678,-0.9180959943325657,-0.9445114135742188,0.10332034528255463,-0.31180569529533386,-0.7555302381515503,0.5460726022720337,0.6990715265274048
2.6693241596221924,-0.7836007475852966,-0.2638266384601593,0.16240620613098145,-0.12173216248833456,-1.245762368408248,-0.9222236045573606,-0.9406270980834961,0.12143173068761826,-0.31697776913642883,-0.30368146300315857,0.16920939087867737,1.0291688442230225
2.6885809898376465,-0.8548892140388489,-0.3976892828941345,0.17376095056533813,-0.14994434334684567,-1.2419803367477908,-0.9255807665539294,-0.9358059167861938,0.14938309788703918,-0.31929928064346313,-1.0318951606750488,0.25663724541664124,1.4287608861923218
2.7085561752319336,-0.9883115887641907,-0.38166874647140503,0.06653761863708496,-0.1892696670433224,-1.2359580628735414,-0.9402775827204569,-0.927597165107727,0.18814165890216827,-0.32274794578552246,-1.5420795679092407,0.5971388220787048,1.8748207092285156
2.7284162044525146,-1.054229736328125,-0.18897394835948944,-0.042963892221450806,-0.23758971399042123,-1.2238622022831769,-0.9547370895360721,-0.9140012860298157,0.2353607416152954,-0.3304644525051117,-1.2594722509384155,0.8878480195999146,2.1322999000549316
2.7482352256774902,-1.0897204875946045,-0.0932217538356781,-0.13607153296470642,-0.2830043310165765,-1.2072938429083053,-0.9566361949488248,-0.8974772095680237,0.2792417109012604,-0.3414064943790436,-0.5111343264579773,0.8069549798965454,2.082352638244629
2.7683041095733643,-1.0110349655151367,-0.17041733860969543,-0.05341219902038574,-0.3245050248142668,-1.1886000476913072,-0.9487526310394755,-0.8794220685958862,0.3188396692276001,-0.35349392890930176,-0.4345794916152954,0.8040268421173096,2.02053165435791
2.7884621620178223,-0.9324362874031067,-0.2431877851486206,-0.04253476858139038,-0.36324509369877717,-1.172978935273449,-0.9452088017104476,-0.8617530465126038,0.35530945658683777,-0.3621283173561096,-0.7257673144340515,0.6331334114074707,1.7250244617462158
2.8083951473236084,-0.7526533007621765,-0.1384204924106598,-0.08010661602020264,-0.39967879879115265,-1.1633280644150799,-0.9492408920849996,-0.8457658290863037,0.38912248611450195,-0.36505326628685,-0.9961249232292175,0.489947110414505,1.482582688331604
2.8282392024993896,-0.6925894021987915,-0.024491190910339355,-0.13529783487319946,-0.43277187558816377,-1.1576556284736554,-0.9563897663374801,-0.831427812576294,0.4193887412548065,-0.36447328329086304,-0.9240559339523315,0.37512120604515076,1.3045411109924316
2.8480100631713867,-0.5950267910957336,0.05281504988670349,-0.12849482893943787,-0.46240477144029857,-1.15509874064956,-0.9659121925305053,-0.8187609314918518,0.4461016356945038,-0.36141905188560486,-1.0812402963638306,0.2869870066642761,1.0614429712295532
2.8678901195526123,-0.46422702074050903,0.056716084480285645,-0.13233128190040588,-0.48960432769844464,-1.1576030561328703,-0.981349351370699,-0.8082489967346191,0.47027674317359924,-0.35436302423477173,-1.290076732635498,0.18114817142486572,0.9040146470069885
2.888005256652832,-0.34674346446990967,0.1184636652469635,-0.11227169632911682,-0.5160979596600366,-1.1652602636979161,-1.0028556854948742,-0.7992066740989685,0.4934900999069214,-0.3431268036365509,-1.4744421243667603,0.10470781475305557,0.7552462816238403
2.9078731536865234,-0.27871161699295044,0.15519696474075317,-0.07278335094451904,-0.5404732951981862,-1.1749510434973247,-1.0277121107495213,-0.7911582589149475,0.5145418643951416,-0.33062851428985596,-1.3989591598510742,0.221137136220932,0.6976415514945984
2.929481029510498,-0.18775421380996704,0.19800639152526855,-0.06211060285568237,-0.5622823362750974,-1.1822086509127552,-1.0497545613938288,-0.7829640507698059,0.5331185460090637,-0.320549339056015,-1.1649155616760254,0.16025638580322266,0.5848959684371948
2.948660135269165,-0.1171523928642273,0.22788465023040771,-0.012539833784103394,-0.5811690679082135,-1.1906684401521066,-1.0679739068471688,-0.7761581540107727,0.5490014553070068,-0.310122549533844,-1.0478341579437256,0.023832052946090698,0.5896307826042175
2.9678711891174316,-0.12330275774002075,0.16176539659500122,0.07073140144348145,-0.6020006636984409,-1.2010787517025578,-1.089851694775688,-0.7685123085975647,0.5662925839424133,-0.29782795906066895,-1.4424790143966675,0.13993504643440247,0.6312322020530701
2.9878792762756348,-0.11061495542526245,0.18321925401687622,0.04402625560760498,-0.6225113062008657,-1.2138585027288271,-1.1178638272003452,-0.761211097240448,0.5830772519111633,-0.2838638722896576,-1.378103256225586,0.17189404368400574,0.5359851717948914
3.0078721046447754,-0.07048410177230835,0.2356654405593872,0.04717814922332764,-0.6411730211068614,-1.224911915618881,-1.1429601944830186,-0.7539328932762146,0.5981358885765076,-0.27169591188430786,-1.2166016101837158,0.20557814836502075,0.5060241222381592
3.0279903411865234,-0.048503220081329346,0.1593625545501709,0.101355642080307,-0.658779786802685,-1.2342227008729476,-1.1692464804691045,-0.7463728189468384,0.6121524572372437,-0.2611457109451294,-1.4092305898666382,0.44177743792533875,0.4246714115142822
3.0478811264038086,0.05652463436126709,0.12636518478393555,0.0711231529712677,-0.6736963523072313,-1.2448103471105856,-1.2016044616910604,-0.7403624653816223,0.6238790154457092,-0.2502765953540802,-1.5074304342269897,0.4922070801258087,0.2556542456150055
3.06817626953125,0.19309401512145996,0.1361325979232788,0.06115199625492096,-0.6889778329391463,-1.2566699990880004,-1.2370539905130604,-0.7341247200965881,0.6357485055923462,-0.23850484192371368,-1.584919810295105,0.584618866443634,0.2536086142063141
3.087846279144287,0.28991883993148804,0.06609034538269043,0.07005754113197327,-0.7022417659277288,-1.2684849699577414,-1.276536422280373,-0.7287768125534058,0.6459306478500366,-0.22728405892848969,-1.706430435180664,0.7616398930549622,0.1472790390253067
3.107846260070801,0.41334694623947144,0.01187598705291748,0.045623138546943665,-0.7151243439656214,-1.2801442636006861,-1.3200731129117487,-0.7233443260192871,0.65571129322052,-0.21636897325515747,-1.8384305238723755,0.8783843517303467,0.08666343986988068
3.127869129180908,0.5795738101005554,-0.10695236921310425,0.04622364044189453,-0.725876693428808,-1.2951329450180775,-1.3686490994988572,-0.7196799516677856,0.6637914180755615,-0.20357222855091095,-1.9573266506195068,0.8759115934371948,-0.02828844077885151
3.1478700637817383,0.7844942808151245,-0.2842869162559509,0.054693013429641724,-0.7364495314048736,-1.3121310297733164,-1.41973703135215,-0.7162110805511475,0.6716617345809937,-0.18950437009334564,-1.9695066213607788,0.7575902938842773,0.052151452749967575
3.167879104614258,0.8950960040092468,-0.36186063289642334,0.0439872145652771,-0.7477089527459917,-1.3299362904266403,-1.466842286078423,-0.712082028388977,0.6799606680870056,-0.1749075949192047,-1.6309689283370972,0.6902740597724915,0.20088720321655273
3.1878762245178223,0.9226369857788086,-0.41248488426208496,0.024819985032081604,-0.7587891573102861,-1.3415183548086302,-1.5026808161524123,-0.7066792249679565,0.6880432963371277,-0.16492612659931183,-1.1551895141601562,0.6105290055274963,0.25249406695365906
3.207869052886963,0.9583401679992676,-0.4543597102165222,0.0010691434144973755,-0.767728208992731,-1.345490936891593,-1.524907230713243,-0.7013056874275208,0.6945024728775024,-0.16073700785636902,-0.6111660003662109,0.519644558429718,0.26023346185684204
3.227874279022217,1.0339914560317993,-0.4614434838294983,-0.003376603126525879,-0.7759310507557695,-1.3447582115004542,-1.535388126498762,-0.6956124901771545,0.7003809213638306,-0.15996868908405304,-0.3766784071922302,0.23987184464931488,0.3447803556919098
3.247868061065674,1.067427635192871,-0.4946945905685425,0.040615513920784,-0.7852762495568708,-1.3480853766628142,-1.5422863543902277,-0.6897266507148743,0.7070205807685852,-0.15620078146457672,-0.3552420735359192,-0.016071155667304993,0.5005541443824768
3.2679100036621094,1.0270757675170898,-0.5430178642272949,0.02221103012561798,-0.7977154348089982,-1.3548251340318893,-1.5488628045292299,-0.682120144367218,0.7157625555992126,-0.14965234696865082,-0.2943122982978821,-0.164786234498024,0.6006625890731812
3.2879080772399902,0.9744552969932556,-0.4586406946182251,0.028510451316833496,-0.8103008851186215,-1.3585376212712346,-1.5495189015148598,-0.6738112568855286,0.7244945764541626,-0.14520962536334991,0.06402135640382767,-0.06808357685804367,0.5351770520210266
3.3078742027282715,0.9422098994255066,-0.39022791385650635,0.0004355907440185547,-0.8163971331147509,-1.351210082118408,-1.5368744704590864,-0.6684061288833618,0.7286831140518188,-0.14917822182178497,0.6334396004676819,-0.07509861141443253,0.32660114765167236
3.3278701305389404,0.9764872789382935,-0.49078869819641113,0.07333381474018097,-0.8186802581682199,-1.3374755717596423,-1.5146920245222721,-0.6646737456321716,0.7302448153495789,-0.1579589992761612,0.7095038294792175,-0.259439617395401,0.2045491337776184
3.3478713035583496,0.9367191791534424,-0.505060613155365,0.10956138372421265,-0.8180401358575637,-1.3328819099371376,-1.4959136793721433,-0.6643954515457153,0.7298073768615723,-0.16112078726291656,0.5920776128768921,-0.6380068063735962,0.05359914153814316
3.367993116378784,0.8421308398246765,-0.2935553789138794,0.1527469903230667,-0.8165189317736908,-1.3344389488532697,-1.4789932446663947,-0.6657238602638245,0.7287665605545044,-0.16034582257270813,0.5178091526031494,-0.7058145403862,0.06087110936641693
3.387946128845215,0.6519904732704163,-0.0398099422454834,0.1163097470998764,-0.8120848742883636,-1.329701141500332,-1.458273188118959,-0.668088436126709,0.7257230877876282,-0.1642681062221527,1.08669912815094,-0.26543402671813965,-0.08020161837339401
3.4078969955444336,0.4521528482437134,0.11155426502227783,0.05208875238895416,-0.7998364221735365,-1.3022536655292478,-1.4206838263274346,-0.671848714351654,0.7172421216964722,-0.1848859190940857,1.880969524383545,-0.14837007224559784,-0.6603323221206665
3.4279680252075195,0.498492956161499,0.008386969566345215,0.13513809442520142,-0.774119565052432,-1.272936941992022,-1.3706988077221303,-0.6835514903068542,0.6990867853164673,-0.20984506607055664,1.8380088806152344,-0.3734619617462158,-0.5823256969451904
3.447874069213867,0.2665322422981262,-0.14492326974868774,0.13193407654762268,-0.7531287441191377,-1.2656686151814371,-1.3380987858108995,-0.6958533525466919,0.683924674987793,-0.21916848421096802,1.0810743570327759,-1.051592230796814,-0.7869491577148438
3.467891216278076,-0.3354848027229309,0.15353679656982422,0.038244158029556274,-0.7257660878781431,-1.2818841753570769,-1.3256566726221912,-0.716990053653717,0.6637086868286133,-0.2131098359823227,0.911006510257721,-1.4834121465682983,-1.6521425247192383
3.4870781898498535,-0.5670174956321716,0.19021153450012207,-0.16588306427001953,-0.6808778581797651,-1.306375569308028,-1.3089870422688397,-0.7500143051147461,0.6294753551483154,-0.20307442545890808,1.49858558177948,-1.9801068305969238,-2.239572048187256
3.508951187133789,-0.8394349813461304,-0.005684494972229004,-0.21901679039001465,-0.6284401816609614,-1.3310546211156824,-1.283428562345925,-0.7858090400695801,0.5878836512565613,-0.19208548963069916,1.5892226696014404,-2.074986219406128,-2.3641746044158936
3.5278751850128174,-1.1338677406311035,-0.007911503314971924,-0.23001079261302948,-0.5729236673297727,-1.3627662217182859,-1.2664234554605895,-0.8222020268440247,0.5420911908149719,-0.17355361580848694,1.0185396671295166,-2.0090677738189697,-2.678330898284912
3.54787015914917,-1.2793762683868408,0.1109563410282135,-0.2648325562477112,-0.5183978395860552,-1.3955690900680087,-1.2585556844267916,-0.8553130626678467,0.49548912048339844,-0.15142716467380524,0.755800187587738,-1.636976718902588,-2.515702962875366
3.567869186401367,-1.1311945915222168,0.17610859870910645,-0.42601919174194336,-0.47108189362436004,-1.4214965478463797,-1.247239569182131,-0.8811649084091187,0.4538505971431732,-0.13254401087760925,1.089555025100708,-1.5105080604553223,-1.927929401397705
3.5881481170654297,-0.8074658513069153,0.23622417449951172,-0.2171788364648819,-0.4387768114285917,-1.4400986313750894,-1.231275994361433,-0.8975512385368347,0.42483246326446533,-0.11798042058944702,0.6524073481559753,-1.007603645324707,-1.120736837387085
3.607879161834717,-0.6244221329689026,-0.022900640964508057,0.04990560561418533,-0.4257532019097998,-1.4468881091040295,-1.225991190120204,-0.9037454128265381,0.41300687193870544,-0.11255811899900436,-0.07358592003583908,0.07719363272190094,-0.1154274269938469
3.627875328063965,-0.4255651831626892,-0.10688459873199463,0.13639169931411743,-0.4295090308281666,-1.4411259479867007,-1.2317640927159497,-0.9015374183654785,0.4164244830608368,-0.11756234616041183,-0.44055694341659546,0.6133386492729187,0.32875749468803406
3.647606134414673,-0.2534458041191101,-0.17966806888580322,0.10839051008224487,-0.43825285336874603,-1.4320445759410982,-1.2399092593864318,-0.8967921137809753,0.424358069896698,-0.12523619830608368,-0.35382503271102905,0.525672197341919,0.39572954177856445
3.6678311824798584,-0.18091696500778198,-0.2472149133682251,0.12463176250457764,-0.4465557251999582,-1.4260530363195436,-1.2446805521360185,-0.8925082087516785,0.4318615794181824,-0.13009436428546906,-0.22087469696998596,0.34092187881469727,0.41418391466140747
3.687908172607422,-0.2438550591468811,-0.20496943593025208,0.15574224293231964,-0.45529348252825763,-1.4200780969191964,-1.2476206896328241,-0.8879502415657043,0.4397259056568146,-0.13485294580459595,-0.22768722474575043,0.42319393157958984,0.37156879901885986
3.707820177078247,-0.28064024448394775,-0.149139404296875,0.19246859848499298,-0.4623414417551462,-1.4121648344642266,-1.2546450216539733,-0.8837729692459106,0.4460449516773224,-0.1413821280002594,-0.499456524848938,0.6803792715072632,0.24645085632801056
3.7278921604156494,-0.19567811489105225,-0.15977969765663147,0.14175476133823395,-0.4691268413082036,-1.4023172118803406,-1.2660651699691488,-0.8793339133262634,0.45210763812065125,-0.14956724643707275,-0.6327704787254333,0.793855607509613,0.2677631676197052
3.747810125350952,-0.14694976806640625,-0.11128687858581543,0.09006243944168091,-0.4754662469142772,-1.3941992076765166,-1.2820106705231782,-0.8752516508102417,0.4577530324459076,-0.1561940312385559,-0.8784536719322205,0.7099233269691467,0.11410018056631088
3.7678122520446777,-0.10194253921508789,-0.12888029217720032,0.039839208126068115,-0.4801400594198407,-1.392760569139752,-1.3047603919801019,-0.8729108572006226,0.4619033932685852,-0.15707242488861084,-1.2187806367874146,0.5041337013244629,0.032154373824596405
3.787809133529663,-0.06495171785354614,-0.11349540948867798,0.0267132967710495,-0.48666711298381876,-1.3967934689281079,-1.3327262950102101,-0.8705493807792664,0.4676825702190399,-0.15302559733390808,-1.3149973154067993,0.4210960566997528,0.20170734822750092
3.8078341484069824,-0.14764130115509033,-0.07214319705963135,0.0051189810037612915,-0.49580312572960267,-1.4003382167715048,-1.3596035063966294,-0.8668391704559326,0.4757382273674011,-0.1492076963186264,-1.123767375946045,0.49845796823501587,0.28809162974357605
3.8278822898864746,-0.13837873935699463,-0.0635252594947815,-0.0169571191072464,-0.504850011993944,-1.4011967141041517,-1.3807159864662588,-0.8626893758773804,0.48367616534233093,-0.1477309614419937,-0.8822803497314453,0.47326916456222534,0.294499933719635
3.8478293418884277,-0.1512300968170166,-0.10005226731300354,0.024535536766052246,-0.5136551341636395,-1.3987299982946348,-1.3987031323790848,-0.8580929040908813,0.4913639724254608,-0.14912350475788116,-0.8431039452552795,0.6287199854850769,0.28746509552001953
3.8678359985351562,-0.17862337827682495,-0.12361803650856018,0.024968624114990234,-0.5219157827235775,-1.3937384927036165,-1.4178422882894575,-0.8533132076263428,0.49854177236557007,-0.15268465876579285,-0.9872317910194397,0.8158612251281738,0.25878965854644775
3.8878471851348877,-0.18478530645370483,-0.11658203601837158,-0.005935117602348328,-0.5303128056073418,-1.388122610281036,-1.4400578145880925,-0.8482955098152161,0.5058032274246216,-0.15670828521251678,-1.053119421005249,0.8510279059410095,0.2442428022623062
3.9078760147094727,-0.20693254470825195,-0.13444465398788452,-0.024729490280151367,-0.5391383282198671,-1.3837118864726954,-1.4656372105252609,-0.8431772589683533,0.5133967399597168,-0.15961186587810516,-1.2399961948394775,0.8446000814437866,0.1788891702890396
3.9278361797332764,-0.22748923301696777,-0.1391962766647339,0.033385708928108215,-0.5461123899709475,-1.3826297981994977,-1.495188835334426,-0.8394662141799927,0.5193690061569214,-0.15985049307346344,-1.4315530061721802,0.8825128078460693,0.08839698135852814
3.947869300842285,-0.22966426610946655,-0.1513310670852661,0.11765454709529877,-0.5529883625963012,-1.3818325948185588,-1.5322176986289382,-0.835811197757721,0.5252325534820557,-0.15984509885311127,-1.6982841491699219,1.1118965148925781,-0.058313049376010895
3.9678702354431152,-0.1755584478378296,-0.12829726934432983,0.09827017784118652,-0.5575575225367857,-1.3794469043042785,-1.5709616855473967,-0.8330626487731934,0.5291152000427246,-0.16138051450252533,-1.6223912239074707,1.1723902225494385,-0.07938504219055176
3.987870216369629,-0.13004964590072632,-0.0751689076423645,0.10384982824325562,-0.5615938316706518,-1.374608350702605,-1.607870071462013,-0.8301706314086914,0.5325359106063843,-0.16499178111553192,-1.5646864175796509,1.288435459136963,-0.12686322629451752
4.007871150970459,-0.13580012321472168,-0.08347529172897339,0.09369838237762451,-0.5656618723923348,-1.3683855771975426,-1.6463621901468517,-0.8269988298416138,0.5359746813774109,-0.16971759498119354,-1.753065586090088,1.3878324031829834,-0.12192270904779434
4.027870178222656,-0.09117180109024048,-0.08709359169006348,0.08571378886699677,-0.5711865629822543,-1.363719032748336,-1.6890557748235693,-0.8232874274253845,0.5406306385993958,-0.17296351492404938,-1.901003360748291,1.3912651538848877,-0.03619583323597908
4.047873020172119,-0.08340704441070557,-0.06196397542953491,0.09991864860057831,-0.5795910398372247,-1.3598683553411501,-1.7342052725285724,-0.8181433081626892,0.5476818084716797,-0.17517492175102234,-1.9707924127578735,1.4524312019348145,0.042951323091983795
4.067193031311035,-0.11586087942123413,-0.04336977005004883,0.11228395998477936,-0.588469358931621,-1.35465859456935,-1.7793705847660388,-0.812437891960144,0.5550885200500488,-0.1783849596977234,-1.9026762247085571,1.5630959272384644,0.015182625502347946
4.087871074676514,-0.1151314377784729,-0.06367135047912598,0.12839657068252563,-0.5963505259901233,-1.345930619503232,-1.822060779771232,-0.8065603971481323,0.561626672744751,-0.18448781967163086,-1.7743734121322632,1.713524341583252,0.022225750610232353
4.107892990112305,-0.06713807582855225,-0.10050469636917114,0.14985501766204834,-0.6056176798504723,-1.335677856445697,-1.8657306095207606,-0.799530565738678,0.5692700147628784,-0.19152672588825226,-1.957285761833191,1.7795850038528442,0.04644559323787689
4.127871036529541,-0.038899362087249756,-0.09828335046768188,0.16662263870239258,-0.6165055673117273,-1.3276074351807898,-1.914026856557503,-0.791895866394043,0.5781875848770142,-0.19646874070167542,-2.151986837387085,1.8241100311279297,0.07268740981817245
4.147869110107422,-0.0063787102699279785,-0.09961199760437012,0.16520579159259796,-0.6287537834000205,-1.3205474814437261,-1.9646555671984205,-0.7835686802864075,0.5881373286247253,-0.2002856433391571,-2.1027121543884277,1.8101273775100708,0.10630057752132416
4.167915344238281,0.020202696323394775,-0.10481637716293335,0.15639424324035645,-0.6406363630871496,-1.3120345512291218,-2.01136787172075,-0.7750244736671448,0.5977057218551636,-0.2051459699869156,-1.8436882495880127,1.8445005416870117,0.12152502685785294
4.187870025634766,0.03900092840194702,-0.10239917039871216,0.16455215215682983,-0.6525389705557252,-1.3013136725366912,-2.0543990096646114,-0.765868604183197,0.6072056889533997,-0.21153385937213898,-1.8430712223052979,1.837458610534668,0.0978282168507576
4.207918167114258,0.038461148738861084,-0.1266433596611023,0.16804328560829163,-0.6641687402398437,-1.2922971077220173,-2.100234865293882,-0.7570891976356506,0.6164047718048096,-0.21647462248802185,-1.9774736166000366,1.8670152425765991,0.07823959738016129
4.227872133255005,0.053751349449157715,-0.10892289876937866,0.18236005306243896,-0.6768991910127765,-1.2852296006572472,-2.149281660906393,-0.7479498982429504,0.6263788938522339,-0.219591423869133,-2.074617385864258,1.9197863340377808,0.06038257107138634
4.247870206832886,0.05527621507644653,-0.08794790506362915,0.1718873381614685,-0.6887670830165018,-1.2786953048444492,-2.2001837960441053,-0.7393276691436768,0.6355858445167542,-0.22231756150722504,-1.9799628257751465,1.9701316356658936,-0.04822570085525513
4.267871141433716,0.10729610919952393,-0.07697409391403198,0.13111159205436707,-0.6982681277620412,-1.2665797367727936,-2.2441013082660826,-0.7307855486869812,0.6428921222686768,-0.2294391691684723,-1.5228352546691895,1.9368411302566528,0.029707808047533035
4.287903308868408,0.14754921197891235,-0.09288305044174194,0.12222945690155029,-0.70707815732105,-1.2514671676799378,-2.278970917791325,-0.7218289971351624,0.6496151685714722,-0.23866918683052063,-1.3840138912200928,1.8612316846847534,-0.020909620448946953
4.307877063751221,0.09882164001464844,-0.10558575391769409,0.1423095464706421,-0.7144165449832941,-1.2380036102268497,-2.3142579042451947,-0.7140254974365234,0.6551767587661743,-0.24680165946483612,-1.428343415260315,1.8101634979248047,-0.11208173632621765
4.32787013053894,0.05955737829208374,-0.08025091886520386,0.16294926404953003,-0.7206271122100367,-1.2277563442465371,-2.3537344870292993,-0.7076134085655212,0.6598560214042664,-0.25273188948631287,-1.5549798011779785,1.8380992412567139,-0.2744958698749542
4.34795618057251,0.10615575313568115,-0.05618244409561157,0.18253430724143982,-0.7253206761851401,-1.2184519377100664,-2.3967844638808855,-0.7023167014122009,0.6633754372596741,-0.25823310017585754,-1.6526561975479126,1.9405237436294556,-0.35068854689598083
4.36793327331543,0.13356560468673706,-0.043187856674194336,0.2183634638786316,-0.7304790720086232,-1.2115958659329025,-2.444358102896911,-0.6973168253898621,0.6672265529632568,-0.2618357241153717,-1.851517677307129,1.9192004203796387,-0.42141100764274597
4.387929201126099,0.09276670217514038,-0.037590622901916504,0.236272931098938,-0.734936958170793,-1.2092130907196348,-2.498255662853165,-0.6939019560813904,0.6705403923988342,-0.2624416947364807,-2.0642170906066895,1.9180527925491333,-0.5861662030220032
4.407871246337891,0.0321887731552124,0.003538668155670166,0.23295438289642334,-0.7376666450534258,-1.21410209025968,-2.561532473806379,-0.6934589147567749,0.6725629568099976,-0.2584059536457062,-2.4081761837005615,1.849399209022522,-0.7730856537818909
4.427872180938721,-0.017614662647247314,0.06602096557617188,0.21820327639579773,-0.7394651684517908,-1.2217176208579974,-2.628766680252411,-0.6942688226699829,0.6738928556442261,-0.25270330905914307,-2.339237689971924,1.9340667724609375,-0.7914391160011292
4.447870254516602,-0.03674846887588501,0.1633729338645935,0.19890691339969635,-0.7397324945158198,-1.228185706302207,-2.695262262548542,-0.6957191824913025,0.6740903258323669,-0.2481469362974167,-2.3284173011779785,1.9047290086746216,-0.8509168028831482
4.467868328094482,-0.011877596378326416,0.16561084985733032,0.19617468118667603,-0.7387895980760569,-1.2354307931164643,-2.7621221228997035,-0.6980986595153809,0.6733935475349426,-0.24330902099609375,-2.272444009780884,1.883821725845337,-0.8547028303146362
4.487880229949951,-0.004324376583099365,0.12493735551834106,0.19212818145751953,-0.737955593380933,-1.2411976024676419,-2.8263148760328383,-0.7000213861465454,0.6727767586708069,-0.23946091532707214,-2.2163193225860596,1.8733718395233154,-0.8007168769836426
4.507900238037109,-0.004398703575134277,0.09803527593612671,0.19581040740013123,-0.7362875150959254,-1.2468176248418348,-2.8899580094906434,-0.7024190425872803,0.671541690826416,-0.23587995767593384,-2.215430736541748,1.853218674659729,-0.876644492149353
4.52786922454834,0.02956700325012207,0.07533150911331177,0.20352768898010254,-0.733283152331617,-1.2528614988824822,-2.954096309829761,-0.7057449817657471,0.6693125367164612,-0.23225997388362885,-2.2251293659210205,1.8534296751022339,-0.8990901112556458
4.547967195510864,0.050753772258758545,0.06009626388549805,0.210734024643898,-0.7303185464057926,-1.258490993552693,-3.0180374433763864,-0.7089263796806335,0.6671069860458374,-0.22889195382595062,-2.1957805156707764,1.8690544366836548,-0.8675531148910522
4.567012310028076,0.03442412614822388,0.0582394003868103,0.21138155460357666,-0.7267947505008591,-1.2615964262191899,-3.0794020270650755,-0.7118686437606812,0.6644777655601501,-0.22740325331687927,-2.08518648147583,1.9152369499206543,-0.8900058269500732
4.587871074676514,0.019195556640625,0.03532534837722778,0.22741132974624634,-0.7217768726178078,-1.262359872087882,-3.1392276985482748,-0.7152100205421448,0.6607195138931274,-0.22786904871463776,-2.0731663703918457,1.9717631340026855,-0.94142746925354
4.607870101928711,0.013892769813537598,0.008560538291931152,0.23488879203796387,-0.716221714864119,-1.2622270692634014,3.0836090526041526,-0.7186657786369324,0.6565394401550293,-0.22907519340515137,-2.070239543914795,2.044440984725952,-0.9520293474197388
4.627871990203857,0.006058931350708008,0.04525101184844971,0.22172601521015167,-0.7108622947901075,-1.2605454738393926,3.023598113907771,-0.7216198444366455,0.6524874567985535,-0.23135429620742798,-2.0636181831359863,2.0574991703033447,-0.9732652306556702
4.647937297821045,-0.010719895362854004,0.09118300676345825,0.2167254090309143,-0.7036519424212598,-1.2568962663027199,2.9656014047835844,-0.7252268195152283,0.6470065712928772,-0.2354326695203781,-1.9184378385543823,2.0986528396606445,-1.0441157817840576
4.66796612739563,0.012083709239959717,0.07569438219070435,0.221746027469635,-0.6963513999615463,-1.2505356452178888,2.9098444222391127,-0.7281787395477295,0.6414228081703186,-0.24152140319347382,-1.953396201133728,2.1368160247802734,-0.9879542589187622
4.68789005279541,0.007797420024871826,0.04683464765548706,0.22961640357971191,-0.6909407889220299,-1.2440528988095927,2.85223107059995,-0.7298738956451416,0.6372624635696411,-0.2473471462726593,-2.090707302093506,2.2051336765289307,-0.9239338040351868
4.707884311676025,0.01915639638900757,0.04023975133895874,0.2209741175174713,-0.6881561724073838,-1.237195970373953,2.793113107496199,-0.7298344969749451,0.6351140737533569,-0.2529260516166687,-2.090017318725586,2.243300199508667,-0.8387546539306641
4.727887153625488,-0.0001627206802368164,0.015172958374023438,0.20238029956817627,-0.685093788049954,-1.2280307408769875,2.737110441194145,-0.7293142080307007,0.632745623588562,-0.26025691628456116,-1.9166957139968872,2.2381110191345215,-0.9432281851768494
4.7478861808776855,-0.06542342901229858,-0.0010304450988769531,0.18414074182510376,-0.67719587607724,-1.2193460673514875,2.6823985138864757,-0.7316957712173462,0.6266101598739624,-0.26829299330711365,-1.8842836618423462,2.0782127380371094,-1.2734622955322266
4.767918109893799,-0.09684723615646362,-0.0012978315353393555,0.22988727688789368,-0.6642529389279058,-1.2151826987508747,2.621826948116045,-0.7381137609481812,0.6164711117744446,-0.27413785457611084,-2.1620278358459473,2.1409919261932373,-1.5276288986206055
4.78787899017334,0.013733148574829102,0.015049219131469727,0.2697392702102661,-0.6532861251091214,-1.2141666488686085,2.552669738516535,-0.7441256046295166,0.6077991724014282,-0.277231365442276,-2.578263282775879,2.197812557220459,-1.3751341104507446
4.807870149612427,0.116641104221344,0.026570260524749756,0.2277357578277588,-0.6482987951115559,-1.2136531749633845,2.4805232081092607,-0.7468138933181763,0.6038312315940857,-0.27866965532302856,-2.576918125152588,2.2023391723632812,-1.0980876684188843
4.827892303466797,0.20179617404937744,0.02372187376022339,0.1696854829788208,-0.6455961783272899,-1.2112400556051062,2.4145861609393746,-0.7476640939712524,0.6016747355461121,-0.28104421496391296,-2.190237045288086,2.0154573917388916,-1.0377556085586548
4.84787917137146,0.2735641598701477,-0.07726192474365234,0.10143667459487915,-0.6391751824656074,-1.2046198278833695,2.361059786873655,-0.74937903881073,0.5965336561203003,-0.2873650789260864,-1.57058846950531,1.8984817266464233,-1.062968134880066
4.867913246154785,0.3330959677696228,-0.1343783140182495,0.14607012271881104,-0.6295736485509918,-1.1926922437924106,2.3190229586724582,-0.7511868476867676,0.5888001918792725,-0.2983834445476532,-1.3981133699417114,1.8762649297714233,-1.0833204984664917
4.887872219085693,0.33082467317581177,-0.15705525875091553,0.0960647463798523,-0.6184081548691506,-1.1788707289090075,2.278630386361671,-0.7530201077461243,0.5797388553619385,-0.31122899055480957,-1.2050836086273193,1.8476444482803345,-1.1601694822311401
4.907876014709473,0.3623257875442505,-0.10812848806381226,0.10597607493400574,-0.6080624777053797,-1.16653772609743,2.2372536616233507,-0.7545986771583557,0.5712782740592957,-0.3228340148925781,-1.5196244716644287,1.7864675521850586,-1.109891653060913
4.9279069900512695,0.36199432611465454,-0.11704987287521362,0.00669407844543457,-0.5997516149074945,-1.159957975028644,2.191190646931972,-0.756784975528717,0.5644374489784241,-0.32967695593833923,-1.6843894720077515,1.4814176559448242,-1.1754459142684937
4.947871208190918,0.35070788860321045,-0.06476521492004395,-0.030984818935394287,-0.591097978276281,-1.1613278094883739,2.1413776609688546,-0.7616881132125854,0.5572730302810669,-0.330572247505188,-1.7069494724273682,1.1775181293487549,-1.2808257341384888
4.967872142791748,0.3696098327636719,0.00021731853485107422,-0.03388011455535889,-0.5800447710753756,-1.166931610984663,2.0932579229309103,-0.7691459655761719,0.5480613708496094,-0.32869935035705566,-1.5186350345611572,0.922810971736908,-1.276323676109314
4.987873077392578,0.33672934770584106,0.048201680183410645,-0.08358496427536011,-0.5688897698261209,-1.174317052752767,2.051366438895275,-0.7771437764167786,0.5386970043182373,-0.32535070180892944,-1.203208565711975,0.6590605974197388,-1.1453311443328857
5.007882118225098,0.27672600746154785,0.134479820728302,-0.12159675359725952,-0.5577486253486318,-1.1800365970537405,2.0187904739030738,-0.7844927310943604,0.5292773842811584,-0.32316651940345764,-1.0471038818359375,0.5528725385665894,-0.9386832118034363
5.027871131896973,0.29491525888442993,0.10893696546554565,-0.0759548544883728,-0.5501229480702788,-1.1846192900670827,1.98786067358756,-0.7896814942359924,0.5227920413017273,-0.32107895612716675,-1.1382602453231812,0.6378799676895142,-0.7347679734230042
5.0478692054748535,0.3732188940048218,0.025265753269195557,-0.10234585404396057,-0.5474307537412384,-1.1876889428180408,1.9570018907174385,-0.7919657826423645,0.5204951763153076,-0.3191782832145691,-1.1079118251800537,0.6257584095001221,-0.5494105815887451
5.066920280456543,0.47821664810180664,0.05821967124938965,-0.12004148960113525,-0.5448654589427329,-1.1900413832876275,1.9311550910087423,-0.7939515113830566,0.5183030366897583,-0.3178095519542694,-0.8146142959594727,0.4813116192817688,-0.5169685482978821
5.087921142578125,0.5361780524253845,0.000887751579284668,-0.12815850973129272,-0.5401849696664517,-1.1903060384993023,1.9141899648094192,-0.7962793707847595,0.5142946243286133,-0.3184968829154968,-0.3954645097255707,0.3737793266773224,-0.44024065136909485
5.1078691482543945,0.5638723969459534,-0.016273438930511475,-0.06430423259735107,-0.5353644305383862,-1.189911291939998,1.9020063531612643,-0.7984457612037659,0.5101544857025146,-0.3197290599346161,-0.4562152922153473,0.2817609906196594,-0.44622573256492615
5.1278932094573975,0.5362274646759033,0.007541775703430176,-0.04260444641113281,-0.5309216421563369,-1.1932997219297485,1.8867251478782352,-0.8016235828399658,0.5063283443450928,-0.31785404682159424,-0.6079376935958862,0.1677415519952774,-0.43238818645477295
5.14787220954895,0.48607295751571655,0.020595788955688477,-0.06962957978248596,-0.5274833010115243,-1.1991069716956098,1.8706725301158271,-0.805073082447052,0.5033603310585022,-0.3138238787651062,-0.5009067058563232,0.04029252007603645,-0.40243250131607056
5.167906284332275,0.449668288230896,0.06994768977165222,-0.045031189918518066,-0.5230332765288707,-1.204131294184516,1.8609232113668435,-0.8087228536605835,0.49951016902923584,-0.3105749785900116,-0.0746764987707138,-0.04475339874625206,-0.3319418430328369
5.187870025634766,0.40765249729156494,0.0463331937789917,-0.03141406178474426,-0.5150303875666692,-1.2062687916627313,1.8610730838313208,-0.8130936622619629,0.4925612807273865,-0.3102608621120453,0.33193260431289673,-0.18401506543159485,-0.4177834689617157
5.207872152328491,0.42330485582351685,-0.03826585412025452,-0.031188160181045532,-0.5047554934693597,-1.2095948236100564,1.8650837779809677,-0.8188125491142273,0.4835934340953827,-0.30932706594467163,0.28564876317977905,-0.36702704429626465,-0.41467854380607605
5.227869033813477,0.38123762607574463,-0.05145135521888733,-0.10008400678634644,-0.49644384893689253,-1.2198254147254188,1.8645419262230432,-0.8256803154945374,0.4763016998767853,-0.3023056387901306,-0.03973083198070526,-0.6209125518798828,-0.3668402433395386
5.247645139694214,0.2884974479675293,0.030412673950195312,-0.09640240669250488,-0.49230025933267313,-1.2348497047113212,1.8595157849923505,-0.8319849371910095,0.47265422344207764,-0.29051485657691956,-0.14611539244651794,-0.6298144459724426,-0.19428081810474396
5.267902135848999,0.1644245982170105,0.16433966159820557,-0.0826355516910553,-0.4886150667590327,-1.244813412936261,1.8610298307657087,-0.8364826440811157,0.469403475522995,-0.28276678919792175,0.46284064650535583,-0.39890801906585693,-0.0907999724149704
5.287870168685913,0.12910163402557373,0.20899969339370728,-0.03440988063812256,-0.4829754205491256,-1.2419519964698391,1.877908814912322,-0.8381622433662415,0.4644163250923157,-0.2860095500946045,1.0547916889190674,-0.1474277675151825,0.020007703453302383
5.307871341705322,0.17408418655395508,0.09485998749732971,0.01684132218360901,-0.47699330273549867,-1.233112371239692,1.9022915786943964,-0.8382076025009155,0.45911017060279846,-0.2943224608898163,1.133683204650879,-0.09715668112039566,0.11731798946857452
5.327869176864624,0.19997477531433105,0.025651633739471436,0.036159634590148926,-0.47233803618562153,-1.2246395878984484,1.9271288972785594,-0.8376852869987488,0.4549695551395416,-0.3021356761455536,1.129339337348938,-0.23731787502765656,0.1553502082824707
5.347894191741943,0.14638781547546387,0.03920498490333557,0.02922108769416809,-0.46605554434929364,-1.2196397836075905,1.9539597524052865,-0.8388316035270691,0.44936603307724,-0.30729731917381287,1.3690727949142456,-0.4798057973384857,0.05795009434223175
5.367883205413818,0.04441112279891968,0.0369926393032074,0.06599730253219604,-0.45464399051298476,-1.2179592218104192,1.9828883079906314,-0.8430714011192322,0.43914249539375305,-0.3104584813117981,1.4844696521759033,-0.6393157839775085,-0.2514675557613373
5.3878960609436035,-0.03206366300582886,-0.006616503000259399,0.10769832134246826,-0.4370715554929011,-1.2185997256019236,2.0119198699988248,-0.8503826260566711,0.42328813672065735,-0.3125324249267578,1.556796908378601,-0.6951829791069031,-0.4818570017814636
5.407873153686523,-0.1794801950454712,-0.020458072423934937,0.13418835401535034,-0.41480451797977125,-1.2222908737506608,2.0370665728940676,-0.8601773381233215,0.4030110239982605,-0.3125331699848175,1.340251088142395,-0.7379599809646606,-0.8278406858444214
5.4278693199157715,-0.35346317291259766,-0.0171353816986084,0.06385636329650879,-0.387393914203189,-1.2303760289107537,2.055916152699158,-0.8727636337280273,0.37777674198150635,-0.30914145708084106,1.3295269012451172,-0.8624212145805359,-1.1555767059326172
5.447926044464111,-0.5411635041236877,0.11642050743103027,-0.020535558462142944,-0.3526344288568588,-1.2430904112727887,2.0762104064181774,-0.8885238766670227,0.3453713357448578,-0.30206581950187683,1.5015416145324707,-1.0968952178955078,-1.5383214950561523
5.467871189117432,-0.688859224319458,0.07101914286613464,0.14980784058570862,-0.31282699920598794,-1.2582731868168406,2.0905206547801045,-0.9053791165351868,0.3077496588230133,-0.29253867268562317,0.9386951327323914,-0.8182715773582458,-1.7649881839752197
5.486999034881592,-0.8002447485923767,-0.15185865759849548,0.2099333107471466,-0.27755505179111695,-1.2700123494749231,2.0920910655011618,-0.9185509085655212,0.27400508522987366,-0.2849303185939789,0.267276406288147,-0.5137553215026855,-1.5001527070999146
5.507875204086304,-0.8063994646072388,-0.12675343453884125,0.240134596824646,-0.2509928789141811,-1.2805250734697387,2.0888215441813074,-0.9281433820724487,0.2483658492565155,-0.27724406123161316,0.3221365511417389,-0.4038439989089966,-1.0124574899673462
5.527872085571289,-0.9348083734512329,0.29590052366256714,0.3701321482658386,-0.23158500759955658,-1.279779982939739,2.0884290615807686,-0.9323790669441223,0.2295204997062683,-0.2792661488056183,0.1721925139427185,0.2455821931362152,-1.451022982597351
5.547885179519653,-0.8385405540466309,0.41024988889694214,0.08918669819831848,-0.18738707003812727,-1.2735138512160684,2.0992312547558365,-0.9393981695175171,0.1862923502922058,-0.28779515624046326,2.215686798095703,0.2113848179578781,-1.8629568815231323
5.567928314208984,-0.4391983151435852,0.3071545362472534,0.13770413398742676,-0.14701818137101902,-1.264245527183024,2.139553047636433,-0.943095326423645,0.14648914337158203,-0.2985166013240814,2.4237961769104004,0.030842380598187447,-0.9724414944648743
5.587937116622925,-0.7803468704223633,0.14420926570892334,0.25986650586128235,-0.12283818688992951,-1.254672632137811,2.169984787013661,-0.9432858228683472,0.12252949923276901,-0.3085421025753021,1.1977849006652832,0.6256623268127441,-0.26629161834716797
5.607870101928711,-0.8157938718795776,0.14256802201271057,0.26724591851234436,-0.12383084722196915,-1.2336136937865263,2.1861983918817804,-0.9364643096923828,0.12351461499929428,-0.32829639315605164,0.27497708797454834,1.4067144393920898,0.7732705473899841
5.627898216247559,-0.9135904908180237,0.22178487479686737,0.30206727981567383,-0.1424505500420088,-1.1967174891405028,2.1960800995761196,-0.921416163444519,0.14196926355361938,-0.3617139756679535,0.22543704509735107,1.9456844329833984,1.3224821090698242
5.647886276245117,-0.7400355935096741,-0.1036314070224762,0.13612893223762512,-0.1636719512421332,-1.1640619483353685,2.215768722401065,-0.9061434864997864,0.16294217109680176,-0.3903250992298126,0.6860754489898682,0.9132504463195801,1.5208287239074707
5.66786527633667,-0.6461976766586304,-0.22538672387599945,0.19857162237167358,-0.1883202389938669,-1.1548743804462294,2.241861413952025,-0.8985715508460999,0.1872090995311737,-0.39689013361930847,0.565792441368103,-0.42300429940223694,1.6727710962295532
5.6878533363342285,-0.823081910610199,-0.2796735167503357,0.2434137463569641,-0.21596433815714494,-1.1643885668090983,2.2624753104577673,-0.8972091674804688,0.21428947150707245,-0.386129230260849,0.11993183940649033,-0.6069046258926392,1.7524337768554688
5.707887172698975,-0.9839877486228943,-0.19323420524597168,0.20440399646759033,-0.2514951583475961,-1.1657149624623007,2.27016354708153,-0.8901577591896057,0.24885235726833344,-0.3816959261894226,-0.7934913635253906,0.2628228962421417,1.7521793842315674
5.727879047393799,-0.9673830270767212,-0.14632225036621094,0.03947433829307556,-0.29212170898253537,-1.1592591705193607,2.2613267536192816,-0.8776791095733643,0.287984699010849,-0.38307181000709534,-1.6343497037887573,0.48183441162109375,1.697348952293396
5.747900009155273,-0.842114269733429,-0.0995309054851532,0.2196025252342224,-0.3425331044399968,-1.1585837974894029,2.231403914171239,-0.863009512424469,0.33587411046028137,-0.3773631751537323,-2.94134521484375,0.4937688112258911,1.751846432685852
5.767880201339722,-0.8298816084861755,-0.05235636234283447,0.1278548240661621,-0.39715719290525764,-1.1673513993776634,2.1858863089268183,-0.8481274247169495,0.3867983818054199,-0.3620315492153168,-2.8902580738067627,0.3125225305557251,1.571547031402588
5.787869215011597,-0.7436363697052002,0.2195236086845398,-0.04570019245147705,-0.44252997361379587,-1.1769576522239775,2.152326290489183,-0.8344886302947998,0.42822709679603577,-0.3467711806297302,-1.7501384019851685,0.17999804019927979,1.507831335067749
5.807911157608032,-0.7248156666755676,0.14743605256080627,-0.11083918809890747,-0.4822972847948921,-1.181743032902449,2.132682576991816,-0.8197246789932251,0.4638156294822693,-0.3360450565814972,-1.5820866823196411,0.16459839046001434,1.4317599534988403
5.827474117279053,-0.6886472105979919,0.012068510055541992,-0.1296396255493164,-0.5206248708453961,-1.190436651941542,2.109271494698604,-0.8055086731910706,0.49742230772972107,-0.32206639647483826,-1.668635606765747,0.08031068742275238,1.374552607536316
5.847869157791138,-0.5905048847198486,0.1026424765586853,-0.16071811318397522,-0.5568764078690701,-1.1997741916349216,2.087966307338471,-0.7911478877067566,0.5285371541976929,-0.30778780579566956,-1.2217711210250854,0.039124809205532074,1.285497784614563
5.867897033691406,-0.50678551197052,0.1436539888381958,-0.22166883945465088,-0.5846439959049478,-1.206539186174361,2.0783532388011756,-0.779194712638855,0.5519025325775146,-0.2970843017101288,-0.6584050059318542,-0.17898382246494293,1.097596287727356
5.887871265411377,-0.37852126359939575,-0.016035377979278564,-0.14962655305862427,-0.6102130675657329,-1.2112543177278272,2.0746924610561277,-0.7671238780021667,0.573042094707489,-0.2883465886116028,-0.630963921546936,0.05110787972807884,1.2223005294799805
5.907870292663574,-0.4040050506591797,-0.031541287899017334,-0.15943565964698792,-0.6361110291015518,-1.2102884819734405,2.0667300196075464,-0.7527026534080505,0.594071626663208,-0.28375592827796936,-0.7795633673667908,0.39069172739982605,0.925555408000946
5.927915096282959,-0.17586588859558105,0.012864172458648682,-0.28680670261383057,-0.6564065837490749,-1.2079375481792047,2.0595496400249393,-0.740607500076294,0.6102741360664368,-0.281186580657959,-0.4518849551677704,0.2682003378868103,0.8826910853385925
5.947879314422607,-0.08674770593643188,0.015284419059753418,-0.28604018688201904,-0.676330591986008,-1.2041528058678794,2.0603349013090644,-0.7280411124229431,0.6259355545043945,-0.2795726954936981,-0.17951549589633942,0.09336043894290924,0.9363090395927429
5.967871189117432,-0.07558977603912354,-0.03825664520263672,-0.17484113574028015,-0.6931513082972789,-1.1977388763294463,2.067638750590031,-0.716326117515564,0.6389644742012024,-0.2803591191768646,0.12721914052963257,0.06532347947359085,0.903503954410553
5.987947225570679,0.03951519727706909,-0.002121448516845703,-0.0722714364528656,-0.7080386951217069,-1.1866650954541547,2.0834113740490015,-0.7042795419692993,0.6503451466560364,-0.28467750549316406,0.434611052274704,0.006594831123948097,0.881227970123291
6.007871150970459,0.15518540143966675,0.00807332992553711,-0.03135678172111511,-0.7191978082993339,-1.1762127914865435,2.1056740574935673,-0.694522500038147,0.6587813496589661,-0.28921520709991455,0.7014432549476624,-0.3948349058628082,0.8679158687591553
6.027870178222656,0.2704315781593323,-0.12646394968032837,0.06676259636878967,-0.7322539531489438,-1.1696993131500941,2.1302786311796313,-0.6846466660499573,0.668547511100769,-0.29034969210624695,0.3943816125392914,-0.5963301658630371,1.008094310760498
6.047888278961182,0.28382450342178345,-0.17161256074905396,0.09613826870918274,-0.7496645347808755,-1.1709702252595677,2.1467819580158993,-0.674190104007721,0.6813932657241821,-0.284904807806015,0.04116201773285866,-0.6440412402153015,1.0665322542190552
6.067911148071289,0.36257654428482056,-0.11002182960510254,0.06651419401168823,-0.7673352000780638,-1.177712784717484,2.158415021167652,-0.6648684740066528,0.694219708442688,-0.2756970524787903,0.1835775375366211,-0.8755350708961487,0.9341256022453308
6.087325096130371,0.45035749673843384,0.0517917275428772,0.030423521995544434,-0.7809373234522572,-1.1777950058079834,2.184596317390414,-0.6561070680618286,0.7039454579353333,-0.272000789642334,1.093064546585083,-0.9153106212615967,1.1016088724136353
6.107830047607422,0.4731658697128296,0.07775300741195679,-0.06864982843399048,-0.7912725135085709,-1.1648197324084009,2.234136207428386,-0.6458038687705994,0.7112483382225037,-0.2776027023792267,1.6137856245040894,-1.2742046117782593,1.1444894075393677
6.127845287322998,0.49398624897003174,-0.1766687035560608,-0.04924660921096802,-0.8030381482621536,-1.1559678773948114,2.2827297659561383,-0.6356183290481567,0.7194694876670837,-0.27991607785224915,0.8451791405677795,-1.3833602666854858,1.2953622341156006
6.147942066192627,0.4706658124923706,-0.3380432724952698,-0.036711692810058594,-0.8230383365100691,-1.1668480214880645,2.3052908174536433,-0.6252679228782654,0.7332152724266052,-0.2672739624977112,-0.13776637613773346,-1.2647438049316406,1.1394462585449219
6.167870044708252,0.5456916689872742,-0.3471047878265381,-0.055234670639038086,-0.841989292177766,-1.1847426883973866,2.312248432199393,-0.6169655323028564,0.7459694147109985,-0.2507651448249817,0.0660807341337204,-1.0371323823928833,0.7969377040863037
6.1879563331604,0.6558802723884583,-0.2579752802848816,-0.08914020657539368,-0.849716667526324,-1.1816544632430575,2.337774204559399,-0.6108363270759583,0.7510933876037598,-0.2504747211933136,1.2260310649871826,-0.5452620387077332,0.5832628607749939
6.207886219024658,0.7662795186042786,-0.3401273488998413,-0.0787496268749237,-0.8462547059801482,-1.1524527062147847,2.3861163426358116,-0.6056349873542786,0.7488033175468445,-0.26925763487815857,1.6713885068893433,-0.20374153554439545,0.36288145184516907
6.227901220321655,0.8870881199836731,-0.5396735072135925,0.03054794669151306,-0.8385175235109066,-1.1222678742359966,2.4286448649212695,-0.6024354100227356,0.7436528205871582,-0.28991687297821045,1.1983530521392822,0.03614082932472229,0.11426917463541031
6.2478721141815186,1.0153441429138184,-0.6278013586997986,0.10732901096343994,-0.830712743483662,-1.1006698585356767,2.455174652400594,-0.6011900901794434,0.7384122014045715,-0.3054797351360321,0.757250964641571,0.09475833177566528,0.003618020098656416
6.267872333526611,1.0622400045394897,-0.5773436427116394,0.163864403963089,-0.8256177866267072,-1.0896167236158307,2.469565166781893,-0.601104199886322,0.7349668741226196,-0.31384316086769104,0.3090799152851105,-0.03593629598617554,-0.02302165888249874
6.287869215011597,0.9710536599159241,-0.6064459085464478,0.1939946413040161,-0.8235777877073407,-1.0902959917755086,2.4696320338147717,-0.6026455163955688,0.7335819602012634,-0.3141271471977234,-0.172827810049057,-0.0336502380669117,-0.23105227947235107
6.30786919593811,0.9191113710403442,-0.4898138642311096,0.17877760529518127,-0.8168306383298858,-1.0975401057606344,2.461081457876269,-0.6092969179153442,0.7289799451828003,-0.31200215220451355,0.1684943288564682,-0.04453333467245102,-0.6587263345718384
6.327891111373901,0.9531788229942322,-0.22656923532485962,0.1382642388343811,-0.7952760425335124,-1.0958412085383047,2.4662239178510053,-0.6225972175598145,0.7140569090843201,-0.3201490640640259,1.0934128761291504,-0.20633964240550995,-1.021797776222229
6.347887992858887,0.977390706539154,-0.27724188566207886,0.26851150393486023,-0.7649410769292593,-1.0942835310618475,2.4818209644315643,-0.6410565972328186,0.6924945116043091,-0.3309047520160675,1.1176433563232422,-0.7923182249069214,-1.2058429718017578
6.367830276489258,0.7809286713600159,-0.499971866607666,0.35603198409080505,-0.7340243343308753,-1.1059365859870367,2.490795063233393,-0.6636953949928284,0.6698630452156067,-0.33285391330718994,0.8332805633544922,-0.8357083201408386,-1.2539381980895996
6.387871265411377,0.4318240284919739,-0.3748135566711426,0.09737792611122131,-0.7016634293992513,-1.119268656837656,2.491512736227409,-0.6872256398200989,0.6454890370368958,-0.3332636058330536,0.5981996059417725,-0.6229872107505798,-1.6774588823318481
6.407900333404541,0.29234564304351807,-0.25321251153945923,-0.008940637111663818,-0.668493902265912,-1.1478121256608285,2.4718994736011246,-0.7155939936637878,0.6198047995567322,-0.32212939858436584,-0.6699431538581848,-1.034785509109497,-1.9837448596954346
6.427871227264404,0.0827065110206604,-0.13262033462524414,-0.05791965126991272,-0.6343350910879232,-1.191196120655992,2.4366330300291215,-0.7481269836425781,0.592642068862915,-0.29846468567848206,-0.15512435138225555,-0.9860489368438721,-2.1967692375183105
6.447902202606201,-0.3425261378288269,0.41717255115509033,-0.13633033633232117,-0.5871104193674812,-1.2084689382277205,2.4337412650184955,-0.7784912586212158,0.5539576411247253,-0.2950966954231262,1.617451786994934,-0.7318687438964844,-2.4224205017089844
6.467879295349121,-0.33083581924438477,0.21696263551712036,-0.07724419236183167,-0.5257165487812888,-1.2166407810140274,2.455183388540948,-0.8112845420837402,0.501832902431488,-0.29996833205223083,2.0050132274627686,-1.1858940124511719,-2.5062575340270996
6.4878692626953125,-0.3244439959526062,-0.06459620594978333,0.0003871619701385498,-0.471095900937779,-1.23094806498893,2.4781184288153772,-0.8401069045066833,0.45386308431625366,-0.2970333695411682,1.7513335943222046,-1.2667889595031738,-2.039727210998535
6.5078771114349365,-0.622573733329773,0.003303736448287964,0.004154384136199951,-0.4207937385025629,-1.2459807872371067,2.4978369938963936,-0.865036129951477,0.40848508477211,-0.29129430651664734,1.598415732383728,-1.1173723936080933,-2.235309600830078
6.527872085571289,-0.6589353084564209,-0.03139564394950867,-0.031407058238983154,-0.3688007387553434,-1.2593760283025985,2.515487344384883,-0.8878939151763916,0.36049705743789673,-0.2858079671859741,1.579088568687439,-0.89254230260849,-2.0644941329956055
6.547891139984131,-0.7266616225242615,-0.16135668754577637,-0.15840739011764526,-0.32410556815541053,-1.269722182647499,2.534985082017841,-0.9052963852882385,0.3184610605239868,-0.2811067998409271,1.535865306854248,-0.8810639381408691,-1.7209618091583252
6.567869186401367,-0.7460499405860901,-0.060233473777770996,-0.23193013668060303,-0.2831007231347118,-1.2844421733258418,2.55006456922703,-0.9210948348045349,0.27933427691459656,-0.27121320366859436,0.9838395714759827,-0.8510177731513977,-1.8142666816711426
6.58787727355957,-0.4972163438796997,-0.07805541157722473,-0.18541550636291504,-0.2487964562286542,-1.2978329538565272,2.553846371465659,-0.9333256483078003,0.246237650513649,-0.26128554344177246,0.2608659863471985,-0.6414870023727417,-1.332400918006897
6.607935190200806,-0.31591904163360596,-0.23206740617752075,-0.08764252066612244,-0.22921694236464785,-1.310133135087797,2.5445359862219052,-0.9409474730491638,0.2272150218486786,-0.2509806156158447,-0.5914984345436096,-0.4148026406764984,-0.7653171420097351
6.627958297729492,-0.18069994449615479,-0.23530961573123932,-0.11406813561916351,-0.22457335223199354,-1.323691477535077,2.5238770795850702,-0.9452764987945557,0.22269044816493988,-0.23845571279525757,-1.138759970664978,-0.4859078824520111,-0.26106375455856323
6.647958278656006,-0.12071090936660767,-0.14042945206165314,-0.1366792917251587,-0.22710866380273179,-1.3382299521214287,2.5016942914607516,-0.9480909109115601,0.2251613736152649,-0.2245572954416275,-0.9472301602363586,-0.46123993396759033,-0.005276566371321678
6.6679911613464355,-0.1048513650894165,-0.10365569591522217,-0.1458919644355774,-0.23292273030766403,-1.349444025504953,2.4891664091414976,-0.9492563009262085,0.23082230985164642,-0.21362042427062988,-0.3112625181674957,-0.31482741236686707,0.26695525646209717
6.6878721714019775,-0.13118088245391846,-0.11449593305587769,-0.09824298322200775,-0.2430253754524006,-1.3508619983583183,2.4884903118125323,-0.9472339749336243,0.24064019322395325,-0.21175459027290344,-0.19619955122470856,0.17182613909244537,0.7127414345741272
6.708014011383057,-0.20960521697998047,-0.165371835231781,-0.06942236423492432,-0.26024900559732717,-1.344205233660662,2.484251340824912,-0.9416245818138123,0.25732117891311646,-0.21709194779396057,-0.5669016242027283,0.5903242230415344,0.8421419262886047
6.727909088134766,-0.18798470497131348,-0.14608234167099,-0.05038478970527649,-0.284121017629572,-1.3357118233739638,2.4694297110632566,-0.9335058331489563,0.2803138196468353,-0.22358684241771698,-1.2362744808197021,0.6023672223091125,1.1407244205474854
6.747925281524658,-0.15184098482131958,-0.11777827143669128,-0.05711865425109863,-0.3140304495949214,-1.3261455019974957,2.4538986727648284,-0.9227744936943054,0.30889448523521423,-0.23037222027778625,-0.9359829425811768,0.7832451462745667,1.4010004997253418
6.76806116104126,-0.16058236360549927,-0.0014650523662567139,-0.055167123675346375,-0.34362123806950123,-1.3116270027074766,2.4469600002501766,-0.910096287727356,0.3368988335132599,-0.24129590392112732,-0.35271966457366943,0.9141326546669006,1.2708289623260498
6.787869215011597,-0.0931631326675415,0.003872215747833252,-0.1236131489276886,-0.3670621166638074,-1.2904030731262766,2.4543411185002966,-0.8969337940216064,0.3588747978210449,-0.2582991123199463,0.33521074056625366,0.9098084568977356,1.2448979616165161
6.80785608291626,-0.008816361427307129,-0.07065755128860474,-0.1459318995475769,-0.3895146360717693,-1.2682447391394949,2.46859325485669,-0.8830751180648804,0.3797394633293152,-0.2756379544734955,0.1485508233308792,0.8128888010978699,1.2603094577789307
6.827721118927002,0.00036275386810302734,-0.204967200756073,-0.12350648641586304,-0.41418756575846666,-1.250047898607936,2.471532422321266,-0.8687556982040405,0.40244632959365845,-0.28861820697784424,-0.6966384053230286,0.9252815246582031,1.1999154090881348
6.855974197387695,0.011621654033660889,-0.1571800410747528,-0.17903056740760803,-0.476816303199103,-1.218428818880223,2.4443466214802716,-0.8338719010353088,0.4589529037475586,-0.30662620067596436,-1.1108767986297607,1.1387659311294556,1.3106913566589355
6.876562118530273,-0.04416489601135254,-0.06708523631095886,-0.19011083245277405,-0.5047677743759826,-1.1991946916248712,2.4367941786995218,-0.8155456781387329,0.48360419273376465,-0.31782376766204834,-0.5153875946998596,1.1595617532730103,1.0834437608718872
6.89596700668335,-0.012014567852020264,-0.12026715278625488,-0.13795119524002075,-0.5257288404575269,-1.1750502117735924,2.438537844159513,-0.7981051206588745,0.5018435716629028,-0.3334386646747589,-0.19990871846675873,1.12520170211792,0.9557540416717529
6.915018081665039,0.038552701473236084,-0.22016972303390503,-0.0613117516040802,-0.543840216890176,-1.1508691836961493,2.442983394782095,-0.7813810706138611,0.5174259543418884,-0.3488750457763672,-0.20307563245296478,1.085250735282898,0.8598442077636719
6.93585729598999,0.10014218091964722,-0.2472873330116272,0.006199359893798828,-0.55952091368617,-1.127378881751833,2.4476420774481444,-0.7655474543571472,0.5307802557945251,-0.3636060655117035,-0.024979649111628532,0.993179976940155,0.754270613193512
6.955782175064087,0.14860093593597412,-0.17510372400283813,0.04818856716156006,-0.5698960281887633,-1.1024522153977168,2.459176026279077,-0.7512925863265991,0.5395445227622986,-0.38006728887557983,0.5172271728515625,0.8730646967887878,0.5416120886802673
6.974835157394409,0.15101534128189087,-0.12482517957687378,0.04311537742614746,-0.5643591943070392,-1.0720476212183598,2.4872634721637303,-0.7420035004615784,0.5348744988441467,-0.40415364503860474,1.9742906093597412,0.6398823261260986,0.1398453712463379
6.995693206787109,0.20234829187393188,-0.0744163990020752,0.06473836302757263,-0.540525291063087,-1.0334953657639654,2.5427728417215585,-0.7366194725036621,0.5145864486694336,-0.43885335326194763,3.090118646621704,0.29133859276771545,0.18442697823047638
7.015704154968262,0.1441238522529602,-0.18009904026985168,0.01883605122566223,-0.5138641663325957,-1.0016807856426684,2.603955988242866,-0.7335861325263977,0.49154603481292725,-0.46929076313972473,2.5605146884918213,-0.20491528511047363,0.31286028027534485
7.0353991985321045,-0.08061665296554565,-0.23000812530517578,-0.026277810335159302,-0.500107291474848,-0.9930798177504138,2.638408327342403,-0.7351182103157043,0.47951969504356384,-0.4792306423187256,0.6009320020675659,-0.5396851897239685,0.10088616609573364
7.0544822216033936,-0.261274516582489,-0.1699209213256836,-0.06035563349723816,-0.5012574564293182,-1.0078301892268982,2.630761123441421,-0.7416398525238037,0.48052868247032166,-0.46804094314575195,-1.0237902402877808,-0.540004551410675,-0.323274165391922
7.075383186340332,-0.24148547649383545,0.017237067222595215,-0.21749061346054077,-0.5082203160693514,-1.03047668653979,2.6030604424039536,-0.749160885810852,0.48662325739860535,-0.4493947923183441,-1.2006161212921143,-0.3842046856880188,-0.3012009859085083
7.096058130264282,-0.19442534446716309,0.28370410203933716,-0.36746928095817566,-0.5133595603430967,-1.04650271957674,2.5819976288375184,-0.7540914416313171,0.4911065101623535,-0.43607380986213684,-0.6330857276916504,-0.18832193315029144,-0.2107011377811432
7.1154890060424805,-0.14199316501617432,0.3073003888130188,-0.3292388916015625,-0.5139130993997593,-1.0524354995542962,2.572018970151715,-0.7564290761947632,0.49158862233161926,-0.4314575493335724,-0.2136116474866867,0.09641251713037491,-0.15468664467334747
7.135310173034668,-0.04018145799636841,0.14185920357704163,-0.20860332250595093,-0.5140770012914604,-1.0503848961213933,2.5672382420171664,-0.7554728388786316,0.49173134565353394,-0.43296775221824646,-0.22426968812942505,0.31328001618385315,-0.026868321001529694
7.155152320861816,0.016009092330932617,0.09549620747566223,-0.1843256950378418,-0.51629421253275,-1.0478013095703964,2.5604696582828645,-0.7534053325653076,0.4936607778072357,-0.4343724846839905,-0.38196665048599243,0.23688459396362305,-0.12971501052379608
7.1741042137146,0.02122366428375244,0.10690218210220337,-0.17284202575683594,-0.5166012416026495,-1.049855052821854,2.549895933599926,-0.7541643977165222,0.4939277768135071,-0.43274882435798645,-0.448650985956192,0.11394880712032318,-0.3030576705932617
7.194900035858154,0.03262680768966675,0.13496780395507812,-0.11886149644851685,-0.5143159700177241,-1.0537519896945755,2.5368288171335984,-0.7568241953849792,0.4919394254684448,-0.4303634464740753,-0.39138442277908325,0.1665480136871338,-0.4159007966518402
7.215097188949585,0.06997138261795044,0.18305304646492004,-0.07868233323097229,-0.5113859385741801,-1.054584898128572,2.5254387212668696,-0.7584326267242432,0.48938634991645813,-0.4304424524307251,-0.34654781222343445,0.3033529222011566,-0.32635924220085144
7.234982013702393,0.11171984672546387,0.17352277040481567,-0.03694021701812744,-0.5101716595733939,-1.0517999953152946,2.5155162884646827,-0.7577465176582336,0.4883270561695099,-0.4328474700450897,-0.37170740962028503,0.46452900767326355,-0.19603025913238525
7.255311012268066,0.1709027886390686,0.10695713758468628,0.025541096925735474,-0.5122089007477244,-1.0461223408019524,2.505373492136451,-0.7544140815734863,0.4901038706302643,-0.4366433918476105,-0.4808827042579651,0.5870742201805115,-0.08818694204092026
7.276638031005859,0.2421838641166687,0.0477258563041687,0.049430012702941895,-0.5158499434013274,-1.0388846262843212,2.4956279322956685,-0.7496911883354187,0.49327436089515686,-0.4411841928958893,-0.43413910269737244,0.6098838448524475,-0.025575418025255203
7.292582988739014,0.2936493158340454,0.038825929164886475,0.0496097207069397,-0.519753194866412,-1.0314431303571963,2.4873371889531337,-0.7447296977043152,0.49666595458984375,-0.44575852155685425,-0.38863512873649597,0.5250677466392517,-0.03418772295117378
7.313283205032349,0.28996503353118896,0.01833134889602661,0.07499003410339355,-0.5220952104873865,-1.024832879129213,2.480285893896228,-0.740770697593689,0.49869731068611145,-0.45006635785102844,-0.25550228357315063,0.48904359340667725,-0.05172104388475418
7.333656311035156,0.2815173268318176,0.03372931480407715,0.09285905957221985,-0.5237838390163557,-1.0169631758537712,2.476226592796153,-0.7364885807037354,0.500160276889801,-0.45543843507766724,-0.15771369636058807,0.49259093403816223,-0.009554414078593254
7.355622291564941,0.2861822843551636,0.06913328170776367,0.11304429173469543,-0.5250312617071435,-1.0089528893538289,2.473313760057504,-0.7322882413864136,0.501240074634552,-0.4609904885292053,-0.13423441350460052,0.42890578508377075,0.0014730527764186263
7.374781131744385,0.28638947010040283,0.09680336713790894,0.09713238477706909,-0.527141890493271,-1.0029287769589685,2.471210601852509,-0.7286044955253601,0.503065288066864,-0.46482351422309875,-0.1232103556394577,0.28780555725097656,0.0858110785484314
7.395125150680542,0.2735956311225891,0.12013858556747437,0.07893151044845581,-0.5298223456680828,-0.9987738064951813,2.4708620963695123,-0.7255304455757141,0.5053800344467163,-0.4671151638031006,-0.03488903492689133,0.14926400780677795,0.09652741253376007
7.414660215377808,0.2626914381980896,0.1326422095298767,0.06737774610519409,-0.5305397860104591,-0.9951362660283114,2.473394926172185,-0.7235221862792969,0.505998969078064,-0.46955370903015137,0.193486288189888,0.07932008057832718,0.09294117987155914
7.435480117797852,0.26828521490097046,0.10417646169662476,0.05002745985984802,-0.52908145125776,-0.9904800064107209,2.480763778709827,-0.721944272518158,0.5047405958175659,-0.4733215570449829,0.38073593378067017,0.01881847344338894,0.13679398596286774
7.454705238342285,0.2453179955482483,0.08632975816726685,0.015618205070495605,-0.5273431097655992,-0.9853729232256058,2.490571323750242,-0.7202478051185608,0.5032391548156738,-0.4774865210056305,0.39637261629104614,0.0005501657724380493,0.17084823548793793
7.474629163742065,0.2085670828819275,0.07366305589675903,0.01335287094116211,-0.5261273396465863,-0.9805083644981774,2.4990594576617187,-0.7184242010116577,0.5021882057189941,-0.4813246726989746,0.2671891152858734,0.0735049769282341,0.13359962403774261
7.493451118469238,0.2083759903907776,0.0329667329788208,0.033525824546813965,-0.5263934149567667,-0.9755094770054579,2.5038360446326426,-0.7158986330032349,0.5024182796478271,-0.48483508825302124,0.053642790764570236,0.17401666939258575,0.1021035760641098
7.513651132583618,0.2188471555709839,0.03127843141555786,0.01999172568321228,-0.5264929218118566,-0.971585016401771,2.5049158347988967,-0.7139490246772766,0.502504289150238,-0.48761260509490967,0.09358733147382736,0.14417621493339539,-0.038394588977098465
7.5342020988464355,0.20762652158737183,0.09628069400787354,-0.00405004620552063,-0.5220865836813082,-0.967702855698246,2.5085516890570667,-0.7138673663139343,0.49868983030319214,-0.49163174629211426,0.4343971908092499,0.05840618535876274,-0.17128285765647888
7.5533013343811035,0.14930033683776855,0.1646043062210083,0.03655603528022766,-0.508676918876111,-0.9623581142620066,2.5173061602689972,-0.7166525721549988,0.4870221018791199,-0.49921780824661255,1.0325689315795898,0.056927863508462906,-0.5163722634315491
7.5733091831207275,0.1140052080154419,0.28348007798194885,0.08182859420776367,-0.47971927006819404,-0.9517648765447251,2.5366108415901145,-0.7225104570388794,0.4615301489830017,-0.5147510170936584,2.0964670181274414,0.0648157075047493,-0.8609591126441956
7.592058181762695,0.10748463869094849,0.28905144333839417,0.17852705717086792,-0.4368206749969966,-0.9354880848170656,2.570727509319415,-0.7293107509613037,0.423060804605484,-0.5377036929130554,2.6975080966949463,0.06481321901082993,-0.7208983898162842
7.614183187484741,0.07196283340454102,0.10552471876144409,0.2868313789367676,-0.39932752723318155,-0.9215294859181714,2.604280369018959,-0.7338586449623108,0.38879886269569397,-0.5570340752601624,1.8322622776031494,-0.0646371841430664,-0.5132999420166016
7.634101152420044,-0.018517673015594482,0.05377602577209473,0.24497127532958984,-0.3757165264508223,-0.9212178984144057,2.6176177576493442,-0.7407901883125305,0.36693915724754333,-0.5626593232154846,0.686030387878418,-0.43384718894958496,-0.6497765183448792
7.653921127319336,-0.0638924241065979,0.05667838454246521,0.1477150321006775,-0.3590361478868102,-0.934885671853378,2.614213049391101,-0.7532309293746948,0.35137200355529785,-0.5560402274131775,0.1263100653886795,-0.8047682642936707,-0.8791716694831848
7.673034191131592,-0.07321387529373169,0.005971074104309082,0.14840340614318848,-0.34419935437544524,-0.9581160544196097,2.599766758978958,-0.7701241374015808,0.33744311332702637,-0.541332483291626,-0.3856220245361328,-0.9673840403556824,-1.1021778583526611
7.692804336547852,0.05338770151138306,-0.05890244245529175,0.14596515893936157,-0.3332071897794984,-0.9847987695168731,2.5758980246225507,-0.7873353958129883,0.3270754814147949,-0.5226130485534668,-0.8072885274887085,-0.8865474462509155,-1.0173684358596802
7.713702201843262,0.20904028415679932,-0.10640498995780945,0.07566380500793457,-0.32856264541936403,-1.0081670247667913,2.5510234556677673,-0.800608217716217,0.3226828873157501,-0.5048782825469971,-0.8264681696891785,-0.6276624202728271,-0.6564981341362
7.733541011810303,0.18595457077026367,-0.15067973732948303,0.00896984338760376,-0.32607446374260585,-1.0250229784672662,2.530101811507169,-0.8096880316734314,0.3203268051147461,-0.49172741174697876,-0.7404122948646545,-0.4316186308860779,-0.6775037050247192
7.753293991088867,0.16009509563446045,-0.2251608967781067,-0.07585301995277405,-0.320171991431481,-1.0397353958106677,2.511332475861089,-0.8184507489204407,0.31472980976104736,-0.48071134090423584,-0.49760493636131287,-0.4732607305049896,-0.7219061255455017
7.773462295532227,0.23532038927078247,-0.21131473779678345,-0.1458010971546173,-0.31144858917082263,-1.056037061245214,2.4951562586110074,-0.8285362720489502,0.3064378499984741,-0.4686398506164551,-0.44109684228897095,-0.6475078463554382,-0.7939507365226746
7.79335618019104,0.26074880361557007,-0.19416803121566772,-0.09705683588981628,-0.3028566680825777,-1.0740975749088506,2.4765974566050897,-0.8391484022140503,0.2982480823993683,-0.4548383057117462,-0.6822507977485657,-0.5801181197166443,-0.8250486850738525
7.813398122787476,0.30075716972351074,-0.20609501004219055,-0.10674023628234863,-0.29474020762935205,-1.0906248845958246,2.4563107020417907,-0.8486698269844055,0.2904912829399109,-0.44201168417930603,-0.6392101049423218,-0.47144684195518494,-0.8003960847854614
7.832441329956055,0.3761025667190552,-0.11799731850624084,-0.10905289649963379,-0.28530415642715673,-1.104510613370304,2.439234353864967,-0.8571358323097229,0.2814493179321289,-0.4313981831073761,-0.33559930324554443,-0.4448898136615753,-0.7905769348144531
7.853257179260254,0.45992571115493774,-0.09776890277862549,-0.07230746746063232,-0.2736727998172259,-1.1161230630475412,2.4298142041518,-0.8649702072143555,0.27026936411857605,-0.42282500863075256,0.004746009595692158,-0.46158498525619507,-0.6541582942008972
7.873208999633789,0.5000348091125488,-0.08365753293037415,0.013588398694992065,-0.2619353281093936,-1.125703791091023,2.426885628478052,-0.8717846274375916,0.2589503526687622,-0.41585585474967957,0.23210741579532623,-0.4155218005180359,-0.5304214358329773
7.892218112945557,0.5345777273178101,-0.07751846313476562,0.035115182399749756,-0.25068314296759125,-1.1331547285693038,2.4288969137501337,-0.8774426579475403,0.24806581437587738,-0.41055771708488464,0.4059610962867737,-0.39041316509246826,-0.4216926395893097
7.9122233390808105,0.5400781035423279,-0.06911826133728027,0.03623035550117493,-0.23966454950483898,-1.140654217589861,2.4334847319928654,-0.8829277157783508,0.23737677931785583,-0.4050810933113098,0.4518013298511505,-0.5068638324737549,-0.3497815728187561
7.9332990646362305,0.46675360202789307,-0.029530435800552368,-0.006891846656799316,-0.23289335664099214,-1.1514695102701609,2.438286316900458,-0.8887048959732056,0.23079372942447662,-0.39615383744239807,0.23134224116802216,-0.6396576166152954,-0.12246250361204147
7.953099250793457,0.35432106256484985,0.02944234013557434,0.0025045573711395264,-0.23077929322661944,-1.1628386411043703,2.4408963503915655,-0.8935970664024353,0.22873622179031372,-0.386217325925827,0.08214930444955826,-0.5167169570922852,0.026308540254831314
7.973085165023804,0.2816263437271118,0.1093720942735672,0.028288453817367554,-0.2322329166693951,-1.1690063440073886,2.4448912670077547,-0.8956551551818848,0.23015107214450836,-0.38056814670562744,0.25853458046913147,-0.17420931160449982,0.28071093559265137
7.993070125579834,0.21679061651229858,0.1188824474811554,0.0447654128074646,-0.23619752714410205,-1.166661915679704,2.4547811755996882,-0.8939145803451538,0.23400743305683136,-0.3823051452636719,0.46406808495521545,0.1597050279378891,0.43665075302124023
8.011054992675781,0.12730872631072998,0.121517613530159,0.04481518268585205,-0.23970360718065511,-1.157082554863419,2.4695218957710967,-0.8894546031951904,0.23741471767425537,-0.39051830768585205,0.7175524830818176,0.4166605770587921,0.4519055485725403
8.032657146453857,0.048840999603271484,0.11440739035606384,0.08636587858200073,-0.24154149549333778,-1.1439040053697347,2.4867277123193374,-0.8838323950767517,0.2391996532678604,-0.4020244777202606,0.6647845506668091,0.4837356209754944,0.3954676687717438
8.052373170852661,0.010303497314453125,0.05698423087596893,0.17324364185333252,-0.24541367162639519,-1.1311313471444464,2.498183187534983,-0.8777807950973511,0.24295762181282043,-0.412882924079895,0.12847661972045898,0.498151957988739,0.43172597885131836
8.072415113449097,-0.026572227478027344,0.07425275444984436,0.17741966247558594,-0.2553249727000809,-1.1225014113196812,2.5011561932509623,-0.8719720840454102,0.2525598704814911,-0.4193783104419708,-0.2618793845176697,0.2542312741279602,0.5879040956497192
8.09231424331665,-0.17509078979492188,0.2252737283706665,0.2015807032585144,-0.2676249787579775,-1.1190268688821043,2.5021534106484564,-0.8676490783691406,0.26444169878959656,-0.4210174083709717,-0.08854279667139053,0.11855119466781616,0.5589127540588379
8.110649108886719,-0.25709855556488037,0.3180868923664093,0.24432873725891113,-0.2757730130375419,-1.1145961854158002,2.5105737612971892,-0.8638122081756592,0.27229082584381104,-0.4238942563533783,0.4981900453567505,0.08849005401134491,0.528346836566925
8.132518291473389,-0.239449143409729,0.3120591342449188,0.2984773516654968,-0.2778674326745325,-1.1070311730391318,2.5305150743655376,-0.8600687980651855,0.2743054926395416,-0.4301607608795166,1.069578766822815,0.12391417473554611,0.5159659385681152
8.152331113815308,-0.19514495134353638,0.19951564073562622,0.3252214789390564,-0.2777507855250695,-1.0972181866228454,2.557156643735407,-0.8558346033096313,0.27419331669807434,-0.4385942816734314,1.103110909461975,0.11238189041614532,0.6352612972259521
8.172145128250122,-0.1495773196220398,0.055467426776885986,0.34984201192855835,-0.28112165046546317,-1.089254555948488,2.57999031499721,-0.8514907956123352,0.27743345499038696,-0.44496530294418335,0.6641861796379089,0.02933352068066597,0.6565147042274475
8.192260265350342,-0.13729798793792725,-0.01372307538986206,0.38166484236717224,-0.28801297895781847,-1.0861408125673289,2.5940528805446506,-0.848389208316803,0.28404760360717773,-0.44671306014060974,0.2967267632484436,-0.136968195438385,0.544022262096405
8.212192058563232,-0.34516072273254395,-0.028833478689193726,0.3042216897010803,-0.29037353707623054,-1.0876657085040644,2.605176313104962,-0.848473310470581,0.2863101363182068,-0.4451061189174652,0.7032660841941833,-0.3302114009857178,0.03286953642964363
8.232608318328857,-0.6838475465774536,0.06704971194267273,0.18473654985427856,-0.26916588703128463,-1.0926973333240937,2.626561612846213,-0.8559015989303589,0.2659274637699127,-0.44352561235427856,2.2006871700286865,-0.8431165814399719,-0.9014252424240112
8.251986026763916,-0.6414700150489807,0.07899725437164307,0.2657829523086548,-0.22480163666612693,-1.1059720768800814,2.667552268137202,-0.8714082837104797,0.22291299700737,-0.4369865655899048,3.158940315246582,-1.4024583101272583,-1.1643356084823608
8.271927118301392,-0.6595176458358765,-0.09880314767360687,0.4943493604660034,-0.17839147338060965,-1.122497605957352,2.71298521409147,-0.8868842124938965,0.17744679749011993,-0.42655453085899353,2.726022958755493,-0.9536200761795044,-0.978355884552002
8.291786193847656,-0.8125705718994141,0.009779632091522217,0.4966529607772827,-0.14132497861691562,-1.124388654536088,2.745491982633643,-0.8930110931396484,0.14085499942302704,-0.4274238049983978,1.7122218608856201,0.014163179323077202,-1.3341366052627563
8.312187194824219,-0.737765371799469,0.09755611419677734,0.078890860080719,-0.09320670285214464,-1.1267612686619024,2.765243070207095,-0.8991058468818665,0.09307180345058441,-0.4277220070362091,2.26438570022583,-0.5789504051208496,-1.6980171203613281
