timestamp,acceleration_x,acceleration_y,acceleration_z,attitude_pitch,attitude_roll,attitude_yaw,gravity_x,gravity_y,gravity_z,rotation_x,rotation_y,rotation_z
0.0,0.04922628402709961,-0.1769198179244995,-0.16320276260375977,-0.6410049965144515,-0.5572069485762955,-1.2207818375347554,-0.4238448441028595,0.59800124168396,-0.6802573800086975,-0.1672040969133377,0.10640072822570801,-0.46966060996055603
0.020074844360351562,0.029061079025268555,-0.12339776754379272,-0.18425977230072021,-0.6387675737632623,-0.5607300071642638,-1.2317660533732897,-0.42694929242134094,0.5962064862251282,-0.6798913478851318,-0.10792979598045349,0.1582070142030716,-0.39014917612075806
0.04035186767578125,0.0705806314945221,-0.0595245361328125,-0.16735005378723145,-0.635749027922268,-0.5630253850973578,-1.2412230853301627,-0.4294673502445221,0.5937803983688354,-0.6804282665252686,-0.045599211007356644,0.16228733956813812,-0.4124244451522827
0.06009387969970703,0.012874871492385864,-0.13876497745513916,-0.10254520177841187,-0.6325309927558341,-0.564357159906042,-1.2499389064277533,-0.43139296770095825,0.5911879539489746,-0.6814666986465454,-0.0752430111169815,0.20044547319412231,-0.3972141146659851
0.08006095886230469,0.03316912055015564,-0.16480445861816406,-0.062256455421447754,-0.6298569857808906,-0.5658034811337398,-1.2588243381527287,-0.433224081993103,0.5890291929244995,-0.6821741461753845,-0.1188541129231453,0.18773233890533447,-0.3382299840450287
0.10017681121826172,0.059283673763275146,-0.13379573822021484,-0.05390572547912598,-0.6283436763222864,-0.5671034391523957,-1.2671886443254874,-0.43458881974220276,0.5878055691719055,-0.6823614239692688,-0.15290531516075134,0.18724027276039124,-0.29898393154144287
0.12014102935791016,0.054203927516937256,-0.15419334173202515,-0.06300079822540283,-0.6288111748827636,-0.5692024649901297,-1.2755079953376924,-0.43587204813957214,0.5881837606430054,-0.6812161803245544,-0.22465041279792786,0.09212592244148254,-0.25414201617240906
0.1402120590209961,0.05025124549865723,-0.10874539613723755,-0.09737759828567505,-0.6297647437768309,-0.5718222709345671,-1.2829725060838573,-0.4373514950275421,0.5889546275138855,-0.6796000003814697,-0.1818876713514328,0.07292009145021439,-0.22769013047218323
0.1602919101715088,0.014651954174041748,-0.08489000797271729,-0.12028729915618896,-0.6302861968476311,-0.5743818189435558,-1.290161085505587,-0.43892261385917664,0.5893759727478027,-0.6782204508781433,-0.2131556123495102,0.1172240823507309,-0.22285901010036469
0.18005704879760742,-0.02379956841468811,-0.09075093269348145,-0.13698434829711914,-0.6313651170347037,-0.5758844065753717,-1.2982755325227464,-0.4395946264266968,0.5902472734451294,-0.6770263910293579,-0.27023056149482727,0.2116432636976242,-0.251789391040802
0.19997501373291016,-0.00714188814163208,-0.10582643747329712,-0.11372578144073486,-0.6357384532448657,-0.5772208314558123,-1.3082463501114163,-0.4390861690044403,0.5937718749046326,-0.6742687225341797,-0.5320769548416138,0.19985665380954742,-0.20485293865203857
0.2199840545654297,0.04256904125213623,-0.09026849269866943,-0.2006819248199463,-0.6430096595216241,-0.5829428213377388,-1.3204447138824527,-0.44054877758026123,0.5996067523956299,-0.6681231260299683,-0.6656739115715027,0.02900811657309532,-0.17583346366882324
0.25011682510375977,-0.015853911638259888,0.12772983312606812,-0.27738386392593384,-0.6537351787082636,-0.6013803746803446,-1.3508725705929132,-0.449127197265625,0.6081556677818298,-0.6545467972755432,-0.2777211368083954,0.019329478964209557,-0.5118473172187805
0.25925493240356445,-0.015853911638259888,0.12772983312606812,-0.27738386392593384,-0.6537351787082636,-0.6013803746803446,-1.3508725705929132,-0.449127197265625,0.6081556677818298,-0.6545467972755432,-0.2777211368083954,0.019329478964209557,-0.5118473172187805
0.2875978946685791,-0.014210551977157593,-0.217465341091156,-0.03534489870071411,-0.6496608428909498,-0.6280052785146351,-1.3956072097834136,-0.4678451120853424,0.6049163937568665,-0.6443579196929932,-0.5096306204795837,-0.06510826200246811,-1.0498597621917725
0.30956077575683594,0.08033862709999084,-0.29391711950302124,-0.017930567264556885,-0.6524873613947798,-0.6489148864015932,-1.4254276794063472,-0.48017993569374084,0.6071646809577942,-0.6330705285072327,-1.0200992822647095,-0.2299559861421585,-0.9909058809280396
0.32869386672973633,-0.020714789628982544,-0.19236469268798828,-0.03315156698226929,-0.6517704400341594,-0.6781540102715987,-1.4658647023050722,-0.49875542521476746,0.6065948605537415,-0.6191006898880005,-0.8536998629570007,-0.2538721263408661,-1.4208542108535767
0.3497629165649414,0.06925392150878906,-0.1351320743560791,-0.005934238433837891,-0.6436614922501326,-0.7080112915118445,-1.5028814820971574,-0.5201969146728516,0.6001282930374146,-0.6076523065567017,-0.3875095248222351,-0.587194561958313,-1.4629911184310913
0.371304988861084,0.07071876525878906,0.12215286493301392,-0.04051566123962402,-0.625275683127,-0.7386039517768848,-1.533889747978402,-0.5458774566650391,0.5853208303451538,-0.599514365196228,0.08481617271900177,-0.5231678485870361,-1.5477524995803833
0.38468194007873535,0.0100899338722229,0.1375277042388916,0.030048251152038574,-0.604714081806912,-0.760502561596628,-1.5587677933133022,-0.5670509338378906,0.5685268640518188,-0.5960121154785156,-0.11643246561288834,-0.2951187193393707,-1.3402857780456543
0.40476179122924805,0.15449196100234985,-0.0241546630859375,0.07714617252349854,-0.5936646237469391,-0.7844599926044721,-1.5863826504448277,-0.5855680108070374,0.559402346611023,-0.5866677761077881,-0.6880787014961243,-0.5892239809036255,-1.083624005317688
0.4254617691040039,0.19893646240234375,0.05521661043167114,0.08201563358306885,-0.5901954046901148,-0.8144987373269668,-1.6169525665472275,-0.6043319702148438,0.5565233826637268,-0.5701443552970886,-0.8148597478866577,-0.6803579330444336,-0.9505209922790527
0.4480290412902832,0.14142078161239624,0.11240369081497192,0.07846695184707642,-0.5859073548771339,-0.8434277624734745,-1.6447926052223296,-0.6223472356796265,0.5529556274414062,-0.5540071725845337,-0.5758485794067383,-0.7226521968841553,-0.9766219258308411
0.46001386642456055,0.14142078161239624,0.11240369081497192,0.07846695184707642,-0.5859073548771339,-0.8434277624734745,-1.6447926052223296,-0.6223472356796265,0.5529556274414062,-0.5540071725845337,-0.5758485794067383,-0.7226521968841553,-0.9766219258308411
0.48519182205200195,0.20627379417419434,0.1894485354423523,0.059667766094207764,-0.5593242406475145,-0.8949236796865534,-1.6782088316815742,-0.6612755656242371,0.5306135416030884,-0.5302488803863525,0.33671826124191284,-0.8950073719024658,-0.8998029232025146
0.5091080665588379,0.17723870277404785,0.20130908489227295,0.0943291187286377,-0.5410781856370817,-0.9152849105699505,-1.684106197876193,-0.6794970035552979,0.5150604844093323,-0.5224907994270325,0.3175849914550781,-0.8540655374526978,-0.8302745819091797
0.5300779342651367,0.2117113471031189,0.1129450798034668,0.15328222513198853,-0.5271620211073587,-0.9361977353921421,-1.69222078480683,-0.6959795355796814,0.5030826926231384,-0.5123674273490906,-0.04437518119812012,-0.8616117238998413,-0.7358287572860718
0.5499739646911621,0.21892648935317993,0.10179352760314941,0.1338370442390442,-0.5188981823197082,-0.9606741425956772,-1.7059686664585436,-0.7116938233375549,0.4959236681461334,-0.49754565954208374,-0.39563965797424316,-0.8609201908111572,-0.629723846912384
0.5683460235595703,0.2101392149925232,0.1352292001247406,0.12816807627677917,-0.5131397926688442,-0.9844184958018075,-1.7219503537094318,-0.7256726026535034,0.49091506004333496,-0.48208051919937134,-0.3523213267326355,-0.776168704032898,-0.6636949777603149
0.589439868927002,0.24761366844177246,0.16393813490867615,0.07994914054870605,-0.5034896869040755,-1.0059419541952241,-1.7348284230383073,-0.7398470044136047,0.4824851155281067,-0.46886521577835083,-0.06100567430257797,-0.7610647678375244,-0.7808526158332825
0.6082019805908203,0.2676008343696594,0.15864640474319458,0.09928947687149048,-0.4885479726517403,-1.025825568584248,-1.7437684787240104,-0.7551039457321167,0.46934422850608826,-0.45774906873703003,0.13426385819911957,-0.783417820930481,-0.8920099139213562
0.6294898986816406,0.2614786624908447,0.12192720174789429,0.10054886341094971,-0.4702056614801399,-1.046234443020377,-1.751662579912412,-0.7716104984283447,0.45306962728500366,-0.44648095965385437,0.1834869533777237,-0.9031820893287659,-1.040689468383789
0.6506409645080566,0.283427357673645,0.10459163784980774,0.1455860137939453,-0.4495014133161035,-1.0681379596366665,-1.7591615180216822,-0.78925621509552,0.4345165193080902,-0.43390092253685,0.23511365056037903,-0.9556064605712891,-1.088079571723938
0.6685638427734375,0.2652958631515503,0.0956132709980011,0.1698523759841919,-0.4279670394751627,-1.0915962610622587,-1.7675930478964172,-0.8073339462280273,0.4150220453739166,-0.41948631405830383,0.07093630731105804,-1.0430136919021606,-1.1890822649002075
0.6887519359588623,0.22195285558700562,0.057842135429382324,0.2114916443824768,-0.40655841002569576,-1.1185254889866596,-1.7811792630935068,-0.8261398673057556,0.395450621843338,-0.40138739347457886,-0.24263928830623627,-1.1218199729919434,-1.291297197341919
0.708873987197876,0.14931243658065796,0.07761141657829285,0.22481054067611694,-0.38595522498827156,-1.1501114540054946,-1.8018453537666015,-0.845662534236908,0.3764442801475525,-0.3783445656299591,-0.5917757153511047,-1.2255743741989136,-1.3835901021957397
0.7305059432983398,0.10004758834838867,0.1447274088859558,0.25566911697387695,-0.3653611854957662,-1.184889110504983,-1.827303535839836,-0.8653064370155334,0.357286661863327,-0.3515554666519165,-0.7653182744979858,-1.3530335426330566,-1.4520870447158813
0.7499480247497559,0.11679834127426147,0.2096008062362671,0.32817262411117554,-0.34295026146919,-1.2234408007401152,-1.8536750450311779,-0.885520875453949,0.33626702427864075,-0.320589154958725,-0.6895778179168701,-1.6172984838485718,-1.5138649940490723
0.7689459323883057,0.08428692817687988,0.27994856238365173,0.3397887349128723,-0.3172660994474386,-1.2665104830211789,-1.8750471016584953,-0.9064458012580872,0.3119702637195587,-0.28465884923934937,-0.3709785044193268,-1.9932124614715576,-1.6252129077911377
0.7883968353271484,-0.11368566751480103,0.3133488893508911,0.27340298891067505,-0.2851498879034322,-1.311700459316647,-1.8878799705353,-0.9275893568992615,0.2813012897968292,-0.2458609640598297,0.07051119208335876,-2.077108383178711,-1.7700854539871216
0.8089838027954102,-0.21709543466567993,0.2836887836456299,0.287993460893631,-0.2522101385260698,-1.350319744469246,-1.8939721404390986,-0.9449225664138794,0.24954478442668915,-0.21177594363689423,0.025026610121130943,-1.6048682928085327,-1.5335724353790283
0.8295350074768066,-0.0926942229270935,0.05365686118602753,0.23125196993350983,-0.2266601436543783,-1.3822654846174307,-1.9038415411499363,-0.9571561813354492,0.22472435235977173,-0.18262231349945068,-0.3859618008136749,-1.478054404258728,-1.2050989866256714
0.8495550155639648,0.05271351337432861,-0.03979262709617615,0.034532561898231506,-0.20551223031664598,-1.416086849665732,-1.9147632959455265,-0.9672642350196838,0.2040686309337616,-0.15085041522979736,-0.18371044099330902,-1.7159662246704102,-1.1472247838974
0.8673529624938965,0.005515336990356445,0.008406192064285278,-0.14726585149765015,-0.18222143416917838,-1.4511834831429993,-1.9190834201528755,-0.9764168858528137,0.18121467530727386,-0.117352195084095,-0.017036234959959984,-1.7047127485275269,-1.2690141201019287
0.8879671096801758,-0.05064612627029419,-0.12449690699577332,-0.09118121862411499,-0.15646068383526768,-1.4834789028968762,-1.926177474524672,-0.9840219020843506,0.15582311153411865,-0.08614129573106766,-0.4712964594364166,-1.3607631921768188,-1.3236745595932007
0.9089999198913574,0.013746261596679688,-0.28053998947143555,-0.2010817527770996,-0.13221257996046606,-1.5097105264365165,-1.9405341334962574,-0.9894238114356995,0.1318277269601822,-0.06051503121852875,-0.6376391053199768,-1.12122642993927,-1.2230528593063354
0.9292469024658203,0.13185691833496094,-0.1948179006576538,-0.41441667079925537,-0.10802216472972911,-1.531758995682985,-1.9502943770523868,-0.9934139847755432,0.10781220346689224,-0.038799941539764404,-0.15059241652488708,-0.9632887244224548,-1.285219430923462
0.9493288993835449,0.25057756900787354,-0.11817298084497452,-0.5255962610244751,-0.08181084969916436,-1.5486940707239818,-1.9494593525087731,-0.996411919593811,0.08171962201595306,-0.022026536986231804,0.1679493486881256,-0.7268967628479004,-1.3049836158752441
0.9616289138793945,0.34190094470977783,-0.2656148076057434,-0.4336087107658386,-0.05704273793516701,-1.560326427344568,-1.9511925538366743,-0.9983188509941101,0.05701180920004845,-0.01045268028974533,-0.3463611602783203,-0.4353582262992859,-1.1810798645019531
0.9814410209655762,0.3489353656768799,-0.3267158567905426,-0.46254777908325195,-0.03353965646691721,-1.5676898229041258,-1.9607235409897283,-0.9994327425956726,0.03353336825966835,-0.0031047516968101263,-0.5103113055229187,-0.30190303921699524,-1.142612338066101
1.0018858909606934,0.32257717847824097,-0.20320190489292145,-0.45874881744384766,-0.011719525093256068,-1.5723765733856607,-1.9707668546935713,-0.9999300837516785,0.01171925663948059,0.0015801374102011323,-0.5827221870422363,-0.1651763617992401,-1.181650161743164
1.024026870727539,0.2495327591896057,-0.21630798280239105,-0.3372812271118164,0.011719749245807778,-1.5727351557002018,-1.9834880128961134,-0.9999294877052307,-0.011719481088221073,0.0019386946223676205,-0.6972361207008362,0.14113031327724457,-1.075729250907898
1.0417559146881104,0.2016797661781311,-0.21786583960056305,-0.35085529088974,0.02989565471507215,-1.5671576738203,-1.996168716488067,-0.999546468257904,-0.029891202226281166,-0.0036370186135172844,-0.4816650152206421,0.37670615315437317,-0.7830715775489807
1.0606169700622559,0.186720073223114,-0.053646452724933624,-0.3497276306152344,0.04594865719110085,-1.557319521544291,-2.0007376198876528,-0.9988538026809692,-0.04593249037861824,-0.013462172821164131,0.03661402314901352,0.555477499961853,-0.8791816234588623
1.0804979801177979,0.1439284086227417,-0.024613387882709503,-0.28592413663864136,0.06422173587638631,-1.5458141805820662,-1.9981326120887088,-0.9976270794868469,-0.06417759507894516,-0.024928051978349686,0.08293622732162476,0.644392192363739,-0.8957927227020264
1.100538969039917,0.07129144668579102,-0.1662869155406952,-0.1825280785560608,0.08067260814976185,-1.531782557070663,-2.001360334608484,-0.9959892630577087,-0.08058512955904007,-0.03887702152132988,-0.36250609159469604,0.7820020318031311,-0.7344120144844055
1.1199150085449219,0.044079482555389404,-0.22246454656124115,-0.0667262077331543,0.09199630231609865,-1.511919107270593,-2.0141341003399296,-0.9940459132194519,-0.09186659008264542,-0.05859437957406044,-0.7539427876472473,1.0475207567214966,-0.5148245096206665
1.1399250030517578,-0.00922238826751709,-0.10167880356311798,-0.0663984939455986,0.10212725774502028,-1.4886339031538784,-2.0264702510021584,-0.9914336204528809,-0.10194981843233109,-0.08164238929748535,-0.2889535129070282,1.2053982019424438,-0.6038893461227417
1.1641559600830078,0.050929903984069824,0.05143272876739502,-0.010975480079650879,0.1160547373948208,-1.4634900629117957,-2.0271799984354684,-0.9875601530075073,-0.11579439789056778,-0.10638000816106796,0.37296921014785767,1.218104362487793,-0.7958174347877502
1.1809840202331543,0.1235395073890686,0.0385066419839859,0.0002323240041732788,0.1339385980953133,-1.4428671110888251,-2.0155129588232144,-0.9829450845718384,-0.13353848457336426,-0.12643790245056152,0.9699613451957703,0.9421235918998718,-0.809382438659668
1.2009539604187012,0.09508812427520752,0.06692458689212799,0.05606512725353241,0.15227508849550275,-1.4285820134159535,-1.9953347595384887,-0.9784500598907471,-0.15168727934360504,-0.14009535312652588,1.19700026512146,0.8849601149559021,-0.7369978427886963
1.223897933959961,-0.002958357334136963,0.13236740231513977,0.12515632808208466,0.16969507301953846,-1.4137884954256505,-1.9736937060452537,-0.9735127091407776,-0.16888180375099182,-0.154117614030838,1.1219654083251953,0.9458710551261902,-0.6957969069480896
1.2430009841918945,-0.09305500984191895,0.1930583119392395,0.18621981143951416,0.18632211961387327,-1.3992604961196313,-1.9530780658872147,-0.9682700037956238,-0.18524593114852905,-0.16774147748947144,1.284586787223816,0.8332753777503967,-0.6044470071792603
1.262465000152588,-0.1918204426765442,0.2414986789226532,0.2818901538848877,0.19967104353770634,-1.3854581453776043,-1.923912014130232,-0.9633461236953735,-0.19834692776203156,-0.18061766028404236,1.753542184829712,1.1654380559921265,-0.15386132895946503
1.2842938899993896,-0.22135305404663086,0.2979695796966553,0.46922147274017334,0.20742819758556205,-1.3668011143823149,-1.887428900533559,-0.9582733511924744,-0.20594391226768494,-0.19824069738388062,1.9240901470184326,1.4238779544830322,0.06858748942613602
1.305816888809204,-0.23057425022125244,0.34502869844436646,0.5045706033706665,0.21086095692635515,-1.3481825400131036,-1.8459801016584758,-0.9537214040756226,-0.20930185914039612,-0.21588964760303497,2.108309507369995,1.2233668565750122,0.5228763818740845
1.3253660202026367,-0.330172598361969,0.4513866901397705,0.38963979482650757,0.20690346180277133,-1.3418632212069461,-1.7965902599645982,-0.9531372785568237,-0.20543038845062256,-0.22209839522838593,2.5173659324645996,0.33220890164375305,0.821151614189148
1.3449840545654297,-0.5354893207550049,0.6263657808303833,0.5241755247116089,0.206333312538771,-1.3506072301173426,-1.7328668310881183,-0.9551570415496826,-0.20487236976623535,-0.21378132700920105,3.6266157627105713,0.30737823247909546,0.6824337840080261
1.365060806274414,-0.8112753629684448,0.5598599910736084,0.7411171197891235,0.2086797832995788,-1.3561754049644639,-1.6539897718813834,-0.9558602571487427,-0.20716850459575653,-0.2083565890789032,3.3083841800689697,0.7594760060310364,0.7363425493240356
1.3864507675170898,-0.7646856307983398,0.04945942759513855,1.1426150798797607,0.20285603356150572,-1.3445697399287064,-1.599049584596721,-0.9545373320579529,-0.2014676183462143,-0.2197025865316391,1.6982885599136353,1.3150742053985596,1.1439404487609863
1.4055678844451904,-0.46288472414016724,-0.21052514016628265,0.9646283388137817,0.1794750682365466,-1.3345620002682932,-1.575484719200276,-0.9566097855567932,-0.17851309478282928,-0.23028388619422913,0.1930411159992218,0.18306469917297363,1.5719773769378662
1.4251370429992676,-0.406008780002594,0.03493782877922058,0.6460022926330566,0.1513600069717458,-1.3402653818492178,-1.562577861774568,-0.9624146819114685,-0.1507827341556549,-0.22588206827640533,0.7608559131622314,-0.4786263406276703,1.455187439918518
1.4447441101074219,-0.6282755136489868,0.25972795486450195,0.4342990219593048,0.1305053392938878,-1.3507814326111653,-1.5305272700285362,-0.9675955772399902,-0.1301352083683014,-0.2163882851600647,1.6140108108520508,-0.10069244354963303,1.2109944820404053
1.464707851409912,-0.633721113204956,0.040223628282547,0.37858760356903076,0.1129276171375443,-1.3605370944451296,-1.4966626405705155,-0.971747636795044,-0.11268775165081024,-0.20738403499126434,0.9675370454788208,-0.3054503798484802,1.5208641290664673
1.4854998588562012,-0.5713781118392944,-0.13086700439453125,0.4292845129966736,0.07637596170760827,-1.3693196661171847,-1.4785605291635777,-0.9769159555435181,-0.07630173116922379,-0.19953297078609467,0.15166214108467102,-0.3842942416667938,2.3758909702301025
1.504863977432251,-0.7683444619178772,0.1487371027469635,0.34336036443710327,0.028379744641734587,-1.376326874150671,-1.4662252948814303,-0.9807552099227905,-0.028375934809446335,-0.19316819310188293,0.41951316595077515,-0.37439003586769104,2.433626651763916
1.5246248245239258,-0.8258443474769592,0.1609739065170288,0.18970033526420593,-0.013602162850138525,-1.3840385701006128,-1.4387140250651407,-0.9825204014778137,0.01360174361616373,-0.1856568157672882,1.3180210590362549,-0.34256935119628906,2.247004270553589
1.544583797454834,-0.7973752021789551,-0.12583991885185242,0.17535603046417236,-0.052866347568454757,-1.3898699437041062,-1.4039926200197657,-0.9823032021522522,0.05284172669053078,-0.17968952655792236,1.2843927145004272,-0.3238629400730133,2.3305580615997314
1.5643210411071777,-0.8104826211929321,-0.2709760069847107,0.12121148407459259,-0.09817510576861259,-1.393689087127093,-1.3759033818309203,-0.9796174764633179,0.09801747649908066,-0.17533442378044128,0.5647246241569519,-0.0894511491060257,2.590775966644287
1.5847430229187012,-0.8054039478302002,-0.22539477050304413,0.1571492701768875,-0.15107852154661283,-1.3917735873196249,-1.3658313142320158,-0.9728094935417175,0.1505044549703598,-0.1760396957397461,-0.43642958998680115,0.12515898048877716,2.8133761882781982
1.6090960502624512,-0.7541014552116394,-0.2024630904197693,0.1745830774307251,-0.21226250820576206,-1.388036323853038,-1.3710456344416595,-0.9612764120101929,0.21067216992378235,-0.17766538262367249,-1.0960849523544312,0.29123547673225403,3.054091691970825
1.6213159561157227,-0.7389395236968994,-0.10045468807220459,0.09393727779388428,-0.2754009687808909,-1.388369707902824,-1.3809881068430976,-0.9463480114936829,0.27193281054496765,-0.17458002269268036,-0.8563470840454102,-0.034627050161361694,2.9617457389831543
1.6399409770965576,-0.77519690990448,0.05483803153038025,-0.028136491775512695,-0.3328988979071667,-1.3890350388736525,-1.3744727969979975,-0.9295303225517273,0.3267841339111328,-0.1708381175994873,0.48788565397262573,-0.1298791766166687,2.842916488647461
1.6615688800811768,-0.6915776133537292,0.03200429677963257,-0.038568541407585144,-0.3836982593322031,-1.3840244138394404,-1.3471038213966267,-0.911159873008728,0.374352365732193,-0.17218589782714844,0.9017183184623718,-0.4059414863586426,2.5846664905548096
1.6839408874511719,-0.5964426398277283,-0.1994321346282959,0.06177753210067749,-0.43172857392300434,-1.3818694336888424,-1.3205753250020122,-0.8920828104019165,0.41844138503074646,-0.17057271301746368,0.49221205711364746,-0.35695770382881165,2.660749912261963
1.7032208442687988,-0.6309109330177307,-0.24543464183807373,0.06164158880710602,-0.4824035623299203,-1.383757509827193,-1.305965278192979,-0.8704318404197693,0.463909775018692,-0.1647299826145172,-0.1081874892115593,-0.5227591395378113,2.5013749599456787
1.7245941162109375,-0.5969632863998413,-0.15502208471298218,0.022009670734405518,-0.529821115795941,-1.3919078937379448,-1.3016349208393776,-0.8491275310516357,0.5053789615631104,-0.15354041755199432,-0.2792075276374817,-0.5425999760627747,2.2465691566467285
1.7454369068145752,-0.5572821497917175,-0.12045776844024658,-0.03733307123184204,-0.5722850686842964,-1.4002911707473227,-1.2984443488659965,-0.8284754157066345,0.5415544509887695,-0.14264433085918427,-0.20957547426223755,-0.4498124420642853,1.9969781637191772
1.7630329132080078,-0.4830246567726135,-0.12455755472183228,-0.07516829669475555,-0.610028862681483,-1.406213467048035,-1.2937572958072756,-0.8085556030273438,0.572891116142273,-0.13428910076618195,-0.04937276244163513,-0.4243103563785553,1.806152105331421
1.7837858200073242,-0.41765856742858887,-0.10129094123840332,-0.09658725559711456,-0.6442375253186888,-1.4134283904371978,-1.2917353610769833,-0.7896780967712402,0.6005889773368835,-0.1253061145544052,-0.45781415700912476,-0.45547762513160706,1.5713390111923218
1.8038849830627441,-0.33958983421325684,-0.19426751136779785,-0.07019966840744019,-0.6758453760200076,-1.4299748412533995,-1.3048027869202106,-0.7724555730819702,0.6255570650100708,-0.10950314253568649,-1.014301061630249,-0.34459805488586426,1.4702585935592651
1.8237290382385254,-0.2764584422111511,-0.1763949990272522,-0.10744582861661911,-0.7066774343845629,-1.4512656345559296,-1.3282253953427157,-0.7550968527793884,0.6493104696273804,-0.09068956971168518,-1.1712026596069336,-0.1764678955078125,1.3309986591339111
1.8435509204864502,-0.25422269105911255,-0.06546533107757568,-0.15806251764297485,-0.7330421124039835,-1.4691644257511758,-1.3525864198950108,-0.739307701587677,0.6691334247589111,-0.07539701461791992,-0.855134129524231,-0.12668009102344513,1.054305076599121
1.863412857055664,-0.16992872953414917,-0.02135157585144043,-0.16761451959609985,-0.7539363852815073,-1.4806028515522243,-1.3691391339454353,-0.7260369062423706,0.6845136880874634,-0.06566193699836731,-0.6497365236282349,0.08015483617782593,0.9342127442359924
1.8833808898925781,-0.09293347597122192,-0.1287822723388672,-0.15833228826522827,-0.7716581993329147,-1.4928104926816033,-1.3888744391736507,-0.7145770788192749,0.6973246932029724,-0.0558401383459568,-0.9362146258354187,0.06940445303916931,0.7298399209976196
1.9056169986724854,-0.00500798225402832,-0.19559884071350098,-0.10436749458312988,-0.7869490018929376,-1.5083344513018802,-1.4159939352025983,-0.7046326398849487,0.7082025408744812,-0.04407000169157982,-0.9986568689346313,0.2750333249568939,0.6799744963645935
1.925041913986206,-0.002477705478668213,-0.07234448194503784,-0.20859628915786743,-0.7993107016939527,-1.5207787716199326,-1.4407453280250642,-0.6963292360305786,0.7168756723403931,-0.03485775738954544,-0.7533376216888428,0.3256549835205078,0.419395387172699
1.943638801574707,0.02332472801208496,0.004492342472076416,-0.2522003650665283,-0.8060402590228635,-1.523399704557816,-1.4559428475621672,-0.691583514213562,0.721551239490509,-0.03280328959226608,-0.3883604109287262,0.4253310561180115,0.23994484543800354
1.963663101196289,0.1620892882347107,-0.13112837076187134,-0.18218952417373657,-0.8114781410196289,-1.522746266852663,-1.468746355260606,-0.68763267993927,0.7253055572509766,-0.033066242933273315,-0.5369200706481934,0.5967511534690857,0.32586896419525146
1.9832868576049805,0.2632683515548706,-0.2316070795059204,-0.16173100471496582,-0.8177932210752458,-1.5230314597697536,-1.4842963201194246,-0.6830528974533081,0.7296385169029236,-0.03265076503157616,-0.5118655562400818,0.5862876176834106,0.2739335894584656
2.0040807723999023,0.28261327743530273,-0.10220599174499512,-0.22110217809677124,-0.8225485603134564,-1.517868060285751,-1.4940271577103792,-0.6794028878211975,0.7328821420669556,-0.03599323332309723,-0.13594795763492584,0.6390479803085327,0.1472168266773224
2.023082971572876,0.30528926849365234,-0.07395511865615845,-0.25355803966522217,-0.824536760599189,-1.5038171862700318,-1.4941300324391746,-0.6773748993873596,0.7342333793640137,-0.04543795809149742,0.031256407499313354,0.7465118169784546,0.031668636947870255
2.0430397987365723,0.385540246963501,-0.17585593461990356,-0.20499706268310547,-0.8244957722126856,-1.4888215554235915,-1.4960343711969524,-0.6766476035118103,0.7342055439949036,-0.0555926114320755,-0.13319675624370575,0.880074679851532,-0.007551913615316153
2.0632247924804688,0.5028035044670105,-0.2736496925354004,-0.18760865926742554,-0.8251479900219475,-1.4679250404558244,-1.4939612409402716,-0.6748617887496948,0.7346481680870056,-0.06966983526945114,0.18587109446525574,0.923685610294342,-0.04297574236989021
2.08296799659729,0.6092795133590698,-0.16300439834594727,-0.22185665369033813,-0.8213492214435985,-1.4411613516204282,-1.4773120422459527,-0.6755180954933167,0.7320656180381775,-0.08806464076042175,0.9825431108474731,0.7095508575439453,-0.09634533524513245
2.1031408309936523,0.5816834568977356,-0.03714191913604736,-0.19916749000549316,-0.8149755941166544,-1.3996095022233757,-1.4421766725553054,-0.6758608222007751,0.7277088761329651,-0.11684204638004303,1.3263956308364868,0.9569408297538757,-0.11833389103412628
2.1228108406066895,0.515260636806488,-0.2211427092552185,-0.14126844704151154,-0.8083178315967134,-1.3544102878671949,-1.409804537854032,-0.6746083498001099,0.7231262922286987,-0.14829766750335693,0.9199554324150085,1.1491138935089111,-0.14489704370498657
2.14255690574646,0.6620904803276062,-0.2997605800628662,-0.11870430409908295,-0.8028612985775935,-1.3182650727255412,-1.38906775490237,-0.672619104385376,0.7193466424942017,-0.17356261610984802,0.6078351140022278,0.8910847306251526,0.014367230236530304
2.1627988815307617,0.7334983944892883,-0.14552271366119385,-0.0988275408744812,-0.8004232739051667,-1.2833213118296314,-1.364263006632235,-0.6678246855735779,0.7176509499549866,-0.1974523961544037,1.1046720743179321,0.7637847065925598,0.1835010051727295
2.182694911956787,0.6828080415725708,-0.07308334112167358,-0.004911527037620544,-0.7968934467068419,-1.2479353265697155,-1.3324998762730755,-0.6628190875053406,0.7151882648468018,-0.22175781428813934,1.16818368434906,0.48673582077026367,0.1920747011899948
2.201775074005127,0.6881561279296875,-0.06899213790893555,-0.007053360342979431,-0.7953202153036034,-1.2117321854079373,-1.2921179442562114,-0.6554108262062073,0.7140877842903137,-0.24599847197532654,1.4719711542129517,0.28471845388412476,0.5793036818504333
2.2229208946228027,0.599496066570282,0.007558763027191162,-0.049924880266189575,-0.7946048251393505,-1.175662379142156,-1.2447259560934982,-0.6465848088264465,0.7135868072509766,-0.2696705460548401,1.6365654468536377,-0.01940193772315979,0.6271699070930481
2.2425098419189453,0.5091424584388733,0.04892539978027344,-0.04442581534385681,-0.794060197028302,-1.1402363860312656,-1.1926279119310976,-0.6369806528091431,0.7132051587104797,-0.2925645112991333,1.7166389226913452,-0.16669435799121857,0.7657139897346497
2.262767791748047,0.4020458459854126,0.08274674415588379,-0.060014158487319946,-0.7952252381014866,-1.1045331803207665,-1.1386078853695711,-0.6253888607025146,0.7140213251113892,-0.31474176049232483,1.2538063526153564,0.04254310205578804,0.8190425634384155
2.2823588848114014,0.15166103839874268,-0.11919385194778442,-0.2352672815322876,-0.8038146806120889,-1.071212380940802,-1.0921661529475464,-0.6091501116752625,0.7200085520744324,-0.3324512243270874,1.9578899145126343,-0.44485852122306824,0.5624291896820068
2.302271842956543,0.1282440423965454,0.3142300248146057,-0.0516049861907959,-0.7953890376183109,-1.0348656181299172,-1.0391931143776418,-0.6018617153167725,0.714136004447937,-0.3574526309967041,2.20589280128479,-0.1195741593837738,0.5247193574905396
2.322239875793457,0.3514243960380554,0.13509565591812134,0.1228744387626648,-0.7836607053123411,-0.9976400391426821,-0.9732921300650539,-0.595137894153595,0.7058771252632141,-0.38412022590637207,2.1602118015289307,-0.6343821287155151,0.925911009311676
2.34199595451355,0.12295889854431152,-0.0006301999092102051,0.2316662073135376,-0.7764042464749847,-0.9639354247351296,-0.9082096436578342,-0.5860480070114136,0.7007185816764832,-0.406867653131485,2.016911268234253,-0.5230076909065247,0.9472352862358093
2.3622539043426514,0.10631299018859863,0.3267592787742615,0.186792254447937,-0.7678678327325877,-0.9341994668835881,-0.849244840736345,-0.5784810781478882,0.6946029663085938,-0.4276522696018219,1.977197527885437,-0.7132810950279236,0.9135414958000183
2.381938934326172,0.27853459119796753,0.21474534273147583,0.1703951060771942,-0.7615649266930421,-0.9095261188840221,-0.7892020990727192,-0.5711982250213623,0.6900548934936523,-0.4444734752178192,1.7881221771240234,-0.9365501403808594,1.174681544303894
2.4014840126037598,0.19071513414382935,0.12603706121444702,0.15457949042320251,-0.7593238157549326,-0.8920707712996022,-0.7361333782892531,-0.5645555257797241,0.6884311437606812,-0.45534548163414,1.4107407331466675,-0.9423092603683472,1.031270146369934
2.4209089279174805,0.18944770097732544,0.124209463596344,0.1059907078742981,-0.7568186252727581,-0.876936835244659,-0.6881220026246163,-0.55892413854599,0.6866120100021362,-0.4649384617805481,1.5216385126113892,-0.8839621543884277,0.9923431277275085
2.4407269954681396,0.23134469985961914,0.13985848426818848,0.07561624050140381,-0.7515933995269581,-0.8623838796179767,-0.6398296173885619,-0.5548158884048462,0.682803750038147,-0.4753507077693939,1.5193666219711304,-0.9668835401535034,0.861451268196106
2.462721824645996,0.21639692783355713,0.11139500141143799,0.09369778633117676,-0.7448765159886985,-0.8489926313076401,-0.5932257582126332,-0.551831066608429,0.6778810620307922,-0.48575708270072937,1.4976762533187866,-0.9102464318275452,0.8303884863853455
2.482430934906006,0.19732218980789185,0.13470977544784546,0.12009251117706299,-0.7369363503365495,-0.838492211480775,-0.5499974262635889,-0.5506854057312012,0.6720223426818848,-0.4951077699661255,1.4436802864074707,-0.923676073551178,0.7394998669624329
2.501842975616455,0.15150761604309082,0.15909820795059204,0.13161331415176392,-0.728574991980126,-0.82793755023212,-0.5076564132440601,-0.5495485067367554,0.6658070683479309,-0.5046753883361816,1.3854427337646484,-0.8947266340255737,0.6918345093727112
2.5216739177703857,0.11275434494018555,0.15451323986053467,0.16422444581985474,-0.7201700702688311,-0.8214605682243521,-0.4711106675110119,-0.5503460168838501,0.6595125198364258,-0.5120180249214172,1.1974083185195923,-0.8827928900718689,0.5856689810752869
2.540566921234131,0.13237273693084717,0.11893206834793091,0.16104573011398315,-0.7138712935428175,-0.8202492849642278,-0.4406527646013225,-0.5527524948120117,0.654764711856842,-0.5155074000358582,0.8795552849769592,-1.032383680343628,0.49589595198631287
2.5606329441070557,0.11083745956420898,0.14500802755355835,0.13715660572052002,-0.7108487983497943,-0.8265880374147941,-0.41738732077141194,-0.5574623346328735,0.6524772047996521,-0.5133315324783325,0.6497266888618469,-1.1119682788848877,0.5009832382202148
2.581468105316162,0.03376108407974243,0.22529751062393188,0.03804439306259155,-0.7103686314522916,-0.8340951984639475,-0.3955458298055634,-0.5615322589874268,0.6521132588386536,-0.5093425512313843,0.6185638904571533,-1.0346169471740723,0.5923072695732117
2.6014628410339355,0.015609502792358398,0.1526593565940857,-0.04481327533721924,-0.7122906035283803,-0.8379240206043893,-0.3712885442762809,-0.562545657157898,0.6535691618919373,-0.5063493251800537,0.6146076917648315,-0.9311263561248779,0.7769067287445068
2.621229887008667,0.06130969524383545,0.0319022536277771,-0.0743715763092041,-0.7165915519703442,-0.8366322698681159,-0.3432109534579486,-0.5597991943359375,0.6568183302879333,-0.5051877498626709,0.7078344225883484,-0.8138852715492249,0.9348520636558533
2.64017391204834,0.0866549015045166,-0.06424832344055176,-0.07072007656097412,-0.7207743355924516,-0.8309211690431274,-0.31087184233778176,-0.5548709630966187,0.6599666476249695,-0.5065198540687561,0.7886456251144409,-0.7325453162193298,0.9918845891952515
2.66131591796875,0.07290536165237427,-0.1374427080154419,-0.010706424713134766,-0.723964857107331,-0.8232203605448247,-0.2790012118412864,-0.5494070053100586,0.6623603105545044,-0.5093436241149902,0.7623140215873718,-0.677902340888977,0.8011642694473267
2.6799819469451904,0.058196961879730225,-0.2379799485206604,-0.008830368518829346,-0.7250611661713112,-0.8177486119703623,-0.2507007338787314,-0.54608154296875,0.6631812453269958,-0.5118452310562134,0.7087728381156921,-0.6757924556732178,0.7116358280181885
2.7010750770568848,0.015244841575622559,-0.22363978624343872,-0.019603610038757324,-0.7240872727266652,-0.815315994647714,-0.22686885510963142,-0.5453047752380371,0.662451982498169,-0.5136147737503052,0.6561284065246582,-0.6564655303955078,0.4487689733505249
2.720736026763916,-0.006020903587341309,-0.1925932765007019,-0.03926897048950195,-0.7202914232062092,-0.8157492768618486,-0.20854880778428897,-0.547354519367218,0.6596037149429321,-0.515097975730896,0.6104234457015991,-0.5988128185272217,0.24175599217414856
2.740032911300659,0.03380179405212402,-0.19689619541168213,-0.03827345371246338,-0.7149441983030714,-0.8169884273527331,-0.19359853471223168,-0.5505560636520386,0.6555752754211426,-0.5168259143829346,0.5641595125198364,-0.5389479994773865,0.13765113055706024
2.7601537704467773,0.07204002141952515,-0.1886562705039978,-0.04211348295211792,-0.7087370294964376,-0.8197011503261218,-0.18086395261740218,-0.5549197793006897,0.650875449180603,-0.5180976390838623,0.6036881804466248,-0.553313136100769,0.08534562587738037
2.7803878784179688,0.12047189474105835,-0.1855694055557251,-0.017229318618774414,-0.700519237109584,-0.820199732594395,-0.16588628123764487,-0.5590706467628479,0.6446147561073303,-0.5214515924453735,0.798676073551178,-0.46982094645500183,0.10165313631296158
2.799975872039795,0.16946321725845337,-0.17028450965881348,-0.02191448211669922,-0.6905671549447572,-0.8185777170836495,-0.14819061979818027,-0.5628807544708252,0.6369745135307312,-0.5267151594161987,0.8583463430404663,-0.5253586769104004,0.0832287147641182
2.8203868865966797,0.24111568927764893,-0.19231802225112915,0.0005183219909667969,-0.6809063594542414,-0.8176030761661169,-0.13037264930853662,-0.5668299794197083,0.6294975280761719,-0.5314477682113647,0.8311234712600708,-0.5380361080169678,0.1686220020055771
2.8407020568847656,0.27184969186782837,-0.20698285102844238,-0.06385618448257446,-0.6716924743995932,-0.8188141891027789,-0.11229248625999001,-0.5716850161552429,0.6223117113113403,-0.5347002744674683,0.8121447563171387,-0.6995043158531189,0.10608593374490738
2.8606910705566406,0.2999225854873657,-0.20027434825897217,-0.08341330289840698,-0.6624929960053946,-0.8252208445652609,-0.0972643213677293,-0.5792805552482605,0.6150844097137451,-0.5348879098892212,0.693595826625824,-0.9209532737731934,-0.025308895856142044
2.880587100982666,0.32228344678878784,-0.21825480461120605,-0.06629270315170288,-0.6515159143878356,-0.8397516127433218,-0.0871185213895588,-0.5919826030731201,0.606392502784729,-0.5308904051780701,0.6487533450126648,-1.095742106437683,-0.17661052942276
2.9002649784088135,0.3472706079483032,-0.222073495388031,-0.027692735195159912,-0.6426850637311665,-0.8566074217904813,-0.07909458462963093,-0.6048696041107178,0.599346935749054,-0.524324357509613,0.4035651683807373,-1.0819880962371826,-0.09334035217761993
2.920609951019287,0.33291035890579224,-0.22805964946746826,-0.07177579402923584,-0.637744035437752,-0.875449066924471,-0.07413353981266066,-0.6169071197509766,0.595384418964386,-0.5147261619567871,0.20965717732906342,-1.1367114782333374,-0.017324624583125114
2.9403347969055176,0.3589969873428345,-0.15776067972183228,-0.09519028663635254,-0.6344791305919757,-0.897599732704374,-0.0703425796738238,-0.6296727657318115,0.5927581191062927,-0.5021453499794006,0.353190541267395,-1.315891146659851,-0.04619559645652771
2.9606709480285645,0.3918960690498352,-0.08022791147232056,-0.050563037395477295,-0.6272951386261456,-0.9192654043242979,-0.061440327040226984,-0.6437730193138123,0.5869569778442383,-0.49095603823661804,0.7075114250183105,-1.3784085512161255,-0.11009644716978073
2.980093002319336,0.40368711948394775,-0.03710019588470459,-0.04330611228942871,-0.612812952110752,-0.9379896023918834,-0.04575225943144204,-0.6596381664276123,0.5751708149909973,-0.4837934076786041,1.140241265296936,-1.4218236207962036,-0.2967238426208496
2.999990940093994,0.42242008447647095,-0.06445086002349854,-0.005849599838256836,-0.5919509232973295,-0.9550403046110668,-0.02572264267112876,-0.677440345287323,0.5579810738563538,-0.4793035089969635,1.4081507921218872,-1.415206789970398,-0.39368313550949097
3.019981861114502,0.4519222378730774,-0.1298365592956543,0.13144105672836304,-0.5705916628263524,-0.97075495842034,-0.0023038753397434286,-0.6945676207542419,0.540130078792572,-0.4752214848995209,1.4157735109329224,-1.4190452098846436,-0.18105733394622803
3.0400209426879883,0.4225812554359436,-0.13357430696487427,0.19853252172470093,-0.5535494075263399,-0.9864977615870493,0.01971217283348001,-0.7095382213592529,0.525709867477417,-0.4692385792732239,1.0764293670654297,-1.4177154302597046,-0.30512169003486633
3.0599799156188965,0.37272143363952637,-0.16510260105133057,0.18151772022247314,-0.536245918628195,-1.0070301146665417,0.034532618921418234,-0.7266034483909607,0.5109124779701233,-0.4593649208545685,0.9354810118675232,-1.4070453643798828,-0.45713603496551514
3.080373764038086,0.3553592562675476,-0.10077700018882751,0.22441232204437256,-0.5166796365840676,-1.0290769671662352,0.04594953010678351,-0.7449772953987122,0.49399593472480774,-0.4483043849468231,0.946872889995575,-1.3749167919158936,-0.672166645526886
3.1003661155700684,0.32012706995010376,-0.07340902090072632,0.22546494007110596,-0.49538594383719625,-1.052770980690153,0.05376036746990069,-0.7643563151359558,0.47537124156951904,-0.435639351606369,0.7009263634681702,-1.443703055381775,-0.8118337988853455
3.119986057281494,0.24969226121902466,-0.0746203362941742,0.25135719776153564,-0.476513648868883,-1.081634614393607,0.055122535061054925,-0.7843908667564392,0.4586839973926544,-0.4175405502319336,0.3200135827064514,-1.4535902738571167,-0.7987234592437744
3.1400070190429688,0.09959399700164795,0.09598943591117859,0.19355207681655884,-0.45608122981460775,-1.1099060265220737,0.05369981181818482,-0.8041077852249146,0.4404332935810089,-0.3992862105369568,0.603145956993103,-1.345914363861084,-1.1068073511123657
3.159964084625244,0.03373640775680542,0.23082765936851501,0.13063699007034302,-0.42641772777000436,-1.1337454049482079,0.05872517898697744,-0.824874222278595,0.4136119782924652,-0.3853670656681061,1.0529979467391968,-1.320184588432312,-1.396254062652588
3.179980993270874,0.04448997974395752,0.1777350902557373,0.16616103053092957,-0.3906092560691535,-1.1573943769786146,0.06722571387825241,-0.8467820882797241,0.3807518482208252,-0.3714678883552551,1.1163160800933838,-1.3347421884536743,-1.501545786857605
3.200079917907715,0.030504822731018066,0.16077741980552673,0.16026893258094788,-0.3548796437055732,-1.179742149702446,0.07703649157275821,-0.8669001460075378,0.347477525472641,-0.35741230845451355,1.0921258926391602,-1.2996777296066284,-1.4517539739608765
3.220065116882324,0.0074201226234436035,0.18054279685020447,0.1947563886642456,-0.3198635194460229,-1.2014383140833629,0.08810320227276419,-0.8852583765983582,0.31443700194358826,-0.34270545840263367,1.203567624092102,-1.246085524559021,-1.4403786659240723
3.2399818897247314,-0.04499506950378418,0.2627800703048706,0.18961623311042786,-0.2813846858010188,-1.2230558265050808,0.10344377151143892,-0.9031708836555481,0.27768614888191223,-0.32737237215042114,1.579840064048767,-1.4121414422988892,-1.679023265838623
3.2599809169769287,-0.16659200191497803,0.293773889541626,0.17259865999221802,-0.23725419748293344,-1.2469656404017642,0.12393430129201263,-0.921466588973999,0.23503462970256805,-0.3092867434024811,1.6185271739959717,-1.467475175857544,-1.8526991605758667
3.279979944229126,-0.3255903720855713,0.1973034143447876,0.2575967013835907,-0.19204311630108978,-1.27006936920455,0.13701630820389157,-0.9375627040863037,0.19086484611034393,-0.290769100189209,0.9139439463615417,-1.0726264715194702,-2.0165414810180664
3.299983024597168,-0.36729687452316284,0.10749666392803192,0.33694326877593994,-0.1504246618735582,-1.2874838452279291,0.13612936284077012,-0.9492926001548767,0.1498580127954483,-0.2763809561729431,0.30000928044319153,-0.7390244007110596,-1.9991135597229004
3.3199920654296875,-0.3638978600502014,0.2515103220939636,0.3101695477962494,-0.11036207496056026,-1.3039315084376617,0.13114561102520977,-0.9587341547012329,0.1101381778717041,-0.26210424304008484,0.4671621024608612,-0.8960040807723999,-2.03072190284729
3.340001106262207,-0.486350417137146,0.47865918278694153,0.24578770995140076,-0.06796287274582896,-1.3211357256623244,0.13450001438491685,-0.9667592644691467,0.0679105669260025,-0.24650469422340393,0.8684441447257996,-0.8033826947212219,-1.9578635692596436
3.360015869140625,-0.6140652894973755,0.4402863681316376,0.31381744146347046,-0.029841283112823854,-1.3310763128961853,0.13748104032718864,-0.9709720015525818,0.029836853966116905,-0.23732493817806244,0.19988134503364563,-0.14190015196800232,-1.5604978799819946
3.3799920082092285,-0.5129842162132263,0.3159867525100708,0.4240715503692627,-0.010627763486822383,-1.3274842034704681,0.12698870668520265,-0.9704905152320862,0.01062756311148405,-0.24090489745140076,-0.6848719716072083,0.49822530150413513,-0.537346363067627
3.4004759788513184,-0.32575589418411255,0.4232402443885803,0.5001081824302673,-0.011803282677753265,-1.3133816370967897,0.11075150343249872,-0.9669840335845947,0.011803008615970612,-0.2545635402202606,-0.8043978810310364,0.9375902414321899,0.17363859713077545
3.4200189113616943,-0.135431706905365,0.4670403301715851,0.5810708999633789,-0.02118139534298124,-1.2942269121833152,0.10278296369354824,-0.9617820382118225,0.021179812029004097,-0.27299579977989197,-0.074154794216156,0.8420730233192444,0.42190778255462646
3.440058946609497,-0.08721780776977539,0.2997730076313019,0.4677096903324127,-0.024554943044657444,-1.2824318992239647,0.1125883246591419,-0.9584212899208069,0.024552475661039352,-0.284298837184906,0.8861678838729858,0.2936318516731262,0.13456277549266815
3.4599790573120117,-0.1444261074066162,0.18105417490005493,0.5148574113845825,-0.0190354105190195,-1.279029421775892,0.1333778926822435,-0.9575636982917786,0.019034260883927345,-0.2875928282737732,1.163703203201294,0.036540426313877106,-0.05464726686477661
3.480246067047119,-0.18887025117874146,0.022206328809261322,0.5739978551864624,-0.012934957318395248,-1.2798897700155694,0.15170973677353045,-0.9579042196273804,0.01293459627777338,-0.28679683804512024,0.5987311005592346,-0.06823765486478806,0.04237008094787598
3.5000369548797607,-0.14284127950668335,-0.023442143574357033,0.5918324589729309,-0.015126614907995576,-1.2788002553113427,0.1551739044455266,-0.9575616121292114,0.01512603834271431,-0.28783145546913147,-0.2668668031692505,0.19424723088741302,0.24926939606666565
3.520059108734131,-0.0008403658866882324,0.09015203267335892,0.379182368516922,-0.02265806613263127,-1.2742797937961563,0.14990025451619213,-0.9561145901679993,0.02265612781047821,-0.2921155095100403,-0.26877766847610474,0.11345286667346954,0.27725276350975037
3.5399739742279053,0.10313242673873901,0.2713119387626648,0.1118185818195343,-0.02774855272980257,-1.2774305778135318,0.15314789496450631,-0.9569074511528015,0.027744991704821587,-0.2890644669532776,0.5018343329429626,-0.3787032961845398,0.3029961884021759
3.559997081756592,-0.07633072137832642,0.28294211626052856,0.017657548189163208,-0.02739448679476876,-1.2861116875550693,0.17129606173691284,-0.9593901038169861,0.027391061186790466,-0.2807493805885315,1.1197174787521362,-0.41341572999954224,0.12004696577787399
3.5799918174743652,-0.272743821144104,0.14663125574588776,0.2287168800830841,-0.024284773663519155,-1.2883929986016054,0.19053760804151662,-0.960105299949646,0.024282386526465416,-0.2785824239253998,0.7438541054725647,0.04339717701077461,0.17392568290233612
3.6000449657440186,-0.1908740997314453,0.025929125025868416,0.3878471553325653,-0.02810589381160327,-1.2875570012342445,0.20095418862797296,-0.9597759246826172,0.028102193027734756,-0.279356986284256,0.147377148270607,0.03694380447268486,0.5080966949462891
3.620076894760132,-0.20928817987442017,-0.025075461715459824,0.3080059289932251,-0.039123473989038184,-1.285515817128608,0.2069306013148567,-0.9588484764099121,0.039113495498895645,-0.2812112867832184,0.32911571860313416,0.08569207787513733,0.6043136715888977
3.6399898529052734,-0.37334591150283813,-0.010395005345344543,0.075071781873703,-0.044635242737880616,-1.2815710184557194,0.22001917225877599,-0.9575105905532837,0.04462042450904846,-0.28492575883865356,0.7194293141365051,0.2728886008262634,0.24095307290554047
3.6600329875946045,-0.37721699476242065,-0.110123410820961,0.0712435245513916,-0.04567085084247168,-1.2753820939093226,0.23341166095056412,-0.9556840658187866,0.04565497487783432,-0.2908325791358948,0.38097816705703735,0.2766813039779663,0.3467051684856415
3.6800670623779297,-0.3993648290634155,-0.26492995023727417,0.08288499712944031,-0.056158131337170056,-1.2724554626757762,0.23946025092439813,-0.9543185830116272,0.056128617376089096,-0.2934713661670685,-0.2751225233078003,0.029379626736044884,0.9016749262809753
3.700049877166748,-0.4612782597541809,-0.17761534452438354,0.16916364431381226,-0.07549889721804096,-1.2774488674728854,0.2343578281893718,-0.9545543193817139,0.07542718946933746,-0.28833457827568054,-0.46642088890075684,-0.5277411341667175,0.6312448382377625
3.7199819087982178,-0.5707578063011169,-0.08560419827699661,0.2669922113418579,-0.08668925933778152,-1.2880165392092995,0.23934143368453414,-0.9566775560379028,0.08658072352409363,-0.2779783308506012,0.6580221652984619,-0.6361086368560791,0.6573255658149719
3.7399919033050537,-0.6219855546951294,-0.06133924424648285,0.27234911918640137,-0.09200177208754579,-1.3028137959648594,0.261307757702992,-0.9602288603782654,0.09187203645706177,-0.26366668939590454,1.1991251707077026,-0.871914267539978,0.5082011818885803
3.759990930557251,-0.5878527760505676,-0.07925638556480408,0.21429318189620972,-0.10074320041019065,-1.3167856998057141,0.2876759666937879,-0.9630048871040344,0.10057287663221359,-0.2500138282775879,1.1228519678115845,-0.8155902624130249,0.9985350966453552
3.7799830436706543,-0.6578447222709656,-0.04360485076904297,0.049567967653274536,-0.11888157320089139,-1.3244893296686704,0.3118465019320604,-0.9629743099212646,0.11860174685716629,-0.24210312962532043,0.7299209237098694,-0.2349361777305603,1.2876073122024536
3.799981117248535,-0.7077684998512268,-0.011387899518013,-0.05979457497596741,-0.14445815732439168,-1.3243386979609826,0.3333819976289657,-0.9596816897392273,0.143956258893013,-0.24142901599407196,0.6915269494056702,0.04119625315070152,1.8015977144241333
3.82007098197937,-0.6915646195411682,0.12176859378814697,0.049739137291908264,-0.18300791905170252,-1.3216357172308308,0.3553783757165855,-0.9529361128807068,0.18198807537555695,-0.24247267842292786,0.4569166302680969,-0.07710447162389755,2.345454692840576
3.8399839401245117,-0.8156768083572388,0.10677948594093323,0.20853622257709503,-0.23166717693587865,-1.3183700023074438,0.372769149546018,-0.9424408674240112,0.2296004742383957,-0.2430819422006607,-0.10050186514854431,0.17889685928821564,2.7924551963806152
3.8599820137023926,-0.9212062954902649,-0.010956674814224243,0.2367328405380249,-0.29063525664432394,-1.3119489469552794,0.3804653917971647,-0.9261448383331299,0.28656089305877686,-0.24523179233074188,-0.6776717305183411,0.14084969460964203,3.048125743865967
3.8799939155578613,-0.8172606229782104,-0.031081587076187134,0.18204444646835327,-0.3541909979200875,-1.309529797419535,0.3794755529641493,-0.9060975909233093,0.34683167934417725,-0.24227070808410645,-0.9146508574485779,0.07974319905042648,3.0801703929901123
3.8999810218811035,-0.806712806224823,0.0304185152053833,0.05479276180267334,-0.4165184637161504,-1.3126034040618926,0.3776105626669537,-0.884190022945404,0.4045790433883667,-0.2335035353899002,-0.8691148161888123,-0.21329568326473236,2.9004619121551514
3.919981002807617,-0.7609155774116516,0.01910218596458435,0.07780435681343079,-0.47786738459859723,-1.3159974235050893,0.3764054514614111,-0.8593086004257202,0.4598865211009979,-0.22381554543972015,-0.8965979218482971,-0.09114136546850204,3.0023763179779053
3.940004825592041,-0.7937255501747131,0.0015245676040649414,0.017291396856307983,-0.5392470578696611,-1.3187559357658454,0.372519503303199,-0.8309845328330994,0.5134900212287903,-0.21399220824241638,-0.9549780488014221,-0.09678274393081665,2.868974447250366
3.959993839263916,-0.617222249507904,0.05094701051712036,-0.011522054672241211,-0.5981473586978379,-1.3258992232159423,0.36558488797123084,-0.8017231225967407,0.5631124377250671,-0.20036131143569946,-1.0282632112503052,-0.21617500483989716,2.7554783821105957
3.9799928665161133,-0.5201770663261414,-0.0010846853256225586,-0.01487092673778534,-0.6565444491749373,-1.3346436115899836,0.35826198983944346,-0.7701213955879211,0.6103833317756653,-0.18532419204711914,-0.9229199290275574,-0.22933022677898407,2.7176735401153564
3.999998092651367,-0.4635395407676697,-0.04267030954360962,-0.03307412564754486,-0.7106412185016027,-1.342652565620817,0.3522632369191445,-0.7383037209510803,0.6523199081420898,-0.17142394185066223,-0.8429898023605347,-0.21599408984184265,2.4998605251312256
4.020040035247803,-0.33211249113082886,-0.1401788592338562,-0.05437411367893219,-0.7604128959962099,-1.3539014093105592,0.34238938850141926,-0.7075757384300232,0.689220666885376,-0.1559223234653473,-0.935358464717865,-0.2584957480430603,2.2019834518432617
4.039981842041016,-0.22626054286956787,-0.2869241237640381,-0.05144155025482178,-0.804636854522594,-1.3699878844124627,0.32611563609478905,-0.6794402003288269,0.7205789089202881,-0.1383012980222702,-1.1832038164138794,-0.14371013641357422,1.8941781520843506
4.059982776641846,-0.12731927633285522,-0.3994174003601074,-0.07035606354475021,-0.8427081653172181,-1.3939055052418021,0.29938392735777664,-0.6550599336624146,0.7464479804039001,-0.11709798872470856,-1.320644736289978,-0.2292436808347702,1.5276930332183838
4.07997989654541,-0.01780879497528076,-0.4033724069595337,-0.08202475309371948,-0.8748257975964052,-1.4213631466003664,0.2678204317284597,-0.6339857578277588,0.7674318552017212,-0.0954500362277031,-1.1723625659942627,-0.18036578595638275,1.2706174850463867
4.100009918212891,-0.006332039833068848,-0.36992233991622925,-0.17630332708358765,-0.8994874217694749,-1.4461791656006686,0.2401030160619803,-0.6171878576278687,0.7830081582069397,-0.07731281965970993,-1.019116997718811,-0.15235058963298798,0.9475139379501343
4.119986057281494,-0.032666146755218506,-0.4466972351074219,-0.11640948057174683,-0.9165873042508468,-1.4764008430216067,0.2025245017815475,-0.6058226823806763,0.7935295104980469,-0.057357389479875565,-1.4604597091674805,0.15188096463680267,0.5464453101158142
4.139995098114014,0.0415114164352417,-0.5202971696853638,-0.13097000122070312,-0.927025704101323,-1.5110252792510628,0.1512900824165769,-0.5991439819335938,0.7998382449150085,-0.035854171961545944,-1.6356123685836792,0.4233255088329315,0.2853485643863678
4.159985065460205,0.20613467693328857,-0.42517387866973877,-0.20731240510940552,-0.9324857840939438,-1.5452982778659463,0.09972281548523851,-0.5956459045410156,0.8031035661697388,-0.015191100537776947,-1.4224153757095337,0.273395836353302,0.17055708169937134
4.179980993270874,0.2779794931411743,-0.4172630310058594,-0.21577346324920654,-0.9371242449024467,-1.5769282849082058,0.053474405328127396,-0.5920971035957336,0.8058586716651917,0.0036307598929852247,-1.336588740348816,0.2744944989681244,0.24342598021030426
4.1999828815460205,0.20854198932647705,-0.43955284357070923,-0.2374807596206665,-0.9414868997421855,-1.6050376408769527,0.01098794534187501,-0.5882418155670166,0.8084341883659363,0.020150048658251762,-1.1953767538070679,0.39711424708366394,0.2857328951358795
4.219989776611328,0.17752492427825928,-0.3262525796890259,-0.22004735469818115,-0.9468664136128667,-1.6294130349508735,-0.03216313722549781,-0.5832256078720093,0.8115887641906738,0.03422597050666809,-1.3510675430297852,0.6421307325363159,0.3812106251716614
4.239980936050415,0.21998381614685059,-0.3805443048477173,-0.19068801403045654,-0.9532433116826482,-1.6658305161459053,-0.0981947786368155,-0.5764293074607849,0.8152977824211121,0.05494600534439087,-3.9954121112823486,1.362486481666565,0.46400102972984314
4.260067939758301,-0.04630100727081299,-1.2136040925979614,-0.4986445903778076,-0.9326537798894647,-1.759834187604183,-0.2345144527196543,-0.5850925445556641,0.8032036423683167,0.11194124072790146,-2.505333423614502,0.6395488977432251,-1.094588279724121
4.2799859046936035,0.12096047401428223,-0.8127241134643555,-0.34280574321746826,-0.927673995428021,-1.7711877792403063,-0.2879932880395199,-0.5876964330673218,0.8002272248268127,0.11937149614095688,-1.4607421159744263,2.439089775085449,1.3164314031600952
4.299989938735962,-0.08003354072570801,-0.23153895139694214,-0.7825015783309937,-0.9282961595745487,-1.7436492982071101,-0.29772505824978135,-0.590269923210144,0.8006001710891724,0.1030583530664444,0.4965035617351532,1.3342149257659912,-1.0570719242095947
4.320027828216553,0.17632430791854858,-0.26187247037887573,-0.4583345651626587,-0.9074472587685133,-1.6996996403655822,-0.2765012624117311,-0.6106505990028381,0.787934422492981,0.07915377616882324,0.54599529504776,1.3782156705856323,-0.8798561096191406
4.3399810791015625,0.23354727029800415,-0.4128909707069397,-0.2783486843109131,-0.8941085412487494,-1.6659915677691308,-0.26615664390935545,-0.6233789324760437,0.7796511650085449,0.05952261760830879,-0.13763581216335297,1.1891282796859741,-0.6287914514541626
4.36001992225647,0.221424400806427,-0.5182945132255554,-0.09087061882019043,-0.8804264771395839,-1.6464962128622207,-0.27660309339442996,-0.6349987387657166,0.7710105180740356,0.04816136136651039,-0.5222141146659851,1.5395947694778442,-0.504144549369812
4.379993915557861,0.24595510959625244,-0.3365898132324219,-0.23756003379821777,-0.873834923425978,-1.6297304466048554,-0.29465669840716896,-0.6407763957977295,0.7667961716651917,0.03780737519264221,-0.6531312465667725,1.5045430660247803,-0.20980438590049744
4.4000489711761475,0.23531800508499146,-0.37414664030075073,-0.31708383560180664,-0.8657514604826788,-1.6230527708602207,-0.32510480812516374,-0.647183358669281,0.7615824937820435,0.03385031968355179,-1.897821068763733,1.6354624032974243,-0.5430310368537903
4.419984817504883,0.1459115743637085,-0.7102319002151489,-0.3934537172317505,-0.8432939842107914,-1.6435833359735326,-0.3945200995396575,-0.663245677947998,0.7468376755714417,0.04836110398173332,-2.110872983932495,1.5541797876358032,-1.0398222208023071
4.439981937408447,0.1752612590789795,-0.6157875061035156,-0.4816642999649048,-0.8301621715893265,-1.6393552535015425,-0.4359486636780249,-0.6731708645820618,0.7380408048629761,0.04622431844472885,-0.7037036418914795,2.04624342918396,-0.3528726100921631
4.460000991821289,0.04326498508453369,-0.2611234188079834,-0.46853411197662354,-0.8106662782564061,-1.6053254434782258,-0.44813528421070986,-0.6886050701141357,0.7247464060783386,0.023786379024386406,-0.47637686133384705,2.1951162815093994,-1.552648663520813
4.479983806610107,0.13024550676345825,-0.6091956496238708,-0.3079349994659424,-0.7790372598345497,-1.5700852090474888,-0.4626844288845062,-0.7115902900695801,0.7025946974754333,-0.0005060245748609304,-0.5859477519989014,2.363110065460205,-1.3582953214645386
4.499950885772705,0.12728601694107056,-0.6629655957221985,-0.23890483379364014,-0.7533465766394476,-1.5408952160932594,-0.48867320658249647,-0.7290774583816528,0.6840835809707642,-0.02180672436952591,-1.208544373512268,2.375710964202881,-1.503854751586914
4.520116806030273,0.07258868217468262,-0.5522336959838867,-0.19788414239883423,-0.7203603198775461,-1.5207812478549692,-0.5304255537806198,-0.7506284713745117,0.6596555113792419,-0.037574078887701035,-1.723012089729309,2.4004149436950684,-1.7979373931884766
4.5399839878082275,0.15166479349136353,-0.46393847465515137,-0.20374125242233276,-0.6868496809928115,-1.50826773377658,-0.5805865696584598,-0.7717362642288208,0.6341043710708618,-0.04831857234239578,-1.821054458618164,2.193089723587036,-1.7793102264404297
4.559374809265137,0.09732967615127563,-0.2652793526649475,-0.21663498878479004,-0.6532787029193947,-1.490609446705302,-0.6233817704680785,-0.7915436625480652,0.6077932715415955,-0.06360781192779541,-1.3251512050628662,2.262800455093384,-1.7549164295196533
4.579991817474365,0.049179911613464355,-0.11627572774887085,-0.19899940490722656,-0.6191287509318724,-1.46446507328348,-0.6579255472062401,-0.8097848296165466,0.5803258419036865,-0.08643142133951187,-1.1873348951339722,2.3472867012023926,-1.945497751235962
4.600001811981201,0.14287954568862915,-0.1401645541191101,-0.1641274094581604,-0.5854737103249343,-1.4417380891528488,-0.6965767810937062,-0.8265191912651062,0.5525942444801331,-0.10726530849933624,-1.6307454109191895,2.059427261352539,-1.7180386781692505
4.619982957839966,0.14870858192443848,-0.12250137329101562,-0.07044892758131027,-0.5573983008122979,-1.4259607930532965,-0.7401343320862366,-0.8397486805915833,0.5289800763130188,-0.12248310446739197,-1.466848611831665,2.0137882232666016,-1.5833488702774048
4.639980792999268,0.043631672859191895,0.08404660224914551,-0.010970056056976318,-0.5294214213855487,-1.397254069322316,-0.7694432167517268,-0.850135087966919,0.5050340294837952,-0.14903351664543152,-0.4387073814868927,2.370255947113037,-1.6055012941360474
4.660024881362915,0.1519680619239807,0.19166797399520874,0.044842734932899475,-0.4973105132366935,-1.3516801058010792,-0.7749171835823027,-0.857854962348938,0.4770635664463043,-0.191037118434906,0.39292702078819275,2.312479257583618,-1.6405375003814697
4.679996013641357,0.3202992081642151,0.08574557304382324,0.046535685658454895,-0.4627091696706236,-1.3155158615768652,-0.7773267068222243,-0.8658467531204224,0.4463740289211273,-0.22596375644207,0.1350560039281845,1.4468101263046265,-1.7601937055587769
4.699981927871704,0.2742845416069031,0.031655699014663696,0.1279449611902237,-0.4291332324393488,-1.2942001342012264,-0.7880216549322092,-0.8747637271881104,0.4160827696323395,-0.24832148849964142,-0.15709441900253296,1.1830198764801025,-1.7453495264053345
4.720005989074707,0.14630991220474243,0.1798323690891266,0.18006440997123718,-0.3956564954459717,-1.2773893538864436,-0.803785060384634,-0.8833094239234924,0.3854140341281891,-0.2668715715408325,-0.29124587774276733,1.1176351308822632,-1.916744589805603
4.739980936050415,0.048834145069122314,0.2292076051235199,0.12043502926826477,-0.35851666017677336,-1.2641541497275923,-0.8189058108791161,-0.8927367329597473,0.3508855998516083,-0.28266641497612,0.08249470591545105,0.8033036589622498,-2.0096352100372314
4.759980916976929,-0.09424573183059692,0.36834558844566345,0.1217009425163269,-0.317937656643007,-1.253679377536762,-0.8291916935277253,-0.9025195240974426,0.3126082420349121,-0.29620039463043213,0.11154317855834961,0.6181948781013489,-2.226299285888672
4.779983997344971,-0.18537652492523193,0.28824320435523987,0.26597291231155396,-0.2754690656177641,-1.2476606655354376,-0.8458015926817116,-0.9124934673309326,0.2719983458518982,-0.30556946992874146,-0.24731972813606262,0.4300810694694519,-2.248140811920166
4.799983978271484,-0.25977665185928345,0.29613739252090454,0.36834976077079773,-0.2358588471219456,-1.2454765073909784,-0.8654117884216291,-0.9213148355484009,0.23367814719676971,-0.3107631206512451,-0.19735117256641388,0.30034491419792175,-2.1798274517059326
4.819983005523682,-0.44113004207611084,0.3422755300998688,0.39834073185920715,-0.19395700701068933,-1.2445027291982595,-0.8826009714447672,-0.9294754266738892,0.1927431970834732,-0.3145241141319275,-0.008381787687540054,0.1167416051030159,-2.4224493503570557
4.840007781982422,-0.5951038599014282,0.3863365054130554,0.38034313917160034,-0.14426888053728743,-1.2458558607330008,-0.8926449074403293,-0.9378246665000916,0.14376895129680634,-0.31593576073646545,0.6221829056739807,-0.09018050134181976,-2.566699266433716
4.85998010635376,-0.7004393935203552,0.46121296286582947,0.3841700255870819,-0.08958105931381008,-1.2498408382678183,-0.8947858365216464,-0.94512939453125,0.0894612967967987,-0.31420841813087463,0.7822095155715942,-0.2698429524898529,-2.6400012969970703
4.8799920082092285,-0.6612440943717957,0.34681129455566406,0.6699695587158203,-0.04158247468151856,-1.2515442553887846,-0.9032719099158546,-0.9486497640609741,0.04157049208879471,-0.31358522176742554,-0.07228662818670273,0.13436125218868256,-2.1132283210754395
4.89998197555542,-0.5899724364280701,0.19737228751182556,0.6060065031051636,-0.012543038206656715,-1.246284758003748,-0.9233624316660489,-0.9477320909500122,0.012542709708213806,-0.3188208341598511,-0.793816328048706,0.39532557129859924,-1.4042961597442627
4.919981956481934,-0.40748322010040283,0.40830695629119873,0.38586005568504333,0.005444606681605047,-1.2367361635508491,-0.9403591747491613,-0.9447048902511597,-0.005444579757750034,-0.32787656784057617,-0.025598885491490364,0.35442981123924255,-0.7721761465072632
4.939981937408447,-0.16126757860183716,0.6460415720939636,0.03998759388923645,0.019944442480914926,-1.2339261147888567,-0.9302619314892592,-0.9436060786247253,-0.0199431199580431,-0.3304691016674042,1.392690658569336,0.16033968329429626,-0.2490314543247223
4.959981918334961,-0.04404032230377197,0.5954355597496033,0.13772332668304443,0.029445714364094155,-1.2303931432514388,-0.8967291045556535,-0.9422115683555603,-0.029441459104418755,-0.33372244238853455,1.9674880504608154,0.2398630976676941,0.3786781132221222
4.9800028800964355,-0.22196686267852783,0.17429253458976746,0.293152391910553,0.03446798713678579,-1.223164576284659,-0.8582608366952567,-0.9396237730979919,-0.034461162984371185,-0.3404698669910431,1.7351863384246826,0.5352340340614319,0.34548714756965637
4.999980926513672,-0.4238917827606201,0.028618309646844864,0.441135436296463,0.038149216917867185,-1.2093046599530837,-0.8298209980684685,-0.9346897602081299,-0.03813996538519859,-0.35341256856918335,0.9839264154434204,0.9733181595802307,0.3950328528881073
5.019981861114502,-0.44689279794692993,0.17845569550991058,0.3539470434188843,0.031870075971135205,-1.1971179728229557,-0.8074527333606561,-0.9305181503295898,-0.03186468034982681,-0.3648570477962494,1.081362247467041,0.19763006269931793,0.8422589302062988
5.039982795715332,-0.2936846613883972,0.39190909266471863,0.49185988306999207,0.024510583101510844,-1.1948661133002254,-0.7790291857548082,-0.9298871159553528,-0.024508129805326462,-0.3670276701450348,1.1422096490859985,0.0919693261384964,0.9449080228805542
5.059231996536255,-0.36531513929367065,0.2978813648223877,0.3202826678752899,0.019669274226138896,-1.2050195551433531,-0.7502677334832204,-0.9336655735969543,-0.019668005406856537,-0.35760560631752014,1.3006291389465332,-0.7243117094039917,0.6190025210380554
5.080007076263428,-0.33893609046936035,0.3503022789955139,0.523758053779602,0.0115575799984651,-1.2160592799170056,-0.7178209379152223,-0.9376752376556396,-0.011557322926819324,-0.3473205864429474,1.645813226699829,-0.45030397176742554,1.3493139743804932
5.100010871887207,-0.44084596633911133,0.4426952004432678,0.5901553630828857,-0.0011065308164979993,-1.2237465008230286,-0.6713159109314938,-0.9403796195983887,0.001106530544348061,-0.34012478590011597,2.434945583343506,-0.3262690007686615,1.321811318397522
5.119992971420288,-0.4519449472427368,0.39307862520217896,0.5337984561920166,-0.005541839954643887,-1.2352126587247594,-0.6127971061426836,-0.9442037343978882,0.0055418116971850395,-0.32931527495384216,2.8954203128814697,-1.0201795101165771,1.0299187898635864
5.139980792999268,-0.38464194536209106,0.20636457204818726,0.5647287964820862,-0.005305239115335402,-1.2596902752775403,-0.5488352478818763,-0.9519822597503662,0.005305214319378138,-0.3061074912548065,3.0734946727752686,-1.3470489978790283,1.0708621740341187
5.159975051879883,-0.49390965700149536,0.206896111369133,0.5659319758415222,-0.010160194308065676,-1.2860677804104967,-0.4824540800503592,-0.9596884250640869,0.010160019621253014,-0.28088244795799255,3.0058934688568115,-1.2635259628295898,1.3757200241088867
5.180032968521118,-0.575693666934967,0.22705267369747162,0.501980185508728,-0.02589502303865617,-1.307740658703336,-0.4214950561111674,-0.9652762413024902,0.02589212916791439,-0.2599451541900635,2.3715953826904297,-0.9780276417732239,1.8290446996688843
5.1999897956848145,-0.6148163080215454,0.18448026478290558,0.3541404604911804,-0.05654704853664947,-1.3240445350551733,-0.3730505014527568,-0.9681610465049744,0.056516919285058975,-0.24386504292488098,1.5257318019866943,-0.7605953812599182,2.311652660369873
5.21999192237854,-0.7477695941925049,0.11449086666107178,0.2833125591278076,-0.10112008083546262,-1.3351415522928876,-0.3402802149425824,-0.9673946499824524,0.10094784200191498,-0.23228704929351807,0.6229329705238342,-0.5702863931655884,2.6418867111206055
5.239980936050415,-0.7465065717697144,0.10955555737018585,0.2428649216890335,-0.15186108185328123,-1.3441465401617216,-0.3190751036133256,-0.9632102251052856,0.1512780636548996,-0.22212806344032288,0.39686301350593567,-0.6611969470977783,2.829166889190674
5.259982109069824,-0.6599769592285156,0.17189647257328033,0.24489960074424744,-0.2075193060110346,-1.3550177658048985,-0.2994603074175477,-0.9558524489402771,0.20603306591510773,-0.2095143049955368,0.3857330083847046,-0.7170321941375732,2.9833450317382812
5.280038833618164,-0.712535560131073,0.11575517058372498,0.16136586666107178,-0.261213320067939,-1.3644918658422123,-0.2760820308524798,-0.945591390132904,0.258252888917923,-0.19789528846740723,0.6855582594871521,-0.6508268117904663,2.7878661155700684
5.299983978271484,-0.7242797613143921,0.015188485383987427,0.07516646385192871,-0.3124408417305315,-1.3711651596188483,-0.2531946926478541,-0.932687520980835,0.3073822259902954,-0.18870700895786285,0.3685504198074341,-0.7849718928337097,2.6045496463775635
5.319983005523682,-0.6793079376220703,-0.23990726470947266,0.04606617987155914,-0.36262477990921604,-1.383706907263499,-0.24568774697813014,-0.9186535477638245,0.3547295331954956,-0.17390413582324982,-0.6625151634216309,-0.6051374077796936,2.589184045791626
5.3400208950042725,-0.6500278115272522,-0.3302668035030365,-0.001974150538444519,-0.41720040985232804,-1.398999456540595,-0.2575927099206031,-0.9007686972618103,0.40520259737968445,-0.15628987550735474,-1.333709478378296,-0.39414846897125244,2.5444583892822266
5.359982013702393,-0.5544394850730896,-0.17596465349197388,-0.06780242919921875,-0.47038783265701917,-1.415608032406806,-0.2797056750686918,-0.88068026304245,0.4532320201396942,-0.1377791166305542,-1.3192377090454102,-0.42972642183303833,2.3533031940460205
5.380007982254028,-0.4224023222923279,-0.05571436882019043,-0.18761688470840454,-0.5185193286187018,-1.4331853704800384,-0.29635439382819845,-0.8603430986404419,0.49559465050697327,-0.11914566904306412,-0.8533828854560852,-0.5443949699401855,2.2006566524505615
5.399984836578369,-0.39786654710769653,-0.032800137996673584,-0.2160387486219406,-0.5611307149665933,-1.4484308743650351,-0.3043710029798249,-0.8403231501579285,0.5321438908576965,-0.10334283113479614,-0.4858624041080475,-0.47539326548576355,1.9875125885009766
5.4200239181518555,-0.36878639459609985,-0.1219286322593689,-0.17231422662734985,-0.6018925031071518,-1.459062463523254,-0.3090135566352055,-0.8191256523132324,0.5662034153938293,-0.09190686047077179,-0.40765973925590515,-0.3305681645870209,2.0356040000915527
5.439990043640137,-0.3089149594306946,-0.1995619535446167,-0.1966438889503479,-0.6437470136741154,-1.4697886098684732,-0.31608146395686637,-0.795775830745697,0.6001967191696167,-0.08065398037433624,-0.5119536519050598,-0.4496443271636963,1.9961031675338745
5.459997892379761,-0.2624291777610779,-0.20408838987350464,-0.18177366256713867,-0.6833513218189516,-1.4833528149880386,-0.32400911074655514,-0.7724982500076294,0.6313953995704651,-0.06772265583276749,-0.37381425499916077,-0.485004186630249,1.8842605352401733
5.479986906051636,-0.26380932331085205,-0.16266125440597534,-0.21628302335739136,-0.7181895506818018,-1.4942518641875047,-0.32490673708171064,-0.75079345703125,0.6580224633216858,-0.0575815811753273,-0.0652284249663353,-0.4675847887992859,1.6276448965072632
5.500067949295044,-0.24010193347930908,-0.16310536861419678,-0.18530982732772827,-0.7485284723975393,-1.5027995930785603,-0.32279416370791664,-0.7309980392456055,0.6805613040924072,-0.04978222772479057,0.028864357620477676,-0.506279468536377,1.4315080642700195
5.519990921020508,-0.179517924785614,-0.17549878358840942,-0.15960514545440674,-0.7759806027292426,-1.5107904885816197,-0.32035748153065435,-0.7124499678611755,0.7004163265228271,-0.04280254244804382,-0.03493383526802063,-0.519332766532898,1.3172260522842407
5.539981842041016,-0.1499650478363037,-0.1715482473373413,-0.1699918508529663,-0.8003489221559349,-1.5216692304415058,-0.32104751704707424,-0.6956160664558411,0.7175991535186768,-0.03420111536979675,-0.1922159045934677,-0.4084714949131012,1.1904062032699585
5.559063911437988,-0.11340564489364624,-0.1408144235610962,-0.21394509077072144,-0.824192722307961,-1.5347532544556552,-0.3272510274640616,-0.6787087321281433,0.7339997887611389,-0.024473346769809723,-0.17971813678741455,-0.49854394793510437,1.1293418407440186
5.580007076263428,-0.040016770362854004,-0.03160238265991211,-0.20381426811218262,-0.8464048305096248,-1.5420601738404722,-0.32574774624603386,-0.6624065041542053,0.7489027976989746,-0.01904025487601757,0.22360262274742126,-0.4122040867805481,1.06357741355896
5.5999839305877686,0.03006434440612793,-0.029720723628997803,-0.21640533208847046,-0.8647560005706675,-1.540791634014275,-0.3115235501059811,-0.6485336422920227,0.760936975479126,-0.019464895129203796,0.5165207982063293,-0.48196566104888916,0.8807147741317749
5.619991779327393,0.1162717342376709,-0.12161344289779663,-0.182914137840271,-0.8834056391042545,-1.5374713971669998,-0.2939993787634529,-0.634170413017273,0.7729043364524841,-0.02114151231944561,0.5115324258804321,-0.5145339369773865,1.0421782732009888
5.639981985092163,0.09531813859939575,-0.11500674486160278,-0.20155948400497437,-0.9045289751732264,-1.5362606519851205,-0.27887012931811817,-0.6176877617835999,0.7861341238021851,-0.02134074829518795,0.5025819540023804,-0.56739342212677,1.031866431236267
5.66001296043396,0.045309484004974365,-0.06268686056137085,-0.17576515674591064,-0.92491973549569,-1.530120796104404,-0.26067955349433153,-0.6014009118080139,0.7985724806785583,-0.02447579987347126,0.5962775349617004,-0.2982650697231293,1.009353756904602
5.679977893829346,0.07520788908004761,-0.09828454256057739,-0.19849759340286255,-0.9427226832173072,-1.512561279013688,-0.2325374002992728,-0.5865910053253174,0.8091608881950378,-0.0341988243162632,0.9720872044563293,-0.24818095564842224,0.8885812759399414
5.699920892715454,0.1812329888343811,-0.11624908447265625,-0.15184426307678223,-0.9582981733130578,-1.4885931820132667,-0.19649009603463055,-0.5729719996452332,0.8182143568992615,-0.04720647633075714,0.9106714725494385,-0.2622913718223572,0.8113642930984497
5.719947814941406,0.16980624198913574,-0.258101224899292,-0.1355326771736145,-0.9713565383344805,-1.4702671529811215,-0.16791617881643373,-0.5613316297531128,0.8256518244743347,-0.05662107095122337,0.7035984992980957,-0.24739818274974823,0.6675546169281006
5.740071773529053,0.19188785552978516,-0.22265058755874634,-0.14483767747879028,-0.9819519654080965,-1.4482075040041835,-0.13769249960552024,-0.5512324571609497,0.8315830826759338,-0.06791549175977707,0.8544484972953796,-0.03728630393743515,0.4696407616138458
5.759994029998779,0.21637332439422607,-0.17575979232788086,-0.1855509877204895,-0.9834361655385614,-1.415769159491061,-0.09661600388372617,-0.5475196838378906,0.8324064612388611,-0.08556701987981796,1.3932138681411743,-0.2070208340883255,0.21690283715724945
5.779980897903442,0.24754434823989868,-0.17873138189315796,-0.1724076271057129,-0.985331633683197,-1.3724186707056574,-0.0405929641951574,-0.541749119758606,0.8334553837776184,-0.10890326648950577,1.4278830289840698,-0.05050153285264969,0.282181978225708
5.799985885620117,0.16732662916183472,-0.28078198432922363,-0.09441423416137695,-0.9824658304479658,-1.3368480524549744,0.0007807129647157732,-0.5398548245429993,0.8318683505058289,-0.1286538690328598,0.9835246205329895,0.12155500799417496,-0.027030449360609055
5.8199989795684814,0.1681920289993286,-0.23003160953521729,-0.13655763864517212,-0.9770172839731048,-1.3014967214555266,0.03589848606728217,-0.5393316745758057,0.82883220911026,-0.14885783195495605,1.0889424085617065,0.47887736558914185,-0.04391481727361679
5.840009927749634,0.2169780135154724,-0.18712443113327026,-0.111630380153656,-0.9664106806421641,-1.256665432913461,0.07578721735342762,-0.5404492020606995,0.8228513598442078,-0.17558564245700836,1.3714909553527832,0.7059166431427002,-0.3251657485961914
5.859468936920166,0.27863186597824097,-0.22212553024291992,-0.05466115474700928,-0.9496123932784003,-1.2089096705282114,0.11523442122565546,-0.544302761554718,0.8131899833679199,-0.2060503512620926,1.246272325515747,0.8245125412940979,-0.49777036905288696
5.879981994628906,0.3422803282737732,-0.2761147618293762,0.07031270861625671,-0.9321338673544892,-1.1722570899782458,0.1386395064110591,-0.549403190612793,0.8028938174247742,-0.2313385307788849,0.6460239291191101,0.929300844669342,-0.5711861848831177
5.900036811828613,0.39550209045410156,-0.2779842019081116,0.09954823553562164,-0.9190037597123694,-1.1499839039239033,0.14607509344323075,-0.5536900162696838,0.7949976921081543,-0.2478025108575821,0.35668447613716125,0.7461118698120117,-0.44520795345306396
5.919981956481934,0.43258607387542725,-0.07570338249206543,0.09191754460334778,-0.9090402047251421,-1.127296132345612,0.1552759353611364,-0.555053174495697,0.7889143228530884,-0.26368555426597595,0.6561627984046936,0.7239450812339783,-0.24550051987171173
5.939979076385498,0.4153784513473511,-0.008292555809020996,0.07475516200065613,-0.8973372866703097,-1.0964367256852499,0.17744593632759664,-0.5548285841941833,0.7816689610481262,-0.2848837375640869,1.0408580303192139,0.680695116519928,-0.21402478218078613
5.960041046142578,0.4120061993598938,-0.10236996412277222,0.11630833148956299,-0.8847741877578749,-1.0643853505049075,0.2018725941308744,-0.5539588928222656,0.7737719416618347,-0.30725669860839844,0.8432062864303589,0.6159584522247314,-0.15431353449821472
5.980114936828613,0.427707314491272,-0.23661088943481445,0.12867018580436707,-0.8762339279168884,-1.0410648903904423,0.21815863814599418,-0.5523259043693542,0.7683338522911072,-0.32341793179512024,0.563762903213501,0.44307780265808105,-0.10146794468164444
5.999981880187988,0.40294545888900757,-0.20457613468170166,0.0758698582649231,-0.869433216685784,-1.024704547162436,0.23100880632199727,-0.5514136552810669,0.7639633417129517,-0.33511653542518616,0.5247647762298584,0.18577615916728973,-0.09221980720758438
6.019333839416504,0.31180232763290405,-0.14431333541870117,0.05680882930755615,-0.8629225117235356,-1.0113868769176189,0.245584378623767,-0.5511060357093811,0.7597460746765137,-0.3450624644756317,0.6409082412719727,0.0653262659907341,0.04379691183567047
6.040011882781982,0.199782133102417,-0.13991236686706543,0.004033982753753662,-0.8604052857721264,-0.9960767885670246,0.26486416452781614,-0.547362208366394,0.7581069469451904,-0.35449767112731934,0.5360657572746277,-0.08035414665937424,0.3129020929336548
6.059322834014893,0.09959965944290161,-0.11014330387115479,-0.03804787993431091,-0.8609447056698868,-0.9848865263421632,0.2831022205886472,-0.5430201888084412,0.7584586143493652,-0.36037421226501465,0.37311840057373047,-0.17678961157798767,0.40957438945770264
6.080018043518066,-0.02563256025314331,-0.009739935398101807,-0.18143609166145325,-0.8623499784322403,-0.973825044682742,0.30449308035285394,-0.5381187200546265,0.759373664855957,-0.3657591640949249,0.7258078455924988,-0.3065735101699829,0.45895782113075256
6.099930763244629,-0.1310930848121643,0.04932159185409546,-0.217433899641037,-0.8607413267988111,-0.958807435849291,0.33572347230199856,-0.5335646271705627,0.7583260536193848,-0.3745001554489136,1.196754813194275,-0.5527352094650269,0.6848905682563782
6.119991779327393,-0.2562049627304077,-0.12934798002243042,-0.2768821120262146,-0.8578037086107883,-0.9361604274207421,0.37599871193939804,-0.5267388224601746,0.7564077973365784,-0.3878058195114136,1.1128268241882324,-0.1983744353055954,0.3975719213485718
6.140030860900879,-0.34733277559280396,-0.33457911014556885,-0.24718481302261353,-0.8455735839730653,-0.9132054701379005,0.4077651348855984,-0.5249817967414856,0.7483516931533813,-0.40541818737983704,1.3910216093063354,0.06527974456548691,-0.05280790105462074
6.159933090209961,-0.20458173751831055,-0.22396457195281982,-0.21213972568511963,-0.8228307239799446,-0.8877276256026984,0.44072327846700315,-0.5275503396987915,0.7330740690231323,-0.42929381132125854,1.7435723543167114,-0.017171628773212433,-0.3709331750869751
6.179932117462158,-0.03999662399291992,-0.17754411697387695,-0.09109470248222351,-0.7858423057928198,-0.8721049436483308,0.46793721444570285,-0.5411801934242249,0.7074207663536072,-0.45462048053741455,1.912168025970459,-0.5032504796981812,-1.4832342863082886
6.200008869171143,0.24592721462249756,-0.3164735436439514,0.25740981101989746,-0.7335160886014438,-0.8773332834994778,0.4825627234661863,-0.5712599158287048,0.6694856286048889,-0.47481685876846313,2.2644612789154053,-0.3691813349723816,-1.0310001373291016
6.219947814941406,0.37453925609588623,-0.6875817775726318,0.42124122381210327,-0.703614724134157,-0.860739004370775,0.5076043354885165,-0.5782289505004883,0.6469781398773193,-0.49706199765205383,0.7905970215797424,0.12542688846588135,-0.5311395525932312
6.23994779586792,0.2612576484680176,-0.4534633755683899,0.06030350923538208,-0.6760735939390885,-0.867303582998899,0.504911839164151,-0.5948454141616821,0.6257351040840149,-0.5045934915542603,1.4161697626113892,-0.32533901929855347,-1.4581552743911743
6.2600178718566895,0.4668363332748413,0.14768493175506592,0.0036247968673706055,-0.6228826989706869,-0.860486349125386,0.5176939006700426,-0.6157774925231934,0.5833789110183716,-0.5296103954315186,2.6416468620300293,0.008715628646314144,-1.967735767364502
6.279989957809448,0.8253459334373474,-0.43681830167770386,0.13679099082946777,-0.5618470855244252,-0.8653484478089342,0.5261612093601209,-0.6442852020263672,0.5327502489089966,-0.548701822757721,1.6424919366836548,-1.13193678855896,-2.072970390319824
6.299893856048584,1.1073675155639648,-0.5411674976348877,0.2923595905303955,-0.517248925276047,-0.898644694876804,0.5304386434695201,-0.6801214218139648,0.4944908320903778,-0.5412149429321289,1.7630373239517212,-2.2411394119262695,-1.0911778211593628
6.319982051849365,0.6266220808029175,-0.14892151951789856,0.2675626277923584,-0.48157574675078035,-0.9369542525166074,0.5484652000507638,-0.714116096496582,0.46317628026008606,-0.5248866081237793,1.5588301420211792,-2.266357898712158,-0.8560577630996704
6.34002685546875,0.09409701824188232,-0.11578109860420227,0.19729536771774292,-0.4560913078737749,-0.9714740357943225,0.5658652122953864,-0.7413138747215271,0.4404423236846924,-0.5064229369163513,0.8536055684089661,-2.012852668762207,-0.27268198132514954
6.359991073608398,-0.28729408979415894,0.0009129643440246582,-0.03917032480239868,-0.4477858345101425,-1.0166741360836082,0.5666221265014951,-0.7665237784385681,0.43297073245048523,-0.474318265914917,0.04866274818778038,-2.470783233642578,-0.39802366495132446
6.379991054534912,-0.7437983751296997,0.3790754973888397,-0.26937562227249146,-0.4349050737371073,-1.057279451811278,0.5721645540479814,-0.7899389266967773,0.42132431268692017,-0.4455137550830841,1.1336764097213745,-1.8212652206420898,-0.6509572267532349
6.39998197555542,-0.7891142964363098,0.4964591860771179,-0.21690356731414795,-0.4014439294836354,-1.0830280385985585,0.5921926879102092,-0.81315016746521,0.39074787497520447,-0.4313964247703552,1.9002923965454102,-1.5911120176315308,-1.1660128831863403
6.420013904571533,-0.40044093132019043,-0.009408265352249146,-0.0739438533782959,-0.36906320164273987,-1.1030126402585168,0.6213090057539132,-0.8324692249298096,0.36074188351631165,-0.4205474853515625,1.8646265268325806,-1.515154242515564,-0.48703309893608093
6.439985990524292,-0.4831863045692444,-0.20853331685066223,0.0658767819404602,-0.3490140436648363,-1.1207963330826567,0.6458573753388713,-0.8461594581604004,0.3419714570045471,-0.40874162316322327,1.0939797163009644,-1.0450546741485596,-0.3483198583126068
6.460011005401611,-0.6476317644119263,-0.092989981174469,-0.02969592809677124,-0.33752121309480654,-1.1287677913213274,0.6604982026445035,-0.8528870940208435,0.3311491906642914,-0.40363824367523193,0.63786381483078,-0.26833561062812805,-0.1361858993768692
6.480005979537964,-0.6170473694801331,-0.1838093400001526,-0.14884614944458008,-0.33199496191786726,-1.1266155010498142,0.6684548033505925,-0.8536557555198669,0.3259297013282776,-0.4062531292438507,0.1206727847456932,0.16917729377746582,0.018284542486071587
6.500003814697266,-0.4757588505744934,-0.41532808542251587,-0.009466111660003662,-0.336498569677579,-1.120519394803428,0.6657841362017127,-0.8498332500457764,0.33018407225608826,-0.4108065664768219,-0.49041077494621277,0.5707932710647583,0.2699553370475769
6.519979953765869,-0.40262824296951294,-0.48874926567077637,0.09346550703048706,-0.34872556069289706,-1.1092737921065599,0.6550724245983118,-0.8414819836616516,0.34170034527778625,-0.4185080826282501,-0.9299851059913635,0.8644317388534546,0.37697985768318176
6.539982795715332,-0.27695268392562866,-0.4596838057041168,0.054151833057403564,-0.3649478886461265,-1.0971616250717777,0.6396798905777634,-0.8313085436820984,0.3569006025791168,-0.42608463764190674,-1.0473926067352295,0.8527853488922119,0.4316675662994385
6.560021877288818,-0.19021469354629517,-0.34207457304000854,-0.01172366738319397,-0.3819816105514715,-1.0867015464540097,0.6253065079578476,-0.8213057518005371,0.37275999784469604,-0.4318644106388092,-0.9075160622596741,0.7384858131408691,0.4383789598941803
6.579988956451416,-0.16431134939193726,-0.18308845162391663,-0.0737873911857605,-0.3958283519385039,-1.0760826959338643,0.6155243752678319,-0.8120529055595398,0.385572612285614,-0.43806853890419006,-0.5846976041793823,0.6818434596061707,0.33209818601608276
6.599979877471924,-0.06934630870819092,-0.07022738456726074,-0.09113883972167969,-0.4039378797467094,-1.0659278787024324,0.609328804553957,-0.8047992587089539,0.39304235577583313,-0.4447649419307709,-0.34359481930732727,0.570767343044281,0.17237602174282074
6.620017051696777,0.07891631126403809,-0.056413620710372925,-0.12633520364761353,-0.40816830517300917,-1.0581931927930999,0.6049289845240013,-0.7998789548873901,0.3969287872314453,-0.45015692710876465,-0.20091061294078827,0.3686584532260895,-0.005175412632524967
6.640010833740234,0.1585308313369751,-0.030041426420211792,-0.17852598428726196,-0.40904411755580516,-1.0533812225825945,0.6015544847101684,-0.7974011898040771,0.3977324962615967,-0.4538286030292511,-0.10527695715427399,0.2542639672756195,-0.08496256917715073
6.659984111785889,0.18284618854522705,-0.12466150522232056,-0.19866594672203064,-0.4084291888776386,-1.0499499501519591,0.5979423237709923,-0.7960511445999146,0.39716821908950806,-0.45668357610702515,-0.20890064537525177,0.2537992298603058,-0.09461412578821182
6.680028915405273,0.17440450191497803,-0.17198356986045837,-0.2106902003288269,-0.4099144717227871,-1.0480260625594648,0.5911055936444416,-0.7946591973304749,0.39853090047836304,-0.45791929960250854,-0.4345286786556244,0.1864313930273056,-0.0973905622959137
6.700031995773315,0.14509421586990356,-0.08551684021949768,-0.3054223656654358,-0.41238328292764326,-1.050236779563431,0.5806031066431078,-0.7948135137557983,0.4007939398288727,-0.45567062497138977,-0.4736423194408417,-0.017025509849190712,-0.21143729984760284
6.720008850097656,0.11610054969787598,-0.021142780780792236,-0.37347549200057983,-0.41330252941715945,-1.0547042681840844,0.5738250684103755,-0.7965205311775208,0.4016359746456146,-0.45193326473236084,-0.18143849074840546,-0.15243756771087646,-0.014870326034724712
6.740065097808838,-0.020387887954711914,-0.015372872352600098,-0.3470008969306946,-0.41403346588382955,-1.0578147211730484,0.5717490571912522,-0.7976664304733276,0.4023052453994751,-0.4493093490600586,-0.09190317988395691,-0.008148306049406528,0.006644016597419977
6.759994983673096,-0.0910826325416565,0.05274629592895508,-0.30097609758377075,-0.41411250875273853,-1.0560097271256499,0.5718454270398179,-0.7968264222145081,0.4023776054382324,-0.4507327079772949,0.14574450254440308,0.16461965441703796,0.09792738407850266
6.780036926269531,-0.04497683048248291,0.2037385106086731,-0.2533021569252014,-0.4155559879890015,-1.050037790294355,0.5774521062819297,-0.7936158180236816,0.4036986529827118,-0.45519378781318665,0.057345323264598846,0.09108249843120575,0.020421383902430534
6.800187110900879,-0.05894821882247925,0.17893213033676147,-0.1292504370212555,-0.41450064320892016,-1.045072915687602,0.5815684156393894,-0.791714072227478,0.4027329087257385,-0.4593418836593628,0.33186784386634827,0.1727997213602066,0.38166701793670654
6.820252895355225,-0.018273472785949707,0.21607285737991333,0.012564778327941895,-0.42050908381407376,-1.0391663141207785,0.5905143190830326,-0.7868871688842773,0.40822523832321167,-0.46277520060539246,-0.04327749088406563,0.00033093226375058293,0.37389659881591797
6.840094089508057,-0.11186438798904419,0.3719721734523773,0.06753718852996826,-0.4237036511280125,-1.0363451889902822,0.5976693556447195,-0.7844521999359131,0.4111393988132477,-0.4643265902996063,0.4643058180809021,0.007552715018391609,0.4279134273529053
6.860069990158081,-0.08715164661407471,0.3743443787097931,0.11576402187347412,-0.4249013549774914,-1.0312178412592117,0.6116982108309803,-0.7816380262374878,0.412230908870697,-0.4680892527103424,0.5693694353103638,-0.1054038405418396,0.2776332199573517
6.880011081695557,-0.018125176429748535,0.2390442192554474,0.1152753233909607,-0.42718091083279763,-1.0265271927116897,0.6277741992462973,-0.7786279916763306,0.4143067002296448,-0.47126275300979614,0.5319598913192749,-0.10705695301294327,0.6571794152259827
6.899972915649414,-0.054889976978302,0.2357439398765564,0.07553750276565552,-0.4342553448356206,-1.020263618622679,0.6433301020599156,-0.7731435894966125,0.4207349717617035,-0.4745852053165436,0.23364095389842987,0.11746785044670105,0.6624102592468262
6.9284467697143555,0.007110774517059326,0.09466615319252014,-0.0005829930305480957,-0.44387565236828636,-0.9932003946286676,0.6752735112585351,-0.7565920948982239,0.42944276332855225,-0.4930996894836426,0.47517478466033936,0.4900183379650116,0.5639099478721619
6.948312997817993,0.10178714990615845,-0.06863653659820557,0.09897291660308838,-0.44980116856476465,-0.976358325751736,0.689096502698777,-0.7460591197013855,0.43478649854660034,-0.5043377876281738,0.25022265315055847,0.5522588491439819,0.6128886342048645
6.968081951141357,0.16488373279571533,-0.10472118854522705,0.176396906375885,-0.4573695259501867,-0.9607815108814441,0.6995369019484659,-0.7353947162628174,0.4415895342826843,-0.5139974355697632,0.13882847130298615,0.5764153003692627,0.5447173118591309
6.988200902938843,0.19437295198440552,-0.11795684695243835,0.2016018033027649,-0.464941722738754,-0.9443930531332808,0.7092485317250155,-0.7241429686546326,0.44837072491645813,-0.5240045785903931,0.12144362926483154,0.6005275845527649,0.5583212971687317
7.007096767425537,0.19398999214172363,-0.15204903483390808,0.20189058780670166,-0.4722146813402382,-0.9282432039663919,0.7182533727223613,-0.7129567265510559,0.4548597037792206,-0.5336622595787048,0.05215909332036972,0.5940885543823242,0.5134584903717041
7.0290141105651855,0.18572884798049927,-0.12000370025634766,0.1703764796257019,-0.47873440257942007,-0.9147989880320508,0.7246489299750548,-0.7033528685569763,0.46065622568130493,-0.5413785576820374,0.007179035805165768,0.4327245056629181,0.3580608665943146
7.047347068786621,0.17783701419830322,-0.11722221970558167,0.14844906330108643,-0.4843420444522872,-0.9055452370595607,0.7285453608682607,-0.696269690990448,0.46562618017196655,-0.5462607741355896,-0.07483331859111786,0.34543001651763916,0.31241706013679504
7.068259954452515,0.1221228837966919,-0.08301308751106262,0.11241358518600464,-0.49080272557763366,-0.8976743942980812,0.7298395349593169,-0.6895820498466492,0.4713340103626251,-0.549837052822113,-0.25391310453414917,0.3861786723136902,0.22760620713233948
7.0882368087768555,0.09533560276031494,-0.035777926445007324,0.06104844808578491,-0.49559095674512926,-0.8909039870688009,0.7277438836640495,-0.6840808987617493,0.4755516052246094,-0.5530679821968079,-0.1075163185596466,0.33043238520622253,0.05929524451494217
7.107975006103516,0.13188958168029785,0.04414048790931702,0.0274696946144104,-0.49648379461807923,-0.8856285198689815,0.7282839225719113,-0.6808245778083801,0.476336807012558,-0.5564001202583313,0.024989498779177666,0.2250341773033142,0.08378924429416656
7.127151966094971,0.08613640069961548,0.03504195809364319,0.012010574340820312,-0.4976518009609604,-0.8816532302739605,0.7282012595751239,-0.678177535533905,0.4773634672164917,-0.5587480664253235,-0.0768110603094101,0.17149744927883148,-0.032776325941085815
7.149282932281494,0.04789078235626221,0.061727553606033325,-0.012227475643157959,-0.4988526700144982,-0.8785320416318432,0.7242962394358659,-0.6759884357452393,0.47841835021972656,-0.5604957342147827,-0.293819785118103,0.32420530915260315,-0.06809069961309433
7.167813777923584,0.06857633590698242,-8.00788402557373e-05,-0.11085695028305054,-0.5009325138320088,-0.8768151373329569,0.7170671506608083,-0.6742587685585022,0.4802436828613281,-0.5610179305076599,-0.2533768117427826,0.16597111523151398,-0.19243532419204712
7.187901020050049,0.09429097175598145,0.09512674808502197,-0.12810266017913818,-0.4981082581189722,-0.8770618373192332,0.713470407326021,-0.675437331199646,0.4777645170688629,-0.5617165565490723,-0.08548232167959213,0.06918403506278992,-0.050819721072912216
7.2076568603515625,0.05895030498504639,0.15283146500587463,-0.09317934513092041,-0.49892940447277506,-0.8768090784049482,0.7092814795409351,-0.6749935150146484,0.47848573327064514,-0.5616361498832703,-0.113958440721035,0.05862300097942352,-0.21401582658290863
7.226615905761719,0.0525398850440979,0.2175236940383911,-0.1316867470741272,-0.4965733153786258,-0.8795327023026516,0.7026546510403711,-0.6773873567581177,0.4764155447483063,-0.5605127811431885,-0.10665742307901382,-0.02338593639433384,-0.3547248840332031
7.247395992279053,0.06646740436553955,0.21406233310699463,-0.18542766571044922,-0.49344938562271956,-0.8907466962797719,0.687142471432389,-0.6847841739654541,0.47366657853126526,-0.553814709186554,-1.062859296798706,-0.4585956335067749,-0.8152197599411011
7.267404079437256,0.005043983459472656,0.057253241539001465,-0.2580642104148865,-0.5025093014576609,-0.9256193088126025,0.6414255421850054,-0.7002192139625549,0.48162615299224854,-0.5270003080368042,-2.314985752105713,-0.7002575993537903,-0.6307229399681091
7.287487030029297,-0.2721025347709656,0.2844763696193695,-0.5696781873703003,-0.515732943584026,-0.9470265723399083,0.6109694991195274,-0.706108033657074,0.4931725859642029,-0.5081262588500977,-0.40212875604629517,0.23515728116035461,-0.1898941546678543
7.307298898696899,-0.3876670002937317,0.7644240856170654,-0.30067723989486694,-0.500088131834463,-0.933507561909354,0.6158763111665778,-0.7052896022796631,0.4795028865337372,-0.5221527814865112,1.489898443222046,0.8317817449569702,-0.668840229511261
7.327214956283569,0.004182040691375732,0.18692615628242493,0.0034651756286621094,-0.47080891291392957,-0.8999243370602222,0.6448388811273388,-0.6980603337287903,0.45360735058784485,-0.5540326833724976,2.078679323196411,1.0750164985656738,-0.054964784532785416
7.347273826599121,0.0632486343383789,-0.2598619759082794,0.16720032691955566,-0.45273712153009305,-0.866180408410859,0.6775635519701338,-0.6851054430007935,0.4374285340309143,-0.5824834108352661,1.023493766784668,0.7275359034538269,0.5687931776046753
7.367153882980347,0.020333290100097656,-0.3377697467803955,0.22232818603515625,-0.46450910674779783,-0.8497315379680496,0.6923066039676826,-0.6715174317359924,0.447983980178833,-0.5902326703071594,-0.3984591066837311,0.49483564496040344,0.8291497826576233
7.387046813964844,-0.10490989685058594,-0.17713338136672974,0.1172071099281311,-0.47797897737695827,-0.8395880388246793,0.691752134656664,-0.6609441041946411,0.4599855840206146,-0.592930257320404,-0.4776332974433899,0.47724881768226624,0.27890193462371826
7.406840801239014,-0.0701248049736023,0.17750638723373413,0.10907560586929321,-0.4837846045231073,-0.8298750081358256,0.6936508065539263,-0.6531723737716675,0.46513277292251587,-0.5975092649459839,0.2732279598712921,0.4510527551174164,0.2630442678928375
7.4268529415130615,-0.1000097393989563,0.1407669484615326,0.1760469675064087,-0.48069754310263835,-0.8151349318023492,0.7031990415292674,-0.6453364491462708,0.4623977839946747,-0.6080536842346191,0.3965659737586975,0.5719897150993347,0.0996680036187172
7.44687294960022,-0.08540832996368408,-0.031192392110824585,0.27125340700149536,-0.4802592114878546,-0.7991196519291185,0.7085446521677982,-0.6356611251831055,0.462009072303772,-0.6184517741203308,-0.057825181633234024,0.758535623550415,0.24031637609004974
7.467101097106934,0.05862075090408325,-0.11597087979316711,0.26533401012420654,-0.48921039450948245,-0.7849930526548163,0.7101927862027136,-0.6239132881164551,0.469929039478302,-0.6244189739227295,-0.4044966399669647,0.5254921317100525,0.4873703122138977
7.487403869628906,0.16727995872497559,-0.06560787558555603,0.23259973526000977,-0.5025411555503831,-0.7763392308214134,0.7136009548307312,-0.6140421628952026,0.4816540479660034,-0.6252692937850952,-0.2563989758491516,0.1911742091178894,0.6572043895721436
7.506789922714233,0.10492229461669922,0.03473779559135437,0.139362633228302,-0.5134518631873483,-0.7692689980487764,0.7232741411628806,-0.6059142351150513,0.4911869168281555,-0.6257821917533875,0.017613766714930534,0.0774378776550293,0.6071411371231079
7.526500940322876,0.017055034637451172,-0.016107112169265747,0.11901980638504028,-0.5159791816684979,-0.7626544241470135,0.7324860507028659,-0.6009021997451782,0.49338677525520325,-0.6288767457008362,0.41305336356163025,0.18467573821544647,0.3364318013191223
7.546567916870117,0.08635121583938599,-0.0818726122379303,0.09516489505767822,-0.5167163226235756,-0.7526977311147436,0.7466231841641774,-0.594362199306488,0.4940278232097626,-0.6345629096031189,0.36558157205581665,0.08963311463594437,0.5094149112701416
7.566504001617432,0.10496914386749268,-0.09965541958808899,0.11287057399749756,-0.5188659804201048,-0.7464757514414504,0.7583843448539015,-0.5896799564361572,0.4958956837654114,-0.637467622756958,0.141178160905838,-0.05654522031545639,0.43841996788978577
7.586632966995239,0.11541837453842163,-0.14328241348266602,0.09694397449493408,-0.5247648651811144,-0.7434932528480417,0.7697621077317848,-0.5857859253883362,0.5010095238685608,-0.637059211730957,0.1302776038646698,-0.2182556390762329,0.7228130102157593
7.606173038482666,0.11367499828338623,-0.02175450325012207,0.10891163349151611,-0.5339319068879169,-0.7408016399249974,0.7855721583275435,-0.5809450149536133,0.5089219212532043,-0.6352176666259766,0.08954155445098877,-0.28201520442962646,0.8537794947624207
7.625346899032593,0.07253396511077881,0.0661923885345459,0.11141198873519897,-0.541648167048924,-0.7390317270727895,0.7995747251102896,-0.5771574378013611,0.5155489444732666,-0.6333233714103699,0.28640300035476685,-0.2525884211063385,0.554246723651886
7.646312952041626,0.0789446234703064,0.020886659622192383,0.047875046730041504,-0.5438250247428593,-0.7341874686572226,0.8172747344442626,-0.573329508304596,0.5174129605293274,-0.635277271270752,0.4512958526611328,-0.19790421426296234,0.7709885239601135
7.665404796600342,0.10995304584503174,-0.0778535008430481,0.049612998962402344,-0.5498099350524127,-0.7290359813771419,0.8366295241782176,-0.5679762363433838,0.5225251913070679,-0.6359013319015503,0.20622611045837402,-0.3115381896495819,0.8121459484100342
7.686356067657471,0.07664334774017334,-0.10842365026473999,0.012283027172088623,-0.5597449440654663,-0.7267805021253672,0.8521704166657902,-0.5630631446838379,0.5309700965881348,-0.6332698464393616,-0.07521651685237885,-0.24259302020072937,0.8443383574485779
7.704951763153076,0.056886136531829834,-0.12228620052337646,-0.017352938652038574,-0.5732625761242296,-0.7234098952677374,0.8647375505750772,-0.5561232566833496,0.542375922203064,-0.6297263503074646,-0.2017771452665329,-0.12326885759830475,0.8360850214958191
7.725915908813477,0.1074296236038208,-0.11053866147994995,-0.055145442485809326,-0.5862876135542673,-0.7198953558828827,0.8766914783768195,-0.5492021441459656,0.5532724261283875,-0.6263118982315063,-0.08724486827850342,-0.1862405389547348,0.7944437861442566
7.746020793914795,0.16707611083984375,-0.07715058326721191,-0.028213560581207275,-0.5973721916356465,-0.7160039064466054,0.8907104327608559,-0.5427018404006958,0.5624716877937317,-0.6237791180610657,0.014852361753582954,-0.19744135439395905,0.8134039640426636
7.7647929191589355,0.18341690301895142,-0.09579735994338989,-0.03354823589324951,-0.6080045611273673,-0.7113356974880221,0.9053259712407905,-0.5358492732048035,0.5712307691574097,-0.6217402815818787,-0.04687899351119995,-0.16772136092185974,0.773101806640625
7.785871982574463,0.20013582706451416,-0.14595603942871094,-0.06839019060134888,-0.6176893861743303,-0.707020241233853,0.9195225851172134,-0.5295426249504089,0.5791530609130859,-0.6198115348815918,0.08869246393442154,-0.2290649712085724,0.783456563949585
7.805633068084717,0.22234374284744263,-0.05084407329559326,-0.10044986009597778,-0.6274516407310271,-0.7013259123142477,0.9387129906975094,-0.5223315954208374,0.5870836973190308,-0.6184678077697754,0.18506717681884766,-0.36622142791748047,0.9762287139892578
7.825822830200195,0.1513134241104126,0.15702825784683228,-0.19022083282470703,-0.6342897654373341,-0.6991587029262626,0.9584090364211539,-0.5183942317962646,0.5926055908203125,-0.6165111660957336,0.11642719805240631,-0.5681023597717285,0.5734046697616577
7.8455328941345215,0.04556673765182495,0.19422894716262817,-0.3457379937171936,-0.6456469254725015,-0.7194216299379973,0.9502465139419953,-0.5263102054595947,0.6017152667045593,-0.6007797718048096,-1.4649039506912231,-1.2730764150619507,-0.20815569162368774
7.865735054016113,-0.050051748752593994,0.07843959331512451,-0.478096604347229,-0.6751000061317062,-0.7569134308204652,0.9356455672739604,-0.5360537171363831,0.6249753832817078,-0.5674965381622314,-0.6030899286270142,-0.9633428454399109,1.564626693725586
7.88573694229126,-0.3547442555427551,0.5465385913848877,-0.4599132537841797,-0.6942006811269501,-0.7328045352319298,0.9780933048822258,-0.5141370892524719,0.6397713422775269,-0.571275532245636,0.890298068523407,0.3430301249027252,1.455643892288208
7.90604305267334,-0.2769521474838257,0.684310793876648,-0.14976996183395386,-0.6856929345099622,-0.7046653761675489,1.009667104625211,-0.5013682842254639,0.6332094669342041,-0.5896403193473816,1.6868631839752197,0.5568181276321411,0.1304849088191986
7.925252914428711,0.023363232612609863,0.2128809094429016,-0.05213308334350586,-0.6648459415402084,-0.6761038289976938,1.045780703866381,-0.492479532957077,0.6169378757476807,-0.6138824224472046,1.18537437915802,-0.1320074051618576,0.7360333204269409
7.945466995239258,0.1125015914440155,-0.0013184547424316406,0.19517362117767334,-0.6634269536020765,-0.6699590809868896,1.0705835733197915,-0.48924118280410767,0.6158205270767212,-0.6175824999809265,0.32359084486961365,-0.7569619417190552,0.6670709848403931
7.965260982513428,0.06112271547317505,0.11053109169006348,0.25378161668777466,-0.670843206829536,-0.6758770073138021,1.0893167524398468,-0.4900168180465698,0.6216467022895813,-0.6110965013504028,0.1940661370754242,-0.8932885527610779,0.9668417572975159
7.985612869262695,-0.01728290319442749,0.25566715002059937,0.20768696069717407,-0.6761992623326017,-0.6756909246347739,1.1176290930239425,-0.4878135919570923,0.6258331537246704,-0.6085808873176575,0.7646552920341492,-0.9509061574935913,0.9965032935142517
8.005067825317383,-0.014434725046157837,0.20353716611862183,0.20443081855773926,-0.6716569206508205,-0.6742045045940546,1.15292607226086,-0.48867812752723694,0.6222838759422302,-0.6115198731422424,1.3103822469711304,-1.1082279682159424,0.88723224401474
8.024123907089233,-0.013474881649017334,0.15931040048599243,0.24485206604003906,-0.6600813781200106,-0.6706084056892003,1.1942509901604956,-0.49091973900794983,0.6131811141967773,-0.6188753247261047,1.515916109085083,-1.0805360078811646,0.9191192388534546
8.04531192779541,-0.04622521996498108,0.012805283069610596,0.2828105092048645,-0.6498333508734111,-0.6676380727266509,1.233151218802571,-0.4929441511631012,0.605053722858429,-0.6252328753471375,1.201480746269226,-0.9919836521148682,0.8376345634460449
8.063984870910645,-0.04927334189414978,-0.059490084648132324,0.2881689667701721,-0.6432941124864249,-0.6656819911898632,1.2655510372278211,-0.4941532015800476,0.5998343825340271,-0.6292942762374878,0.9273614883422852,-0.7605673670768738,0.8001288771629333
8.084258079528809,0.001735597848892212,-0.05739372968673706,0.28253257274627686,-0.6389647981955446,-0.663149563249636,1.2930687488339678,-0.4941520392894745,0.5963647961616516,-0.632584273815155,0.8288993835449219,-0.6622386574745178,0.6425542235374451
8.103985786437988,0.05745583772659302,-0.08498120307922363,0.27890968322753906,-0.632781439294204,-0.6621062606695233,1.3164372240861704,-0.4957493245601654,0.5913899540901184,-0.6359956860542297,0.7869093418121338,-0.6246829032897949,0.46684569120407104
8.123908042907715,0.05645483732223511,-0.09771150350570679,0.2521909475326538,-0.6258224015938335,-0.6649110260327807,1.3335744498486792,-0.5000584125518799,0.5857639908790588,-0.6378262042999268,0.6059258580207825,-0.6547551155090332,0.2013862282037735
8.14529299736023,0.07345175743103027,-0.09158092737197876,0.27183210849761963,-0.6193277636289244,-0.6713272952135743,1.3434635036468963,-0.506496250629425,0.5804879069328308,-0.6375698447227478,0.4357368052005768,-0.5530900955200195,0.0470416285097599
8.164954900741577,0.08976209163665771,-0.014155566692352295,0.22436761856079102,-0.6130985756568856,-0.678355922305431,1.3497027372143398,-0.5132240653038025,0.5754044651985168,-0.636797308921814,0.3633975684642792,-0.5328853130340576,-0.05439484119415283
8.184916973114014,0.08005082607269287,0.023540019989013672,0.19750285148620605,-0.6064086956812716,-0.6871882831915019,1.3523210858451136,-0.5212587714195251,0.5699201822280884,-0.635201096534729,0.30393585562705994,-0.4774877727031708,-0.19734112918376923
8.204644918441772,0.06493991613388062,0.05672907829284668,0.16450423002243042,-0.5999777724657628,-0.6960703218521005,1.3518484330774727,-0.5292190909385681,0.5646241307258606,-0.6333456039428711,0.14646296203136444,-0.3971683084964752,-0.24314959347248077
8.224627017974854,0.03493243455886841,0.08154076337814331,0.07530713081359863,-0.5952882823928632,-0.7055108861233823,1.348454973446091,-0.5368855595588684,0.5607474446296692,-0.6303301453590393,0.058210354298353195,-0.3485508859157562,-0.26402029395103455
8.244554996490479,0.024137914180755615,0.14208072423934937,0.0298537015914917,-0.5916155312992567,-0.7130278108640136,1.3446852594739718,-0.5429520606994629,0.5577027201652527,-0.6278302073478699,0.0034599974751472473,-0.18713589012622833,-0.22967930138111115
8.26346492767334,0.023810207843780518,0.12588167190551758,0.03785431385040283,-0.5892390624044925,-0.7181544857770565,1.3393455288531095,-0.5470341444015503,0.555728554725647,-0.6260347366333008,-0.13465516269207,-0.03900475800037384,-0.2377857118844986
8.284389972686768,0.031408727169036865,0.07926821708679199,0.018962085247039795,-0.5893281916500769,-0.722430845085907,1.3317543089750454,-0.5496734976768494,0.5558026432991028,-0.623652458190918,-0.25092342495918274,0.027486298233270645,-0.2608826160430908
8.304222106933594,-0.0029373764991760254,0.12940549850463867,-0.022662878036499023,-0.5883594605565877,-0.7263445018571603,1.3223691784212197,-0.5524673461914062,0.5549970865249634,-0.6218987107276917,-0.16595005989074707,0.11944249272346497,-0.38670963048934937
8.324044942855835,-0.038288772106170654,0.14655768871307373,-0.03205704689025879,-0.5851696059074553,-0.7283867904970881,1.3123856457333267,-0.5549119710922241,0.5523408055305481,-0.6220871210098267,-0.1999569535255432,0.22339189052581787,-0.45079943537712097
