timestamp,acceleration_x,acceleration_y,acceleration_z,attitude_pitch,attitude_roll,attitude_yaw,gravity_x,gravity_y,gravity_z,rotation_x,rotation_y,rotation_z
0.0,0.11874553561210632,-0.047601401805877686,0.03510904312133789,-0.8173696318990072,-0.6785548618677805,-1.451409237304573,-0.42941445112228394,0.7293488383293152,-0.5325912237167358,0.2622721791267395,-0.18417157232761383,0.3851582407951355
0.020050048828125,0.1282057762145996,-0.06854486465454102,0.061898112297058105,-0.8187435569997786,-0.673779062571667,-1.4399850885023033,-0.4262404441833496,0.7302880883216858,-0.5338523983955383,0.1385800838470459,-0.1751403510570526,0.3186643421649933
0.03940296173095703,0.12928250432014465,-0.04703623056411743,0.0637328028678894,-0.8207202981108052,-0.6706793622225975,-1.4308646051310132,-0.42368555068969727,0.7316370606422424,-0.5340390801429749,0.10106711089611053,-0.20222461223602295,0.2841480076313019
0.06005382537841797,0.12351500988006592,-0.014087080955505371,0.05837059020996094,-0.822056390519743,-0.669531483902414,-1.4230980284551304,-0.42246517539024353,0.7325472235679626,-0.5337581038475037,0.1464691311120987,-0.24786950647830963,0.2193058580160141
0.0801389217376709,0.09988930821418762,0.01743084192276001,0.04904770851135254,-0.8216180102397361,-0.6683206890884383,-1.4146673615312686,-0.4220176041126251,0.7322487235069275,-0.534521222114563,0.22554068267345428,-0.24752257764339447,0.20200014114379883
0.10010790824890137,0.06969121098518372,0.04966127872467041,0.04576188325881958,-0.8198217771048867,-0.6675963400920324,-1.406942523942197,-0.4224439561367035,0.7310242056846619,-0.5358588695526123,0.24795860052108765,-0.25116774439811707,0.09802622348070145
0.12002992630004883,0.053221315145492554,0.0668591856956482,0.02938401699066162,-0.8169172851625743,-0.6676132597758305,-1.4002821247692157,-0.42376574873924255,0.7290392518043518,-0.5375168323516846,0.2467540055513382,-0.2364346832036972,0.09180016070604324
0.1400318145751953,0.049325525760650635,0.08140677213668823,0.027096033096313477,-0.8144595808415115,-0.6676151886973928,-1.394262542844355,-0.42487484216690063,0.7273548245429993,-0.5389215350151062,0.20295481383800507,-0.20284458994865417,0.07273387163877487
0.1601119041442871,0.042934924364089966,0.09048080444335938,0.02081197500228882,-0.812312424885551,-0.6675837156873339,-1.3895407745536306,-0.4258236885070801,0.7258796691894531,-0.5401600003242493,0.15626518428325653,-0.1390533596277237,0.048521194607019424
0.1801128387451172,0.052363306283950806,0.09038245677947998,0.01214599609375,-0.8104385676220217,-0.6674361046372973,-1.3860683160041674,-0.4265851080417633,0.724589467048645,-0.5412902235984802,0.15211299061775208,-0.10687296837568283,0.022006969898939133
0.20015478134155273,0.07823255658149719,0.06647354364395142,0.008151352405548096,-0.8084676684736175,-0.6673373380296067,-1.3830670138329781,-0.4274146556854248,0.7232297658920288,-0.5424529910087585,0.13030694425106049,-0.10840952396392822,0.027984650805592537
0.2200307846069336,0.09952321648597717,0.04305344820022583,0.0030885934829711914,-0.8068531421654553,-0.6676174811767972,-1.3801864669806776,-0.4282890558242798,0.722113847732544,-0.5432496070861816,0.12412577122449875,-0.13298587501049042,0.021269425749778748
0.24004292488098145,0.0994056761264801,0.032971322536468506,-0.009155213832855225,-0.8049523068169229,-0.6685052648188385,-1.377407095910163,-0.4296210706233978,0.720797598361969,-0.5439452528953552,0.15642379224300385,-0.1474979668855667,0.014337750151753426
0.2593517303466797,0.09022364020347595,0.03752809762954712,-0.021305501461029053,-0.8045422774304981,-0.6672788282246251,-1.372905092350252,-0.42913657426834106,0.7205133438110352,-0.5447039604187012,0.1790243238210678,-0.0818081796169281,0.06249551475048065
0.28005385398864746,0.08366909623146057,0.025831639766693115,-0.010660052299499512,-0.8039821454792634,-0.6641492862294298,-1.3680624282413028,-0.4276784658432007,0.7201247811317444,-0.5463619232177734,0.17125384509563446,-0.008037818595767021,0.04302379861474037
0.3000979423522949,0.08106902241706848,-0.001015782356262207,-0.011162638664245605,-0.8026739046220004,-0.6602387225432979,-1.3637219514801082,-0.426116019487381,0.7192164659500122,-0.5487738251686096,0.1429215520620346,0.01675754226744175,0.003995449747890234
0.3195199966430664,0.04895654320716858,0.01997464895248413,-0.030790269374847412,-0.8007294224178019,-0.659332111743725,-1.3626305221447794,-0.4264742136001587,0.7178640961647034,-0.5502642393112183,0.08757045120000839,-0.0481191910803318,-0.1653072088956833
0.3393387794494629,-0.02645125985145569,0.08162438869476318,-0.0697932243347168,-0.7977470252863597,-0.6624943556139593,-1.3663755633581118,-0.4295271039009094,0.7157846093177795,-0.5505985021591187,-0.0084092877805233,-0.04740191623568535,-0.32348981499671936
0.36005496978759766,-0.090688556432724,0.16817396879196167,-0.07208287715911865,-0.7939499952263486,-0.6688815068156106,-1.375967874138873,-0.4347173273563385,0.7131279110908508,-0.5499720573425293,-0.10503705590963364,0.09968331456184387,-0.4351739287376404
0.38001298904418945,-0.07373839616775513,0.1721394658088684,-0.026768922805786133,-0.7922345084419974,-0.6737423979519048,-1.3879235369535268,-0.4381481409072876,0.7119242548942566,-0.5488077402114868,-0.29625269770622253,0.23312979936599731,-0.31398463249206543
0.40000486373901367,-0.004888057708740234,0.11683905124664307,-0.028667449951171875,-0.7951541388839536,-0.677464774988492,-1.3990313600447164,-0.43888330459594727,0.7139715552330017,-0.5455511808395386,-0.4060702919960022,0.1558753103017807,-0.13273502886295319
0.4198448657989502,0.004831254482269287,0.10895675420761108,-0.04416227340698242,-0.7998196238477034,-0.6814368850418467,-1.4076052661909753,-0.4389438033103943,0.7172304391860962,-0.5412105917930603,-0.2951506972312927,0.07159025222063065,-0.03556239604949951
0.4400978088378906,-0.01849713921546936,0.06180661916732788,-0.04829925298690796,-0.8028906573213616,-0.682546529950865,-1.410678088461865,-0.43815258145332336,0.7193670272827148,-0.5390114188194275,-0.081962451338768,0.051135580986738205,0.030929096043109894
0.46003293991088867,-0.046208977699279785,0.0008959174156188965,-0.013723611831665039,-0.8030630927582065,-0.6803401602738232,-1.4098242716181348,-0.4368842542171478,0.7194867730140686,-0.5398803949356079,0.0873529389500618,0.13129450380802155,0.0300621148198843
0.4800138473510742,-0.06803864240646362,-0.09302687644958496,0.04423767328262329,-0.802235743358415,-0.6744477451247018,-1.4074879071351742,-0.4340670704841614,0.7189119458198547,-0.542910099029541,0.03740008920431137,0.2781827449798584,0.025054387748241425
0.5000238418579102,-0.08010435104370117,-0.18152278661727905,0.08719342947006226,-0.8032826518289568,-0.6693395299780264,-1.4092344337937017,-0.43082091212272644,0.719639241695404,-0.5445297956466675,-0.19298510253429413,0.3447299003601074,-0.062042124569416046
0.5200209617614746,-0.08584856986999512,-0.217420756816864,0.08715218305587769,-0.806267422470343,-0.6678511738513155,-1.4165347479565447,-0.42867785692214966,0.7217085361480713,-0.5434815287590027,-0.3311098515987396,0.3250991404056549,-0.15493303537368774
0.5393338203430176,-0.10513243079185486,-0.19717460870742798,0.07037991285324097,-0.809140734797862,-0.6697531708528348,-1.4275018445730794,-0.42842164635658264,0.7236944437026978,-0.5410372018814087,-0.3535970151424408,0.2789028584957123,-0.2744310200214386
0.5600378513336182,-0.1416478157043457,-0.15978044271469116,0.053921520709991455,-0.8101214338847474,-0.6746982970112884,-1.4415059018830325,-0.4306483268737793,0.7243708968162537,-0.5383574962615967,-0.32659465074539185,0.2466186136007309,-0.42437031865119934
0.5801420211791992,-0.1666334569454193,-0.14689409732818604,0.05864959955215454,-0.809888590592396,-0.6818492506387244,-1.4584876233929847,-0.4345933198928833,0.7242103815078735,-0.535395085811615,-0.39722007513046265,0.2766974866390228,-0.4958018660545349
0.6000499725341797,-0.15302768349647522,-0.1685916781425476,0.06719362735748291,-0.8105300240735118,-0.6902874222744824,-1.4779958298471705,-0.4387997090816498,0.7246525287628174,-0.5313506722450256,-0.513502299785614,0.27599552273750305,-0.5136376619338989
0.6200337409973145,-0.1313248574733734,-0.16206973791122437,0.053097546100616455,-0.8121161229428423,-0.701451602359385,-1.5002059623870663,-0.4439619779586792,0.7257446050643921,-0.5255400538444519,-0.5743916630744934,0.20685335993766785,-0.5607616901397705
0.6400208473205566,-0.09509223699569702,-0.15651142597198486,0.022640109062194824,-0.8127536606602157,-0.7149258571460296,-1.5230169925451367,-0.4506993889808655,0.7261830568313599,-0.5191610455513,-0.48883411288261414,0.117985799908638,-0.5831860899925232
0.6600480079650879,-0.044699251651763916,-0.16561776399612427,0.0194246768951416,-0.8117951629856773,-0.7288891507955899,-1.5443486804101614,-0.4583677649497986,0.7255237698554993,-0.5133363008499146,-0.4180285632610321,0.023176293820142746,-0.6104749441146851
0.6800868511199951,-0.009232014417648315,-0.15941929817199707,-0.002458810806274414,-0.8086248821960628,-0.7445268792908817,-1.565268167279315,-0.4678950309753418,0.7233383655548096,-0.507794976234436,-0.3198372721672058,-0.05676088109612465,-0.641451895236969
0.7000279426574707,0.028610408306121826,-0.14781862497329712,-0.009598314762115479,-0.8052440743985646,-0.7600780276777493,-1.5844122730391146,-0.47741714119911194,0.7209997773170471,-0.5022271871566772,-0.35406434535980225,-0.1253051459789276,-0.5755376815795898
0.72003173828125,0.05577033758163452,-0.11640095710754395,-0.027292311191558838,-0.8028031584547785,-0.7772377856019917,-1.603162310317754,-0.48719730973243713,0.719306230545044,-0.4952143430709839,-0.3542309105396271,-0.25487974286079407,-0.5172372460365295
0.740020751953125,0.03964686393737793,-0.05697447061538696,-0.06507506966590881,-0.8003554568913928,-0.794926976270804,-1.6193000292091917,-0.49713584780693054,0.7176036834716797,-0.487750768661499,-0.2535582482814789,-0.3391883075237274,-0.46116194128990173
0.7600607872009277,0.021235227584838867,-0.027867555618286133,-0.0654459297657013,-0.7969315637460096,-0.8115797267435175,-1.632648477517462,-0.5069682002067566,0.7152149081230164,-0.48109328746795654,-0.19338737428188324,-0.37547120451927185,-0.4289206564426422
0.7800250053405762,0.06782740354537964,-0.04429662227630615,-0.05277720093727112,-0.7940472966053855,-0.8278009987197502,-1.643791944373482,-0.5162221193313599,0.7131960988044739,-0.47420021891593933,-0.17387913167476654,-0.461315393447876,-0.30479225516319275
0.8000209331512451,0.11964607238769531,-0.062144458293914795,-0.06757533550262451,-0.7923873291492489,-0.843774315858225,-1.6514428604495466,-0.5246143341064453,0.7120315432548523,-0.46668052673339844,-0.10573314875364304,-0.5834236741065979,-0.18513065576553345
0.8201239109039307,0.15725594758987427,-0.065204918384552,-0.0722726583480835,-0.7913570897182532,-0.8588919132160686,-1.65498560414253,-0.5321643948554993,0.7113078236579895,-0.45917564630508423,-0.040423013269901276,-0.6806004643440247,-0.049146778881549835
0.8400249481201172,0.18373364210128784,-0.054178833961486816,-0.06848189234733582,-0.791799904185722,-0.8735748984830926,-1.6555413306235136,-0.5386072397232056,0.711618959903717,-0.451110303401947,-0.0317155160009861,-0.7362363338470459,0.04917171597480774
0.8600609302520752,0.21168041229248047,-0.058221280574798584,-0.049087345600128174,-0.7937985332489929,-0.8876593452323304,-1.6542612064840003,-0.5438031554222107,0.7130216956138611,-0.44258126616477966,-0.02180946245789528,-0.7746440172195435,0.1729307323694229
0.880037784576416,0.24927204847335815,-0.058083534240722656,-0.04428049921989441,-0.7972860719765591,-0.9012399955948649,-1.6500536365279108,-0.5478101968765259,0.7154626250267029,-0.4336094260215759,0.053042370826005936,-0.8943527340888977,0.2922479212284088
0.9000277519226074,0.25106561183929443,-0.04303014278411865,-0.05319267511367798,-0.8017180548138666,-0.9145681385984392,-1.6422585723272594,-0.5510228872299194,0.7185519933700562,-0.42433103919029236,0.09354440122842789,-0.9959565997123718,0.3580067753791809
0.9193210601806641,0.22868895530700684,-0.04037994146347046,-0.06088396906852722,-0.8050436085824783,-0.9287283005928213,-1.6328889999898561,-0.5550591349601746,0.7208608388900757,-0.4150528013706207,0.22281238436698914,-1.1036337614059448,0.3058018982410431
0.9400229454040527,0.2378312349319458,-0.027415335178375244,-0.04890859127044678,-0.8065055698226269,-0.9439990635407426,-1.6218754700422384,-0.5604783296585083,0.7218733429908752,-0.40591004490852356,0.292782187461853,-1.2270028591156006,0.25379815697669983
0.9600567817687988,0.2231975793838501,-0.009076297283172607,-0.027922093868255615,-0.8058692438848291,-0.9624394750431329,-1.6113889373872279,-0.5682445168495178,0.7214328646659851,-0.3957686126232147,0.32000282406806946,-1.372318148612976,0.10610827058553696
0.980036735534668,0.17706018686294556,0.011687695980072021,-0.03630310297012329,-0.80257427301722,-0.984250121327146,-1.6023386345494546,-0.5787172317504883,0.7191472053527832,-0.38459521532058716,0.41627198457717896,-1.4519505500793457,0.004643753170967102
0.9996299743652344,0.18731576204299927,-0.04051750898361206,-0.02695956826210022,-0.7984617346633873,-1.0060621496537412,-1.5918401734932317,-0.5894612073898315,0.7162835001945496,-0.37346151471138,0.3713837265968323,-1.4969580173492432,0.03638862818479538
1.020021915435791,0.243033766746521,-0.08966898918151855,0.03122466802597046,-0.7954747251069821,-1.031175740882525,-1.5854284316757272,-0.6004860997200012,0.714195966720581,-0.3596395254135132,0.17729435861110687,-1.438519835472107,-0.07691756635904312
1.0398297309875488,0.2963240146636963,-0.237859845161438,0.12211602926254272,-0.791511570023016,-1.0580049100236517,-1.5870903528106934,-0.6123793125152588,0.7114163637161255,-0.34478747844696045,-0.10086788982152939,-1.124833583831787,-0.34699684381484985
1.06003999710083,0.38795119524002075,-0.5170429348945618,0.20101851224899292,-0.7858077997469755,-1.0915645835436474,-1.6035039970613052,-0.6271937489509583,0.707396388053894,-0.32591167092323303,-0.6918604969978333,-1.1896146535873413,-0.7506825923919678
1.079969882965088,0.39482295513153076,-0.6413582563400269,0.042250216007232666,-0.7738998322150221,-1.1431687489748632,-1.6364012259981084,-0.6507890820503235,0.6989296674728394,-0.296598881483078,-0.7080817222595215,-1.6354998350143433,-1.335764765739441
1.1000518798828125,0.271375834941864,-0.44978833198547363,-0.1087622344493866,-0.7485089943549016,-1.194110739262174,-1.6622988821478841,-0.6813337206840515,0.6805470585823059,-0.26951834559440613,-0.007723070215433836,-1.5967812538146973,-1.7127691507339478
1.1200568675994873,0.11087256669998169,-0.1259337067604065,-0.15430592000484467,-0.7142251634450826,-1.2351106679812682,-1.6765140141545254,-0.7134268283843994,0.6550321578979492,-0.24890752136707306,0.09480355679988861,-1.7041103839874268,-2.011812210083008
1.1400349140167236,-0.05953019857406616,0.18837261199951172,-0.11771941184997559,-0.668382830964908,-1.2716251060159962,-1.6838554606738132,-0.7499637007713318,0.6197175979614258,-0.23131011426448822,0.8625802397727966,-1.2759809494018555,-2.2706899642944336
1.1600818634033203,0.05596965551376343,0.2531377077102661,0.13640904426574707,-0.6286443472918064,-1.281934486495915,-1.6757978890288152,-0.7753147482872009,0.5880488157272339,-0.2304031401872635,0.6701495051383972,-0.25063589215278625,-1.4291839599609375
1.1800549030303955,0.13555234670639038,0.16276949644088745,0.23703965544700623,-0.6004684823214607,-1.2814783096881368,-1.6765708719778076,-0.7907800674438477,0.5650290846824646,-0.23539167642593384,0.20134946703910828,0.19549044966697693,-1.330579400062561
1.1991279125213623,0.15017318725585938,0.16551172733306885,0.07573601603507996,-0.5747685980255552,-1.279591872811293,-1.6812612789185082,-0.8039818406105042,0.5436406135559082,-0.24097342789173126,0.22254444658756256,0.22400332987308502,-1.2831279039382935
1.2200238704681396,0.19912737607955933,0.25824224948883057,0.001817956566810608,-0.5474247170432788,-1.2781561942642312,-1.6823741081645702,-0.8175659775733948,0.5204899907112122,-0.24632468819618225,0.38893914222717285,-0.044871553778648376,-1.3772861957550049
1.2400217056274414,0.2950291633605957,0.2370467483997345,0.08850468695163727,-0.5192857092471441,-1.2821621638976894,-1.685399229668418,-0.8322604894638062,0.4962601363658905,-0.2471197247505188,0.1621084064245224,-0.15059220790863037,-1.364405870437622
1.2600278854370117,0.3215007781982422,0.16648441553115845,0.14511144161224365,-0.4940916744833616,-1.286810628639536,-1.6897978386811425,-0.8451365828514099,0.47423216700553894,-0.24667388200759888,0.2377132922410965,-0.1036505401134491,-1.1671017408370972
1.2800228595733643,0.29150480031967163,0.2470892071723938,0.13862186670303345,-0.47009252649684163,-1.288354444323257,-1.6885665671271533,-0.8562020063400269,0.4529687762260437,-0.24846981465816498,0.5519512891769409,-0.12628571689128876,-1.1384836435317993
1.3000319004058838,0.21317875385284424,0.25107893347740173,0.12388354539871216,-0.4442192465025657,-1.2892073786843934,-1.682412631795512,-0.8673840761184692,0.42975303530693054,-0.2509129047393799,0.6344278454780579,-0.19710654020309448,-1.1869115829467773
1.3201308250427246,0.10173743963241577,0.15615615248680115,0.149387925863266,-0.4186996245826183,-1.2903354962396,-1.6779726899751137,-0.8779214024543762,0.40657275915145874,-0.25288817286491394,0.4402887523174286,-0.056312672793865204,-1.1458171606063843
1.339189052581787,0.06826817989349365,0.11533153057098389,0.17265507578849792,-0.39575812432905183,-1.2885105452844154,-1.6776572369475597,-0.8861851096153259,0.38550782203674316,-0.2570209205150604,0.21462826430797577,0.2094534933567047,-1.0278433561325073
1.3600468635559082,0.19662177562713623,0.13963553309440613,0.17796781659126282,-0.37737578650023224,-1.285729504857194,-1.681243782531616,-0.892117440700531,0.36848217248916626,-0.26143336296081543,0.027731500566005707,0.13507841527462006,-0.8359448313713074
1.3800249099731445,0.23674088716506958,0.13431066274642944,0.10549265146255493,-0.36258013330075495,-1.2867044045004432,-1.684863043850733,-0.8975074291229248,0.35468780994415283,-0.26206305623054504,0.07564006000757217,-0.08058641105890274,-0.7129059433937073
1.4000089168548584,0.16373175382614136,0.0598396360874176,0.15820887684822083,-0.34699983702882364,-1.2901275438007571,-1.6893292381668747,-0.9035997986793518,0.3400779962539673,-0.26048845052719116,-0.07976354658603668,-0.0738811045885086,-0.9761999249458313
1.4201350212097168,0.1428823471069336,-0.23030272126197815,0.36881619691848755,-0.3259163730378555,-1.291719526249109,-1.702404971737937,-0.910704493522644,0.3201770484447479,-0.2609669864177704,-0.5663155913352966,0.3608831465244293,-1.3383827209472656
1.4400367736816406,0.009409070014953613,-0.4613937735557556,0.15095177292823792,-0.2998992223190849,-1.296759102157355,-1.7290851267730145,-0.9197178483009338,0.2954239249229431,-0.25854140520095825,-0.9921563267707825,-0.13214415311813354,-1.9671827554702759
1.4600930213928223,-0.20458829402923584,-0.255921870470047,-0.03389012813568115,-0.25916430364277243,-1.311276719882996,-1.7574301579923213,-0.9342361092567444,0.2562728524208069,-0.24804644286632538,-0.5359032154083252,-0.39662107825279236,-2.610358476638794
1.4802627563476562,-0.2530807852745056,-0.018870636820793152,0.17758888006210327,-0.21114029081547797,-1.3216552590926467,-1.7808456050252413,-0.9476028084754944,0.20957499742507935,-0.2410959154367447,-0.5280243158340454,-0.1482042521238327,-2.566678047180176
1.5000219345092773,-0.4114406704902649,0.0009676367044448853,0.17473293840885162,-0.16627087154251458,-1.3281504086333056,-1.8028681912291988,-0.9573183655738831,0.1655058115720749,-0.23695822060108185,-0.3538304567337036,-0.17365607619285583,-2.3229925632476807
1.5200209617614746,-0.5385327935218811,0.12544462084770203,0.13985446095466614,-0.12854067903543873,-1.3307497764243097,-1.8118776516171482,-0.9633133411407471,0.12818700075149536,-0.23578639328479767,0.31734728813171387,0.0545935183763504,-1.456965684890747
1.5400209426879883,-0.6607323884963989,0.31163543462753296,0.1634485125541687,-0.10544530932396427,-1.3273480028122517,-1.8080732943646893,-0.9651220440864563,0.10525001585483551,-0.23971183598041534,0.6904120445251465,0.27751970291137695,-0.8039242029190063
1.560041904449463,-0.6725446581840515,0.1736506223678589,0.23241978883743286,-0.09578291977697738,-1.3186075254725744,-1.7918672980021038,-0.9639298915863037,0.0956365317106247,-0.2483803778886795,0.8088591694831848,0.4776992201805115,0.3108750283718109
1.5791020393371582,-0.6361566185951233,-0.19871604442596436,0.32092952728271484,-0.10483758686606931,-1.3070173116094033,-1.7751880123529542,-0.9601110219955444,0.10464564710855484,-0.2592991888523102,0.5875734686851501,0.3727845251560211,0.8815706372261047
1.600019931793213,-0.708562970161438,-0.3876539170742035,0.23215198516845703,-0.11839917766916162,-1.3035825658044562,-1.7573977737193414,-0.9577577710151672,0.11812274158000946,-0.26219651103019714,0.7556436061859131,-0.17533715069293976,0.935063898563385
1.6200170516967773,-0.7452030777931213,-0.3839184045791626,0.3109641671180725,-0.13238220785571247,-1.306353890362038,-1.7359648182480296,-0.9567927718162537,0.13199587166309357,-0.25908419489860535,0.9410679340362549,-0.31333309412002563,0.9570070505142212
1.6401088237762451,-0.927417516708374,-0.4950017035007477,0.25475332140922546,-0.14469124089618554,-1.3079465170930527,-1.7096343535095908,-0.9555627107620239,0.14418689906597137,-0.2571183741092682,1.2387890815734863,-0.19811668992042542,0.923662543296814
1.660019874572754,-0.9113509058952332,-0.45868438482284546,0.16705039143562317,-0.15884499669687666,-1.3048928546665974,-1.6815769458773795,-0.9527084827423096,0.15817785263061523,-0.2594728171825409,0.9836505651473999,0.0757288932800293,1.240116000175476
1.6802208423614502,-0.9004520177841187,-0.4731721580028534,0.11524763703346252,-0.1847934367723549,-1.2958163444669661,-1.662397173108327,-0.9460444450378418,0.18374349176883698,-0.26690468192100525,0.011821589432656765,0.44416356086730957,1.789597988128662
1.7001299858093262,-0.8450056314468384,-0.4323921799659729,0.016268104314804077,-0.2272665552850896,-1.286775145189296,-1.660955531145805,-0.9352524280548096,0.22531521320343018,-0.2730123996734619,-1.039494276046753,0.4258999526500702,2.426706314086914
1.7200229167938232,-0.8559865951538086,-0.30666399002075195,-0.013388454914093018,-0.2864726411994455,-1.2805119422299693,-1.6723515273178264,-0.9191140532493591,0.28257039189338684,-0.2745600640773773,-1.4804195165634155,0.4986511170864105,2.8542420864105225
1.740020751953125,-1.0258508920669556,-0.19845545291900635,-0.04294782876968384,-0.34777272852765867,-1.272450825256631,-1.6805226668176114,-0.8986027836799622,0.34080472588539124,-0.2763422429561615,-0.9866256713867188,0.6039900779724121,2.798868417739868
1.760179042816162,-1.0061414241790771,-0.10042324662208557,0.045028507709503174,-0.403704230556972,-1.2586036746381701,-1.6775790848278522,-0.875160276889801,0.39282748103141785,-0.2824552357196808,-0.4661920666694641,0.6144269108772278,2.5986757278442383
1.7800748348236084,-0.897006630897522,-0.15499842166900635,0.016569912433624268,-0.4521715237496865,-1.2444753189050732,-1.6677869016652027,-0.8520320057868958,0.43691983819007874,-0.2883441746234894,-0.2790779769420624,0.3960873782634735,2.293887138366699
1.8001518249511719,-0.7833821177482605,-0.1268671751022339,0.030545741319656372,-0.49563635194206895,-1.2334928417407027,-1.6604522260705499,-0.8300973773002625,0.4755915105342865,-0.2911199927330017,-0.6008976101875305,0.42598918080329895,2.0434224605560303
1.8201708793640137,-0.718110203742981,-0.11611050367355347,0.012800157070159912,-0.536428060992754,-1.2283987354322679,-1.6649102546120864,-0.8096454739570618,0.5110690593719482,-0.28858742117881775,-1.0234622955322266,0.24198578298091888,1.6749522686004639
1.8401618003845215,-0.5169090032577515,0.015113413333892822,-0.08927547931671143,-0.5725068629779251,-1.2313013863768025,-1.67428732910238,-0.7925696969032288,0.541740894317627,-0.2799108326435089,-0.802484393119812,-0.013635871931910515,1.5010218620300293
1.8595938682556152,-0.39427852630615234,0.1607179045677185,-0.09029817581176758,-0.6027718553291632,-1.2340669761156915,-1.6765992829422864,-0.7775048613548279,0.5669280290603638,-0.27217429876327515,-0.47705337405204773,-0.1566035896539688,1.271878957748413
1.8800058364868164,-0.284473717212677,0.10651087760925293,-0.033237308263778687,-0.6289904114012086,-1.2397096804210082,-1.6797960417811704,-0.7647054195404053,0.5883286595344543,-0.26285943388938904,-0.6708858609199524,-0.24325522780418396,1.1440373659133911
1.9087998867034912,-0.16101187467575073,0.10713368654251099,-0.030471086502075195,-0.6809483714713338,-1.2754351438133753,-1.7176490271834008,-0.743330717086792,0.6295301914215088,-0.22616639733314514,-1.3996295928955078,-0.3404269516468048,0.9185811877250671
1.9285898208618164,-0.0598142147064209,0.16516178846359253,-0.020446836948394775,-0.7045676070200206,-1.3000951496257431,-1.745893242948879,-0.734146237373352,0.6477044820785522,-0.20373524725437164,-1.2821122407913208,-0.31676921248435974,0.7270921468734741
1.947739839553833,0.08111399412155151,0.0989828109741211,-0.0445898175239563,-0.7242219109255228,-1.3236478746138471,-1.7721194360251658,-0.7262555360794067,0.6625528335571289,-0.18323910236358643,-1.1983332633972168,-0.3207566738128662,0.6452155709266663
1.9683928489685059,0.17192357778549194,0.04280358552932739,-0.015263080596923828,-0.7399523052563396,-1.349128612085349,-1.8008415354334075,-0.7204312682151794,0.6742526888847351,-0.1623644381761551,-1.2539076805114746,-0.33688750863075256,0.3518538177013397
1.9896159172058105,0.2768526077270508,-0.006888628005981445,-0.027312636375427246,-0.7516607326555982,-1.377692101773019,-1.8327638362872054,-0.716977059841156,0.6828529834747314,-0.14019827544689178,-1.2941830158233643,-0.3242027759552002,0.3178519904613495
2.0108389854431152,0.3374730944633484,0.0499606728553772,0.00034540891647338867,-0.76256343225198,-1.4067329867036273,-1.8679601523996776,-0.7133580446243286,0.6907772421836853,-0.11809740960597992,-1.3279268741607666,-0.18580542504787445,0.26129114627838135
2.0285778045654297,0.4010644555091858,0.07052379846572876,-0.04579150676727295,-0.7697498859253165,-1.4315892276831874,-1.8999142322599607,-0.7111382484436035,0.6959556341171265,-0.09963995218276978,-1.0681918859481812,-0.1079697459936142,0.15055479109287262
2.0484209060668945,0.6155641674995422,-0.04908609390258789,-0.028044939041137695,-0.7758400255396337,-1.4508459341630384,-1.9243450136848343,-0.7087037563323975,0.7003159523010254,-0.08541936427354813,-0.8000748157501221,-0.09254667162895203,0.2064799964427948
2.067185878753662,0.7006567120552063,-0.11526185274124146,0.010420262813568115,-0.7811098528042812,-1.4679296233174257,-1.9464702091744734,-0.706378698348999,0.7040680050849915,-0.07292023301124573,-0.8514214158058167,-0.09220853447914124,0.12743698060512543
2.0879807472229004,0.7450132369995117,-0.14262205362319946,-0.048076339066028595,-0.7851161594691471,-1.485928064649339,-1.9709312835344168,-0.7047605514526367,0.706907331943512,-0.059955816715955734,-0.9717597365379333,0.013449985533952713,0.0934712141752243
2.1084837913513184,0.8540038466453552,-0.15109002590179443,-0.07090450078248978,-0.789179299432111,-1.503526505975591,-1.9977610975164088,-0.702834963798523,0.7097753882408142,-0.04735102877020836,-0.9459154009819031,0.08108903467655182,0.14647585153579712
2.1284549236297607,1.00019109249115,-0.15956389904022217,-0.13272231817245483,-0.7957719814002395,-1.516648013147471,-2.0186757484411753,-0.6987078785896301,0.7144039869308472,-0.037870872765779495,-0.5050374865531921,0.11239805072546005,0.4582745134830475
2.147723913192749,1.1179871559143066,-0.1384420394897461,-0.18166416883468628,-0.8071285595772436,-1.5190456354835824,-2.0236007996281895,-0.6906495094299316,0.7223043441772461,-0.03577353060245514,0.15026745200157166,0.03769584745168686,0.5980292558670044
2.1668620109558105,1.1204619407653809,-0.15010446310043335,-0.26343631744384766,-0.8209145163191737,-1.504670623394307,-2.007822013409346,-0.6800625920295715,0.7317694425582886,-0.04503527656197548,0.8192199468612671,0.2692891061306,0.8677847981452942
2.1881468296051025,1.124210000038147,-0.2967801094055176,-0.27522367238998413,-0.8368472078292566,-1.479639209379949,-1.9819536530672675,-0.6670260429382324,0.7425350546836853,-0.0609731525182724,0.7090849280357361,0.29583391547203064,0.8448653817176819
2.2093019485473633,1.1001380681991577,-0.40622854232788086,-0.17369592189788818,-0.8529568709595358,-1.4623492148584714,-1.9672073474756588,-0.6538947224617004,0.7532286047935486,-0.07119230180978775,0.1857098639011383,0.30870604515075684,0.7579874992370605
2.229785919189453,0.9825595617294312,-0.35587209463119507,-0.16018205881118774,-0.8637376847239641,-1.444479326898023,-1.952105457423424,-0.6444248557090759,0.7602758407592773,-0.08183754235506058,0.8571052551269531,0.36809924244880676,0.5304235219955444
2.247833728790283,0.9377723336219788,-0.10648566484451294,-0.17106100916862488,-0.8683823963143157,-1.402039780111098,-1.907254856640395,-0.6368840932846069,0.7632848620414734,-0.10851040482521057,1.8766427040100098,0.42118510603904724,0.294272780418396
2.2687058448791504,0.8982688784599304,-0.24945205450057983,-0.04333882033824921,-0.8643638063079793,-1.344769548033829,-1.84442593527685,-0.6326132416725159,0.7606824636459351,-0.14547333121299744,2.04780650138855,0.5164607167243958,0.0683564767241478
2.287872791290283,0.838754415512085,-0.3720698356628418,0.040017351508140564,-0.8518761208355975,-1.2945310044873213,-1.7894325340397514,-0.6335999965667725,0.7525172829627991,-0.1796351969242096,1.768562912940979,0.3167093098163605,-0.36488133668899536
2.307572841644287,0.7517649531364441,-0.3489302396774292,0.13570952415466309,-0.8333393102178756,-1.2574857016598693,-1.74854807716081,-0.6396738290786743,0.7401808500289917,-0.20724263787269592,1.4315906763076782,0.22073881328105927,-0.7842327356338501
2.327805995941162,0.539341926574707,-0.3174699544906616,0.09215819835662842,-0.8038856873446784,-1.236530795158119,-1.7214299462709024,-0.6555070281028748,0.7200578451156616,-0.22765618562698364,1.1805795431137085,-0.015710828825831413,-1.265958547592163
2.3486928939819336,0.38240617513656616,-0.26404017210006714,0.1382697969675064,-0.7704296877653228,-1.2310003544418424,-1.7092132299304315,-0.6765802502632141,0.6964436769485474,-0.23917607963085175,0.8424721956253052,-0.2713870704174042,-1.6787182092666626
2.367949962615967,0.015060782432556152,-0.1676388382911682,0.06181342899799347,-0.7292713850754822,-1.229747806735589,-1.700363204513598,-0.7027132511138916,0.6663265228271484,-0.2494049072265625,1.2180635929107666,-0.3223241865634918,-2.1042940616607666
2.3879427909851074,-0.32822155952453613,-0.07897204160690308,0.025822103023529053,-0.6750243090434319,-1.232683726217494,-1.6904588976721235,-0.7364909648895264,0.6249163150787354,-0.2589610517024994,1.1747266054153442,-0.5408660173416138,-2.6348562240600586
2.408888816833496,-0.6268303990364075,-0.24670487642288208,0.06518703699111938,-0.6153643002316905,-1.244405605087689,-1.6894909228366493,-0.7734533548355103,0.5772560238838196,-0.2618117034435272,0.8883821964263916,-0.7263625264167786,-3.0301449298858643
2.4231209754943848,-1.0785582065582275,-0.06384336948394775,-0.09541356563568115,-0.5478752714520118,-1.2650754870110028,-1.6915691221470806,-0.8140504360198975,0.5208746790885925,-0.25692710280418396,1.0065362453460693,-1.2982285022735596,-3.3892252445220947
2.4441027641296387,-1.2317990064620972,0.0649065375328064,-0.2048014998435974,-0.479520553311113,-1.2956688034750814,-1.692829528790978,-0.8538485169410706,0.4613538682460785,-0.2410297393798828,0.7605569362640381,-1.4911777973175049,-3.0252881050109863
2.4649877548217773,-1.3900455236434937,0.029470354318618774,-0.17489676177501678,-0.42766092649291265,-1.320669198939137,-1.7019909634964283,-0.8816218376159668,0.4147435128688812,-0.22523440420627594,-0.39011484384536743,-0.5539738535881042,-2.1860463619232178
2.484076976776123,-1.2437187433242798,0.0484139621257782,-0.12662886083126068,-0.40200908320219936,-1.3363726773432278,-1.7377116634545224,-0.8951056599617004,0.3912680447101593,-0.21376411616802216,-2.101445436477661,0.38661593198776245,-1.1060279607772827
2.5045909881591797,-0.8835978507995605,0.15407294034957886,0.09260174632072449,-0.4023496554563123,-1.3425480507822734,-1.784577380825954,-0.8962789177894592,0.3915814459323883,-0.2082023173570633,-1.6268914937973022,0.6336325407028198,0.11679038405418396
2.523232936859131,-0.578074038028717,0.0935453474521637,0.10301239788532257,-0.4172681067605349,-1.3389067571838122,-1.7963552643859941,-0.8897297978401184,0.4052644670009613,-0.2100984901189804,0.14008890092372894,0.1596474051475525,0.9404881000518799
2.5417957305908203,-0.6081035137176514,-0.3143964409828186,0.12378150224685669,-0.43322955842739813,-1.3326954791851762,-1.7833711902820628,-0.8820087313652039,0.419804185628891,-0.2140677124261856,0.3401034474372864,0.04134349152445793,0.8094862699508667
2.5616350173950195,-0.6574597954750061,-0.6410571336746216,0.2026708424091339,-0.44814398275755774,-1.3288184683606517,-1.7820483641866414,-0.8749957084655762,0.43329355120658875,-0.21596120297908783,-0.6973540782928467,0.3086842894554138,0.6901688575744629
2.58681583404541,-0.5124551057815552,-0.6260617971420288,0.12005378305912018,-0.46593483339395936,-1.330790119563543,-1.8061831899481098,-0.8677937984466553,0.4492581784725189,-0.21236935257911682,-1.685391902923584,0.5412976741790771,0.5091204643249512
2.6062469482421875,-0.3814033269882202,-0.37871649861335754,0.05507178604602814,-0.48414011435523063,-1.3346388307345243,-1.8424625680211058,-0.8605093955993652,0.46544745564460754,-0.20707976818084717,-1.8121075630187988,0.7421376705169678,0.5715098977088928
2.6265618801116943,-0.20534414052963257,-0.2389240562915802,0.0732230544090271,-0.5050405079564259,-1.335110807690434,-1.8767520325045586,-0.8509607315063477,0.4838428795337677,-0.2043570578098297,-1.5456184148788452,0.7960916757583618,0.7364807724952698
2.6448869705200195,-0.08483368158340454,-0.20633214712142944,0.02958996593952179,-0.5265821978138289,-1.3327675481698467,-1.902087684544986,-0.8401539921760559,0.5025814771652222,-0.20384524762630463,-1.158276081085205,0.6950585842132568,0.8495171070098877
2.6665587425231934,-0.14193123579025269,-0.1860741376876831,0.029421687126159668,-0.5473840370921835,-1.3289888788186393,-1.9209326545092822,-0.8290464878082275,0.5204552412033081,-0.2044704258441925,-0.9332535266876221,0.6834917664527893,0.79220050573349
2.6843390464782715,-0.2321072816848755,-0.1949622631072998,0.038090020418167114,-0.5675862560878667,-1.324516573210848,-1.939771151827418,-0.8177582621574402,0.5375983715057373,-0.20557041466236115,-1.1809719800949097,0.7844354510307312,0.7869739532470703
2.7061069011688232,-0.2844095826148987,-0.19891667366027832,0.057005465030670166,-0.5890551148294206,-1.3196099173291143,-1.964145132443385,-0.8053730726242065,0.5555756092071533,-0.20666362345218658,-1.3404200077056885,1.0795141458511353,0.8396413326263428
2.725991725921631,-0.29749906063079834,-0.14962172508239746,0.04326564073562622,-0.6112695639275815,-1.312699544570206,-1.9902943249859832,-0.7917953133583069,0.5739076137542725,-0.20902182161808014,-1.24898362159729,1.0438671112060547,0.7319589853286743
2.745083808898926,-0.3030100464820862,-0.07844334840774536,0.004505813121795654,-0.6302582203034499,-1.3070384310801308,-2.0129141666548143,-0.779936671257019,0.5893533825874329,-0.2106214463710785,-1.0176314115524292,0.836243212223053,0.6666876673698425
2.766289710998535,-0.2681191563606262,-0.15405559539794922,0.056751906871795654,-0.648882793918531,-1.301362066588672,-2.0311976817526407,-0.7680136561393738,0.6042966246604919,-0.21208631992340088,-0.9883226752281189,0.830225944519043,0.7407416701316833
2.7848918437957764,-0.32401227951049805,-0.1552005410194397,0.10924404859542847,-0.6677104969783932,-1.2973470808211562,-2.0515746168544595,-0.756065845489502,0.6191897988319397,-0.2120576649904251,-1.118194341659546,0.8311527967453003,0.649823784828186
2.8048620223999023,-0.3683052659034729,-0.09136152267456055,0.10855495929718018,-0.6851105498211416,-1.2968023448409107,-2.076626573593166,-0.7454642057418823,0.632758617401123,-0.2095222771167755,-1.2060198783874512,0.8163776397705078,0.5219060778617859
2.8257060050964355,-0.34493041038513184,-0.07897549867630005,0.0591011643409729,-0.7011434554849267,-1.2989662451306228,-2.104816292120717,-0.7360479831695557,0.6450918316841125,-0.20515821874141693,-1.3343549966812134,0.8077136278152466,0.4058576226234436
2.8446829319000244,-0.3437626361846924,-0.0987277626991272,0.11686104536056519,-0.7160649764461438,-1.3050248345026199,-2.14240676702781,-0.7279078364372253,0.6564211845397949,-0.1981445550918579,-1.639800786972046,1.071915626525879,0.27252957224845886
2.86580491065979,-0.3221471309661865,-0.14900827407836914,0.13261546194553375,-0.7281674633987395,-1.3062286023414702,-2.178411839818265,-0.7204248309135437,0.6655029654502869,-0.1951764076948166,-1.2374048233032227,1.1484880447387695,0.22166259586811066
2.885568857192993,-0.23817604780197144,-0.05917543172836304,0.1193864643573761,-0.7379354729933626,-1.3034490615885077,-2.209108358278094,-0.7135757207870483,0.6727619171142578,-0.19545146822929382,-1.234541893005371,1.210525393486023,0.011600106954574585
2.9043469429016113,-0.23672974109649658,-0.12083697319030762,0.12813350558280945,-0.7408277365921736,-1.3008756352164628,-2.240052166258129,-0.7111920714378357,0.6748989224433899,-0.19676746428012848,-1.1515506505966187,1.1384210586547852,-0.21147416532039642
2.9244747161865234,-0.15542113780975342,-0.12129217386245728,0.19754305481910706,-0.7425002020644604,-1.3007989428660223,-2.274397479348743,-0.7100878357887268,0.6761321425437927,-0.1965205818414688,-1.2861855030059814,1.2183960676193237,-0.3669845759868622
2.944885730743408,-0.12125605344772339,-0.12318915128707886,0.20051896572113037,-0.7408927989210513,-1.3013772220156883,-2.311875567474621,-0.7112482190132141,0.6749469637870789,-0.19639898836612701,-1.363086223602295,1.2435182332992554,-0.49056342244148254
2.9648149013519287,-0.06688690185546875,-0.07432377338409424,0.17617496848106384,-0.7382398727195552,-1.3031017214339513,-2.3515128668458405,-0.7133103013038635,0.6729870438575745,-0.19564513862133026,-1.377871036529541,1.2435977458953857,-0.5422482490539551
2.985599994659424,-0.03074204921722412,-0.040739476680755615,0.14271779358386993,-0.7345948229539669,-1.3040415566087489,-2.389075854217273,-0.7158551812171936,0.6702865362167358,-0.19561992585659027,-1.2217320203781128,1.2030854225158691,-0.5475784540176392
3.0054378509521484,-0.027955949306488037,-0.0014585256576538086,0.18291175365447998,-0.7298897292922586,-1.3030903291259306,-2.423644614306945,-0.7187023758888245,0.6667874455451965,-0.197132870554924,-1.16538667678833,1.1903389692306519,-0.6122018098831177
3.0254268646240234,-0.06948339939117432,0.07717472314834595,0.22904765605926514,-0.722882442932706,-1.3022697744772336,-2.457597303958642,-0.7230275869369507,0.6615489721298218,-0.19895727932453156,-1.033078908920288,1.1415932178497314,-0.6837618350982666
3.044376850128174,-0.07451015710830688,0.10025447607040405,0.19644679129123688,-0.7153672537657445,-1.2972682760902081,-2.484053504225467,-0.7267898321151733,0.6558946967124939,-0.2039082646369934,-0.6691900491714478,1.104429841041565,-0.5868074297904968
3.065484046936035,-0.0879257321357727,0.15515369176864624,0.07094758749008179,-0.7052464218534645,-1.2860227556676702,-2.4973657915824052,-0.7307845950126648,0.648221492767334,-0.2139223963022232,0.07781624048948288,0.8869103193283081,-0.7087565064430237
3.0840818881988525,-0.07145494222640991,0.2777531147003174,-0.01084446907043457,-0.6871556564485712,-1.260357767669713,-2.4852520036509063,-0.7361012101173401,0.6343409419059753,-0.23614947497844696,1.2629626989364624,0.8919214010238647,-0.6925066113471985
3.1050329208374023,0.04176551103591919,0.3066476583480835,0.0811871588230133,-0.6653674027871446,-1.2212698772421382,-2.4535969490682823,-0.7391226291656494,0.6173481941223145,-0.26940423250198364,1.5444228649139404,1.063494086265564,-0.5654687881469727
3.1247620582580566,0.1095462441444397,0.08758717775344849,0.26614871621131897,-0.6470779918095375,-1.185132790602813,-2.4338787338892494,-0.7392458915710449,0.6028576493263245,-0.3001299202442169,0.4172481894493103,1.3407880067825317,-0.6225470304489136
3.14491605758667,0.19540351629257202,-0.13475781679153442,0.27566400170326233,-0.6375041636956168,-1.1655393574258572,-2.4479313497527273,-0.738494336605072,0.5951916575431824,-0.3168168365955353,-1.0271010398864746,1.4280831813812256,-0.6687735319137573
3.164848804473877,0.35782521963119507,-0.14610004425048828,0.17870154976844788,-0.6377761479890457,-1.162382361497604,-2.487561529199281,-0.7373417615890503,0.5954102277755737,-0.3190823197364807,-1.7874869108200073,1.2261842489242554,-0.5880847573280334
3.1847968101501465,0.4176177382469177,-0.03227502107620239,0.10133025050163269,-0.6412060106285044,-1.167818593884371,-2.5357336956689074,-0.7371824979782104,0.5981623530387878,-0.314266562461853,-1.8483964204788208,1.1418524980545044,-0.6359850764274597
3.204558849334717,0.3840416669845581,-0.0043256282806396484,0.05814799666404724,-0.6435941289581293,-1.1725048284562452,-2.581691788379552,-0.7373284101486206,0.6000744104385376,-0.3102536201477051,-1.634167194366455,1.215322494506836,-0.5460988879203796
3.224655866622925,0.3919637203216553,-0.03659617900848389,0.04757371544837952,-0.6473167204238918,-1.171738432313105,-2.6229181463474536,-0.735027015209198,0.6030480861663818,-0.30994850397109985,-1.593012809753418,1.3329375982284546,-0.4064141511917114
3.244086742401123,0.39291781187057495,-0.0077124834060668945,0.01837781071662903,-0.6526850161845865,-1.1696041512868487,-2.664586422434298,-0.7313730120658875,0.6073217391967773,-0.31024783849716187,-1.7060731649398804,1.3891682624816895,-0.38089537620544434
3.2656748294830322,0.3841131329536438,0.00318068265914917,-0.0018030405044555664,-0.6596778669560894,-1.1699688156186476,-2.7104517786564406,-0.7275580167770386,0.6128623485565186,-0.30831652879714966,-1.9306004047393799,1.4075192213058472,-0.3922743797302246
3.2834389209747314,0.3844376802444458,-0.06270694732666016,0.031009554862976074,-0.6687084019569356,-1.1739836971864026,-2.7634278227618214,-0.7236558198928833,0.6199730634689331,-0.3032415807247162,-2.280900239944458,1.461130976676941,-0.401685506105423
3.3044028282165527,0.3942984938621521,-0.08618706464767456,-0.0031327903270721436,-0.6785049101135081,-1.1826760591079504,-2.8223437138767773,-0.7206076979637146,0.6276297569274902,-0.2946271300315857,-2.240086555480957,1.295151948928833,-0.40649548172950745
3.3247289657592773,0.3627970814704895,0.06870037317276001,-0.1337231993675232,-0.6856068129864874,-1.1874491946581271,-2.868736862821652,-0.717853844165802,0.6331428289413452,-0.28950977325439453,-1.3085949420928955,1.1479368209838867,-0.28337112069129944
3.344862937927246,0.23391497135162354,0.3221559524536133,-0.24037575721740723,-0.6870178322020299,-1.179192537842509,-2.8902146341212966,-0.714612603187561,0.6342343688011169,-0.2950856387615204,-0.27717500925064087,1.100229263305664,-0.23033630847930908
3.364419937133789,0.13701337575912476,0.36322611570358276,-0.2138611078262329,-0.684482910221596,-1.153429252588991,-2.888798242541333,-0.7082414031028748,0.632272481918335,-0.3140471577644348,0.34406155347824097,1.376443862915039,0.10132841020822525
3.3843507766723633,0.1328563690185547,0.34464848041534424,-0.21621251106262207,-0.6834493406217915,-1.1146933677075577,-2.8738933229443977,-0.6961345672607422,0.6314713954925537,-0.34152671694755554,0.7624176740646362,1.5270042419433594,0.22974880039691925
3.4041829109191895,0.10373586416244507,0.367084801197052,-0.24181801080703735,-0.6774739239924044,-1.0665439211425334,-2.8476226902417427,-0.6821813583374023,0.626826822757721,-0.37645283341407776,1.2487108707427979,1.633859395980835,0.2248978465795517
3.424025058746338,0.17948395013809204,0.1984773874282837,-0.12827759981155396,-0.6690590721399213,-1.0147265020025749,-2.8179234110330813,-0.6662241816520691,0.6202481985092163,-0.41405031085014343,1.0203548669815063,1.6634248495101929,0.2146233171224594
3.4441168308258057,0.24742376804351807,-0.04462277889251709,0.0023698806762695312,-0.664899273394956,-0.9725192350976863,-2.8023299983002508,-0.6502863764762878,0.6169798374176025,-0.44324201345443726,0.20804262161254883,1.5852808952331543,0.11446905136108398
3.4641189575195312,0.29573649168014526,-0.14078539609909058,0.020129084587097168,-0.6669778148748758,-0.9434052568908168,-2.8039101833247795,-0.63606858253479,0.6186143159866333,-0.4612301290035248,-0.361103355884552,1.3940696716308594,-0.006642342545092106
3.4838290214538574,0.3194354176521301,-0.08792459964752197,-0.018967866897583008,-0.6707844584595002,-0.9232235608220772,-2.812984484500796,-0.6247485280036926,0.6216006875038147,-0.472548246383667,-0.4119769036769867,1.1996245384216309,-0.12453275918960571
3.5037789344787598,0.2785802483558655,-0.06374222040176392,0.022316783666610718,-0.6712360566026263,-0.907721640983258,-2.825577007216595,-0.617127001285553,0.6219543814659119,-0.48200300335884094,-0.43238142132759094,1.1628140211105347,-0.45885905623435974
3.52365779876709,0.28559577465057373,-0.13366705179214478,0.08539581298828125,-0.669067102977527,-0.8965254923181477,-2.8436196479454936,-0.6127442717552185,0.6202545166015625,-0.48972320556640625,-0.5455524325370789,1.0518767833709717,-0.550248384475708
3.543674945831299,0.3173469305038452,-0.11963242292404175,0.07200610637664795,-0.666622843370943,-0.8895078836252878,-2.863149317410659,-0.610468327999115,0.6183353662490845,-0.49496445059776306,-0.48178011178970337,0.8817017674446106,-0.596582293510437
3.563967704772949,0.30001479387283325,-0.024206101894378662,0.05766564607620239,-0.6624967438311978,-0.8841355341953584,-2.8811597929195525,-0.609768271446228,0.6150873303413391,-0.4998500645160675,-0.3401423394680023,0.7693751454353333,-0.6223491430282593
3.5835578441619873,0.2870368957519531,0.012928545475006104,0.04909193515777588,-0.6567298759313781,-0.879660913898268,-2.8974400764126735,-0.6102486252784729,0.6105301976203918,-0.5048261880874634,-0.32071682810783386,0.6944395899772644,-0.6379287242889404
3.6032748222351074,0.30980557203292847,-0.03167545795440674,0.0992579460144043,-0.6525205978380876,-0.8759260061851275,-2.9145175615616763,-0.6103274822235107,0.6071910858154297,-0.5087428092956543,-0.5128447413444519,0.7426450252532959,-0.5158854126930237
3.623412847518921,0.34326934814453125,-0.06964898109436035,0.16948211193084717,-0.6561482194929737,-0.8734701594928888,-2.9366172376549264,-0.6073837876319885,0.6100694537162781,-0.5088223218917847,-1.1142611503601074,0.8520849943161011,-0.3768937289714813
3.6417407989501953,0.34045374393463135,-0.10895967483520508,0.17424499988555908,-0.6680710704206833,-0.8761899391854084,-2.9702881947506574,-0.6031338572502136,0.6194729208946228,-0.5024767518043518,-1.6737719774246216,0.9416962265968323,-0.4140544533729553
3.6624488830566406,0.4037061333656311,-0.17165011167526245,0.16964489221572876,-0.6847714009059352,-0.8851545128150599,-3.014403392226709,-0.5995222330093384,0.6324959397315979,-0.49043041467666626,-1.954776644706726,0.8818482160568237,-0.5405659079551697
3.6832690238952637,0.46601009368896484,-0.131813645362854,0.11333099007606506,-0.6960380801482478,-0.898488340384353,-3.0590490762777183,-0.6003942489624023,0.6411824226379395,-0.4779244661331177,-1.2946797609329224,0.6255245208740234,-0.7225729823112488
3.703108787536621,0.4778522253036499,-0.024369418621063232,0.047109127044677734,-0.6924352855044933,-0.9058402926562817,-3.0859822988535157,-0.6057056784629822,0.6384134888648987,-0.4749198257923126,-0.11796185374259949,0.33998292684555054,-0.839394211769104
3.723207950592041,0.41303789615631104,0.12805837392807007,-0.08112338185310364,-0.6742240513353871,-0.9098499452487439,-3.0955605713672196,-0.616681694984436,0.6242913603782654,-0.479545533657074,0.5842809677124023,-0.07384169101715088,-1.0551056861877441
3.7430038452148438,0.3153722286224365,0.09006094932556152,0.01366811990737915,-0.6504267802040686,-0.9140562755129201,-3.1012369671942137,-0.6302831768989563,0.6055260896682739,-0.48588186502456665,0.3348788321018219,0.054894011467695236,-1.0856577157974243
3.763092041015625,0.3307521939277649,-0.11188536882400513,0.16765165328979492,-0.634754192897998,-0.9231249681433941,-3.1208861775584573,-0.6421536207199097,0.5929796099662781,-0.48581263422966003,-0.6027337312698364,0.16584937274456024,-1.1160331964492798
3.7832348346710205,0.36761337518692017,-0.21026450395584106,0.18568241596221924,-0.6273718752099182,-0.9391365499609923,3.1292667996141184,-0.6533647775650024,0.587019145488739,-0.4780408442020416,-0.95683753490448,0.1848597377538681,-1.08653724193573
3.802889823913574,0.32050657272338867,-0.060748279094696045,0.09231293201446533,-0.6160585296119822,-0.9527611514103158,3.1003296250885883,-0.6651873588562012,0.5778228044509888,-0.4729129374027252,-0.11168024688959122,0.13451240956783295,-1.2531808614730835
3.822661876678467,0.253449022769928,0.09969174861907959,0.00667184591293335,-0.5884934487622787,-0.9564827481471568,3.0908035808899696,-0.6797033548355103,0.5551085472106934,-0.47943490743637085,0.9444332122802734,0.05898560211062431,-1.4229962825775146
3.8417019844055176,0.2471250295639038,0.03422313928604126,0.12271642684936523,-0.552369924954199,-0.9552695977008582,3.0914330477287,-0.6950468420982361,0.5247061848640442,-0.49152132868766785,1.0815660953521729,0.022538911551237106,-1.4755476713180542
3.8628907203674316,0.2920795679092407,-0.09439548850059509,0.27132153511047363,-0.5168512425964956,-0.9542323316778165,3.0918897907589296,-0.709300696849823,0.49414512515068054,-0.5027058720588684,1.1042284965515137,0.08338778465986252,-1.4126248359680176
3.8825297355651855,0.31821107864379883,0.023801833391189575,0.32672345638275146,-0.4770082828358131,-0.9466101344015961,3.1028798198217324,-0.7208600640296936,0.4591234624385834,-0.5191978216171265,2.0728001594543457,0.1785895824432373,-1.2385046482086182
3.902461051940918,0.2829168438911438,0.142632395029068,0.2842901945114136,-0.4289995642137381,-0.9315698123655874,3.13174034639478,-0.7298315763473511,0.41596123576164246,-0.5425146222114563,2.7593941688537598,-0.013493748381733894,-1.2084426879882812
3.9224867820739746,0.13335496187210083,-0.004684120416641235,0.24656295776367188,-0.37570414155959425,-0.9251846711221867,-3.122985700610723,-0.7430198788642883,0.3669276535511017,-0.5597190856933594,2.343034029006958,-0.5021935701370239,-1.470860481262207
3.942430019378662,0.04024159908294678,-0.17155864834785461,0.1792948842048645,-0.3285129065379199,-0.9370638299800259,-3.10979540165883,-0.7627300024032593,0.32263582944869995,-0.5604899525642395,1.5723557472229004,-1.2006292343139648,-1.5387071371078491
3.9630138874053955,-0.019006729125976562,-0.08783173561096191,0.05636495351791382,-0.2877390741082506,-0.9676724374837945,-3.106416794463803,-0.7897090911865234,0.28378498554229736,-0.5438984036445618,1.1370341777801514,-1.949092984199524,-1.6342425346374512
3.9829068183898926,-0.18245142698287964,0.02034744620323181,-0.0013859272003173828,-0.24598050974060004,-1.0112564352765412,-3.1080802087446844,-0.8219888806343079,0.24350742995738983,-0.5148188471794128,1.0579146146774292,-2.3212883472442627,-1.9773354530334473
4.002202033996582,-0.41108620166778564,-0.04580433666706085,-0.028745204210281372,-0.19557772859465292,-1.0595321967308142,-3.109709678185405,-0.8555000424385071,0.1943332850933075,-0.47995224595069885,1.5036053657531738,-2.3438985347747803,-2.4169647693634033
4.022339820861816,-0.5894696116447449,-0.13743045926094055,-0.0005822181701660156,-0.13762023173821095,-1.1001551357231774,-3.102117173243946,-0.8828509449958801,0.13718624413013458,-0.4491705298423767,1.8268882036209106,-1.9717198610305786,-2.2778408527374268
4.0421059131622314,-0.73319411277771,-0.2000020295381546,-0.0995769202709198,-0.08523694551263193,-1.1392075900037986,-3.089288305941902,-0.9050046801567078,0.08513376861810684,-0.41679567098617554,1.4078654050827026,-1.897282361984253,-1.8437519073486328
4.062533855438232,-1.064601182937622,-0.04361679032444954,0.22755521535873413,-0.04604384331626651,-1.1665272988914681,-3.0980822098130876,-0.9184157848358154,0.04602757468819618,-0.39292994141578674,-0.7963658571243286,-0.7883452773094177,-2.534196615219116
4.08203387260437,-1.3061397075653076,0.001632628496736288,0.45363593101501465,-0.007019084773222481,-1.173061741064082,3.1342452881925023,-0.9219180941581726,0.0070190271362662315,-0.38732120394706726,-2.244757652282715,0.2809765040874481,-2.451723575592041
4.102015972137451,-0.8277407884597778,-0.07552153617143631,0.5419248938560486,-0.0017604512895549864,-1.1564102722983256,3.073551942921961,-0.9153622984886169,0.0017604504246264696,-0.4026274085044861,-2.9985368251800537,1.1839160919189453,-0.5899943709373474
4.121706008911133,-0.755566418170929,0.16719388961791992,0.45061689615249634,-0.01734666628295631,-1.1313451892760042,3.0255036866367018,-0.9048492312431335,0.017345797270536423,-0.42537882924079895,-1.7123769521713257,1.3915190696716309,0.025263715535402298
4.142257928848267,-0.5911152362823486,0.2776798605918884,0.2508426904678345,-0.03261328460898918,-1.1046513295364826,3.022556786682862,-0.8928323984146118,0.03260750323534012,-0.4492068886756897,0.8013418316841125,0.9877657294273376,1.2757916450500488
4.162045955657959,-0.43083715438842773,-0.06325804442167282,-0.013680815696716309,-0.04073197240682806,-1.0969098076900143,3.0638274672070342,-0.8890633583068848,0.040720708668231964,-0.4559694230556488,2.0163426399230957,-0.16849647462368011,1.4295077323913574
4.181801795959473,-0.6634130477905273,-0.3289118707180023,0.3616876006126404,-0.05426493161158649,-1.0984314812212113,3.100397281441936,-0.8891839981079102,0.05423830449581146,-0.4543236792087555,0.34199029207229614,-0.1210886538028717,1.3633915185928345
4.2015509605407715,-0.7729929089546204,-0.7578562498092651,0.44309285283088684,-0.0874352534594989,-1.09583259758353,3.102341639333842,-0.8859120607376099,0.08732388913631439,-0.45555922389030457,-1.6139119863510132,0.4327075481414795,1.821359395980835
4.223265886306763,-0.8506931066513062,-0.4663558006286621,0.11973005533218384,-0.1389520739804664,-1.088238557241124,3.086069824855993,-0.8772732019424438,0.13850536942481995,-0.45957377552986145,-2.1075592041015625,0.5276753902435303,1.942776083946228
4.244394779205322,-0.8907877802848816,-0.1565016657114029,0.0782284140586853,-0.19462366537378295,-1.0808115842132353,3.0665174102603365,-0.8656819462776184,0.19339731335639954,-0.4617275297641754,-2.141404151916504,0.5695735216140747,2.074357271194458
4.259976863861084,-0.8237752318382263,-0.1791389137506485,0.14815765619277954,-0.2511052985234792,-1.0714711695337356,3.0543295021591703,-0.850373387336731,0.24847474694252014,-0.46381622552871704,-1.4254690408706665,0.6096202731132507,2.2860054969787598
4.279990911483765,-0.7864689826965332,-0.014246821403503418,0.06145977973937988,-0.2999274801760393,-1.0581245287730188,3.060271318262099,-0.8325343132019043,0.29545092582702637,-0.4686100482940674,-0.5316561460494995,0.566344141960144,2.3060965538024902
4.299993991851807,-0.7889891862869263,-0.06549957394599915,0.01434376835823059,-0.34312812903560813,-1.0428854985210985,3.0744290865059902,-0.8135040998458862,0.3364345133304596,-0.4743656814098358,-0.6155353784561157,0.5294533371925354,2.11845064163208
4.319986820220947,-0.7674611806869507,-0.15454527735710144,0.01486271619796753,-0.3868055905592004,-1.0328119026997398,3.079478074261973,-0.7952982187271118,0.3772319555282593,-0.47454899549484253,-1.2098339796066284,0.26725760102272034,1.8940318822860718
4.3400187492370605,-0.6824891567230225,-0.104757159948349,0.03909420967102051,-0.43368473710114763,-1.0312673250030686,3.0711271286588904,-0.7785246968269348,0.42021727561950684,-0.466172456741333,-1.8340061902999878,0.2726874053478241,1.7278125286102295
4.362789869308472,-0.6408271193504333,-0.07705464959144592,0.06567466259002686,-0.4819567228916411,-1.03374944585755,3.050919332086975,-0.7613488435745239,0.46351388096809387,-0.45332422852516174,-2.0268661975860596,0.1446658819913864,1.4688010215759277
4.381190776824951,-0.4785413146018982,0.019062817096710205,-0.11160922050476074,-0.5235228963043673,-1.042850338444163,3.0320074875853065,-0.7481433153152466,0.49993428587913513,-0.43628811836242676,-1.7218024730682373,0.009958136826753616,1.4080809354782104
4.401403903961182,-0.4652629494667053,0.09310078620910645,-0.011740505695343018,-0.5603191643919503,-1.0515543467720991,3.0137954564891154,-0.7354359030723572,0.5314565896987915,-0.4203426241874695,-1.5680677890777588,0.1619664877653122,1.0204144716262817
4.421402931213379,-0.40559548139572144,0.07775312662124634,0.00751301646232605,-0.5929903996107003,-1.058976317625,2.994567035194884,-0.7230055928230286,0.5588433742523193,-0.4061488211154938,-1.2608439922332764,-0.07200295478105545,1.0084172487258911
4.440079927444458,-0.2881903648376465,0.12752187252044678,-0.07512006163597107,-0.6227586529844896,-1.0703547038323744,2.9789119386428506,-0.7126641273498535,0.5832781791687012,-0.38973894715309143,-1.3545351028442383,-0.06948573142290115,0.93740314245224
4.461205959320068,-0.3582383394241333,0.05533498525619507,-0.012956738471984863,-0.6486410316877396,-1.0819686837390885,2.959605974486568,-0.703575074672699,0.6041039824485779,-0.37421974539756775,-1.2406712770462036,0.012341044843196869,0.6772947311401367
4.480834007263184,-0.1630326509475708,0.052667438983917236,-0.06687378883361816,-0.6712550848418183,-1.0947019413421264,2.941236909374209,-0.6959609389305115,0.6219692826271057,-0.35887694358825684,-1.139319896697998,-0.15465708076953888,0.6662606000900269
4.5009379386901855,-0.09207808971405029,0.025969624519348145,-0.029137998819351196,-0.6928314943939858,-1.1102238746052118,2.921232310365122,-0.6892635226249695,0.6387184262275696,-0.3419863283634186,-1.20815110206604,-0.0987338125705719,0.5418225526809692
4.520019054412842,-0.10483777523040771,0.03499865531921387,-0.03793150186538696,-0.7126335726821359,-1.1269831673581745,2.897471053533913,-0.6833397746086121,0.6538286805152893,-0.3248920142650604,-1.273982286453247,-0.09920661151409149,0.3809308409690857
4.540020942687988,0.014712333679199219,0.07689803838729858,-0.02574819326400757,-0.7291287543460747,-1.1471012367482178,2.8696800148948065,-0.6798124313354492,0.6662201285362244,-0.30660349130630493,-1.2682291269302368,-0.03516007214784622,0.2704307436943054
4.559995889663696,0.08723282814025879,0.03531438112258911,-0.05214318633079529,-0.7427410979432608,-1.1640262839347297,2.842324996145829,-0.6765119433403015,0.6763095855712891,-0.2914389669895172,-1.2653474807739258,0.13532209396362305,0.12513114511966705
4.580711841583252,0.17548352479934692,-0.007432222366333008,-0.0564839243888855,-0.7535969612589012,-1.1827931385704045,2.8108813873217415,-0.6750258207321167,0.684266209602356,-0.2758983075618744,-1.353997826576233,0.15355142951011658,0.058309853076934814
4.600390911102295,0.3176918029785156,0.04622828960418701,-0.02893945574760437,-0.7651537014198798,-1.2037663703940333,2.775743346198602,-0.6732368469238281,0.6926478743553162,-0.25882604718208313,-1.3589305877685547,0.18963424861431122,0.10199195891618729
4.620442867279053,0.39337342977523804,0.11978757381439209,-0.07655642926692963,-0.7757050160262804,-1.2232226088204163,2.7426047140244463,-0.671235978603363,0.7002195715904236,-0.24317626655101776,-1.2312190532684326,0.17693905532360077,0.06394242495298386
4.6400768756866455,0.4916578531265259,0.05530816316604614,-0.08174541592597961,-0.7855140556124158,-1.2397236907028115,2.7121301635343795,-0.6686294078826904,0.7071887254714966,-0.22982384264469147,-1.1266587972640991,0.3002595603466034,0.10964944213628769
4.660675048828125,0.5748797059059143,-0.008060634136199951,-0.11041045188903809,-0.7949016983521745,-1.2537093942672548,2.683065096781743,-0.6654406189918518,0.7137947678565979,-0.2183706909418106,-1.1213349103927612,0.4012824296951294,0.1809491217136383
4.68033504486084,0.656741201877594,-0.03482162952423096,-0.14271539449691772,-0.8054779430306421,-1.2663424180718514,2.6559322768622886,-0.6609069108963013,0.7211618423461914,-0.20767223834991455,-0.9967171549797058,0.2749243676662445,0.22721175849437714
4.700171947479248,0.7616888284683228,-0.11560451984405518,-0.07092714309692383,-0.8166928414202973,-1.2774095620263408,2.6328683037192784,-0.65538090467453,0.7288856506347656,-0.19799378514289856,-0.8661655187606812,0.31867319345474243,0.411336213350296
4.720019817352295,0.8362313508987427,-0.3109592795372009,-0.027948886156082153,-0.8304285710977901,-1.2838403552747855,2.615346143103247,-0.6469767093658447,0.7382205128669739,-0.190923273563385,-0.6351437568664551,0.3226173520088196,0.5341444611549377
4.740314960479736,0.8809590339660645,-0.3252967596054077,-0.01940050721168518,-0.8428326559301217,-1.2827155066220135,2.6064159340576114,-0.6379324197769165,0.7465308308601379,-0.1890346258878708,-0.21567989885807037,0.46003004908561707,0.47233620285987854
4.760352849960327,0.9750581979751587,-0.29242706298828125,-0.1327342838048935,-0.8534417654210265,-1.2660975670841144,2.6156578767322207,-0.6271120309829712,0.7535474300384521,-0.1972218155860901,0.35064342617988586,0.47675204277038574,0.9391140341758728
4.783153057098389,1.0987250804901123,-0.31826573610305786,-0.22172683477401733,-0.8683875383307317,-1.2317719786040884,2.6455904820603444,-0.6092842221260071,0.7632881999015808,-0.21485769748687744,1.2783623933792114,0.5985769629478455,0.5960056781768799
4.799255847930908,1.203881859779358,-0.3595677614212036,-0.21947412192821503,-0.8660234775021431,-1.1887175369497853,2.695556052496111,-0.6011444330215454,0.7617587447166443,-0.24155496060848236,1.9419268369674683,0.07658421248197556,0.5349917411804199
4.8200907707214355,1.2975653409957886,-0.14275306463241577,-0.06795269250869751,-0.8596606623335944,-1.128906658124974,2.779842399586386,-0.5900000929832458,0.7576211094856262,-0.27912378311157227,3.3831443786621094,-0.5115251541137695,1.0424649715423584
4.840085983276367,1.2129292488098145,0.2828124761581421,0.026719629764556885,-0.8466006125084106,-1.0543310746678074,2.899247542118182,-0.576119065284729,0.7490325570106506,-0.3271652162075043,4.1315693855285645,-0.8999873399734497,1.341471552848816
4.860023021697998,0.8756074905395508,0.20991379022598267,0.150971919298172,-0.8280126921921075,-0.9746864031764237,3.0242422525223427,-0.5596895217895508,0.736588716506958,-0.3797163963317871,3.7532401084899902,-0.37778541445732117,1.426401138305664
4.881712913513184,0.7501537799835205,-0.11647605895996094,0.427700400352478,-0.8124038311235064,-0.9004782442868102,3.1242852727408743,-0.5389416813850403,0.7259424924850464,-0.42725786566734314,2.6054110527038574,0.4218335747718811,1.5386254787445068
4.9024999141693115,0.8573413491249084,-0.4578927755355835,0.5672345161437988,-0.8087961898690385,-0.844516106984231,-3.091011103102354,-0.5161548852920532,0.723456621170044,-0.45846986770629883,1.3460681438446045,-0.10329136997461319,1.0903348922729492
4.922619819641113,0.9004474878311157,-0.4022313356399536,0.4572365880012512,-0.8006348361009572,-0.8273177446290157,-3.045679937581095,-0.512523353099823,0.7177982330322266,-0.4712594151496887,1.7628644704818726,-1.4018139839172363,0.4370900094509125
4.939988851547241,0.6733736395835876,-0.040437519550323486,0.3672075867652893,-0.7687719877583299,-0.8299049175466144,-2.9965476708365406,-0.5303530693054199,0.6952531337738037,-0.4851274788379669,2.9614996910095215,-2.290789842605591,-0.4919719994068146
4.962203025817871,0.32742059230804443,-0.1452450156211853,0.5407773852348328,-0.7146611357149516,-0.8453656943283528,-2.947767809496941,-0.5651373267173767,0.655361533164978,-0.5011197924613953,3.0339126586914062,-2.3883166313171387,-0.988045334815979
4.980723857879639,0.19727104902267456,-0.5498793721199036,0.7658020257949829,-0.6678206327697384,-0.8779396089716781,-2.921686494303387,-0.6041314601898193,0.6192762851715088,-0.5015197992324829,1.4398118257522583,-2.7127983570098877,-1.1875066757202148
5.0002217292785645,-0.0315665602684021,-0.6540933847427368,0.4413074851036072,-0.653457757908417,-0.9429457014618801,-2.9309145399199883,-0.6425668001174927,0.6079354286193848,-0.4663929045200348,-1.4182441234588623,-3.0748507976531982,-0.4719636142253876
5.020020961761475,-1.0513496398925781,-0.12750190496444702,0.08833515644073486,-0.6607289729720826,-1.028724962030247,-2.988734478630497,-0.6763572692871094,0.613692581653595,-0.4073353409767151,-1.983191967010498,-2.0706276893615723,-1.5279308557510376
5.040020942687988,-1.8318651914596558,0.8055261373519897,-0.3749319314956665,-0.6359584831537751,-1.0979536269484949,-3.0316930444897716,-0.716230571269989,0.5939489006996155,-0.3663857877254486,0.43374258279800415,-2.1325948238372803,-2.247076988220215
5.060021877288818,-1.441586971282959,1.016278624534607,-0.6668553352355957,-0.584674686529213,-1.1284204795281343,-3.0143374673019703,-0.7536189556121826,0.5519281625747681,-0.3569788932800293,2.6530685424804688,-1.9124025106430054,-1.65470290184021
5.080057859420776,-1.3598077297210693,0.5100023746490479,-0.45103973150253296,-0.5399833101670519,-1.144242432234664,-2.9809180483313655,-0.7808631658554077,0.5141216516494751,-0.35486844182014465,1.3814655542373657,-1.3735878467559814,-1.2400643825531006
5.100125789642334,-1.046022653579712,0.09137016534805298,-0.1982344090938568,-0.5204118637032881,-1.1620503572896428,-2.9828775085785226,-0.7961403727531433,0.49723753333091736,-0.3448410928249359,-0.6631219983100891,-0.2912532687187195,-0.507599949836731
5.120100975036621,-0.6289658546447754,0.026729941368103027,-0.08967626094818115,-0.5300811204565979,-1.175603576815577,-3.0131415424360095,-0.7962660789489746,0.5056033134460449,-0.33215293288230896,-1.9226105213165283,0.32796433568000793,0.28233081102371216
5.140091896057129,-0.3313307762145996,0.06975692510604858,-0.06539642810821533,-0.5521774036306081,-1.1837000273291793,-3.0448685886646185,-0.7883896827697754,0.5245422720909119,-0.3213985860347748,-1.1322485208511353,0.4306308925151825,0.7017638087272644
5.160179853439331,-0.1825650930404663,0.11037403345108032,-0.08168601989746094,-0.5688983303953553,-1.1773672219756979,-3.0460245858475785,-0.7781283259391785,0.5387042164802551,-0.3229770064353943,0.32033297419548035,0.2520374357700348,0.7359547019004822
5.180098056793213,-0.0855708122253418,-0.07942581176757812,-0.009028106927871704,-0.575990993064187,-1.1642460000552775,-3.0265137327817877,-0.7702946662902832,0.5446661710739136,-0.3316395580768585,0.7205327153205872,0.007747536059468985,0.5575083494186401
5.20007586479187,-0.07144063711166382,-0.3549920916557312,0.053011924028396606,-0.5805738696025919,-1.1570070851501735,-3.011180324520578,-0.7655802369117737,0.5485038757324219,-0.33619973063468933,0.1914484202861786,-0.10420270264148712,0.36766284704208374
5.22009801864624,-0.0984833836555481,-0.4171081781387329,0.09403714537620544,-0.5867516509818318,-1.159200552876917,-3.0118868309874602,-0.7631956338882446,0.5536589026451111,-0.33315759897232056,-0.4669456481933594,-0.06407800316810608,0.19116824865341187
5.240078926086426,-0.08341097831726074,-0.32858115434646606,0.08290049433708191,-0.594915011258655,-1.1678011995563662,-3.0259650420022868,-0.7618498206138611,0.5604383945465088,-0.3247980773448944,-0.8639600872993469,-0.00288762035779655,0.11622049659490585
5.2600250244140625,-0.01218724250793457,-0.3048357367515564,-0.029972374439239502,-0.6039116762852469,-1.1778315010729297,-3.0441271661628786,-0.7603805065155029,0.5678665637969971,-0.315196692943573,-0.7777113318443298,-0.04149120673537254,0.15288734436035156
5.280022859573364,0.03631645441055298,-0.22529947757720947,-0.18019074201583862,-0.6110201319221935,-1.1872490511705154,-3.0530012618293405,-0.7595525979995728,0.5737032890319824,-0.3065035939216614,-0.08065266162157059,-0.3584820330142975,0.20833192765712738
5.300011873245239,-0.07860690355300903,-0.09092003107070923,-0.1204918920993805,-0.6118829968483077,-1.1880213663018582,-3.0444592683675102,-0.7593294382095337,0.5744098424911499,-0.3057318329811096,0.5579817295074463,-0.09466298669576645,0.10432098060846329
5.320099830627441,-0.2435247302055359,-0.15335077047348022,0.0179348886013031,-0.607666367181576,-1.1796556696862606,-3.034775965008945,-0.7589777112007141,0.5709531307220459,-0.31299400329589844,0.22851663827896118,0.30239593982696533,-0.1910143494606018
5.340019941329956,-0.2607851028442383,-0.30417829751968384,-0.036271125078201294,-0.6038914925466861,-1.1752832945508707,-3.0389672760175013,-0.7595853805541992,0.5678499937057495,-0.3171376585960388,-0.39944690465927124,0.3558613061904907,-0.2225823998451233
5.3600029945373535,-0.25916945934295654,-0.18466073274612427,-0.10352373123168945,-0.6045274647559792,-1.177780936944987,-3.054939545474971,-0.760041356086731,0.5683733224868774,-0.31510114669799805,-0.7876532673835754,0.31226950883865356,-0.2772452235221863
5.380002021789551,-0.27750569581985474,-0.08433717489242554,-0.11603885889053345,-0.6050505045200352,-1.1840935771089167,-3.0782355278133426,-0.76173996925354,0.568803608417511,-0.31018489599227905,-1.0109689235687256,0.41721540689468384,-0.35615044832229614
5.400026798248291,-0.19019806385040283,-0.09897017478942871,-0.0629575252532959,-0.608003112476542,-1.1893001967726193,-3.1050445113098166,-0.7617825865745544,0.5712295770645142,-0.3055879771709442,-1.0979193449020386,0.614565372467041,-0.18202924728393555
5.420032024383545,-0.16827625036239624,0.005774259567260742,0.009948700666427612,-0.6121261262583243,-1.191376034715284,-3.134665083000369,-0.760221004486084,0.5746088624000549,-0.3031310439109802,-1.308484673500061,0.8488389849662781,-0.5187190175056458
5.440019845962524,-0.17527496814727783,0.09382796287536621,0.01005709171295166,-0.6070140753336126,-1.1915348639517471,3.1177242901298494,-0.7629879713058472,0.5704175233840942,-0.3040939271450043,-0.8917272090911865,0.8980624079704285,-0.6747329235076904
5.460024833679199,-0.04728353023529053,-0.026727259159088135,0.043597131967544556,-0.6056717683936093,-1.187965423169608,3.090340190706621,-0.7626073360443115,0.5693144798278809,-0.30710119009017944,-1.2244397401809692,1.0579382181167603,-0.3795788288116455
5.479992866516113,-0.17391735315322876,-0.04361516237258911,0.061816513538360596,-0.608137981678186,-1.1880364247406388,3.0519865598511164,-0.761324405670166,0.5713402628898621,-0.3065217137336731,-1.7851905822753906,1.099802851676941,-0.5655903220176697
5.500033855438232,-0.12984126806259155,0.009541153907775879,0.06931918859481812,-0.6123151789966093,-1.1924087985344476,3.0042835487133854,-0.760432779788971,0.5747635364532471,-0.302305668592453,-1.955029845237732,1.1861867904663086,-0.4508952796459198
5.520020961761475,-0.0021802783012390137,0.012656867504119873,0.06339246034622192,-0.6196961314623352,-1.1958792659017206,2.957663139131592,-0.7575090527534485,0.5807878375053406,-0.2981031537055969,-1.8044040203094482,1.186355471611023,-0.27160710096359253
5.540067911148071,-0.0033929944038391113,0.03153789043426514,0.05939266085624695,-0.6266227593251039,-1.195881646079355,2.9164970263713808,-0.7537482976913452,0.5864124894142151,-0.29662108421325684,-1.5840108394622803,1.2094749212265015,-0.33773064613342285
5.560022830963135,-0.018271327018737793,0.05312389135360718,0.04726579785346985,-0.6306662177859211,-1.195672120798153,2.8776323341889287,-0.7514735460281372,0.589682936668396,-0.29590776562690735,-1.5125497579574585,1.108469009399414,-0.4089397192001343
5.580020904541016,0.025526881217956543,0.008655071258544922,0.03366774320602417,-0.6355742570159595,-1.1961088642928017,2.8398237083942495,-0.748900294303894,0.5936397314071655,-0.29451677203178406,-1.5693473815917969,1.1017380952835083,-0.22730302810668945
5.600019931793213,0.09245067834854126,-0.04717659950256348,0.0808573067188263,-0.6452599502047339,-1.1970439384492544,2.799381113072414,-0.7437873482704163,0.6014061570167542,-0.2917032539844513,-1.7803598642349243,1.199942946434021,-0.09552530944347382
5.620019912719727,0.11637890338897705,-0.01182568073272705,0.037489891052246094,-0.6563695010553569,-1.2008496586627404,2.7548237485774787,-0.7386170625686646,0.6102447509765625,-0.2864370346069336,-1.936242699623108,1.1124613285064697,-0.16995251178741455
5.640081882476807,0.15121614933013916,0.01484227180480957,-0.02445197105407715,-0.6660417438741021,-1.2070176780603918,2.710183856859727,-0.7348190546035767,0.6178785562515259,-0.27976253628730774,-1.6553425788879395,1.0067784786224365,-0.149443581700325
5.660022735595703,0.18742495775222778,0.0071122050285339355,-0.07496485114097595,-0.674972995037363,-1.2106540827750614,2.6737791229137655,-0.7306379079818726,0.6248762607574463,-0.2751328647136688,-1.3605819940567017,0.9250569343566895,-0.034303344786167145
5.68005895614624,0.18251121044158936,-0.011880040168762207,-0.07303407788276672,-0.6844819317643859,-1.2111890054232641,2.643758573705432,-0.7251900434494019,0.6322717070579529,-0.2726385295391083,-1.1832630634307861,0.8962051272392273,0.14698578417301178
5.700019836425781,0.16329491138458252,-0.01866370439529419,-0.06414476037025452,-0.6960898574695302,-1.2104021415970434,2.614974979483181,-0.718058705329895,0.6412221193313599,-0.2706025540828705,-1.2482224702835083,1.0015052556991577,0.11064643412828445
5.72002387046814,0.17599940299987793,-0.017424345016479492,-0.09840971231460571,-0.7061298633649095,-1.208856749847058,2.5865739270050274,-0.7115828990936279,0.6488939523696899,-0.26941871643066406,-1.1990611553192139,0.9965121150016785,0.07464662194252014
5.740020751953125,0.20696604251861572,-0.01864755153656006,-0.11502683162689209,-0.7157385119252937,-1.2083273509414771,2.557975684798624,-0.705577552318573,0.656174898147583,-0.2675721049308777,-1.1795005798339844,0.8997628092765808,0.0875016525387764
5.760087966918945,0.2306615114212036,-0.07616889476776123,-0.1302327811717987,-0.7273988755536527,-1.209475232314427,2.5301284501717984,-0.6986790299415588,0.6649290919303894,-0.2640390992164612,-1.2273892164230347,0.8106676340103149,0.28023818135261536
5.780070781707764,0.23246479034423828,-0.08354038000106812,-0.13523396849632263,-0.7419390198781985,-1.2136972071690766,2.501424312152906,-0.6906556487083435,0.6757185459136963,-0.25767987966537476,-1.248953104019165,0.688502848148346,0.31368616223335266
5.800022840499878,0.2075985074043274,-0.042881548404693604,-0.17627063393592834,-0.7561360721297641,-1.2196213722365163,2.474564598905862,-0.6830928921699524,0.6861156225204468,-0.25025829672813416,-1.0624943971633911,0.5421247482299805,0.3438733220100403
5.820021867752075,0.1923229694366455,-0.04845088720321655,-0.2194434404373169,-0.7688603622448248,-1.2243256145837227,2.4541137657652903,-0.6759961247444153,0.6953166127204895,-0.24405762553215027,-0.7820183634757996,0.3959145247936249,0.3380664885044098
5.840028762817383,0.17265313863754272,-0.09263867139816284,-0.21785913407802582,-0.7797861595113844,-1.2279998158004202,2.439485584671351,-0.6696929335594177,0.703127384185791,-0.23900431394577026,-0.6281510591506958,0.2528461515903473,0.3255959153175354
5.860023021697998,0.12319296598434448,-0.11328089237213135,-0.18734252452850342,-0.7886406673034669,-1.234734077507292,2.424673743576316,-0.665383517742157,0.7093958854675293,-0.23242680728435516,-0.7111769914627075,0.12676793336868286,0.13283422589302063
5.880030870437622,0.06893408298492432,-0.09212058782577515,-0.19681577384471893,-0.7946391535592138,-1.2486270181148014,2.403431083651173,-0.6644998788833618,0.7136108875274658,-0.22180917859077454,-0.9153401255607605,-0.04601804539561272,-0.01243229117244482
5.900030851364136,-0.026229023933410645,0.054549992084503174,-0.27702534198760986,-0.7999420171169406,-1.2701589593164,2.3768968907258152,-0.6654976606369019,0.717315673828125,-0.2063273936510086,-0.9281471967697144,-0.12022197246551514,-0.050254229456186295
5.920018911361694,-0.19776618480682373,0.2891601324081421,-0.2590692639350891,-0.8047630640017057,-1.283771213205592,2.357390690105658,-0.6649200320243835,0.7206664085388184,-0.19626833498477936,-0.5166208148002625,0.18834199011325836,0.11964327841997147
5.940021991729736,-0.26721662282943726,0.3515022397041321,-0.14852583408355713,-0.8086080513346557,-1.2819025547951004,2.348729073607239,-0.6618911027908325,0.7233267426490784,-0.19671961665153503,-0.20608477294445038,0.6459739804267883,0.08094276487827301
5.960066795349121,-0.14861077070236206,0.17500156164169312,-0.025482118129730225,-0.8118874771139455,-1.2682224372560267,2.3442907139297784,-0.6568702459335327,0.7255873084068298,-0.20504774153232574,-0.28705716133117676,0.9589160084724426,0.1434888243675232
5.980025768280029,-0.009093999862670898,-0.0017733573913574219,0.058844029903411865,-0.8173162546745274,-1.25765564675464,2.33221310788207,-0.6509097218513489,0.7293123006820679,-0.21076063811779022,-0.6726135611534119,0.9841070771217346,0.10719157755374908
6.000027894973755,0.08204847574234009,-0.09688049554824829,0.09557206928730011,-0.8245464421226573,-1.2548944816411602,2.3098086366507116,-0.6452961564064026,0.734239935874939,-0.21091333031654358,-0.9992800951004028,0.90491783618927,0.115901418030262
6.01997184753418,0.12677252292633057,-0.09342902898788452,0.12555542588233948,-0.8330094336735221,-1.260092765907152,2.2805955618544353,-0.6404443383216858,0.7399590015411377,-0.20564888417720795,-1.082479476928711,0.7331770658493042,0.06806948781013489
6.03997278213501,0.08153420686721802,-0.0383760929107666,0.12121215462684631,-0.8389049955696103,-1.2641668718773564,2.2563326483489288,-0.6371066570281982,0.7439118027687073,-0.20171760022640228,-0.5981252789497375,0.6559792757034302,0.006305929739028215
6.060117721557617,0.013293802738189697,0.06785398721694946,0.1343618780374527,-0.839684104278213,-1.2587628544659675,2.246316431198063,-0.6354556679725647,0.7444322109222412,-0.20497962832450867,-0.12763264775276184,0.6428592801094055,-0.14618338644504547
6.080020904541016,-0.0010066628456115723,0.02933979034423828,0.20125934481620789,-0.8372436796260986,-1.2488642772127798,2.2413339394411813,-0.6351169943809509,0.7428005337715149,-0.21183374524116516,-0.22903072834014893,0.7323224544525146,-0.18337225914001465
6.100021839141846,0.031992316246032715,-0.08889061212539673,0.24493767321109772,-0.8364770233892436,-1.2428883763356486,2.2273572597941773,-0.6343787908554077,0.7422870397567749,-0.2158087193965912,-0.6665771007537842,0.8750633597373962,-0.19355635344982147
6.120041847229004,0.08817416429519653,-0.11335653066635132,0.23306500911712646,-0.8381272669004278,-1.2426043513336704,2.2028749084286425,-0.6331571340560913,0.7433918118476868,-0.21559378504753113,-0.9243059158325195,0.9665762186050415,-0.1781349629163742
6.140075922012329,0.15207237005233765,-0.0999288558959961,0.21259301900863647,-0.8408691085764589,-1.2459031201548245,2.17228983279813,-0.6319308280944824,0.7452229261398315,-0.21285252273082733,-1.1088837385177612,0.9783532023429871,-0.25130659341812134
6.16002082824707,0.18382149934768677,-0.14653116464614868,0.16766244173049927,-0.8418565707888698,-1.2537771811942426,2.1359141398163515,-0.6328876614570618,0.7458810210227966,-0.2076406031847,-1.2043253183364868,0.9446357488632202,-0.3915538787841797
6.18001389503479,0.22157162427902222,-0.1777958869934082,0.108111172914505,-0.8415807823113706,-1.2646991306060047,2.0975895492222962,-0.6353136301040649,0.7456973195075989,-0.20077791810035706,-1.1934680938720703,0.8258362412452698,-0.42381012439727783
6.200053930282593,0.24010545015335083,-0.1630116105079651,0.09282906353473663,-0.840210010318762,-1.2762779493848706,2.060452095210047,-0.6385734677314758,0.7447832822799683,-0.1937049925327301,-1.1640408039093018,0.8250631093978882,-0.465253084897995
6.220070838928223,0.2037861943244934,-0.1462419033050537,0.1259177327156067,-0.8358983015949389,-1.287115723635305,2.0211384739504337,-0.6437123417854309,0.7418991327285767,-0.18767015635967255,-1.2607204914093018,1.0356454849243164,-0.7378581166267395
6.240025043487549,0.18567264080047607,-0.15433388948440552,0.15347029268741608,-0.8269154533971368,-1.2955566928762374,1.977417040185845,-0.6516607999801636,0.7358461618423462,-0.18403378129005432,-1.3309203386306763,1.387684941291809,-0.9004231095314026
6.260020732879639,0.1946592926979065,-0.16160345077514648,0.10437215864658356,-0.8156143669627931,-1.2999500839695692,1.9308841651649022,-0.660433828830719,0.7281468510627747,-0.18338225781917572,-1.4049208164215088,1.4898985624313354,-1.0731467008590698
6.280056953430176,0.20628851652145386,-0.15800189971923828,0.06704127788543701,-0.800660652075555,-1.3067011638351322,1.8838035557704589,-0.6720935702323914,0.7178162336349487,-0.18174169957637787,-1.2694264650344849,1.3341515064239502,-1.1470304727554321
6.300020933151245,0.14229363203048706,-0.22928446531295776,0.03960104286670685,-0.7892992017312744,-1.3113003738316888,1.841095008142226,-0.6807610392570496,0.7098598480224609,-0.1807297319173813,-1.4103177785873413,1.2778596878051758,-0.8507261872291565
6.3201048374176025,-0.016528308391571045,-0.15583759546279907,0.09285706281661987,-0.7759695028261739,-1.3151665105574932,1.7984779405864508,-0.6905487179756165,0.700408399105072,-0.1804731786251068,-1.0897163152694702,1.346720576286316,-1.1601239442825317
6.340021848678589,-0.08836531639099121,0.10221242904663086,0.038783684372901917,-0.758763736802181,-1.3130728095409607,1.7659815668637917,-0.7017194628715515,0.6880248188972473,-0.18496303260326385,-0.7599002718925476,1.1473674774169922,-1.1222777366638184
6.360018730163574,-0.19240915775299072,0.1437368392944336,0.06903007626533508,-0.74053583806844,-1.3075580668164994,1.7398460739755401,-0.712681233882904,0.6746835112571716,-0.1920618712902069,-0.6735422611236572,1.2132452726364136,-1.1071865558624268
6.380019903182983,-0.2560294270515442,0.09592288732528687,0.11237114667892456,-0.7241715307450468,-1.2997052046032418,1.7128454449744677,-0.7216927409172058,0.6625151038169861,-0.2005823701620102,-0.8626244068145752,1.4102730751037598,-1.0151915550231934
6.400019884109497,-0.19711965322494507,0.12460333108901978,0.10776859521865845,-0.7098875247710545,-1.2924386438140067,1.6812679228867244,-0.7292414307594299,0.6517484784126282,-0.20840045809745789,-0.978579580783844,1.3637224435806274,-1.0408037900924683
6.4200439453125,-0.11410409212112427,0.14844542741775513,0.06695419549942017,-0.6943083319163684,-1.2861138580610303,1.6508023252839084,-0.7375652194023132,0.6398540735244751,-0.2158343344926834,-0.8444714546203613,1.215710997581482,-1.1050512790679932
6.44002103805542,-0.03908216953277588,0.13528400659561157,0.059665992856025696,-0.6771663621266312,-1.2818155977970902,1.6225076422069222,-0.7470353245735168,0.6265871524810791,-0.22209590673446655,-0.7901511788368225,1.023577094078064,-1.1592885255813599
6.460024833679199,0.05244821310043335,0.1092146635055542,0.03803455829620361,-0.6596576878599077,-1.2805922743663634,1.5936229591366937,-0.7571600675582886,0.6128463745117188,-0.22611452639102936,-0.886013388633728,0.9117490649223328,-1.1723092794418335
6.480020046234131,0.1902286410331726,0.08834302425384521,-0.044261395931243896,-0.6421236764555047,-1.2808223945249164,1.565615351596551,-0.7673923373222351,0.5988974571228027,-0.22897790372371674,-0.6919615268707275,0.77455073595047,-1.1300333738327026
6.5000457763671875,0.3681017756462097,0.08406293392181396,-0.09655717015266418,-0.6252430325231727,-1.2783578322064386,1.5459328977475122,-0.7763965129852295,0.5852943658828735,-0.23374998569488525,-0.34735116362571716,0.6364968419075012,-0.9500489234924316
6.520021915435791,0.4505261778831482,0.05035555362701416,-0.10466299951076508,-0.6089661620507784,-1.2740455139895932,1.535080524541271,-0.7843883633613586,0.5720197558403015,-0.23985004425048828,-0.012369487434625626,0.47057998180389404,-0.8423723578453064
6.540020942687988,0.48759162425994873,-0.016879796981811523,-0.048157840967178345,-0.593816302515904,-1.266454064313735,1.5313369587881032,-0.7907228469848633,0.559528112411499,-0.24836638569831848,0.12576456367969513,0.49432969093322754,-0.6842766404151917
6.560024738311768,0.5321205258369446,-0.07697868347167969,-0.013955950736999512,-0.5823107071153321,-1.2595889411037402,1.5283008155531654,-0.7950752377510071,0.5499553084373474,-0.2557433247566223,-0.011229349300265312,0.34962141513824463,-0.5024548768997192
6.579659938812256,0.5717220902442932,-0.10032212734222412,-0.009714365005493164,-0.5751263133656087,-1.2566436332214912,1.5250313377937315,-0.7980557084083557,0.5439407825469971,-0.2592982053756714,-0.023044981062412262,0.12756218016147614,-0.2866414189338684
6.600019931793213,0.5323878526687622,-0.041109561920166016,-0.03092658519744873,-0.5695437935154106,-1.2559842363654703,1.5255462503412636,-0.8007593750953674,0.5392479300498962,-0.2607605755329132,0.29016023874282837,-0.08304379880428314,-0.2588185667991638
6.620032787322998,0.4665476083755493,-0.009611666202545166,-0.06891128420829773,-0.5622724262759649,-1.254133970904641,1.5350166754029742,-0.8039805293083191,0.5331101417541504,-0.2634558081626892,0.6620858907699585,-0.22891560196876526,-0.15505607426166534
6.640034914016724,0.4638115167617798,-0.05556178092956543,0.014229178428649902,-0.5565541974668639,-1.2511868381833746,1.549909070288922,-0.8060812950134277,0.5282635688781738,-0.26677748560905457,0.6563538312911987,-0.2372732311487198,0.01029975339770317
6.660055875778198,0.43234193325042725,-0.13969725370407104,0.09607252478599548,-0.5542179700019673,-1.2476061110583558,1.5639872648626085,-0.8062889575958252,0.5262784957885742,-0.2700533866882324,0.5773169994354248,-0.12458733469247818,0.13760875165462494
6.680020809173584,0.37648963928222656,-0.15606790781021118,0.12045788764953613,-0.5537850815161549,-1.2413109823790935,1.5784691356653713,-0.8047885894775391,0.5259103775024414,-0.27519741654396057,0.6871984601020813,-0.05458179861307144,0.17318858206272125
6.700019836425781,0.34849870204925537,-0.11893594264984131,-0.0030884742736816406,-0.5507115736430152,-1.2342232492546064,1.5992297708783108,-0.8043397068977356,0.5232937335968018,-0.2814270555973053,1.0631948709487915,-0.35698381066322327,0.12882864475250244
6.720073938369751,0.32369011640548706,-0.01460874080657959,-0.02883225679397583,-0.5450061608951288,-1.2309596539228735,1.6251315825239687,-0.8062187433242798,0.5184233784675598,-0.2850411534309387,1.2281550168991089,-0.6200464367866516,0.0707646906375885
6.740019798278809,0.20276081562042236,-0.03978371620178223,0.0339415967464447,-0.537757099740449,-1.2278798984162353,1.6539703871915556,-0.8088551163673401,0.5122109651565552,-0.28877878189086914,1.2859526872634888,-0.5004673600196838,0.07984904944896698
6.760018825531006,0.11836737394332886,-0.07918614149093628,0.11255955696105957,-0.5299275148185679,-1.2217419863889154,1.6812236336132247,-0.8108112215995789,0.5054708123207092,-0.2951005697250366,1.1947640180587769,-0.2919747531414032,-0.056298695504665375
6.780019760131836,0.07407230138778687,-0.06575942039489746,0.13625630736351013,-0.5175061197340042,-1.2134941382202364,1.7063138183717912,-0.8141692280769348,0.4947143495082855,-0.3039504885673523,1.3318911790847778,-0.15503525733947754,-0.356309711933136
6.799263954162598,0.011920809745788574,-0.0665314793586731,0.1307123601436615,-0.49778558568828746,-1.2035593276142178,1.7338259629920165,-0.8200567364692688,0.47748103737831116,-0.31546589732170105,1.6375880241394043,-0.21274489164352417,-0.6557850241661072
6.820020914077759,-0.08701348304748535,-0.07143738865852356,0.09704771637916565,-0.46952692746661456,-1.1970142937087997,1.763205480428079,-0.8302074670791626,0.4524644613265991,-0.3256244361400604,1.7623790502548218,-0.5368123650550842,-1.0472724437713623
6.8400559425354,-0.15655797719955444,-0.08568984270095825,0.10656076669692993,-0.43476799467532123,-1.201130124909604,1.7881881918850417,-0.8457002639770508,0.4211999773979187,-0.3276912569999695,1.5270696878433228,-0.9964098334312439,-1.3773959875106812
6.860020875930786,-0.34717077016830444,-0.12882402539253235,0.14636105298995972,-0.39681611242473624,-1.2188592180991655,1.8024407626471208,-0.8657656311988831,0.3864838182926178,-0.31793099641799927,1.0130747556686401,-1.3103764057159424,-1.6982524394989014
6.8800208568573,-0.6242035031318665,-0.1383097767829895,0.16765186190605164,-0.35740272019174346,-1.2455148114149575,1.804685913472259,-0.8876831531524658,0.34984225034713745,-0.2993811368942261,0.5520791411399841,-1.4436814785003662,-1.9545810222625732
6.9000208377838135,-0.8047078251838684,-0.09592190384864807,0.183627188205719,-0.3154846715162072,-1.2727978150479065,1.8033251151813845,-0.9087473154067993,0.3102772533893585,-0.27911683917045593,0.6550004482269287,-1.1942458152770996,-2.098745584487915
6.9200439453125,-0.952172577381134,0.0024759769439697266,0.15998780727386475,-0.26745528442516736,-1.2909668273666857,1.8115690890647793,-0.9269320368766785,0.2642780542373657,-0.2663722038269043,1.477330207824707,-0.8840948939323425,-2.2760040760040283
6.940014839172363,-0.8852114081382751,0.00656600296497345,0.15447601675987244,-0.2139185147492945,-1.3006071198143199,1.832383442433742,-0.9417539834976196,0.2122907191514969,-0.2608299255371094,1.8664888143539429,-0.5920593738555908,-2.2125325202941895
6.960049867630005,-0.7895136475563049,-0.10727624595165253,0.126481294631958,-0.16886860139176965,-1.307147263197218,1.856955888221931,-0.9517124891281128,0.16806715726852417,-0.25689828395843506,1.619490385055542,-0.4877442419528961,-1.491977572441101
6.980027914047241,-0.7695668339729309,-0.12090474367141724,0.21850267052650452,-0.1418726162629489,-1.3063750237033944,1.8786447004047853,-0.955545961856842,0.141397163271904,-0.2587248980998993,1.1457527875900269,0.19112491607666016,-0.6507409811019897
6.999990940093994,-0.7743982672691345,-0.018024727702140808,0.21770557761192322,-0.1295777084363383,-1.2918184757450815,1.899535555444264,-0.9532780051231384,0.12921540439128876,-0.2730645537376404,1.259960651397705,1.0695215463638306,0.02785388194024563
7.020025730133057,-0.7642139196395874,-0.11274127662181854,0.0931941568851471,-0.1284597627618702,-1.263816218329635,1.9321515398837668,-0.9453959465026855,0.1281067430973053,-0.29969140887260437,1.640636920928955,0.9650416374206543,0.6699975728988647
7.040021896362305,-0.586058497428894,-0.3219531774520874,-0.00973615050315857,-0.13492306838695128,-1.2548028256998263,1.9692340890366746,-0.9418497085571289,0.13451407849788666,-0.3079366385936737,1.3250130414962769,-0.3002675473690033,1.2206978797912598
7.060022830963135,-0.5979871153831482,-0.4291345179080963,0.40168386697769165,-0.15993314046450507,-1.2605272180338722,1.9883249635551123,-0.940098762512207,0.15925219655036926,-0.3014184832572937,-0.09751564264297485,-0.49282199144363403,1.5767637491226196
7.0794997215271,-0.8687745332717896,-0.6631677150726318,0.20411354303359985,-0.19488596596037785,-1.2627566876138427,1.9920750870882191,-0.9348905682563782,0.19365465641021729,-0.2974516451358795,-0.7012314200401306,0.4271320402622223,1.894080400466919
7.100019931793213,-1.05576753616333,-0.33615773916244507,0.05827304720878601,-0.23546806811168988,-1.25298698778997,1.98627916466887,-0.9237093925476074,0.2332981675863266,-0.30386337637901306,-0.8701860308647156,0.45129290223121643,1.7662020921707153
7.120060920715332,-0.9745855331420898,-0.2101728916168213,0.043466776609420776,-0.27704235580934494,-1.2411327189633792,1.9810141494976317,-0.9100731611251831,0.27351197600364685,-0.31138068437576294,-1.094603180885315,0.9112571477890015,2.0524892807006836
7.14001989364624,-0.9190887212753296,-0.2451721727848053,0.16614675521850586,-0.323975701837178,-1.230912987380458,1.9698295822834004,-0.8937469124794006,0.31833794713020325,-0.3160339295864105,-1.4733809232711792,0.5072517395019531,2.0439908504486084
7.160021781921387,-0.7658880949020386,-0.10274741053581238,0.17127925157546997,-0.3738131869286977,-1.2260659297118448,1.9554749218417444,-0.8761712312698364,0.3651679456233978,-0.314605176448822,-1.3807474374771118,0.4791261851787567,2.1205453872680664
7.18002986907959,-0.8233168721199036,-0.05465778708457947,0.10766664147377014,-0.4205022568695959,-1.2186320639355115,1.9452551780717384,-0.8568587303161621,0.40821900963783264,-0.3148810863494873,-1.039979338645935,0.6989434957504272,1.9391818046569824
7.200063705444336,-0.7585291862487793,0.01365700364112854,0.0440349280834198,-0.4602619503113983,-1.204698187288768,1.9435408533661969,-0.8365635275840759,0.444182813167572,-0.3207226097583771,-0.5968745946884155,0.6950287818908691,1.7308695316314697
7.220020771026611,-0.5995309948921204,0.01725897192955017,0.0006783008575439453,-0.49526415424659503,-1.1934716548954796,1.9431329828714206,-0.8179494738578796,0.4752640724182129,-0.3241647481918335,-0.8614369034767151,0.5178874135017395,1.582709550857544
7.240020751953125,-0.5373200178146362,-0.0651315450668335,0.021245688199996948,-0.5317839895230897,-1.1890294284309162,1.9335943680835168,-0.799853503704071,0.5070717930793762,-0.3211115598678589,-1.2325598001480103,0.42312484979629517,1.4369443655014038
7.260056972503662,-0.45329660177230835,0.029256999492645264,0.020863085985183716,-0.5654443319808027,-1.1860383065558249,1.9206819667387545,-0.7826194763183594,0.5357910394668579,-0.3169142007827759,-0.9257314801216125,0.5275643467903137,1.2701363563537598
7.280020713806152,-0.33932721614837646,0.09825330972671509,-0.04703989624977112,-0.5907748315586792,-1.1784669393929692,1.9155703814522826,-0.7674078941345215,0.5570046901702881,-0.31753844022750854,-0.5411896705627441,0.5529600381851196,0.9667158722877502
7.300031900405884,-0.22089064121246338,-0.0041918158531188965,-0.057277411222457886,-0.60996764411021,-1.1707229212982744,1.9126822796198246,-0.7549393177032471,0.5728409290313721,-0.3192485570907593,-0.5091779232025146,0.41827061772346497,0.7278382778167725
7.320047855377197,-0.13952600955963135,-0.07037961483001709,0.010277807712554932,-0.6271552135809436,-1.1673918008185762,1.9028490202388846,-0.7447055578231812,0.586843729019165,-0.317849338054657,-0.8896949291229248,0.4402637779712677,0.5400612354278564
7.339235782623291,-0.0543212890625,-0.02718561887741089,-0.02853277325630188,-0.6429676302901659,-1.1699436776438739,1.8848978070174465,-0.7368773818016052,0.5995731353759766,-0.3122876286506653,-1.036850929260254,0.3730985224246979,0.40994131565093994
7.3600218296051025,0.034741878509521484,0.08668971061706543,-0.04369106888771057,-0.6579826130235493,-1.1763422437051156,1.865505652611464,-0.7304664254188538,0.6115218997001648,-0.3040721118450165,-1.0008512735366821,0.16012802720069885,0.30140334367752075
7.380048751831055,0.08439797163009644,0.115364670753479,0.025969326496124268,-0.6690370677507705,-1.1859789126553335,1.8454442741510633,-0.7270523309707642,0.6202309131622314,-0.2944630980491638,-0.8103287220001221,0.15695451200008392,0.15220637619495392
7.400043964385986,0.13002270460128784,0.1430199146270752,0.010093539953231812,-0.6745264383931775,-1.195223534302332,1.8271370815630246,-0.7265650033950806,0.6245275139808655,-0.2864760458469391,-0.7436102032661438,0.07203420251607895,-0.11393434554338455
7.4200239181518555,0.23671424388885498,0.0961652398109436,0.028133749961853027,-0.6778457730680633,-1.208576542809279,1.80344789090722,-0.72838294506073,0.6271165013313293,-0.2760128974914551,-1.1022158861160278,0.06919625401496887,-0.2496764063835144
7.439558029174805,0.39645224809646606,0.0856398344039917,-0.004867285490036011,-0.6805284687305087,-1.2265008052181794,1.7746556074005964,-0.7316268086433411,0.6292038559913635,-0.26234474778175354,-1.1214388608932495,-0.036225780844688416,-0.3186175525188446
7.460023880004883,0.5494794249534607,0.2029781937599182,0.04195407032966614,-0.6798043384012666,-1.2416260263219252,1.7510619009346033,-0.7359417676925659,0.62864089012146,-0.2513962984085083,-0.5118929147720337,-0.016424821689724922,-0.37066617608070374
7.480020046234131,0.6365005970001221,0.20575648546218872,0.030635729432106018,-0.6735791070226074,-1.2483509117290288,1.7429514642867516,-0.7413131594657898,0.6237874031066895,-0.24767686426639557,0.08472321182489395,-0.1902489960193634,-0.35737183690071106
7.5000319480896,0.7637099623680115,0.05514991283416748,0.04606598615646362,-0.6675252234709728,-1.2540994176239226,1.7408308885047687,-0.7462996244430542,0.619044303894043,-0.24458296597003937,-0.2607581615447998,-0.18831756711006165,-0.21955710649490356
7.520153999328613,0.816223680973053,-0.03320503234863281,0.0647243857383728,-0.6696531167293172,-1.2659813533910549,1.7264444304236661,-0.747894823551178,0.6207140684127808,-0.23530256748199463,-0.8886078000068665,-0.13586777448654175,0.03961334377527237
7.540024757385254,0.8004070520401001,0.11549466848373413,-0.036379992961883545,-0.6781440754975708,-1.2820408818786115,1.7046734014761893,-0.7464977502822876,0.6273488402366638,-0.2217530608177185,-0.9429136514663696,-0.07918735593557358,0.289803683757782
7.560024738311768,0.8360345363616943,0.12045609951019287,-0.03997832536697388,-0.6889060166517361,-1.29169781969269,1.690366446657956,-0.7420709133148193,0.6356930732727051,-0.21266159415245056,-0.3694489598274231,0.04057827591896057,0.4489402770996094
7.579347848892212,0.9393066763877869,0.04259347915649414,0.023682326078414917,-0.7009406417077009,-1.2891381798351127,1.6913432624131068,-0.7341216802597046,0.6449368596076965,-0.21241842210292816,-0.007868904620409012,0.09915849566459656,0.7655677795410156
7.600064754486084,1.0503177642822266,-0.24597859382629395,0.11475580930709839,-0.7204265568030646,-1.2844609278708787,1.6952314240878525,-0.7209262847900391,0.6597052812576294,-0.21225959062576294,-0.29719334840774536,0.07348163425922394,1.1287791728973389
7.6200337409973145,1.0428193807601929,-0.24669259786605835,0.13474036753177643,-0.7448686760743946,-1.2830910819699448,1.6968988138666445,-0.7049592137336731,0.677875280380249,-0.20860828459262848,-0.20823490619659424,0.044427696615457535,1.2639564275741577
7.640044927597046,1.0401594638824463,-0.19114863872528076,0.18498346209526062,-0.7695578848424651,-1.2747035691148088,1.7064875415046779,-0.6869643330574036,0.695817768573761,-0.20956553518772125,0.2049734741449356,0.09725300967693329,1.3235900402069092
7.660027027130127,1.1240156888961792,-0.2578449845314026,0.24555881321430206,-0.7923747029695838,-1.2592621520364322,1.7295491483075605,-0.6683576703071594,0.7120226621627808,-0.215224489569664,0.6666379570960999,-0.15754030644893646,1.432381272315979
7.680019855499268,1.1598211526870728,-0.40845781564712524,0.29111143946647644,-0.8125438589124219,-1.242556225949001,1.765039810503981,-0.650940477848053,0.7260388135910034,-0.221684068441391,1.0615031719207764,-0.7467601299285889,1.2201908826828003
7.700021743774414,1.1327335834503174,-0.5344119071960449,0.3504211902618408,-0.8220114785580565,-1.226199969743417,1.8129615083897574,-0.6407291293144226,0.7325166463851929,-0.22996847331523895,1.9661898612976074,-1.235748052597046,0.6689494252204895
7.720067024230957,1.1145100593566895,-0.34931784868240356,0.34346237778663635,-0.8119495751201831,-1.1956691114097275,1.892205991397182,-0.6402364373207092,0.7256300449371338,-0.2521081566810608,3.448453426361084,-1.3036773204803467,0.28430816531181335
7.740029811859131,0.9140207767486572,-0.42757928371429443,0.3670644760131836,-0.777421403632111,-1.147327888539124,1.9962402278612978,-0.6497690677642822,0.7014439105987549,-0.29287636280059814,4.563998699188232,-1.4485352039337158,-0.7037383913993835
7.760018825531006,0.8715842366218567,-0.5381927490234375,0.4745859205722809,-0.716485115724491,-1.107639224188055,2.105592181150383,-0.6746695041656494,0.6567381024360657,-0.33692118525505066,5.002087593078613,-2.0753867626190186,-1.1642102003097534
7.780019760131836,0.55196213722229,-0.5292596817016602,0.2942790389060974,-0.6695643203681292,-1.1101220226997313,2.1782416907750726,-0.70235276222229,0.6206444501876831,-0.3485698699951172,1.4787213802337646,-2.5136752128601074,-0.5144186019897461
7.800030708312988,-0.4834752082824707,-0.12270373106002808,-0.07481902837753296,-0.6537815718104255,-1.137806049580629,2.1908141760168607,-0.7205348014831543,0.608192503452301,-0.3330637812614441,1.3888063430786133,-1.3611844778060913,-0.7314658761024475
7.820054054260254,-1.1831927299499512,1.2673625946044922,-0.5663567781448364,-0.5997726448129034,-1.1397073151169883,2.2446433516059527,-0.749943196773529,0.5644547939300537,-0.34492868185043335,4.440898895263672,-1.8939162492752075,-2.2899367809295654
7.840029716491699,-1.3031837940216064,0.28084123134613037,-0.28623974323272705,-0.5252695159034689,-1.1425031374258545,2.309923436019877,-0.7870414853096008,0.5014461874961853,-0.3593291640281677,3.023092031478882,-1.8679141998291016,-2.1253950595855713
7.860023021697998,-1.266723394393921,-0.47611844539642334,0.0053383708000183105,-0.4741381047732161,-1.170363586430064,2.3258315773736364,-0.8193055987358093,0.4565717875957489,-0.3468148410320282,0.6786962747573853,-1.7090681791305542,-1.9541536569595337
7.880063056945801,-1.2023940086364746,-0.06508472561836243,-0.07545104622840881,-0.43883685003196277,-1.204988025317877,2.319605769785434,-0.8453507423400879,0.4248868227005005,-0.3238104581832886,0.32365670800209045,-1.4785419702529907,-1.51963210105896
7.900019884109497,-1.175764799118042,0.22839143872261047,-0.14411091804504395,-0.41222834103284167,-1.2273855192076375,2.3231418611793857,-0.8627331256866455,0.4006519913673401,-0.3084953725337982,0.8625491261482239,-0.8885371088981628,-0.8956519365310669
7.920019865036011,-1.0475528240203857,0.1840866208076477,-0.074429452419281,-0.39448591868207433,-1.2366738141144333,2.33678733996563,-0.8721401691436768,0.38433364033699036,-0.30275261402130127,0.8917543292045593,-0.5864293575286865,-0.33209317922592163
7.94002103805542,-0.6963865160942078,-0.0676698088645935,0.029095053672790527,-0.3880997376594536,-1.23799560269212,2.355562854475337,-0.8748415112495422,0.37843015789985657,-0.3023952543735504,0.9814563989639282,-0.3512551784515381,0.1734551191329956
7.960021018981934,-0.5213659405708313,-0.1952424943447113,0.044889986515045166,-0.38445279866563387,-1.2361886171900371,2.3766178673812255,-0.8755914568901062,0.37505194544792175,-0.30442681908607483,0.92877596616745,-0.18839488923549652,0.12421140819787979
7.980010986328125,-0.3536725640296936,-0.2921864688396454,0.1369544267654419,-0.3815298391458366,-1.2358052451851909,2.3909492478624776,-0.8765062689781189,0.37234073877334595,-0.3051215708255768,0.4143487513065338,-0.31662219762802124,-0.0037675458006560802
8.0,-0.1471022367477417,-0.37686866521835327,0.2381860315799713,-0.3783215451861619,-1.2400846726620538,2.398628089155911,-0.8789293169975281,0.3693612217903137,-0.3017542064189911,0.5312450528144836,-0.4767071008682251,-0.0607159361243248
8.020020961761475,-0.03118300437927246,-0.2065087854862213,0.12344092130661011,-0.3719962008279335,-1.2471288590565623,2.4143899392952295,-0.883230447769165,0.36347582936286926,-0.2962925434112549,0.9838377237319946,-0.733867347240448,-0.0416964553296566
8.040019989013672,-0.00317990779876709,-0.11806175112724304,0.14340314269065857,-0.3660171387486047,-1.2540448105446094,2.4349964122814445,-0.8873077034950256,0.3578992486000061,-0.29084885120391846,0.9843265414237976,-0.6648734211921692,0.10325302183628082
8.060021877288818,-0.0739908218383789,-0.13917100429534912,0.08929070830345154,-0.363916815158043,-1.2597376416539832,2.4531514068918603,-0.8896628618240356,0.35593724250793457,-0.2860223650932312,0.8048555850982666,-0.5655094385147095,0.18572431802749634
8.079188823699951,-0.070881187915802,-0.05095285177230835,0.014601081609725952,-0.3645133652622587,-1.2649586517419502,2.4682361843016345,-0.8909412622451782,0.356494665145874,-0.2813095152378082,0.5146963596343994,-0.49614810943603516,0.29851698875427246
8.100085735321045,-0.038196682929992676,-0.02220386266708374,0.06577393412590027,-0.36998881143612133,-1.2684501169450373,2.479189283074551,-0.8900413513183594,0.3616049885749817,-0.27761176228523254,0.41614899039268494,-0.2272259145975113,0.5749008059501648
8.12002182006836,-0.04029726982116699,0.028722822666168213,0.08317738771438599,-0.38103482095723834,-1.2667862346690684,2.4927641531791314,-0.8857128620147705,0.37188127636909485,-0.27787959575653076,0.6386206150054932,-0.10111254453659058,0.7208411693572998
8.14002275466919,-0.005513191223144531,0.06619840860366821,0.05073830485343933,-0.39156083229586597,-1.259998959485531,2.5152462194623015,-0.8800305128097534,0.3816315829753876,-0.28267189860343933,0.9161851406097412,-0.07661306113004684,0.9600974917411804
8.160032749176025,-0.0338175892829895,0.03726878762245178,0.08074837923049927,-0.4041224452358043,-1.2496227727510136,2.5446602547043793,-0.8724324107170105,0.39321205019950867,-0.29025158286094666,1.1810237169265747,0.0031471028923988342,1.1069982051849365
8.180095911026001,-0.025020956993103027,-0.062312930822372437,0.13581112027168274,-0.42079802688043866,-1.2370541190560354,2.5743507856207897,-0.8623998761177063,0.4084889888763428,-0.2990039587020874,0.8388046622276306,0.030537359416484833,1.3147094249725342
8.200026035308838,-0.002184450626373291,-0.12078860402107239,0.1431315839290619,-0.44206915649665085,-1.2274662354913146,2.597749989486438,-0.8511176705360413,0.4278106391429901,-0.3042644262313843,0.46370580792427063,-0.05130824074149132,1.423717737197876
8.220020771026611,0.039559364318847656,-0.11966034770011902,0.17276588082313538,-0.4672242490785313,-1.2209462969505955,2.617301980307649,-0.8387385606765747,0.45040977001190186,-0.30602094531059265,0.43744996190071106,-0.15530432760715485,1.5399504899978638
8.240036964416504,0.015069842338562012,-0.05590975284576416,0.16819393634796143,-0.4914212886370696,-1.2120697748454428,2.6444383126353252,-0.8255404233932495,0.4718794524669647,-0.3095361292362213,1.057177186012268,-0.1891101449728012,1.563894271850586
