timestamp,acceleration_x,acceleration_y,acceleration_z,attitude_pitch,attitude_roll,attitude_yaw,gravity_x,gravity_y,gravity_z,rotation_x,rotation_y,rotation_z
0.0,0.09033188223838806,0.07231414318084717,-0.11543416976928711,-0.6342674590768564,-0.49429496137397844,-0.9743098038901659,-0.38214102387428284,0.5925875902175903,-0.7090897560119629,-1.1375864744186401,0.16209271550178528,-0.7432229518890381
0.020050048828125,0.09517985582351685,0.04690009355545044,-0.10076314210891724,-0.6465517466621226,-0.506844971183775,-1.001630837402021,-0.38744673132896423,0.6024377346038818,-0.6978208422660828,-1.0242629051208496,0.2070406675338745,-0.5896285176277161
0.04466104507446289,0.12019574642181396,-0.001287698745727539,-0.09108215570449829,-0.6595397376107796,-0.5178881301239042,-1.025658781456671,-0.39122238755226135,0.6127532124519348,-0.6866429448127747,-1.0554956197738647,0.12980259954929352,-0.4336484670639038
0.059458017349243164,0.12340575456619263,-0.0330042839050293,-0.1087261438369751,-0.674290734581539,-0.5287446515023032,-1.0458511649722824,-0.3940509557723999,0.6243434548377991,-0.6744769215583801,-1.020821213722229,0.04185712710022926,-0.20595136284828186
0.08000397682189941,0.08535265922546387,-0.013114213943481445,-0.11060887575149536,-0.6897102546394079,-0.5370916378086664,-1.0603662223079842,-0.39469414949417114,0.6363136768341064,-0.6628133654594421,-0.8906936645507812,0.05056450515985489,-0.0002423408441245556
0.09986305236816406,0.03752830624580383,0.021181583404541016,-0.10230636596679688,-0.7040647475164656,-0.5409569541095453,-1.0704580453755779,-0.3925088346004486,0.6473212242126465,-0.6533851623535156,-0.7050608992576599,0.23035281896591187,0.08892736583948135
0.11988091468811035,0.02970212697982788,-0.033491313457489014,-0.09373700618743896,-0.716725896669179,-0.538497596326182,-1.0752354464244198,-0.38666626811027527,0.6569196581840515,-0.6472602486610413,-0.6078723669052124,0.2853923738002777,0.24056632816791534
0.13991212844848633,0.06373214721679688,-0.07699257135391235,-0.10072022676467896,-0.7305083873042997,-0.5350622432153983,-1.0775285196205464,-0.37978750467300415,0.6672483682632446,-0.640734851360321,-0.6681417226791382,0.19537469744682312,0.3189525902271271
0.15992307662963867,0.06993961334228516,-0.11755204200744629,-0.10815107822418213,-0.7452352407694718,-0.5329604898138004,-1.0779234157303919,-0.37340644001960754,0.6781446933746338,-0.6329987049102783,-0.5628208518028259,0.013146384619176388,0.4101961851119995
0.1800689697265625,0.07808160781860352,-0.10353213548660278,-0.1313467025756836,-0.7569924334544246,-0.5312739925045609,-1.0721501787296663,-0.3682732880115509,0.6867383122444153,-0.6267098784446716,-0.20910289883613586,-0.24102242290973663,0.5522478818893433
0.19991302490234375,0.04786822199821472,-0.055261194705963135,-0.14756721258163452,-0.7627917683925491,-0.5276929667025688,-1.057425567905876,-0.3640151023864746,0.6909423470497131,-0.6245731711387634,0.24475401639938354,-0.39135903120040894,0.6571866869926453
0.21999597549438477,0.004827708005905151,-0.05684185028076172,-0.10859072208404541,-0.7622134974483711,-0.520410353797083,-1.0350857208414541,-0.3596556484699249,0.690524160861969,-0.6275542974472046,0.5996517539024353,-0.42929938435554504,0.7244957685470581
0.23990797996520996,0.021034926176071167,-0.06611239910125732,-0.05538487434387207,-0.7575522523782809,-0.509779972773993,-1.0067189443434132,-0.35453107953071594,0.6871451735496521,-0.6341444849967957,0.797913134098053,-0.4514804184436798,0.8503971695899963
0.25991296768188477,0.01922386884689331,-0.0892174243927002,-0.0164414644241333,-0.7514415440486754,-0.495967733454614,-0.9731635349478324,-0.3477303683757782,0.68269282579422,-0.6426618695259094,0.900442361831665,-0.486712783575058,0.994500458240509
0.2799210548400879,0.02063879370689392,-0.08976000547409058,0.0065923333168029785,-0.7457466505046777,-0.4829724150612288,-0.938025856511765,-0.3411497175693512,0.6785205006599426,-0.6505590081214905,0.8184401988983154,-0.6310075521469116,1.006198763847351
0.29991579055786133,0.020613908767700195,-0.07236409187316895,0.0026701688766479492,-0.7410403556148766,-0.4738029310463991,-0.9035583599712171,-0.3366234600543976,0.6750558018684387,-0.6564940214157104,0.7753916382789612,-0.7921928763389587,1.0589584112167358
0.31989598274230957,0.006186038255691528,0.006555914878845215,-0.008320450782775879,-0.7366211426061253,-0.4674810210899828,-0.8682311851726477,-0.3338075578212738,0.6717888712882996,-0.6612656712532043,0.8675165176391602,-0.977952241897583,1.041653037071228
0.3399050235748291,-0.01527780294418335,0.11059129238128662,-0.040414392948150635,-0.7267554267964511,-0.4633382018952492,-0.831366799900938,-0.33401116728782654,0.6644483804702759,-0.6685394048690796,1.2684354782104492,-1.053443431854248,0.9924130439758301
0.3599069118499756,-0.049673616886138916,0.1743934154510498,-0.03205573558807373,-0.7091225969098762,-0.4571016962484165,-0.7907977438620164,-0.33495473861694336,0.6511681079864502,-0.6810179948806763,1.6368473768234253,-1.0107531547546387,0.9512078166007996
0.37992095947265625,-0.048240721225738525,0.18946737051010132,-0.009739398956298828,-0.6875485246547934,-0.4517114970647016,-0.7502899477601981,-0.33733367919921875,0.6346445679664612,-0.6952929496765137,1.5948959589004517,-1.0807404518127441,0.9039506912231445
0.3999171257019043,-0.06382712721824646,0.20766538381576538,-0.03220546245574951,-0.6692897732909631,-0.45233315018279047,-0.7148732663171761,-0.3427738845348358,0.6204291582107544,-0.7053890824317932,1.2408438920974731,-1.2193747758865356,0.7500557899475098
0.4199399948120117,-0.06698581576347351,0.28805506229400635,-0.07507836818695068,-0.6561774564126015,-0.46267764818065416,-0.6889142818522707,-0.35365328192710876,0.6100925803184509,-0.7090250253677368,0.8481518626213074,-1.4147354364395142,0.5219528079032898
0.44017887115478516,-0.07330751419067383,0.3638319969177246,-0.13226020336151123,-0.6480159829753087,-0.4802464365147737,-0.6710786841061741,-0.36834293603897095,0.6036057472229004,-0.707095205783844,0.5433579683303833,-1.3774734735488892,0.38345274329185486
0.4599161148071289,-0.08508798480033875,0.36198002099990845,-0.07662832736968994,-0.6431898736566469,-0.4966590145286956,-0.6580974796834332,-0.38128170371055603,0.5997509956359863,-0.7035077214241028,0.37764501571655273,-1.0163650512695312,0.33537253737449646
0.47992491722106934,0.029231220483779907,0.32253456115722656,0.03213721513748169,-0.6413433284069301,-0.5065077479755985,-0.6470047029978623,-0.3887283504009247,0.5982723832130432,-0.7006857991218567,0.20331384241580963,-0.6494851112365723,0.3728629946708679
0.49991703033447266,0.15111124515533447,0.23956310749053955,0.10027647018432617,-0.6437757164278073,-0.5120987172691307,-0.6374629039180151,-0.39192551374435425,0.6002196669578552,-0.6972308158874512,-0.031222615391016006,-0.5084244012832642,0.4295048117637634
0.519989013671875,0.19626787304878235,0.1330990195274353,0.09769177436828613,-0.6494581789678667,-0.5171903118836643,-0.6286206073134624,-0.3937776982784271,0.6047549843788147,-0.6922504305839539,-0.07847557216882706,-0.5238864421844482,0.4876987636089325
0.5399360656738281,0.20224905014038086,0.07528549432754517,0.09831541776657104,-0.6553123896873625,-0.5212501392282696,-0.6179760209033892,-0.3948150873184204,0.6094069480895996,-0.6875640749931335,0.009582536295056343,-0.5058204531669617,0.5483054518699646
0.5596828460693359,0.19488966464996338,0.010865092277526855,0.13190948963165283,-0.660091205607252,-0.5231227828951265,-0.6046603870142707,-0.39464253187179565,0.6131889224052429,-0.6842929124832153,0.08847501128911972,-0.49617207050323486,0.5991969704627991
0.5799119472503662,0.19234561920166016,-0.032052695751190186,0.1556667685508728,-0.6639730663441977,-0.5248100861612809,-0.5906522245221071,-0.39460089802742004,0.6162506937980652,-0.6815608739852905,0.13178981840610504,-0.5433697700500488,0.5439006686210632
0.6058621406555176,0.17035195231437683,-0.02000868320465088,0.15404492616653442,-0.6656536356624706,-0.5280337706829022,-0.5774769065981417,-0.3962736129760742,0.6175733804702759,-0.6793897151947021,0.25806382298469543,-0.5786023139953613,0.45149633288383484
0.6192131042480469,0.11618170142173767,-0.012879729270935059,0.12855112552642822,-0.6643118413615149,-0.5312802109237083,-0.5644451531785486,-0.39889660477638245,0.6165174841880798,-0.6788135170936584,0.3585922420024872,-0.5477035045623779,0.35925179719924927
0.6392879486083984,0.07115399837493896,-0.03966116905212402,0.12883210182189941,-0.6605991350421437,-0.5341570640413651,-0.5524269952174243,-0.40201041102409363,0.6135900616645813,-0.6796285510063171,0.42907679080963135,-0.49353963136672974,0.2801508605480194
0.6600360870361328,0.040065377950668335,0.02310490608215332,0.11065047979354858,-0.6561921908275826,-0.5374630903998074,-0.5426983307302328,-0.4056354761123657,0.6101042628288269,-0.6806119680404663,0.34527188539505005,-0.4231325685977936,0.13466396927833557
0.6799077987670898,-0.02595338225364685,0.08228182792663574,0.08435028791427612,-0.6514591477450689,-0.5417084462222452,-0.5383265670623095,-0.4100055396556854,0.606347382068634,-0.6813504099845886,0.23024064302444458,-0.2654651701450348,-0.07233608514070511
0.6993460655212402,-0.06176921725273132,0.10459858179092407,0.06430119276046753,-0.6474059877519603,-0.5463128530810282,-0.5399996810182753,-0.41441184282302856,0.6031193137168884,-0.6815496683120728,0.025386186316609383,-0.10400207340717316,-0.24315910041332245
0.7199099063873291,-0.0497802197933197,0.11307096481323242,0.06004130840301514,-0.6466172489100358,-0.5528937060346312,-0.5487058323464924,-0.41913771629333496,0.6024900078773499,-0.6792123913764954,-0.31971031427383423,-0.040412891656160355,-0.37766769528388977
0.7399089336395264,-0.021842092275619507,0.06990164518356323,0.08230185508728027,-0.6500082434831914,-0.5609415898301314,-0.562362201662544,-0.42350101470947266,0.6051929593086243,-0.674083411693573,-0.510291576385498,0.07078873366117477,-0.3093303442001343
0.7599129676818848,0.0018579065799713135,0.05992114543914795,0.14015281200408936,-0.6586058942483165,-0.5657940616098346,-0.5754852953383003,-0.423961877822876,0.6120149493217468,-0.6676033139228821,-0.7927418947219849,0.26535022258758545,-0.14577080309391022
0.7799069881439209,-0.0007507503032684326,0.049913227558135986,0.17804557085037231,-0.6712455625444753,-0.5679429377617432,-0.5904458239356275,-0.42120060324668884,0.6219618320465088,-0.6601163744926453,-0.8568809032440186,0.44518399238586426,-0.1469620168209076
0.799163818359375,0.006938546895980835,0.08578246831893921,0.127691388130188,-0.6825651895223438,-0.5656091452038197,-0.6035605046803629,-0.4158588945865631,0.6307855844497681,-0.6551114320755005,-0.5884653925895691,0.5973743200302124,-0.13649030029773712
0.8199059963226318,0.015303164720535278,0.09704279899597168,0.07285583019256592,-0.6865644039540523,-0.5589400083422019,-0.6123704860463441,-0.41013962030410767,0.6338837146759033,-0.6557262539863586,-0.1443018615245819,0.6088796854019165,-0.2254127860069275
0.8399100303649902,0.05131152272224426,0.020919084548950195,0.11658698320388794,-0.684787007528681,-0.5521630837423052,-0.6189953143356698,-0.40627679228782654,0.6325080394744873,-0.6594489216804504,-0.033004406839609146,0.46963465213775635,-0.3078862726688385
0.8599748611450195,0.07824832201004028,-0.03708082437515259,0.15788108110427856,-0.6829381940908991,-0.5503199480316833,-0.6279221416954096,-0.40567147731781006,0.6310749650001526,-0.6611921191215515,-0.1857050508260727,0.28087157011032104,-0.36756813526153564
0.8800289630889893,0.06073984503746033,-0.03630632162094116,0.1496233344078064,-0.6832184122188965,-0.5529217047919955,-0.639086965900309,-0.4072975218296051,0.6312922835350037,-0.6599839925765991,-0.26697683334350586,0.18458294868469238,-0.358769029378891
0.8998517990112305,0.017896205186843872,0.02954167127609253,0.13834989070892334,-0.6838007121222496,-0.5566699222391185,-0.6513130181783982,-0.40957412123680115,0.6317437887191772,-0.6581405401229858,-0.25223326683044434,0.23654226958751678,-0.43194904923439026
0.9199070930480957,0.003770172595977783,0.025748491287231445,0.13656580448150635,-0.6825531081709052,-0.5584071910549175,-0.6638346160389338,-0.41113415360450745,0.6307762265205383,-0.6580959558486938,-0.1785716712474823,0.37696197628974915,-0.4480176866054535
0.9399600028991699,0.02523595094680786,-0.01622176170349121,0.1590280532836914,-0.6811294826761743,-0.5578428109044274,-0.6761284091295194,-0.41123759746551514,0.6296708583831787,-0.6590890288352966,-0.23115089535713196,0.43375104665756226,-0.44520169496536255
0.9599049091339111,0.024310976266860962,-0.019493460655212402,0.1390475630760193,-0.6809412569397266,-0.5584741812547207,-0.6902029154116792,-0.41171643137931824,0.6295246481895447,-0.6589297652244568,-0.3095933496952057,0.39649420976638794,-0.4996611177921295
0.9798109531402588,-0.019900113344192505,-0.034745872020721436,0.128434956073761,-0.6807170223050086,-0.5598566279655672,-0.7054623390127823,-0.41270190477371216,0.6293504238128662,-0.6584794521331787,-0.31135883927345276,0.42577388882637024,-0.5173959136009216
0.9999139308929443,-0.03673800826072693,-0.052531659603118896,0.16111671924591064,-0.6805522516743379,-0.5622890391421607,-0.72242633842051,-0.41435763239860535,0.6292223334312439,-0.6575613617897034,-0.36845293641090393,0.393611341714859,-0.6222083568572998
1.0199060440063477,-0.056513696908950806,-0.008826076984405518,0.11221319437026978,-0.6794672390137584,-0.5685413369280495,-0.7428281633806803,-0.4188281297683716,0.628378689289093,-0.6555328369140625,-0.3886924386024475,0.24535609781742096,-0.798596978187561
1.0399019718170166,-0.11570587754249573,0.07523936033248901,-0.017536520957946777,-0.6757790113191509,-0.5818779685902061,-0.768056546396833,-0.42880406975746155,0.6255053281784058,-0.651820719242096,-0.3627260625362396,-0.006266550160944462,-1.0496175289154053
1.0593008995056152,-0.1835215985774994,0.15659475326538086,-0.1740214228630066,-0.6691723178373243,-0.602261412585555,-0.7972054245110786,-0.4443318843841553,0.6203370094299316,-0.6463367938995361,-0.3669797480106354,-0.17762747406959534,-1.2041056156158447
1.079977035522461,-0.2791854441165924,0.2525267004966736,-0.20697802305221558,-0.6608924283554315,-0.6224305868799098,-0.8274371912295636,-0.46025553345680237,0.6138216257095337,-0.6413953900337219,-0.3278658986091614,0.11471828073263168,-1.1761995553970337
1.0999908447265625,-0.31204548478126526,0.2497970461845398,-0.13117343187332153,-0.655181663991582,-0.6318429117232237,-0.856020468084407,-0.46833479404449463,0.6093032956123352,-0.6398531198501587,-0.6290865540504456,0.6862018704414368,-1.014818787574768
1.1199049949645996,-0.24121558666229248,0.15387266874313354,-0.13048994541168213,-0.658698399625654,-0.6361307872664578,-0.8901495884066455,-0.4697982966899872,0.6120880842208862,-0.6361116170883179,-1.232500672340393,0.9084474444389343,-0.9542317390441895
1.1399309635162354,-0.13599082827568054,0.05371600389480591,-0.17328870296478271,-0.6697222692424627,-0.6412114543170405,-0.9282155650565218,-0.4689592123031616,0.6207682490348816,-0.6282707452774048,-1.3832297325134277,0.9222970008850098,-0.7765876650810242
1.1622891426086426,-0.06628111004829407,-0.012107253074645996,-0.14347684383392334,-0.6828463919694105,-0.6455015804974903,-0.9629594761538143,-0.4667084813117981,0.631003737449646,-0.6196914315223694,-1.2641435861587524,0.8198546171188354,-0.6403063535690308
1.179886817932129,-0.04872208833694458,-0.0924149751663208,-0.1339501142501831,-0.6928604754392956,-0.6501625058022951,-0.9933931998497179,-0.4657433331012726,0.6387407183647156,-0.6124487519264221,-0.9349022507667542,0.6545928716659546,-0.649034857749939
1.1998469829559326,-0.06704840064048767,-0.11592745780944824,-0.16528558731079102,-0.6961553163326164,-0.6548330362692897,-1.018996877809334,-0.4673144519329071,0.6412723660469055,-0.6085943579673767,-0.5252808928489685,0.5559257864952087,-0.7184578776359558
1.2198739051818848,-0.09946438670158386,-0.12668156623840332,-0.15893679857254028,-0.6931320761980402,-0.6581972295507043,-1.0418773883271604,-0.4705430269241333,0.6389496326446533,-0.6085497736930847,-0.36093488335609436,0.605504035949707,-0.8805145621299744
1.23990797996521,-0.09565332531929016,-0.15879851579666138,-0.12835693359375,-0.6874094324858278,-0.6614127614216766,-1.0682204772114463,-0.4747355580329895,0.6345371007919312,-0.6099089980125427,-0.4772252142429352,0.7773760557174683,-1.0549609661102295
1.2599868774414062,-0.03620651364326477,-0.19368433952331543,-0.07696205377578735,-0.6839057406799446,-0.6644999307599122,-1.1007443540204365,-0.4779841899871826,0.6318252086639404,-0.6101868748664856,-0.8208351731300354,0.9659162163734436,-1.1332697868347168
1.2799170017242432,0.05390331149101257,-0.20738232135772705,-0.05884265899658203,-0.6846680858505974,-0.669361347077806,-1.1394309156723117,-0.48064592480659485,0.6324159502983093,-0.607478141784668,-1.0467212200164795,0.9952897429466248,-1.1545264720916748
1.2999999523162842,0.13482603430747986,-0.16096723079681396,-0.05558192729949951,-0.6868987586972739,-0.6750561828307735,-1.178631110982388,-0.48321476578712463,0.634142279624939,-0.6036282777786255,-0.984275758266449,0.925314724445343,-1.084877610206604
1.3199069499969482,0.1727139949798584,-0.12097609043121338,-0.026272237300872803,-0.6873949678058899,-0.6800967225683024,-1.214073248476472,-0.4860532581806183,0.6345258951187134,-0.6009401679039001,-0.7678152918815613,0.8223955631256104,-1.0268663167953491
1.3399100303649902,0.1855887472629547,-0.11076265573501587,-0.0058209896087646484,-0.6847258289314208,-0.6848709720609308,-1.245081054246859,-0.489986389875412,0.6324606537818909,-0.5999224185943604,-0.5524096488952637,0.6639568209648132,-1.0012859106063843
1.3592069149017334,0.18492957949638367,-0.08403629064559937,-0.009424567222595215,-0.6794472275982513,-0.6899428003107366,-1.2717324606272788,-0.49514085054397583,0.6283631324768066,-0.5999962091445923,-0.362056702375412,0.52872633934021,-0.9200353622436523
1.3799958229064941,0.15738201141357422,-0.06188994646072388,-0.00868004560470581,-0.6733348977865946,-0.6939996278780679,-1.293682557358877,-0.5000181198120117,0.6235964894294739,-0.6009237170219421,-0.30471372604370117,0.4413558840751648,-0.8086345195770264
1.3999090194702148,0.1207929253578186,-0.020627737045288086,-0.027834177017211914,-0.6681310394162118,-0.6991570632757672,-1.3146540912135185,-0.5051923394203186,0.6195199489593506,-0.6008126139640808,-0.3486104905605316,0.34910058975219727,-0.7858710885047913
1.4199070930480957,0.0673876404762268,0.03441411256790161,-0.06885981559753418,-0.6635088251055477,-0.7052104600465318,-1.3350003707212434,-0.5106707811355591,0.6158850193023682,-0.5999176502227783,-0.32446902990341187,0.32067403197288513,-0.7265545725822449
1.439965009689331,0.00017112493515014648,0.06460767984390259,-0.0793641209602356,-0.6592787575979129,-0.7093125826995648,-1.3532581055824204,-0.5148196220397949,0.6125469207763672,-0.5997893214225769,-0.30974873900413513,0.41321223974227905,-0.6616736054420471
1.4599099159240723,-0.05192863941192627,0.06699109077453613,-0.06115037202835083,-0.6561898838160053,-0.7114461808554837,-1.3723764649664212,-0.517331063747406,0.6101024746894836,-0.6001197695732117,-0.4548196494579315,0.5497517585754395,-0.6868575215339661
1.4799890518188477,-0.04595452547073364,0.007041215896606445,-0.03565627336502075,-0.6560526254309036,-0.7126655866728228,-1.3942420723823805,-0.5181171298027039,0.6099936962127686,-0.5995517373085022,-0.6862983703613281,0.6541186571121216,-0.6269293427467346
1.499906063079834,-0.016312479972839355,-0.041119515895843506,-0.005850493907928467,-0.6601271361761704,-0.7140553661452256,-1.418460412924148,-0.5173179507255554,0.613217294216156,-0.5969479084014893,-0.8604894876480103,0.6916404962539673,-0.5521937012672424
1.5199298858642578,-0.015226960182189941,-0.06610476970672607,0.022647857666015625,-0.6670115118078362,-0.7155760745658714,-1.4435694055892423,-0.5154432654380798,0.6186407804489136,-0.5929602980613708,-0.9475430846214294,0.705502986907959,-0.508283793926239
1.5399870872497559,-0.017249703407287598,-0.0894823670387268,0.049205899238586426,-0.6743756136866713,-0.7180175707063798,-1.4699327141078895,-0.5138782858848572,0.6244097352027893,-0.5882531404495239,-0.9556543231010437,0.6871534585952759,-0.5678344964981079
1.559128999710083,-0.005481123924255371,-0.11387467384338379,0.06623798608779907,-0.680300509506169,-0.7213680712954759,-1.4966157867349934,-0.5133940577507019,0.6290266513824463,-0.5837398171424866,-0.8504875898361206,0.6441116333007812,-0.5936716794967651
1.5799798965454102,0.0219651460647583,-0.1402667760848999,0.08268225193023682,-0.6844615914853004,-0.7252117372526166,-1.5216475985513733,-0.5138933062553406,0.6322559714317322,-0.5797982811927795,-0.7729713916778564,0.5375670194625854,-0.592697024345398
1.5999059677124023,0.044683992862701416,-0.13968265056610107,0.07531017065048218,-0.6873940829189884,-0.7317371501655285,-1.5459341176606656,-0.5164247155189514,0.6345252394676208,-0.5750507116317749,-0.6955574154853821,0.34223294258117676,-0.616371214389801
1.6199069023132324,0.04342907667160034,-0.10431486368179321,0.06220388412475586,-0.6884830957969692,-0.7414211408312185,-1.5689952519307444,-0.5215022563934326,0.6353665590286255,-0.5695127844810486,-0.5894237756729126,0.1625078171491623,-0.6317070126533508
1.6397590637207031,0.020996928215026855,-0.08604729175567627,0.05531388521194458,-0.6879657809911822,-0.7535494962987468,-1.5911618308777147,-0.5285958051681519,0.6349669694900513,-0.5633857250213623,-0.5454120635986328,0.0497170016169548,-0.6527585387229919
1.6599209308624268,0.01775336265563965,-0.10020536184310913,0.07529807090759277,-0.6876274015148375,-0.7662649886694687,-1.6125360172588699,-0.5358656644821167,0.6347055435180664,-0.556773841381073,-0.5822967290878296,0.04480613395571709,-0.5488032102584839
1.67991304397583,0.03393745422363281,-0.09982573986053467,0.09381794929504395,-0.6898631300974282,-0.777839899224467,-1.6328496069130176,-0.5412769913673401,0.6364316344261169,-0.5495216846466064,-0.6866342425346375,0.09278848022222519,-0.4421135485172272
1.6999080181121826,0.07655858993530273,-0.08913511037826538,0.07248139381408691,-0.693674837979466,-0.7900880039870332,-1.6540841002044961,-0.5462394952774048,0.6393671035766602,-0.5411397814750671,-0.7088482975959778,0.008420072495937347,-0.45080798864364624
1.719944953918457,0.1167612075805664,-0.08698314428329468,0.044187188148498535,-0.6965552419983295,-0.8047997962049592,-1.674628128162576,-0.5528116822242737,0.6415791511535645,-0.5317664742469788,-0.6134622693061829,-0.1597386598587036,-0.44589802622795105
1.740001916885376,0.12024039030075073,-0.0772939920425415,0.03795731067657471,-0.6978690555241998,-0.821575106921872,-1.693891829563287,-0.5610363483428955,0.6425864100456238,-0.5218439698219299,-0.5825651288032532,-0.2742536962032318,-0.4872971177101135
1.7599101066589355,0.12329190969467163,-0.05123615264892578,0.045726239681243896,-0.6982728840962532,-0.8408900420603798,-1.714419816281809,-0.5708170533180237,0.6428957581520081,-0.5107378363609314,-0.6081309914588928,-0.303595632314682,-0.5169394612312317
1.779906988143921,0.14738363027572632,-0.015439510345458984,0.04925614595413208,-0.6994494001748439,-0.8589825402347218,-1.7349385732535958,-0.5793905258178711,0.643796443939209,-0.4998328983783722,-0.6268498301506042,-0.17223243415355682,-0.4341079890727997
1.7999110221862793,0.18644636869430542,-0.005130589008331299,0.0843077301979065,-0.7009139203345568,-0.8726264775496079,-1.753347920839558,-0.5854332447052002,0.6449164152145386,-0.4912748634815216,-0.5459884405136108,-0.05269476771354675,-0.3804337978363037
1.819894790649414,0.23212945461273193,0.02438533306121826,0.06440317630767822,-0.7001882007217192,-0.8875160784840956,-1.7707958592736792,-0.5930456519126892,0.6443616151809692,-0.48279914259910583,-0.42091119289398193,-0.3833519518375397,-0.5744913816452026
1.8399958610534668,0.19233739376068115,0.15264689922332764,-0.07080626487731934,-0.6926944254271106,-0.911873922075142,-1.7886212174796936,-0.6084294319152832,0.6386129260063171,-0.4711553752422333,-0.16948342323303223,-0.872788667678833,-0.8564633131027222
1.8599069118499756,0.11171615123748779,0.27849769592285156,-0.19217246770858765,-0.678113553133267,-0.9407767874171553,-1.8039891664662075,-0.6292485594749451,0.6273250579833984,-0.45881322026252747,0.015905866399407387,-0.9994537234306335,-1.0219281911849976
1.880000114440918,0.0926675796508789,0.3679470419883728,-0.15696030855178833,-0.6618749562588633,-0.9685484218209884,-1.820397967510074,-0.6500559449195862,0.614596962928772,-0.4468756914138794,-0.14348192512989044,-0.6822656393051147,-1.002689003944397
1.8998560905456543,0.09311330318450928,0.34880101680755615,-0.050659358501434326,-0.6505460829639119,-0.9867271037422555,-1.8388723790668156,-0.6638378500938416,0.6056210398674011,-0.4387967884540558,-0.4755064845085144,-0.0017403303645551205,-0.7711006999015808
1.9200358390808105,0.13679707050323486,0.30061304569244385,-0.039658546447753906,-0.6441006078517137,-0.9971338529236939,-1.8629513101469166,-0.6716330051422119,0.6004794836044312,-0.4339742362499237,-0.7271354794502258,0.3347093164920807,-0.8784077167510986
1.9399118423461914,0.2619748115539551,0.2630617618560791,-0.13366365432739258,-0.6353697481624127,-1.0065202557013853,-1.889835615773742,-0.6800809502601624,0.5934751629829407,-0.43043848872184753,-0.5532395839691162,0.29772672057151794,-0.9711831212043762
1.9599080085754395,0.3867182731628418,0.17332148551940918,-0.14091384410858154,-0.6242527016944598,-1.0146813721547039,-1.9109463851020845,-0.6891322731971741,0.5844910740852356,-0.42833054065704346,-0.3514179587364197,0.14984670281410217,-0.9071356058120728
1.9799079895019531,0.4254569411277771,0.060184478759765625,-0.0534796416759491,-0.6116262897325419,-1.0207700832295408,-1.927951461625906,-0.6979636549949646,0.5741996765136719,-0.42795035243034363,-0.2025156468153,0.25955402851104736,-0.8915897011756897
1.999964952468872,0.4577934741973877,0.02538931369781494,0.055863648653030396,-0.5997352434491369,-1.0238891489255624,-1.9457618328857045,-0.7050774097442627,0.5644239187240601,-0.4292919337749481,-0.42918384075164795,0.4181114435195923,-0.915740966796875
2.0190958976745605,0.5035644173622131,0.018451452255249023,0.06406301259994507,-0.5894877310962402,-1.0278665806469334,-1.9680233157736795,-0.7116944193840027,0.555935263633728,-0.42945000529289246,-0.5816605687141418,0.38633298873901367,-0.9061779379844666
2.0399069786071777,0.5257184505462646,0.05519300699234009,0.01903831958770752,-0.5792627757228391,-1.0333036541914606,-1.9886991181576923,-0.7188642621040344,0.5474071502685547,-0.4284621477127075,-0.3282999098300934,0.20925526320934296,-0.8744462132453918
2.058969020843506,0.4953750967979431,0.11019080877304077,0.015351533889770508,-0.5658047091894945,-1.0375544128036698,-2.0018320077129683,-0.7269578576087952,0.5360952615737915,-0.42910879850387573,0.03394190967082977,0.08980157226324081,-0.8469058871269226
2.0799078941345215,0.45975786447525024,0.08110666275024414,0.03264889121055603,-0.550371677149321,-1.0407873351288761,-2.0096506365487246,-0.735392689704895,0.5230040550231934,-0.43088796734809875,0.15671071410179138,0.0008608677890151739,-0.8199754953384399
2.099905014038086,0.44593000411987305,0.05675870180130005,0.05807080864906311,-0.5350943336908671,-1.0457423329081534,-2.018145992261931,-0.7443461418151855,0.509922206401825,-0.43119391798973083,-0.04078405722975731,-0.037217188626527786,-0.8968330025672913
2.1199169158935547,0.44395744800567627,0.03963848948478699,0.04716682434082031,-0.5200653977094529,-1.051831102497384,-2.030297153963186,-0.753527820110321,0.4969368875026703,-0.4304065406322479,-0.06496157497167587,0.05851848050951958,-0.9048174023628235
2.139927864074707,0.4983804225921631,-0.02191472053527832,0.05211713910102844,-0.5062452839155472,-1.0548846600361192,-2.040104937045107,-0.7607400417327881,0.4848968982696533,-0.43145060539245605,-0.03644390404224396,0.08180028200149536,-0.7292424440383911
2.1599090099334717,0.5265198349952698,-0.05533957481384277,0.05822223424911499,-0.4950531055121093,-1.0592567158702768,-2.0497726408137016,-0.7673036456108093,0.47507837414741516,-0.4307502806186676,-0.15342247486114502,-0.08815591037273407,-0.6875399947166443
2.1799368858337402,0.4721720218658447,-0.06990909576416016,-0.04401993751525879,-0.48458840048233265,-1.0685959043743924,-2.060381530547306,-0.7756083607673645,0.46584418416023254,-0.42593544721603394,-0.1310582458972931,-0.33131441473960876,-0.7163571119308472
2.2000889778137207,0.3811184763908386,0.02214229106903076,-0.07076555490493774,-0.4709848375629662,-1.0799328119718523,-2.0698960859472755,-0.7859037518501282,0.4537641108036041,-0.420063853263855,0.06335324794054031,-0.34375980496406555,-0.847766101360321
2.2199831008911133,0.3666253685951233,0.03792425990104675,-0.06364667415618896,-0.45486403449062274,-1.0878867808967152,-2.0738107053776944,-0.7955957651138306,0.43934017419815063,-0.41714248061180115,0.36600902676582336,-0.26410341262817383,-0.7296848893165588
2.23990797996521,0.35789281129837036,0.02878054976463318,-0.047758519649505615,-0.43914799054978565,-1.0914714356503432,-2.0707537371630576,-0.8031138181686401,0.4251684546470642,-0.4174208641052246,0.597920298576355,-0.22958573698997498,-0.5374341607093811
2.2599101066589355,0.3101186752319336,0.027471572160720825,-0.043655216693878174,-0.4246110382315608,-1.092716428125257,-2.0640652016413368,-0.8090354800224304,0.41196638345718384,-0.4192201495170593,0.5772093534469604,-0.2020399570465088,-0.49105632305145264
2.2799038887023926,0.328008234500885,-0.012116551399230957,-0.05939286947250366,-0.4120108968673165,-1.0946230416858438,-2.0582623451426576,-0.8143821954727173,0.40045276284217834,-0.42002299427986145,0.4226672947406769,-0.26726484298706055,-0.3979406952857971
2.2996578216552734,0.369157612323761,0.03372672200202942,-0.11454784870147705,-0.40276428584117857,-1.1024025322538549,-2.055118174079476,-0.8208940625190735,0.3919629156589508,-0.4153288006782532,0.3316713273525238,-0.6428178548812866,-0.3002151846885681
2.3199081420898438,0.2656845450401306,0.11596342921257019,-0.136663019657135,-0.3929580750692925,-1.1126639113291479,-2.046711128767845,-0.8285202980041504,0.3829227089881897,-0.4085640013217926,0.863308310508728,-0.6474603414535522,-0.24027687311172485
2.339885950088501,0.1401442289352417,0.14802175760269165,-0.11089545488357544,-0.37779271857328106,-1.1169704787338903,-2.027617970746875,-0.8353958129882812,0.36886975169181824,-0.4074913561344147,1.4077365398406982,-0.5024182796478271,-0.3492937982082367
2.3599259853363037,0.123077392578125,0.0496383011341095,-0.11002036929130554,-0.3581625235530658,-1.117252103523512,-2.0018600980033816,-0.84185791015625,0.350553959608078,-0.4103500247001648,1.5177568197250366,-0.4773734509944916,-0.3645744323730469
2.3799071311950684,0.08600258827209473,-0.023857325315475464,-0.08194464445114136,-0.3398236630730371,-1.1205820266794635,-1.9800451115538285,-0.848865807056427,0.33332085609436035,-0.41027331352233887,1.1001009941101074,-0.5921332240104675,-0.4010346829891205
2.3999171257019043,0.022878527641296387,-0.020581305027008057,-0.07780593633651733,-0.3230297462140436,-1.130168004826724,-1.9669966182576701,-0.8577021956443787,0.31744104623794556,-0.4044480323791504,0.8041572570800781,-0.7959944009780884,-0.5884867310523987
2.4199061393737793,-0.01598048210144043,0.051347315311431885,-0.028164148330688477,-0.30367074142255934,-1.1428851681015098,-1.9561326991296293,-0.8682054281234741,0.2990249991416931,-0.39598435163497925,1.0041817426681519,-0.8001706600189209,-0.7251655459403992
2.4399490356445312,-0.04759460687637329,0.08508440852165222,-0.02605995535850525,-0.28032808546098886,-1.154492504447466,-1.9397561777734886,-0.8788886070251465,0.2766709327697754,-0.3885975480079651,1.3461798429489136,-0.8332152366638184,-0.7805465459823608
2.4599080085754395,-0.13883531093597412,0.058178842067718506,-0.01895749568939209,-0.2542122445612818,-1.1659494296466757,-1.9204083103188694,-0.8896225094795227,0.2514830529689789,-0.3812195360660553,1.3598743677139282,-0.8352680206298828,-0.873816192150116
2.4799070358276367,-0.2729654312133789,0.042590513825416565,-0.07751098275184631,-0.22541152034296966,-1.1785182895488042,-1.9039904053048866,-0.9006643891334534,0.22350749373435974,-0.3726232051849365,1.3159252405166626,-0.8184585571289062,-1.1581501960754395
2.499908924102783,-0.25066208839416504,0.03770570456981659,-0.02501639723777771,-0.1931531174450961,-1.1909817965334348,-1.8880697840438911,-0.9114626049995422,0.1919543296098709,-0.3638537526130676,1.2928457260131836,-0.7607064843177795,-1.275911569595337
2.5199079513549805,-0.2305988073348999,-0.06263044476509094,0.11051201820373535,-0.15994544398939478,-1.2015393702326056,-1.8734414840718612,-0.9206922054290771,0.15926434099674225,-0.3563157618045807,1.314430594444275,-0.6010685563087463,-1.2589077949523926
2.5399460792541504,-0.31004709005355835,-0.10094577074050903,0.16243118047714233,-0.12558284798376418,-1.2093950044781319,-1.8558532047620644,-0.9280359148979187,0.12525300681591034,-0.35080087184906006,1.437506914138794,-0.45464468002319336,-1.3847743272781372
2.5598299503326416,-0.4273151159286499,-0.00829264521598816,0.14862558245658875,-0.08553005763185803,-1.2167449934423622,-1.838857668165901,-0.9345471262931824,0.08542581647634506,-0.3454333543777466,1.5902190208435059,-0.4916532039642334,-1.734000325202942
2.5799131393432617,-0.4982187747955322,-0.0075388140976428986,0.16155597567558289,-0.04064628834509175,-1.2275325242130588,-1.8219990338825172,-0.9408835768699646,0.04063509777188301,-0.336284339427948,1.5071024894714355,-0.6628757119178772,-1.905210018157959
2.5999088287353516,-0.7523986101150513,-0.08655735850334167,0.1275230050086975,0.004003600761702326,-1.2423760913692181,-1.8093324084841482,-0.9465455412864685,-0.004003589972853661,-0.32254552841186523,1.1076583862304688,-0.8106116652488708,-1.9092551469802856
2.619905948638916,-0.9687632918357849,-0.13961412012577057,0.2795107960700989,0.04280253424009342,-1.2542622447722627,-1.8059895722687436,-0.9494496583938599,-0.04278946667909622,-0.310989648103714,0.42125579714775085,-0.27489879727363586,-1.4756945371627808
2.6399669647216797,-0.9832022786140442,-0.15835940837860107,0.49213069677352905,0.05860837065329736,-1.2509213910331416,-1.8174242099737814,-0.9476449489593506,-0.058574825525283813,-0.3139079809188843,-1.0618581771850586,0.6252632737159729,-0.46832820773124695
2.660004138946533,-0.9310821294784546,0.0400925911962986,0.6198500394821167,0.05504349163568691,-1.2294153284693203,-1.8434282703649034,-0.9408661723136902,-0.05501570180058479,-0.33428171277046204,-1.1201786994934082,1.35745108127594,-0.1494496911764145
2.6799111366271973,-0.7024670839309692,0.015383034944534302,0.6030236482620239,0.049720572015783636,-1.1955766129882126,-1.8509574237260322,-0.9292774200439453,-0.049700088798999786,-0.36602410674095154,0.18024076521396637,1.7500226497650146,0.48943832516670227
2.6999168395996094,-0.5870213508605957,-0.20032386481761932,0.22927218675613403,0.041494105689045005,-1.1704543657612068,-1.8375592094410624,-0.9201351404190063,-0.04148219898343086,-0.38939782977104187,0.8131507635116577,0.655110776424408,0.7843997478485107
2.719906806945801,-0.4996147155761719,-0.3067682683467865,0.19710204005241394,0.028211703922506423,-1.166607756887494,-1.8123514422543765,-0.9190559983253479,-0.028207961469888687,-0.3931163549423218,0.6545413136482239,-0.17339757084846497,1.338884949684143
2.739938974380493,-0.5767145156860352,-0.5159587860107422,0.18754935264587402,0.0021533986920537827,-1.173505619022223,-1.799218616644057,-0.9221106767654419,-0.0021533970721066,-0.38692066073417664,-0.4223906695842743,-0.2948688864707947,1.6486324071884155
2.759932041168213,-0.7663165926933289,-0.4616680443286896,0.1202554702758789,-0.03957446679117862,-1.1717889255680396,-1.798898436211328,-0.9207257032394409,0.039564136415719986,-0.3881997764110565,-1.1636358499526978,0.5429365038871765,2.1702675819396973
2.7799320220947266,-0.9617763161659241,-0.224501371383667,-0.12432947754859924,-0.09025492920390726,-1.1574359749568175,-1.80192322800791,-0.9120488166809082,0.0901324450969696,-0.4000539779663086,-0.9838993549346924,0.690405011177063,2.3457396030426025
2.799942970275879,-0.8634324669837952,-0.05483098328113556,0.07894068956375122,-0.1443206925185478,-1.1427389594335988,-1.8000995678578788,-0.9003157615661621,0.14382021129131317,-0.41078877449035645,-1.1021599769592285,0.8312178254127502,2.671513557434082
2.8200149536132812,-0.895964503288269,-0.12127061188220978,0.03140172362327576,-0.2006476599887627,-1.127548038691897,-1.7931150932987674,-0.8852397799491882,0.19930404424667358,-0.4202718734741211,-0.6284223198890686,0.5431307554244995,2.725571393966675
2.8399670124053955,-0.8839519023895264,-0.016214609146118164,-0.023485124111175537,-0.2543769575809835,-1.113336446162339,-1.7762525105425215,-0.8683064579963684,0.25164246559143066,-0.4274578094482422,-0.3100842535495758,0.5305875539779663,2.7708966732025146
2.859998941421509,-0.9801582098007202,-0.17010098695755005,-0.07357561588287354,-0.304771618075067,-1.0966188878887229,-1.7595345398445508,-0.8486688137054443,0.30007532238960266,-0.4355643689632416,-0.5922644138336182,0.6446980237960815,2.422651767730713
2.880018949508667,-0.8482948541641235,-0.21791639924049377,-0.13232654333114624,-0.3520672518696681,-1.0829920387191903,-1.7539517699988492,-0.8291802406311035,0.3448390066623688,-0.439939022064209,-1.1810669898986816,0.527265191078186,2.0170485973358154
2.903627872467041,-0.5650103092193604,-0.11984053254127502,-0.19942525029182434,-0.43882823059949627,-1.0759398366230224,-1.7816636337953669,-0.7966535687446594,0.4248790144920349,-0.4299081861972809,-1.723069190979004,0.48838189244270325,1.2948905229568481
2.919990062713623,-0.5650103092193604,-0.11984053254127502,-0.19942525029182434,-0.43882823059949627,-1.0759398366230224,-1.7816636337953669,-0.7966535687446594,0.4248790144920349,-0.4299081861972809,-1.723069190979004,0.48838189244270325,1.2948905229568481
2.939901828765869,-0.4711493253707886,-0.015986859798431396,-0.2641249895095825,-0.47494130865364165,-1.0763754749274694,-1.8041296689675967,-0.7828179001808167,0.4572862386703491,-0.4220016598701477,-1.7656456232070923,0.5119763612747192,0.970644474029541
2.9599227905273438,-0.3774672746658325,0.012335240840911865,-0.2882024943828583,-0.5059206884261699,-1.0769736705879192,-1.8286571383453747,-0.770222544670105,0.48461300134658813,-0.41461727023124695,-1.6340665817260742,0.5678107738494873,0.7288257479667664
2.987496852874756,-0.17520493268966675,0.0429803729057312,-0.22370076179504395,-0.5562120454338835,-1.0870409301591821,-1.8878055810663634,-0.7518123984336853,0.5279730558395386,-0.3949972987174988,-1.8274673223495483,0.3923676311969757,0.2710050344467163
3.0087099075317383,-0.06201672554016113,0.07985800504684448,-0.13208144903182983,-0.5785255520339628,-1.0974731446086736,-1.9238536295502737,-0.7452191114425659,0.5467900037765503,-0.3816666603088379,-1.8929743766784668,0.49362367391586304,0.30471596121788025
3.028465986251831,0.025818228721618652,0.17841380834579468,-0.13700196146965027,-0.5986891041125154,-1.107059110658802,-1.958023565777371,-0.7388309240341187,0.5635600686073303,-0.36949822306632996,-1.505876064300537,0.4412814676761627,0.253543883562088
3.0484371185302734,0.14785480499267578,0.25599998235702515,-0.12420520186424255,-0.6156209235671859,-1.1131554832940398,-1.9825083397667438,-0.7324037551879883,0.5774655938148499,-0.36071905493736267,-1.103942632675171,0.30628150701522827,0.34802010655403137
3.068294048309326,0.21208924055099487,0.21929574012756348,-0.03709602355957031,-0.6321742495095076,-1.1187181697785311,-2.001530120188222,-0.7257001996040344,0.5909002423286438,-0.3524150550365448,-1.1188956499099731,0.23388293385505676,0.40595346689224243
3.0882790088653564,0.24142241477966309,0.1273709535598755,0.02963516116142273,-0.6478955914027661,-1.1278228211552057,-2.0231761042422605,-0.7203958034515381,0.603509783744812,-0.34176886081695557,-1.168707013130188,0.1266840398311615,0.32325422763824463
3.108093023300171,0.37127333879470825,0.10344773530960083,0.06466132402420044,-0.6632340874567358,-1.1402999500958282,-2.044719144078907,-0.7161068320274353,0.615668535232544,-0.32885196805000305,-1.0157155990600586,-0.06777562946081161,0.3865465521812439
3.127985954284668,0.4483572840690613,0.12264937162399292,0.09109753370285034,-0.6784991894368638,-1.1529654137141607,-2.060775039670919,-0.711540937423706,0.6276253461837769,-0.31590524315834045,-0.7713292241096497,-0.18443238735198975,0.5164940357208252
3.148250102996826,0.5045307874679565,0.07330214977264404,0.12265521287918091,-0.6942010744062195,-1.1636326156010999,-2.071633248184655,-0.7057332396507263,0.6397716403007507,-0.30435681343078613,-0.7052100896835327,-0.16248466074466705,0.5556433796882629
3.1691110134124756,0.5844980478286743,-0.035863280296325684,0.14060696959495544,-0.7093514993530068,-1.1763804550344334,-2.083996999104649,-0.7005259394645691,0.6513418555259705,-0.2915773391723633,-0.6776412725448608,-0.306189626455307,0.5135270953178406
3.1878819465637207,0.694146454334259,-0.19520080089569092,0.16810908913612366,-0.7262326826782523,-1.1909046302237167,-2.0953127599957364,-0.6943753361701965,0.6640576124191284,-0.2772551476955414,-0.8089388608932495,-0.4563559591770172,0.7134748697280884
3.207911968231201,0.7218008041381836,-0.3359569311141968,0.2006397843360901,-0.748549529434674,-1.2114621796297411,-2.108777180283062,-0.6858817338943481,0.680576741695404,-0.2576465606689453,-0.9484679698944092,-0.7290870547294617,1.055128574371338
3.2265729904174805,0.6661112904548645,-0.3266534209251404,0.1983930766582489,-0.7773300017688399,-1.2381305176501667,-2.121278613530036,-0.6737102270126343,0.7013787627220154,-0.23277103900909424,-0.8566171526908875,-1.0381453037261963,1.3266322612762451
3.2498021125793457,0.5758716464042664,-0.0056174397468566895,0.27014797925949097,-0.8045111259863517,-1.269852860233363,-2.137119844114508,-0.6622974276542664,0.7204917073249817,-0.2055574506521225,-1.27800452709198,-1.0003254413604736,0.5533435344696045
3.2679779529571533,0.44406718015670776,0.046031177043914795,0.15484583377838135,-0.8126687031146426,-1.3087085901649564,-2.1645004426080114,-0.6640837788581848,0.72612464427948,-0.17814595997333527,-0.3515530526638031,-0.6834959387779236,0.254334032535553
3.287642002105713,0.6278188228607178,-0.24044138193130493,0.06487935781478882,-0.8233654498079662,-1.3206238868805356,-2.1672088376151244,-0.658595860004425,0.7334376573562622,-0.16828811168670654,-0.2984153628349304,-0.6381269097328186,0.5378718972206116
3.307788848876953,0.7382197380065918,-0.22269207239151,-0.036505624651908875,-0.8364958328376065,-1.344297232344589,-2.174612568072699,-0.6529536247253418,0.7422996759414673,-0.15047547221183777,-0.43711358308792114,-1.027996301651001,0.7330392003059387
3.326545000076294,0.7000521421432495,-0.22361594438552856,-0.07771225273609161,-0.8549150466552744,-1.369722812771995,-2.182327936690005,-0.6430606842041016,0.7545151710510254,-0.1310737133026123,-0.49032020568847656,-0.9113406538963318,0.845956563949585
3.3465869426727295,0.6872947812080383,-0.26757651567459106,-0.09288448095321655,-0.8733868357127824,-1.3930789482595907,-2.19265141580383,-0.6321191191673279,0.7665084600448608,-0.11353636533021927,-0.4371921420097351,-0.6668568849563599,0.8504630327224731
3.3674559593200684,0.7788066267967224,-0.2853648066520691,-0.14977729320526123,-0.8909337286198133,-1.4056306392971445,-2.1922683085904104,-0.6201305389404297,0.7776591181755066,-0.1033659279346466,0.20233933627605438,-0.6086651682853699,0.915094256401062
3.387627124786377,0.8362928628921509,-0.2662322521209717,-0.11466669291257858,-0.9082338900733902,-1.400599478636818,-2.1717972516485036,-0.6062514185905457,0.7884185910224915,-0.10419005155563354,0.7241654396057129,-0.510357677936554,0.9342056512832642
3.407578945159912,0.8323352932929993,-0.3477930426597595,-0.04655662924051285,-0.9223565529991999,-1.3859699553598257,-2.141152199358651,-0.5936573147773743,0.797027051448822,-0.1109902486205101,0.7718544006347656,-0.4275102913379669,0.8254692554473877
3.4272899627685547,0.8880136609077454,-0.32401883602142334,0.002196498215198517,-0.9337597844485045,-1.3735322612067293,-2.1178313102508497,-0.5832804441452026,0.8038619756698608,-0.11657632142305374,0.4101092517375946,-0.23333396017551422,0.4924318492412567
3.446913957595825,1.0141851902008057,-0.23300397396087646,0.026889264583587646,-0.9403111888762272,-1.3639927345301432,-2.10186781246133,-0.5769751667976379,0.8077415823936462,-0.12105116993188858,0.4449821710586548,-0.1278049647808075,0.3242095708847046
3.467072010040283,1.1392778158187866,-0.12859106063842773,0.054763197898864746,-0.942000627148929,-1.346833914573608,-2.076578422776374,-0.5734819769859314,0.8087364435195923,-0.13062985241413116,1.083846092224121,-0.1452876478433609,0.2596262991428375
3.486982822418213,1.1788859367370605,-0.07498252391815186,0.07837677001953125,-0.9383442611219632,-1.3079582945958357,-2.0250975372821185,-0.5708232522010803,0.8065804839134216,-0.15358726680278778,2.041468620300293,-0.07373214513063431,-0.06868212670087814
3.506834030151367,1.1644355058670044,-0.13077247142791748,0.1758962869644165,-0.918006792240766,-1.2519441420121953,-1.950859030904746,-0.576789140701294,0.7943925261497498,-0.19040733575820923,2.655973196029663,-0.22905826568603516,-0.5674095749855042
3.5269179344177246,1.1788432598114014,-0.26542264223098755,0.4084457755088806,-0.888076538044704,-1.2111476434612765,-1.8796394380200152,-0.5905405879020691,0.7758596539497375,-0.22204433381557465,2.363722562789917,-1.3066600561141968,-0.7151777744293213
3.5468709468841553,0.8320121765136719,-0.36772340536117554,0.5148762464523315,-0.8560600674862681,-1.2079461256626305,-1.8257694347619224,-0.6127434372901917,0.7552661299705505,-0.23263439536094666,2.1890363693237305,-2.3982064723968506,-1.087647795677185
3.5668039321899414,0.2910246253013611,-0.13920217752456665,0.27860456705093384,-0.8139000692124844,-1.2168261996686476,-1.7683704020774482,-0.6440978050231934,0.7269707322120667,-0.23801614344120026,2.899754285812378,-2.815519332885742,-1.6093416213989258
3.588204860687256,-0.2783536911010742,-0.21699446439743042,0.21009492874145508,-0.758060752946898,-1.2356061848209674,-1.7044280998890151,-0.6857577562332153,0.6875145435333252,-0.2388729453086853,3.114701986312866,-3.5257420539855957,-2.192563533782959
3.6071720123291016,-1.5134942531585693,-0.34253108501434326,0.2601171135902405,-0.6856949496572252,-1.2639747750045545,-1.6562908463432895,-0.7378333210945129,0.6332110166549683,-0.2337651252746582,2.409616470336914,-2.6093802452087402,-3.6255834102630615
3.62689208984375,-2.3006043434143066,-0.1409783959388733,0.1608210802078247,-0.6016048153235737,-1.3104215106842603,-1.6426189781709648,-0.7966399788856506,0.5659662485122681,-0.21224315464496613,1.3734517097473145,-2.812394857406616,-3.903482437133789
3.6471469402313232,-2.1232595443725586,0.21072524785995483,-0.1490064263343811,-0.5236148426010889,-1.3529620294751912,-1.6289313464933137,-0.845551609992981,0.5000138878822327,-0.18715991079807281,1.487980604171753,-2.084054470062256,-3.3779492378234863
3.666849136352539,-1.5946773290634155,0.1877749264240265,-0.16774724423885345,-0.4623069518579783,-1.3789432023165487,-1.6154571024147637,-0.8786044716835022,0.44601407647132874,-0.170662060379982,0.7874035239219666,-1.1636805534362793,-2.2677242755889893
3.6864659786224365,-1.1005114316940308,0.18404406309127808,0.04840303957462311,-0.43084691134808095,-1.3924092798187915,-1.618111634311402,-0.8941937685012817,0.41764047741889954,-0.16122640669345856,-0.35417288541793823,-0.16211669147014618,-0.8995830416679382
3.7067008018493652,-0.6413498520851135,0.16871029138565063,0.0013696104288101196,-0.4272211268298804,-1.3954905926130423,-1.6273549720589118,-0.896171510219574,0.41434329748153687,-0.15873341262340546,-0.23661749064922333,0.13328300416469574,0.33867985010147095
3.726496934890747,-0.35604429244995117,0.07143443822860718,-0.053884029388427734,-0.439141826461741,-1.3914471068538687,-1.6203999100682827,-0.8905988931655884,0.4251628816127777,-0.1614631563425064,0.7041144967079163,-0.004870077595114708,0.8064950108528137
3.746339797973633,-0.3319891691207886,-0.1564071774482727,0.007629409432411194,-0.4510068386399298,-1.3794748057959911,-1.5939743870663072,-0.8835870027542114,0.4358719289302826,-0.17114248871803284,1.2957282066345215,0.049622371792793274,0.7263443470001221
3.7663698196411133,-0.16698390245437622,-0.4039454460144043,0.04244840145111084,-0.4577599905259984,-1.364363836980234,-1.5631140409642168,-0.8779991269111633,0.4419398307800293,-0.18386678397655487,1.1921827793121338,0.09486362338066101,0.4803113639354706
3.7863011360168457,-0.0064827799797058105,-0.4440150558948517,0.08032137155532837,-0.4593256112440434,-1.3532830090849672,-1.5402827389093174,-0.8752312064170837,0.44334372878074646,-0.1934347003698349,0.7875971794128418,-0.020107708871364594,0.10200478136539459
3.8060529232025146,0.0812540054321289,-0.36715197563171387,0.04787591099739075,-0.4560887303684252,-1.3494097235359281,-1.52462078621566,-0.875870943069458,0.44044002890586853,-0.19713735580444336,0.706169605255127,-0.32318902015686035,-0.07286759465932846
3.825993061065674,0.04255032539367676,-0.27292177081108093,-0.044371068477630615,-0.45097126286871225,-1.3528451602083815,-1.5096236147750823,-0.8787320852279663,0.4358398914337158,-0.1946120262145996,0.7380020022392273,-0.6379240155220032,-0.08213004469871521
3.845956802368164,-0.058893680572509766,-0.24169525504112244,-0.07008439302444458,-0.4484050313560114,-1.3589104310623776,-1.4951296388281266,-0.8809868097305298,0.4335288107395172,-0.18951331079006195,0.5292185544967651,-0.5365982055664062,0.041089337319135666
3.8657729625701904,-0.2373630404472351,-0.05600762367248535,-0.0020536184310913086,-0.44172342633182227,-1.3644006336383612,-1.4931655264188122,-0.8848294019699097,0.42749810218811035,-0.18526317179203033,-0.11772805452346802,-0.1186332106590271,-0.687667727470398
3.8872828483581543,-0.18086332082748413,-0.13537615537643433,-0.022332608699798584,-0.43036877464461476,-1.366139952054346,-1.4996072194004288,-0.8898460268974304,0.4172059893608093,-0.18469855189323425,-0.30149155855178833,0.19789201021194458,-0.3600824177265167
3.9062719345092773,-0.08373278379440308,-0.15546664595603943,0.017910897731781006,-0.42979214099886115,-1.3681419030144628,-1.5128469120444632,-0.8904494643211365,0.41668185591697693,-0.18296512961387634,-0.8510782718658447,0.01499914564192295,-0.11922169476747513
3.926136016845703,-0.1141589879989624,-0.06682595610618591,-0.061509132385253906,-0.42975594421347585,-1.3779692390723821,-1.5312254601447874,-0.8922193050384521,0.4166489541530609,-0.17420858144760132,-0.6363720297813416,-0.2674497663974762,-0.0518181249499321
3.945683002471924,0.03161466121673584,0.024250924587249756,-0.06809864938259125,-0.435944723722329,-1.3884765020339436,-1.5364313184650202,-0.8914473652839661,0.42226696014404297,-0.1643536537885666,0.009793737903237343,-0.5798624753952026,0.47864747047424316
3.965567111968994,-0.07097536325454712,0.06030881404876709,-0.05998168885707855,-0.44120168536666043,-1.3952591213452537,-1.5238992888836598,-0.8903436064720154,0.4270263910293579,-0.1579137146472931,0.8590160012245178,-0.47019895911216736,0.30961495637893677
3.9857230186462402,-0.14136463403701782,0.0002675652503967285,-0.009448766708374023,-0.44589581502445247,-1.3934246877567678,-1.4993568879637327,-0.8880696892738342,0.43126627802848816,-0.1591913104057312,1.3865950107574463,-0.40228331089019775,0.5500836372375488
4.005626916885376,-0.1663171648979187,-0.06265157461166382,-0.0506589412689209,-0.4522895587345165,-1.3875384422843122,-1.4626417056908674,-0.8843879103660583,0.4370260238647461,-0.16391006112098694,1.5505114793777466,-0.5707384347915649,0.6335757970809937
4.0254340171813965,-0.2574930787086487,-0.1294458508491516,-0.09071289002895355,-0.45831109894831285,-1.3906757268255994,-1.432997213169463,-0.8822927474975586,0.4424341320991516,-0.16066032648086548,0.5497468113899231,-1.2203471660614014,0.44309094548225403
4.045280933380127,-0.30913102626800537,-0.3488537073135376,0.10946327447891235,-0.4667017349804633,-1.4025300666001843,-1.4269572367242596,-0.8804442882537842,0.4499431848526001,-0.14956329762935638,-0.2031107097864151,-0.14219969511032104,0.6344141960144043
4.065495014190674,-0.3668130040168762,-0.3405158221721649,-0.02516615390777588,-0.4857351812217014,-1.4063321620707339,-1.4378381729971308,-0.8723991513252258,0.4668586254119873,-0.14478616416454315,-0.9360091686248779,0.17646722495555878,0.9912990927696228
4.085585117340088,-0.23264336585998535,-0.11163052916526794,-0.08485732972621918,-0.5070063882385454,-1.4110761661300384,-1.4590658678242756,-0.8630750775337219,0.48556241393089294,-0.13903479278087616,-1.1529572010040283,0.39993715286254883,0.7193620204925537
4.105637073516846,-0.11982959508895874,0.025129854679107666,-0.11417943239212036,-0.5213993915377139,-1.4095764778917805,-1.4756659786871598,-0.8558785319328308,0.4980940818786621,-0.13919265568256378,-0.47530215978622437,0.537790060043335,0.5599097013473511
4.126101016998291,-0.018344402313232422,-0.05233258008956909,-0.07377289235591888,-0.533931169697913,-1.3985851704050296,-1.4780648207547773,-0.8480802178382874,0.5089212656021118,-0.14750999212265015,-0.006240395829081535,0.6909584999084473,0.6514462828636169
4.145203113555908,-0.012738585472106934,-0.12151437997817993,-0.05382288992404938,-0.5479383434257268,-1.3815863540279478,-1.4741368749162331,-0.8383663892745972,0.5209285020828247,-0.16054776310920715,0.06119348108768463,0.8576907515525818,0.8008334636688232
4.164848804473877,-0.04289448261260986,-0.14604872465133667,-0.06477583944797516,-0.5652971127040438,-1.360287106949092,-1.470671519421856,-0.8257886171340942,0.5356667041778564,-0.17645026743412018,-0.17842000722885132,1.0391154289245605,0.9319595694541931
4.1837239265441895,-0.026279211044311523,-0.18372488021850586,-0.05104207992553711,-0.5846277500872421,-1.3411428522782807,-1.4740420535903274,-0.8120234608650208,0.5518890023231506,-0.1898331195116043,-0.5332459807395935,1.0413792133331299,0.9153630137443542
4.204841136932373,-0.017523109912872314,-0.22502809762954712,-0.004459083080291748,-0.607098839502162,-1.3281678039935603,-1.4866061745055148,-0.797250509262085,0.5704871416091919,-0.1973230391740799,-1.0211942195892334,0.9758666157722473,1.025861144065857
4.224544048309326,-0.11441546678543091,-0.23727118968963623,0.0013434439897537231,-0.6320715365769527,-1.3219165089623992,-1.5088187484388562,-0.7819468379020691,0.5908173322677612,-0.19873104989528656,-1.2804962396621704,1.0176950693130493,0.9330902099609375
4.24472713470459,-0.20879477262496948,-0.24917852878570557,0.049688756465911865,-0.6551212925828409,-1.3148492985736322,-1.5359373262858818,-0.7671422362327576,0.6092554330825806,-0.2007506936788559,-1.4163769483566284,1.356872797012329,0.7769551873207092
4.264643907546997,-0.18226832151412964,-0.23744529485702515,0.1529858410358429,-0.6771116583603382,-1.3047550865218198,-1.5700567927151714,-0.7519665360450745,0.6265445351600647,-0.204911470413208,-1.7731239795684814,1.7581011056900024,0.6673404574394226
4.284380912780762,-0.08286911249160767,-0.20617401599884033,0.13543981313705444,-0.6988907042401096,-1.2932220043510367,-1.610342955956971,-0.7362533211708069,0.6433688402175903,-0.20978057384490967,-1.6735988855361938,1.9422847032546997,0.6166748404502869
4.304322957992554,0.05561625957489014,-0.06178855895996094,-0.03722384572029114,-0.7170800641705959,-1.2732560441904472,-1.6373064776814725,-0.7206096649169922,0.6571866273880005,-0.2209700644016266,-0.7365624308586121,1.7449127435684204,0.5145431756973267
4.324602127075195,0.22244852781295776,0.03287392854690552,-0.09780663251876831,-0.725536959944033,-1.243743921320048,-1.6401228811857993,-0.708486795425415,0.6635372638702393,-0.2403433471918106,0.18875017762184143,1.3783091306686401,0.25330623984336853
4.34472393989563,0.30840468406677246,-0.06875211000442505,-0.05864149332046509,-0.7267239333985692,-1.2146779385567625,-1.6311901163971083,-0.700464129447937,0.6644248366355896,-0.26055705547332764,0.2527867257595062,0.9662435054779053,0.051933810114860535
4.363266944885254,0.3015333414077759,-0.10000097751617432,-0.061466991901397705,-0.7232160877197783,-1.1977135274978519,-1.63079177230364,-0.6981093883514404,0.6617991328239441,-0.2732497751712799,-0.023128684610128403,0.7151523232460022,-0.32408738136291504
4.38414192199707,0.3476635217666626,-0.026475191116333008,-0.1007237434387207,-0.7192624072279266,-1.184678394671433,-1.6333970834830935,-0.6969068050384521,0.6588299870491028,-0.2833094298839569,-0.052264317870140076,0.7835755944252014,-0.03867282718420029
4.404496908187866,0.3717315196990967,0.04907459020614624,-0.15509608387947083,-0.7206174890127626,-1.1692031439648425,-1.6358770921384471,-0.6916167736053467,0.6598487496376038,-0.2937105894088745,-0.2172825038433075,0.8708142042160034,0.03498545289039612
4.424314975738525,0.4132120609283447,0.04168742895126343,-0.19176971912384033,-0.7224492121640728,-1.1578269315431113,-1.6436482079335162,-0.6871227025985718,0.6612240076065063,-0.3010738790035248,-0.37988290190696716,0.7880245447158813,-0.0671553909778595
4.443718910217285,0.4682111144065857,0.021017849445343018,-0.17863202095031738,-0.7256185363978502,-1.1497911390409203,-1.6537255953103136,-0.682765007019043,0.6635982990264893,-0.30572766065597534,-0.442905068397522,0.6744657754898071,0.07245586067438126
4.464065074920654,0.4781695604324341,0.03014451265335083,-0.14065659046173096,-0.7311981722103479,-1.1430600847984629,-1.66237313815913,-0.6773120760917664,0.6677619814872742,-0.30877572298049927,-0.3439813554286957,0.5766018033027649,0.15628133714199066
4.483982086181641,0.4183305501937866,0.07840156555175781,-0.11967837810516357,-0.7359729182412402,-1.1350418353170422,-1.6663091276257413,-0.6719164252281189,0.6713085770606995,-0.31284722685813904,-0.1365373432636261,0.48040491342544556,0.12760761380195618
4.5037078857421875,0.31918758153915405,0.1300073266029358,-0.09123227000236511,-0.7375378274829701,-1.126717350695773,-1.6667304743698603,-0.6683392524719238,0.6724676489830017,-0.3179778754711151,-0.0068085677921772,0.3787490427494049,0.012555648572742939
4.52381706237793,0.23440831899642944,0.143451988697052,-0.028068989515304565,-0.7372675946721755,-1.1220935307178797,-1.668862957460125,-0.6670255661010742,0.6722676157951355,-0.32114356756210327,-0.14489740133285522,0.24684372544288635,-0.08858764916658401
4.542827129364014,0.16629379987716675,0.13988226652145386,0.004073679447174072,-0.7389372971914103,-1.123159905145569,-1.6772323618543767,-0.6663548946380615,0.6735027432441711,-0.3199458420276642,-0.534325361251831,0.18868766725063324,-0.030201701447367668
4.563715934753418,0.12278592586517334,0.1965935230255127,-0.0209769606590271,-0.7435995398352152,-1.1329663006264363,-1.694156076792491,-0.6666092872619629,0.6769416928291321,-0.3120613396167755,-0.6911450624465942,-0.028137583285570145,-0.07608653604984283
4.585808992385864,0.10238802433013916,0.3169481158256531,-0.04168492555618286,-0.7476588094148009,-1.143523182639426,-1.7066172297703892,-0.6673600673675537,0.6799238920211792,-0.30386555194854736,-0.23057778179645538,-0.1725219339132309,0.0701332613825798
4.607250928878784,0.04542505741119385,0.423037588596344,-0.08765283226966858,-0.7486022925613736,-1.1437319806020476,-1.6999736259446676,-0.6668393015861511,0.6806154251098633,-0.30346032977104187,0.6019373536109924,-0.2913300693035126,0.21771462261676788
4.620977878570557,-0.057348668575286865,0.3837435245513916,-0.010427862405776978,-0.7461718855765745,-1.1343013511359739,-1.6771311334716366,-0.6654449105262756,0.6788327693939209,-0.31043386459350586,0.9448389410972595,-0.2898792624473572,0.2456546276807785
4.640201091766357,-0.055057644844055176,0.2512832283973694,0.09053155779838562,-0.7434930292648615,-1.1232667820304243,-1.6537948715217499,-0.6636161804199219,0.6768633127212524,-0.31854358315467834,0.6085758209228516,-0.1837632954120636,0.22370366752147675
4.660458087921143,0.016057848930358887,0.16167134046554565,0.1294812560081482,-0.7433022993468762,-1.1177430635154433,-1.6417936902777528,-0.6619624495506287,0.6767228841781616,-0.3222607672214508,0.25074416399002075,-0.09647749364376068,0.1809895634651184
4.679925918579102,0.11548388004302979,0.07495838403701782,0.11352118849754333,-0.7464532559654629,-1.113292373782664,-1.6330780862692043,-0.6586052179336548,0.6790393590927124,-0.32426023483276367,0.2556401789188385,-0.0694790706038475,0.41270729899406433
4.699925899505615,0.16025567054748535,0.05150043964385986,0.09451845288276672,-0.7512518902433892,-1.1046351847343003,-1.6180400631048415,-0.6528552770614624,0.6825542449951172,-0.3284814655780792,0.5571092963218689,-0.09973232448101044,0.4428461492061615
4.7199249267578125,0.16266930103302002,0.03982126712799072,0.1093142032623291,-0.7514899550354394,-1.0906891624609658,-1.5948868158260066,-0.6480666995048523,0.6827281713485718,-0.3374788463115692,0.9122707843780518,-0.06781939417123795,0.3543674945831299
4.73992395401001,0.19232046604156494,-0.03558611869812012,0.1527155339717865,-0.7479437028475583,-1.0732146578958617,-1.5676421901605282,-0.6441943645477295,0.6801327466964722,-0.3499048352241516,0.9546047449111938,-0.0723012313246727,0.2738511562347412
4.7598559856414795,0.2015501856803894,-0.07986468076705933,0.1265181303024292,-0.7435365832206862,-1.058206266393358,-1.5421695666204311,-0.6414764523506165,0.6768953204154968,-0.3609999120235443,0.9118465185165405,-0.13376015424728394,0.2567794919013977
4.779912948608398,0.1316707730293274,-0.06505674123764038,0.12745660543441772,-0.7382952490342266,-1.0445460021850554,-1.5197990166258697,-0.6395444273948669,0.6730280518531799,-0.37150564789772034,0.7639754414558411,-0.0015753918560221791,0.06589744985103607
4.798935890197754,0.052174270153045654,-0.012751877307891846,0.12784188985824585,-0.729503399027829,-1.0317060302303456,-1.5033818532953294,-0.6397750377655029,0.6664994955062866,-0.38270941376686096,0.7571404576301575,0.21993383765220642,-0.17503218352794647
4.819924831390381,0.021124064922332764,0.04552412033081055,0.18299129605293274,-0.7184807599919747,-1.0166720409081003,-1.4920830541712804,-0.6401578783988953,0.6582417488098145,-0.39612600207328796,0.521715521812439,0.5117124915122986,-0.35075676441192627
4.839878082275391,0.04359281063079834,0.04444068670272827,0.2016296088695526,-0.7070050017921713,-1.0021697941475318,-1.4885197304511895,-0.6406692862510681,0.6495595574378967,-0.40940847992897034,0.3123619556427002,0.692988395690918,-0.4346924126148224
4.859850883483887,0.11944115161895752,0.10544300079345703,0.23067045211791992,-0.6974937093645173,-0.9899207626650252,-1.4909679403559064,-0.6407424807548523,0.6422987580299377,-0.42059653997421265,0.06616906821727753,0.6386118531227112,-0.5254045724868774
4.879899024963379,0.16812407970428467,0.21633470058441162,0.17983871698379517,-0.6859743911526888,-0.983267618004258,-1.4971581120786381,-0.6440457701683044,0.6334273219108582,-0.4289231300354004,0.25701814889907837,0.4439563453197479,-0.6414374709129333
4.8999481201171875,0.23682212829589844,0.24379003047943115,0.1949399709701538,-0.6718125932545599,-0.975196900077661,-1.4964371675056822,-0.6479244828224182,0.6224057078361511,-0.43909579515457153,0.538909375667572,0.3215967118740082,-0.507683277130127
4.919870853424072,0.2866659164428711,0.18406879901885986,0.2669861912727356,-0.6572918194623403,-0.9663132099740406,-1.490883487089204,-0.6513662934303284,0.6109751462936401,-0.4499237835407257,0.6081255674362183,0.22635754942893982,-0.44500836730003357
4.939844131469727,0.3079538345336914,0.11126172542572021,0.30694958567619324,-0.6441068626563562,-0.9584164393201298,-1.4838525934627294,-0.6543283462524414,0.6004844903945923,-0.45964422821998596,0.6093377470970154,0.15454691648483276,-0.322890043258667
4.961123943328857,0.2892361879348755,0.039314210414886475,0.320633202791214,-0.6327657211303249,-0.9512723376223444,-1.4763004182556283,-0.656530499458313,0.5913772583007812,-0.4682314097881317,0.5160565376281738,0.0882977694272995,-0.2496161162853241
4.979856014251709,0.27240610122680664,0.07092446088790894,0.27440381050109863,-0.6234572326047394,-0.9484030078486657,-1.471342478060319,-0.6596284508705139,0.5838454365730286,-0.47330209612846375,0.4135935604572296,-0.0833979994058609,-0.28507912158966064
4.999855041503906,0.2659444808959961,0.09855830669403076,0.252486914396286,-0.6148566610996701,-0.9469548617089294,-1.4647473808272375,-0.6629934310913086,0.576841413974762,-0.47717249393463135,0.5047069787979126,-0.16066321730613708,-0.0596003495156765
5.020510911941528,0.23614031076431274,0.07488787174224854,0.2457258105278015,-0.6083014968188245,-0.9439547676347456,-1.4529777097573424,-0.6646071672439575,0.5714744329452515,-0.48136723041534424,0.6698495745658875,-0.19973862171173096,0.07013236731290817
5.0400309562683105,0.19377100467681885,0.0365828275680542,0.32559770345687866,-0.6030185450382678,-0.9401323233750181,-1.4392624636125229,-0.6651913523674011,0.5671312212944031,-0.4856776297092438,0.4909187853336334,-0.17328989505767822,0.13639727234840393
5.0600199699401855,0.15070796012878418,-0.06713873147964478,0.38719555735588074,-0.6014907809214823,-0.9388157176234782,-1.4329030850381008,-0.6652495861053467,0.5658722519874573,-0.4870642423629761,-0.013564687222242355,-0.06656663864850998,0.041861433535814285
5.081139087677002,0.19233191013336182,-0.10873931646347046,0.3715609312057495,-0.604683685988361,-0.9436235811425793,-1.437416787056402,-0.6661173701286316,0.568501889705658,-0.4827974736690521,-0.39089611172676086,-0.22522419691085815,0.03127172961831093
5.102538108825684,0.23603349924087524,-0.02916485071182251,0.26353180408477783,-0.6096445986225747,-0.9548172232347285,-1.4419073301487237,-0.6691694855690002,0.572576105594635,-0.47367575764656067,-0.07177391648292542,-0.6485058069229126,0.1724897176027298
5.122398853302002,0.22593456506729126,0.03643155097961426,0.2080693244934082,-0.6111916523699978,-0.9662807591180526,-1.4326525370901688,-0.6738259196281433,0.573843777179718,-0.4654697775840759,0.5173199772834778,-1.0161303281784058,0.320321261882782
5.1423540115356445,0.12757354974746704,-0.018444955348968506,0.23754513263702393,-0.6069755974845814,-0.9806404248479668,-1.4180537335528782,-0.6824442744255066,0.5703858733177185,-0.45708853006362915,0.6963794231414795,-1.2286701202392578,0.001870992360636592
5.162194013595581,0.11170816421508789,-0.1480078101158142,0.2055593729019165,-0.5987513520559716,-0.99848292944646,-1.4049728527819714,-0.6944109201431274,0.5636115074157715,-0.4473653733730316,0.6240634322166443,-1.2951017618179321,-0.05948687717318535
5.181976795196533,0.13626348972320557,-0.20654451847076416,0.16362091898918152,-0.5916797865654145,-1.019774376370791,-1.3948272004159015,-0.7071558833122253,0.5577560663223267,-0.43455591797828674,0.4690386652946472,-1.4155596494674683,-0.08418771624565125
5.202575922012329,0.12194520235061646,-0.1838124394416809,0.14185971021652222,-0.5863255540275955,-1.043813228189083,-1.3861794326887784,-0.7199677228927612,0.5533040165901184,-0.41892874240875244,0.47811800241470337,-1.467316746711731,-0.046750541776418686
5.223110914230347,0.006975829601287842,-0.13478374481201172,0.10800418257713318,-0.5773916365806033,-1.0649562397035746,-1.3738367107688134,-0.7329584956169128,0.5458402633666992,-0.4059929847717285,0.889018177986145,-1.2912532091140747,-0.21924558281898499
5.242133140563965,-0.0421450138092041,-0.1222459077835083,0.12038114666938782,-0.5625537823858259,-1.078517830482348,-1.356919154828251,-0.7454527020454407,0.5333481431007385,-0.39980003237724304,1.0283077955245972,-1.0030597448349,-0.40996113419532776
5.259886980056763,0.02450042963027954,-0.2163413166999817,0.11668673157691956,-0.5464834100888972,-1.089937868510617,-1.3423695817393813,-0.7574716210365295,0.5196860432624817,-0.3951748311519623,0.7249398827552795,-0.9591439962387085,-0.38727352023124695
5.281799793243408,0.03388369083404541,-0.2334284782409668,0.10680729150772095,-0.5360472646883097,-1.1082374808966773,-1.3386334393822137,-0.76938796043396,0.5107417106628418,-0.38364744186401367,0.0534827746450901,-1.0829466581344604,-0.42597898840904236
5.301425933837891,-0.03726816177368164,-0.18453454971313477,0.0682440996170044,-0.5289396109924426,-1.1341580255326766,-1.346474919154128,-0.7823425531387329,0.5046181678771973,-0.3651038110256195,-0.2984927296638489,-1.0878324508666992,-0.5261781811714172
5.321738004684448,-0.0967797040939331,-0.09022974967956543,0.008521407842636108,-0.5188532824155196,-1.160023774441168,-1.3558358576692822,-0.7961494326591492,0.49588465690612793,-0.34676289558410645,0.057023487985134125,-1.0029523372650146,-0.7460634112358093
5.340348958969116,-0.07330471277236938,-0.007832080125808716,0.013785392045974731,-0.501228910291582,-1.1787025202062353,-1.3562260780064672,-0.8104388117790222,0.480503648519516,-0.33512017130851746,0.6132743954658508,-0.8701180815696716,-0.869384229183197
5.361401081085205,-0.04351651668548584,-0.023422956466674805,0.004392653703689575,-0.47867387800985994,-1.1924921831100728,-1.3473271937752733,-0.8248459696769714,0.4606024920940399,-0.3278330862522125,0.8862244486808777,-0.9534334540367126,-0.9360219836235046
5.3812220096588135,-0.09741789102554321,-0.07946059107780457,-0.02538895606994629,-0.45477794561558577,-1.2082903270969738,-1.3380250534770939,-0.8399754166603088,0.43926283717155457,-0.31857460737228394,0.6739528179168701,-1.0664894580841064,-1.0123155117034912
5.400985956192017,-0.16295039653778076,-0.0920734703540802,-0.04207301139831543,-0.43191593255897004,-1.230718440683868,-1.3381078954542216,-0.8561537265777588,0.4186115562915802,-0.3029281795024872,0.11486078798770905,-1.1442815065383911,-1.1221771240234375
5.4216108322143555,-0.1815534234046936,-0.06401243805885315,-0.06358864903450012,-0.4103471340299591,-1.2558642944054057,-1.3467364789877547,-0.8718830347061157,0.3989276587963104,-0.2840370535850525,-0.05117043852806091,-1.0238926410675049,-1.1784286499023438
5.441225051879883,-0.19077050685882568,0.046418994665145874,-0.09186935424804688,-0.3872111268343336,-1.2767613499125252,-1.3510604806260023,-0.8862254619598389,0.3776074945926666,-0.26836004853248596,0.41453462839126587,-0.891789436340332,-1.1683710813522339
5.461086988449097,-0.27831387519836426,0.08508855104446411,-0.10960966348648071,-0.3599509568311636,-1.2902696088298047,-1.3433183603690586,-0.8993290662765503,0.3522283434867859,-0.259118914604187,1.0419977903366089,-0.7714681625366211,-1.2389678955078125
5.480039119720459,-0.39503878355026245,0.08990296721458435,-0.09041404724121094,-0.32934903841320673,-1.2999992730384242,-1.3273718929042808,-0.9117698073387146,0.32342711091041565,-0.2531222701072693,1.1834529638290405,-0.7069236636161804,-1.3057125806808472
5.5008509159088135,-0.4439159631729126,0.012224048376083374,0.04295596480369568,-0.3010650945784435,-1.306777798263416,-1.3139014912460993,-0.9219290018081665,0.2965375483036041,-0.2492242157459259,0.6559887528419495,-0.3375561535358429,-1.013213038444519
5.520792007446289,-0.45029014348983765,-0.0010906755924224854,0.1464996635913849,-0.2865831216229064,-1.3084234579228473,-1.3150202255453343,-0.9263885617256165,0.2826763689517975,-0.2487945705652237,-0.371927410364151,0.08952149003744125,-0.48732641339302063
5.540745973587036,-0.408952534198761,0.10411036014556885,0.14022564888000488,-0.2833322733474609,-1.311954951331931,-1.3330569040528117,-0.9281447529792786,0.27955660223960876,-0.2457553744316101,-1.1344585418701172,0.07040070742368698,-0.2628524899482727
5.560707092285156,-0.32955402135849,0.17497578263282776,0.06763216853141785,-0.2854588368243097,-1.31883284444076,-1.3559829549466529,-0.9292352795600891,0.281597763299942,-0.23921719193458557,-0.8967168927192688,-0.11521877348423004,-0.0994236022233963
5.579834938049316,-0.31120675802230835,0.16944760084152222,0.0839579701423645,-0.28734049513667714,-1.3228296664819377,-1.3663989499002016,-0.9296686053276062,0.28340277075767517,-0.23537082970142365,-0.05331524461507797,0.051616277545690536,0.016979632899165154
5.601039886474609,-0.3314427137374878,0.13513001799583435,0.08751404285430908,-0.2854481659609546,-1.3183249376054662,-1.3589132442609513,-0.9291164875030518,0.28158751130104065,-0.23968985676765442,0.7437018752098083,0.14452455937862396,-0.03757674992084503
5.620955944061279,-0.3181554675102234,0.034932851791381836,0.1455349624156952,-0.2801492146706995,-1.3082229006876367,-1.3403237574132219,-0.9280757904052734,0.27649906277656555,-0.2494472712278366,0.9668139219284058,0.34434616565704346,-0.013074041344225407
5.640141010284424,-0.3319879174232483,-0.06240898370742798,0.14615803956985474,-0.27409536466751305,-1.2971329365954651,-1.3239853258738794,-0.9268470406532288,0.2706761956214905,-0.26017165184020996,0.6899079084396362,0.3058934807777405,-0.1590079367160797
5.660860061645508,-0.3430129885673523,-0.07480302453041077,0.14122700691223145,-0.2685718678285331,-1.2876912117279806,-1.3128739538644083,-0.9257706999778748,0.26535478234291077,-0.26932448148727417,0.4654788374900818,0.3537350296974182,-0.0732986181974411
5.680314064025879,-0.39951640367507935,-0.08612635731697083,0.12369483709335327,-0.26719663203544364,-1.2799824629064198,-1.3079558327537728,-0.9240158200263977,0.2640285789966583,-0.2765573263168335,0.05875982716679573,0.3306195139884949,0.12350228428840637
5.700285911560059,-0.5205138325691223,-0.09968233108520508,0.04929828643798828,-0.273235545137149,-1.2738294071386445,-1.3074450908774766,-0.9207552075386047,0.2698483467102051,-0.2817658483982086,-0.20967690646648407,0.12516045570373535,0.3905559480190277
5.719964981079102,-0.5842960476875305,-0.08999690413475037,0.060525327920913696,-0.2857171869478197,-1.2757779860614753,-1.3139115500468657,-0.9180080890655518,0.2818456292152405,-0.27897003293037415,-0.7343495488166809,-0.11496524512767792,0.6019719243049622
5.740001916885376,-0.6149672865867615,-0.12800031900405884,0.03410455584526062,-0.30528180056513665,-1.2811734920165871,-1.32569697115339,-0.9140397310256958,0.30056196451187134,-0.27238574624061584,-0.926591157913208,-0.057171985507011414,1.0152266025543213
5.759903907775879,-0.5627231001853943,-0.12814316153526306,0.09185054898262024,-0.33614374034644046,-1.2844686961471543,-1.340422541867848,-0.9055998921394348,0.32984912395477295,-0.26662468910217285,-1.3288477659225464,0.2649104595184326,1.5317647457122803
5.780549049377441,-0.7036392092704773,-0.20588946342468262,0.03116932511329651,-0.3769871983435129,-1.2832014812912464,-1.3603070420037915,-0.89159095287323,0.3681209087371826,-0.26372843980789185,-1.5090411901474,0.45728176832199097,1.8402765989303589
5.799932956695557,-0.6264549493789673,-0.18626737594604492,-0.07310518622398376,-0.42329832149722224,-1.2818470383705343,-1.3770400932339617,-0.8739418387413025,0.41076987981796265,-0.2597956955432892,-1.227719783782959,0.33301395177841187,2.18388032913208
5.819847106933594,-0.6025729775428772,-0.15935546159744263,-0.08495163917541504,-0.4735658692966892,-1.2776665768036526,-1.383698009872471,-0.8519864082336426,0.4560626149177551,-0.2571503221988678,-0.8012433648109436,0.4031548798084259,2.430785655975342
5.839870929718018,-0.6798811554908752,-0.24854564666748047,-0.0792628824710846,-0.5241395292510236,-1.2674339437316602,-1.3817727824157828,-0.8262224197387695,0.5004682540893555,-0.25862762331962585,-0.59991055727005,0.528113603591919,2.436347723007202
5.859905958175659,-0.7208017706871033,-0.2953421473503113,-0.032727599143981934,-0.5738510386192054,-1.2530163630350857,-1.3784061148517552,-0.797768235206604,0.5428702235221863,-0.2624078094959259,-0.6838518977165222,0.7327640056610107,2.4162073135375977
5.879868984222412,-0.7007697224617004,-0.3146854639053345,-0.012716442346572876,-0.622336256537587,-1.2380444016960297,-1.3784258155996847,-0.7679498195648193,0.5829349756240845,-0.26540541648864746,-0.8346853256225586,0.7328721284866333,2.182476043701172
5.901448011398315,-0.5981884002685547,-0.25244152545928955,-0.019940286874771118,-0.6675121179692652,-1.225872114770484,-1.3803594723379313,-0.7391073107719421,0.6190339922904968,-0.2655516266822815,-0.785460889339447,0.576224148273468,2.027892827987671
5.921158790588379,-0.5498625040054321,-0.17837941646575928,-0.0342123806476593,-0.7086868004787747,-1.2167580677499963,-1.3809432377377704,-0.7121309041976929,0.6508373022079468,-0.26321184635162354,-0.7080618739128113,0.3892653286457062,1.8308076858520508
5.939907073974609,-0.5165144205093384,-0.14335733652114868,-0.028572261333465576,-0.744616193283046,-1.2103360162576895,-1.3807319036502197,-0.6880907416343689,0.6776896119117737,-0.25936099886894226,-0.4860117733478546,0.256804496049881,1.5722697973251343
5.959913015365601,-0.43344855308532715,-0.07844656705856323,-0.03713256120681763,-0.7741350297720565,-1.2015471057751956,-1.3735250370683145,-0.6668323278427124,0.6990978717803955,-0.2580638825893402,-0.07534350454807281,0.1321617215871811,1.4084445238113403
5.979903936386108,-0.3635866045951843,-0.04816079139709473,-0.007566094398498535,-0.8001231217549902,-1.1929349617662137,-1.3628516034177756,-0.6474761366844177,0.7174418568611145,-0.2570059597492218,-0.2809390127658844,-0.05044342204928398,1.2201380729675293
6.001144886016846,-0.34152865409851074,-0.08535462617874146,0.03178098797798157,-0.8257080501837184,-1.1958404188693454,-1.3651752024099018,-0.6309292316436768,0.7350280284881592,-0.2483183890581131,-0.9242748022079468,-0.05576192960143089,1.1575100421905518
6.019906044006348,-0.323777437210083,0.012307882308959961,0.034238457679748535,-0.8549728599111784,-1.2136149746434168,-1.3879395794997302,-0.6148213148117065,0.7545530796051025,-0.22944410145282745,-1.431471347808838,-0.04894352704286575,1.0331350564956665
6.039905071258545,-0.24668967723846436,0.17174041271209717,-0.039444729685783386,-0.8824867020152606,-1.2381840538744957,-1.41720486262675,-0.6004172563552856,0.7723209261894226,-0.20741188526153564,-1.1494704484939575,-0.1472873091697693,0.9835162162780762
6.059906959533691,-0.1453908085823059,0.2599899172782898,-0.05638378858566284,-0.9062149842964424,-1.2579901658080608,-1.4364789586591369,-0.5868023037910461,0.7871750593185425,-0.1897861659526825,-0.8074100017547607,-0.3066652715206146,0.8510538935661316
6.079905033111572,-0.04748189449310303,0.10331958532333374,-0.0028858184814453125,-0.9264578081546736,-1.2793322116299375,-1.4555345832943294,-0.5753361582756042,0.7994972467422485,-0.17260544002056122,-0.9758678078651428,-0.31203606724739075,0.7034105658531189
6.099906921386719,0.0798531174659729,-0.01257467269897461,0.032319143414497375,-0.9443585576573432,-1.3095117499327193,-1.485752694050921,-0.5663643479347229,0.8101210594177246,-0.15144440531730652,-1.2564975023269653,-0.31902098655700684,0.5366529822349548
6.119940996170044,0.2010871171951294,0.01944190263748169,-0.004959568381309509,-0.957989283976046,-1.3484851240051574,-1.5251562529364517,-0.5610114336013794,0.8180367350578308,-0.12681521475315094,-1.230326771736145,-0.358059287071228,0.26353690028190613
6.139975070953369,0.3358272910118103,0.01966273784637451,-0.028289958834648132,-0.9662494520884944,-1.3857148589276378,-1.5612672921113826,-0.5586819648742676,0.822759747505188,-0.1045987606048584,-0.9309273958206177,-0.41595277190208435,0.13377487659454346
6.15999698638916,0.45357996225357056,0.017013490200042725,-0.037513136863708496,-0.9711156690097105,-1.4191762637339849,-1.5918620759483701,-0.5579043626785278,0.825515866279602,-0.08524370938539505,-1.009423851966858,-0.43964168429374695,0.06278534978628159
6.1802167892456055,0.5364227890968323,-0.027827858924865723,-0.027854617685079575,-0.9749036371562814,-1.4636499810733348,-1.6342699613264025,-0.558029294013977,0.8276478052139282,-0.06002065911889076,-1.346134901046753,-0.4494217038154602,0.04210198298096657
6.199988842010498,0.5986693501472473,0.009299933910369873,-0.08858007192611694,-0.9780590140502883,-1.5106460387394687,-1.679537306393025,-0.5576232075691223,0.8294146060943604,-0.03358170762658119,-1.105724573135376,-0.4852573871612549,0.08455021679401398
6.220004081726074,0.6431671380996704,0.023068368434906006,-0.12971043586730957,-0.9820772488030672,-1.5437735520180704,-1.7091384836932084,-0.5550934672355652,0.8316526412963867,-0.015003818087279797,-0.5834039449691772,-0.35761943459510803,0.25386667251586914
6.239912033081055,0.686356782913208,-0.12332749366760254,-0.12102103233337402,-0.9880172484614089,-1.5658678187891557,-1.7284200380138857,-0.550339937210083,0.8349364399909973,-0.00271237688139081,-0.5961275696754456,-0.28228694200515747,0.30601611733436584
6.260004043579102,0.7276983261108398,-0.17137378454208374,-0.1582576036453247,-0.9951473126516543,-1.589173034675543,-1.7508990285002584,-0.5442878007888794,0.8388391733169556,0.010003344155848026,-0.5884397029876709,-0.13200591504573822,0.4504917860031128
6.279961109161377,0.7793523073196411,-0.08032888174057007,-0.21121609210968018,-1.00549663366226,-1.610722682026553,-1.7731941231075776,-0.5352423191070557,0.8444281220436096,0.021381637081503868,-0.5251681804656982,-0.09438788890838623,0.597226083278656
6.299953937530518,0.7411020994186401,-0.0739794373512268,-0.2569342851638794,-1.0202500906976846,-1.6205889286627235,-1.7862719733781265,-0.5225048065185547,0.8522388935089111,0.02603839710354805,-0.07332325726747513,0.1731187403202057,0.8086917400360107
6.319908142089844,0.7515047788619995,-0.16831421852111816,-0.2585132122039795,-1.0366673419977346,-1.612648075540881,-1.781676697682666,-0.5086460113525391,0.8607124090194702,0.021300163120031357,0.3557167053222656,0.20208744704723358,0.8398421406745911
6.340044975280762,0.7699747085571289,-0.283899188041687,-0.22149193286895752,-1.0540369280971167,-1.5930563591289877,-1.7638389732214246,-0.4939432442188263,0.8694248199462891,0.010997009463608265,0.5666186213493347,0.1487702578306198,0.8034506440162659
6.359923839569092,0.7701561450958252,-0.47639554738998413,-0.10189682245254517,-1.0707902985026103,-1.5691704536886264,-1.739485812152583,-0.47943052649497986,0.8775796890258789,-0.0007794938865117729,0.5790659785270691,0.1358063519001007,0.8891727924346924
6.3799238204956055,0.7471810579299927,-0.6628809571266174,0.000639437697827816,-1.0875180908215405,-1.55040650618103,-1.7198595833397559,-0.4645884335041046,0.8854763507843018,-0.009474187158048153,0.3609103560447693,0.004011831246316433,0.7542375922203064
6.399883985519409,0.6939066648483276,-0.6484988927841187,0.012944817543029785,-1.0982826198365971,-1.5330248941089468,-1.6995608587424165,-0.4548015594482422,0.8904270529747009,-0.017186680808663368,0.619171142578125,-0.01882299967110157,0.341095894575119
6.41991400718689,0.707105278968811,-0.6080894470214844,0.048107389360666275,-1.0987094679881975,-1.4977919884415871,-1.6613278639304812,-0.4535347819328308,0.8906212449073792,-0.03316895291209221,1.1387807130813599,0.07215511053800583,-0.23203586041927338
6.439932823181152,0.781014621257782,-0.609969437122345,0.05040759593248367,-1.087103739182715,-1.4452103417644246,-1.602684793414752,-0.46138879656791687,0.8852837085723877,-0.05825052782893181,1.562575340270996,-0.014368773438036442,-0.6250494122505188
6.459904909133911,0.7952308654785156,-0.5891798734664917,0.16942167282104492,-1.0663348894307225,-1.3996685796069657,-1.5504500806172212,-0.4762765169143677,0.875434935092926,-0.08230916410684586,1.1117839813232422,0.01409473642706871,-1.0980007648468018
6.479938983917236,0.7075202465057373,-0.45785725116729736,0.08148772269487381,-1.03593311383287,-1.3713529233409438,-1.5208807952120642,-0.4996192753314972,0.8603383898735046,-0.10098836570978165,1.1405447721481323,0.3574868142604828,-1.6076345443725586
6.499912977218628,0.6974279284477234,-0.09677433967590332,-0.08982841670513153,-0.9938045120212924,-1.3213376934029366,-1.478782093183526,-0.5286199450492859,0.8381074070930481,-0.1346740424633026,1.7822142839431763,1.0605844259262085,-1.9853891134262085
6.519912004470825,0.7013252377510071,-0.027682065963745117,-0.0425531268119812,-0.9397684723770738,-1.2675172949027276,-1.4417514192645116,-0.5630501508712769,0.8074215054512024,-0.17619681358337402,1.69556725025177,1.216936469078064,-2.6608524322509766
6.539915084838867,0.5446479320526123,-0.13805311918258667,0.08604893088340759,-0.8747552140540352,-1.235816718355378,-1.43026870964266,-0.6055458188056946,0.7673865556716919,-0.21078944206237793,0.9866440892219543,0.9071847200393677,-3.368910789489746
6.559953927993774,0.16961443424224854,-0.20273488759994507,0.1699945479631424,-0.8005868477770124,-1.2415583788719387,-1.4526062057401414,-0.658887505531311,0.7177648544311523,-0.22512449324131012,-0.058339934796094894,0.1476149708032608,-4.035821437835693
6.579905033111572,-0.3514445424079895,-0.2161514163017273,0.27908164262771606,-0.7244183198721061,-1.2786766210069662,-1.500356975707478,-0.7171590924263,0.6626999378204346,-0.2156660407781601,-0.8431267142295837,-0.6466466188430786,-4.417180061340332
6.5999109745025635,-1.0188406705856323,0.1387355923652649,0.2174094319343567,-0.6388405564140465,-1.335211469219013,-1.551599488849362,-0.780613124370575,0.5962650775909424,-0.18738007545471191,-0.4894847571849823,-1.7059061527252197,-4.722476005554199
6.619905948638916,-1.4402981996536255,0.38279837369918823,-0.11155278980731964,-0.5517030169283502,-1.3850538529889258,-1.5687019567442786,-0.8369846940040588,0.524138331413269,-0.1572764813899994,1.022059679031372,-2.151202440261841,-4.015032768249512
6.63936710357666,-1.7559468746185303,0.44007202982902527,-0.48677313327789307,-0.4807619371696913,-1.4170109260934158,-1.5488326137165305,-0.876179039478302,0.4624548852443695,-0.13581591844558716,1.5971486568450928,-1.874908208847046,-2.7265923023223877
6.659905910491943,-1.2412300109863281,0.39295685291290283,-0.5762163400650024,-0.4395415240278336,-1.4316944811447172,-1.5283427319693657,-0.8962059617042542,0.42552462220191956,-0.1254742294549942,0.8083030581474304,-0.4833129048347473,-0.9126431345939636
6.679905891418457,-0.5714222192764282,0.32015398144721985,-0.5439816117286682,-0.4424134979062108,-1.422965472847339,-1.5155660177811205,-0.8938642740249634,0.4281218349933624,-0.13311180472373962,0.3348934054374695,0.7879512310028076,1.2650059461593628
6.699903964996338,-0.6312911510467529,0.0032272934913635254,-0.1595282405614853,-0.47667128950453913,-1.395556634003517,-1.5020123490732675,-0.8749192357063293,0.4588240683078766,-0.15490953624248505,0.4299178719520569,1.201625108718872,2.1289918422698975
6.719912052154541,-0.6335721611976624,-0.44344696402549744,0.07854056358337402,-0.5161922293997004,-1.3618430661148944,-1.4779460916291143,-0.8507876992225647,0.49357208609580994,-0.18040816485881805,0.8937110900878906,0.9685660004615784,1.9958542585372925
6.739920139312744,-0.49568474292755127,-0.7620022296905518,0.07395774126052856,-0.5429231044680286,-1.3323023086425498,-1.4478650008273912,-0.8319673538208008,0.5166409611701965,-0.2022688388824463,0.9079163670539856,0.45926138758659363,1.1450176239013672
6.759905815124512,-0.3517635464668274,-0.7408639788627625,0.12507709860801697,-0.5555658551735867,-1.3190774528916935,-1.4344558060149848,-0.8228277564048767,0.527424156665802,-0.2116096317768097,-0.20772524178028107,0.1786598116159439,0.36200788617134094
6.779906988143921,-0.3235247731208801,-0.5829439163208008,0.042907148599624634,-0.5594597954743954,-1.3258467460619103,-1.4495766058107915,-0.8222426176071167,0.5307283997535706,-0.20553524792194366,-1.0057265758514404,-0.024119405075907707,-0.17807042598724365
6.79990291595459,-0.2030949592590332,-0.3484506607055664,-0.02341441810131073,-0.5606708677057975,-1.3389228812232614,-1.4742745656392993,-0.8242335319519043,0.5317544937133789,-0.1946183443069458,-0.9725015759468079,0.07748392224311829,-0.1772424429655075
6.819905996322632,-0.21549463272094727,-0.30461961030960083,0.0031335949897766113,-0.5607157730627154,-1.3458373964369479,-1.4941666287045043,-0.82553631067276,0.5317925214767456,-0.18890924751758575,-0.6303999423980713,0.23582366108894348,-0.22350895404815674
6.839905023574829,-0.2189924120903015,-0.2365831732749939,-0.06174325942993164,-0.5571191943233721,-1.3486700624469272,-1.5054344715102208,-0.8279284834861755,0.5287432074546814,-0.18699020147323608,-0.33927178382873535,-0.013040211983025074,-0.3427133560180664
6.859903812408447,-0.30779528617858887,-0.17005079984664917,-0.0842086672782898,-0.5522499423870149,-1.3584222004894007,-1.5158317786993827,-0.8322194814682007,0.5246040225028992,-0.17944790422916412,-0.4552972912788391,-0.4213365614414215,-0.27802228927612305
6.87992000579834,-0.4292905926704407,-0.15319502353668213,-0.09281843900680542,-0.5509482015845836,-1.3768841467311814,-1.5290972316500397,-0.8360598683357239,0.5234953761100769,-0.1641852706670761,-0.6132728457450867,-0.7105085849761963,-0.05716322362422943
6.899917125701904,-0.5173737406730652,-0.08858001232147217,-0.12221033871173859,-0.5540564081849271,-1.396516300604166,-1.5386531029281498,-0.8375154137611389,0.5261411070823669,-0.14745818078517914,-0.21835781633853912,-0.6908199191093445,0.20450527966022491
6.919906139373779,-0.47747671604156494,-0.0621027946472168,-0.13013267517089844,-0.5588685516954264,-1.4090807965536394,-1.5390671111027678,-0.8367933630943298,0.5302272439002991,-0.1365146040916443,0.045080557465553284,-0.5849151015281677,0.2190813571214676
6.939903974533081,-0.3514184355735779,-0.17991048097610474,-0.06859445571899414,-0.5638911931071731,-1.420262518779194,-1.5428716720186022,-0.8356238603591919,0.534479022026062,-0.1267484873533249,-0.47149309515953064,-0.24508675932884216,0.22633108496665955
6.9599409103393555,-0.2989236116409302,-0.3027748465538025,-0.020834162831306458,-0.5716017433572255,-1.4293623922207324,-1.5580120760982736,-0.8326378464698792,0.5409798622131348,-0.11855481564998627,-0.9317598938941956,0.11678577959537506,0.35353654623031616
6.9799230098724365,-0.2727450132369995,-0.2561224102973938,-0.01123376190662384,-0.5822810186134801,-1.4382702960175604,-1.5831112166141201,-0.8278869390487671,0.5499305129051208,-0.1103634387254715,-1.2681400775909424,0.32550445199012756,0.4345736503601074
6.999906063079834,-0.23594915866851807,-0.1922178864479065,-0.019114606082439423,-0.5950679627964862,-1.4495825992476854,-1.6156696689158982,-0.8220342993736267,0.5605650544166565,-0.10013272613286972,-1.5120426416397095,0.3481391370296478,0.46972572803497314
7.019944906234741,-0.17674040794372559,-0.1716591715812683,-0.04057890176773071,-0.6080358081472891,-1.460821914464341,-1.6489307799781745,-0.815813422203064,0.5712563991546631,-0.09008205682039261,-1.3445736169815063,0.4172244369983673,0.4797563850879669
7.039902925491333,-0.11631035804748535,-0.08994513750076294,-0.047192156314849854,-0.618162480931443,-1.4664055024672236,-1.6746347274797417,-0.8105086088180542,0.5795386433601379,-0.08491834998130798,-0.7977601289749146,0.5017240047454834,0.31188008189201355
7.059912919998169,-0.07469391822814941,-0.08272778987884521,-0.06616479158401489,-0.6254651693752697,-1.4636674477389346,-1.6877456992103856,-0.8060434460639954,0.58547443151474,-0.08668239414691925,-0.45174580812454224,0.5166704654693604,0.33207982778549194
7.079906940460205,-0.10909569263458252,-0.09046697616577148,-0.05953805893659592,-0.6335293054814164,-1.4592951409079804,-1.6977073490096006,-0.8009384870529175,0.5919928550720215,-0.08967754244804382,-0.429059773683548,0.5519062876701355,0.38734740018844604
7.099937915802002,-0.12632876634597778,-0.08482593297958374,-0.026747778058052063,-0.6443512610593504,-1.4519749118443939,-1.7078980738874918,-0.7938527464866638,0.6006799340248108,-0.09477315098047256,-0.5588821768760681,0.7791195511817932,0.5874252915382385
7.119905948638916,-0.09661865234375,-0.039322495460510254,-0.04164326190948486,-0.6568134518904822,-1.4420251537961097,-1.7198022595518416,-0.785385251045227,0.6105964183807373,-0.10169771313667297,-0.48461464047431946,0.8970335721969604,0.5148584246635437
7.139904022216797,0.005197644233703613,-0.021876811981201172,-0.07231216877698898,-0.6678949961678372,-1.428992787735337,-1.7272443225478287,-0.7772465944290161,0.6193346381187439,-0.11096106469631195,-0.26988735795021057,0.8643196821212769,0.5284900665283203
7.1596150398254395,0.06486546993255615,-0.09098535776138306,-0.059574440121650696,-0.6794553711479054,-1.4145017431968068,-1.7305828320536343,-0.768433153629303,0.6283694505691528,-0.12108954042196274,-0.17672857642173767,0.7969051003456116,0.5736115574836731
7.179904937744141,0.05169039964675903,-0.08743566274642944,-0.04833275079727173,-0.6916053327571926,-1.4000810479237604,-1.7331724211008706,-0.7590269446372986,0.6377744674682617,-0.1308511346578598,-0.23823195695877075,0.823095440864563,0.6059660315513611
7.199905872344971,0.07147496938705444,-0.08774209022521973,-0.03820456564426422,-0.7051948986203807,-1.387112667432393,-1.7389963691191666,-0.7486754059791565,0.6481822729110718,-0.1390872299671173,-0.48114240169525146,0.8626131415367126,0.6416416764259338
7.219908952713013,0.11312192678451538,-0.12685483694076538,0.006518706679344177,-0.7197997128991926,-1.3779557209373092,-1.75240368568225,-0.7380000352859497,0.6592341065406799,-0.1441071480512619,-0.7841641902923584,0.9495891332626343,0.6003233790397644
7.239903926849365,0.16798007488250732,-0.1462683081626892,0.06340402364730835,-0.7341619744159801,-1.3707063103824695,-1.771828527263818,-0.7275810241699219,0.6699652671813965,-0.1475561559200287,-0.8637805581092834,1.07831871509552,0.5414766073226929
7.259945869445801,0.21198517084121704,-0.06795012950897217,0.061305105686187744,-0.7464046021356829,-1.3618331781696729,-1.7901011510982838,-0.7181650996208191,0.6790036559104919,-0.15229317545890808,-0.6111702919006348,0.9949555993080139,0.3525620102882385
7.279906988143921,0.211683452129364,0.07106411457061768,-0.06502880156040192,-0.7523564277271718,-1.347331398840854,-1.7941949849538248,-0.7119277715682983,0.6833610534667969,-0.16179302334785461,0.20471300184726715,0.7499149441719055,0.21509034931659698
7.299904823303223,0.19541937112808228,0.1580808162689209,-0.10889975726604462,-0.7542656267572144,-1.3238445527712424,-1.7791140187154049,-0.7066651582717896,0.6847536563873291,-0.17814849317073822,0.673858642578125,0.5962827801704407,0.22250065207481384
7.319905996322632,0.11823642253875732,0.08850753307342529,-0.010688304901123047,-0.7547170409884901,-1.3002186218242329,-1.7632394167673604,-0.7019615173339844,0.6850825548171997,-0.19471020996570587,0.3122139871120453,0.7261984944343567,0.12344725430011749
7.3399457931518555,0.07922548055648804,-0.018808066844940186,0.07884809374809265,-0.7565837555982882,-1.2844335606550006,-1.7654635847537268,-0.6975727677345276,0.68644118309021,-0.20540444552898407,-0.5205417275428772,1.0124510526657104,-0.007572404108941555
7.359902858734131,0.10712957382202148,-0.016910254955291748,0.09029579162597656,-0.7598753482414711,-1.2775116153967712,-1.7875936364967682,-0.6939674615859985,0.688831090927124,-0.2095736712217331,-1.0273100137710571,1.1839213371276855,-0.12823529541492462
7.379945993423462,0.1598992943763733,0.048657119274139404,0.06430257856845856,-0.762910172228178,-1.2731385511120696,-1.816003756478999,-0.6910425424575806,0.6910279393196106,-0.2119923233985901,-0.978672206401825,1.215298056602478,-0.17052307724952698
7.399909973144531,0.18482953310012817,0.09370070695877075,0.07044261693954468,-0.7645164283897932,-1.2671012267401764,-1.8418150190469003,-0.6886901259422302,0.6921880841255188,-0.2158282995223999,-0.8564289808273315,1.1731293201446533,-0.24731743335723877
7.419939994812012,0.19630151987075806,0.08797144889831543,0.07398581504821777,-0.7643149227634765,-1.260948714053815,-1.8656116332206314,-0.6874819993972778,0.6920426487922668,-0.2201038897037506,-0.8209287524223328,1.0765798091888428,-0.2603102922439575
7.439906120300293,0.21172362565994263,0.08056879043579102,0.09259504079818726,-0.7647831138764161,-1.2570147598733499,-1.8897787568261468,-0.6863025426864624,0.6923805475234985,-0.22270667552947998,-0.8530296087265015,1.0061310529708862,-0.2228991836309433
7.459913015365601,0.21909773349761963,0.06471526622772217,0.09435130655765533,-0.7659462314801737,-1.2539772170454986,-1.913362930603486,-0.6848570108413696,0.6932193040847778,-0.22453920543193817,-0.7886787056922913,0.9335881471633911,-0.18393845856189728
7.479903936386108,0.1812496781349182,0.0717894434928894,0.09532955288887024,-0.7672255053455062,-1.2496413174372896,-1.933543111865125,-0.6830350160598755,0.6941407322883606,-0.22722645103931427,-0.6414665579795837,0.907903254032135,-0.16228517889976501
7.499948978424072,0.16466611623764038,0.04195547103881836,0.0958952009677887,-0.7673356994239708,-1.24318522037259,-1.9503404791949783,-0.6814813613891602,0.6942200660705566,-0.23160681128501892,-0.5134989619255066,0.9043452739715576,-0.2143072783946991
7.519763946533203,0.20299279689788818,0.016548991203308105,0.0872509777545929,-0.7658960762478846,-1.2345320036800012,-1.9636568946482236,-0.68039470911026,0.6931831240653992,-0.2378246784210205,-0.3533672094345093,0.8714941740036011,-0.2137635350227356
7.539905071258545,0.22482478618621826,0.026529252529144287,0.07300592958927155,-0.7638852951474528,-1.2238500807285688,-1.9725924741126084,-0.6791247129440308,0.6917324662208557,-0.24555227160453796,-0.21545721590518951,0.8012053966522217,-0.18370388448238373
7.559905052185059,0.22717273235321045,0.01750338077545166,0.06811025738716125,-0.7613427003835312,-1.2131373474548768,-1.9790094311055761,-0.6781004667282104,0.6898940801620483,-0.253428190946579,-0.16689646244049072,0.6980127692222595,-0.20665249228477478
7.579935073852539,0.23421931266784668,0.0037192106246948242,0.06329143047332764,-0.7582564263669984,-1.2035527630661178,-1.9842865614430727,-0.677624523639679,0.687656581401825,-0.26067906618118286,-0.098066546022892,0.626591682434082,-0.19942891597747803
7.599915981292725,0.23695969581604004,0.003767848014831543,0.06957647204399109,-0.7554189779064061,-1.194575294097547,-1.9890156827854932,-0.6770690083503723,0.6855937242507935,-0.2674676179885864,-0.15072479844093323,0.586799681186676,-0.20097748935222626
7.619906902313232,0.22608894109725952,-0.006947875022888184,0.05241429805755615,-0.7526405795968957,-1.1888490710967832,-1.9966004643878712,-0.6772913932800293,0.6835684776306152,-0.2720492482185364,-0.24395601451396942,0.5148594379425049,-0.25563254952430725
7.639944076538086,0.22727739810943604,-0.005912303924560547,0.04181748628616333,-0.749512012998517,-1.1852887634194245,-2.0057957510157327,-0.6782967448234558,0.6812816262245178,-0.27526167035102844,-0.2516511082649231,0.4710238575935364,-0.2952919006347656
7.659904956817627,0.23280107975006104,0.010535895824432373,0.02535337209701538,-0.7455391040985009,-1.1826999739808128,-2.01471782109035,-0.6800820231437683,0.6783679723739624,-0.2780388593673706,-0.19908715784549713,0.3943195641040802,-0.3311970829963684
7.6799399852752686,0.22600382566452026,0.029713809490203857,0.010131269693374634,-0.7401765426383183,-1.1802774806077463,-2.0219306847255476,-0.68276047706604,0.6744182705879211,-0.28106623888015747,-0.10444231331348419,0.32956480979919434,-0.36063724756240845
7.699905872344971,0.2055618166923523,0.0333327054977417,0.004538804292678833,-0.73380577378193,-1.178061675845371,-2.027444788927416,-0.6860916018486023,0.6697007417678833,-0.2842170298099518,-0.03735063225030899,0.27726536989212036,-0.40771928429603577
7.719912052154541,0.1664583683013916,0.034413695335388184,0.019676685333251953,-0.7253960117997424,-1.1761962182385477,-2.033156238009984,-0.6907351613044739,0.6634318232536316,-0.2876514792442322,-0.0387510284781456,0.2952024042606354,-0.5267646908760071
7.739931106567383,0.15935999155044556,0.03246229887008667,0.02373918890953064,-0.7155056365336908,-1.1751481697685378,-2.0405584057529755,-0.6964542269706726,0.6559991240501404,-0.29089003801345825,-0.10572335869073868,0.2757053077220917,-0.6004158854484558
7.759928941726685,0.09445923566818237,0.07184356451034546,-0.002158522605895996,-0.7047219053180627,-1.177573723380345,-2.051005984546145,-0.7036512494087219,0.6478220224380493,-0.2918935716152191,-0.20939649641513824,0.18322516977787018,-0.7282640933990479
7.779907941818237,-0.005164206027984619,0.10258704423904419,-8.988380432128906e-05,-0.6917770927055702,-1.182532433737801,-2.065225295773671,-0.7127924561500549,0.6379067301750183,-0.29155129194259644,-0.321126788854599,0.25858667492866516,-0.8705193400382996
7.799906015396118,0.0049779415130615234,0.09583282470703125,0.032420217990875244,-0.6783316214511206,-1.1876189640039767,-2.083544821543412,-0.7221563458442688,0.6274948716163635,-0.29110243916511536,-0.4863028824329376,0.3914867639541626,-0.9043468236923218
7.8199028968811035,0.06682997941970825,0.07704782485961914,0.027301043272018433,-0.6655819638172216,-1.1919022333228098,-2.104268286232567,-0.7307704091072083,0.6175169944763184,-0.29094234108924866,-0.5454356074333191,0.4539865553379059,-0.8915249705314636
7.839941024780273,0.12246417999267578,0.04702216386795044,-0.0009856820106506348,-0.6521651110085751,-1.196071360914903,-2.1254264350489103,-0.7396212816238403,0.6069086194038391,-0.2908996641635895,-0.5099579691886902,0.42815670371055603,-0.9891814589500427
7.859932899475098,0.16398566961288452,-0.007265210151672363,-0.009516537189483643,-0.6366244304706467,-1.2004926420775017,-2.1463687412493284,-0.7496028542518616,0.5944845080375671,-0.2910052537918091,-0.500152587890625,0.37610310316085815,-1.0875532627105713
7.879925012588501,0.15785151720046997,-0.05459725856781006,0.001034557819366455,-0.6182082174098869,-1.206830688207554,-2.1697349565094486,-0.761535108089447,0.5795759558677673,-0.2900969982147217,-0.627866804599762,0.3770536482334137,-1.3297410011291504
7.899918079376221,0.22406870126724243,-0.10240322351455688,0.008039027452468872,-0.5973712908550921,-1.215477252807567,-2.199051772188638,-0.7751703858375549,0.5624709725379944,-0.2876409888267517,-0.9006240367889404,0.4371969699859619,-1.4456535577774048
7.919940948486328,0.3798035979270935,-0.17460143566131592,-0.020741134881973267,-0.5767633221190834,-1.22490482428784,-2.233115059106686,-0.7885865569114685,0.5453137159347534,-0.28419041633605957,-1.0342795848846436,0.49048560857772827,-1.4627795219421387
7.939924955368042,0.5078074336051941,-0.20218604803085327,-0.014499455690383911,-0.5567012282965492,-1.2328267344367576,-2.266318049623952,-0.8009744882583618,0.5283884406089783,-0.2815057337284088,-0.8651205897331238,0.5336803793907166,-1.3785823583602905
7.9599080085754395,0.5451307892799377,-0.22994083166122437,0.017033278942108154,-0.5366763232337608,-1.23445760676363,-2.290441991566758,-0.811259388923645,0.5112823843955994,-0.283634752035141,-0.4213581681251526,0.5264076590538025,-1.1914920806884766
7.979915142059326,0.456884503364563,-0.2571234405040741,0.04898381233215332,-0.5155625574081828,-1.231639840306997,-2.3030583553081025,-0.8204557299613953,0.4930243492126465,-0.28944700956344604,0.11260132491588593,0.3960196375846863,-1.2017056941986084
7.999950885772705,0.336536169052124,-0.19693633913993835,-0.03167465329170227,-0.49082134671302485,-1.2280445380084195,-2.304927038149717,-0.830646276473999,0.47135043144226074,-0.29640451073646545,0.4991592466831207,-0.01617635041475296,-1.2084342241287231
8.019904136657715,0.2900448441505432,-0.05196487903594971,-0.10128846764564514,-0.4630673284694445,-1.2324743774123752,-2.3019384385722548,-0.8439694046974182,0.4466944932937622,-0.2969506084918976,0.6081323623657227,-0.5469084978103638,-1.2663553953170776
8.039906024932861,0.2784671187400818,0.03532153367996216,-0.01954972743988037,-0.43701360082918,-1.2449037654196458,-2.299741871253175,-0.8583316802978516,0.42323562502861023,-0.29006630182266235,0.4505160450935364,-0.7291824221611023,-1.143174409866333
8.059935092926025,0.22302252054214478,-0.007245123386383057,0.04434245824813843,-0.41418917880439177,-1.2564142703867471,-2.298000829896316,-0.8705750703811646,0.40244778990745544,-0.28308144211769104,0.46994006633758545,-0.4669780433177948,-0.9820416569709778
8.079907894134521,0.24540841579437256,0.013252109289169312,0.03876560926437378,-0.39406980923794915,-1.2606654480641688,-2.2915458530313955,-0.8793044090270996,0.3839494585990906,-0.2817922830581665,0.7096173167228699,-0.25562596321105957,-0.7631987929344177
8.099905967712402,0.2919601798057556,0.06330955028533936,0.03178715705871582,-0.3768686557785355,-1.261159824725279,-2.2808777504420266,-0.8856034874916077,0.3680106997489929,-0.28332823514938354,0.7040683627128601,-0.22563911974430084,-0.5753555297851562
8.119904041290283,0.3066849708557129,0.030387580394744873,0.033726513385772705,-0.36399546716122133,-1.262993131136772,-2.272046803430415,-0.8905626535415649,0.356010764837265,-0.28311607241630554,0.47635576128959656,-0.24771450459957123,-0.4052840769290924
8.139904022216797,0.3614121079444885,-0.004559457302093506,0.10223495960235596,-0.35565307422747094,-1.2647784089929175,-2.2671876704351095,-0.8938676118850708,0.348202645778656,-0.2824106812477112,0.20514675974845886,-0.10942169278860092,-0.26635223627090454
8.15993881225586,0.4405137300491333,-0.04809996485710144,0.13228043913841248,-0.34935242686786133,-1.2649978908702093,-2.264806403696078,-0.8960039019584656,0.34228941798210144,-0.2828693389892578,0.2711107134819031,0.0050008404068648815,-0.2729817032814026
8.179905891418457,0.5534421801567078,-0.08231517672538757,0.23123231530189514,-0.34212428343694395,-1.2600753353454563,-2.2583277597691116,-0.8969327807426453,0.3354890048503876,-0.288025438785553,0.4561351537704468,0.23164135217666626,-0.1961340755224228
8.199903964996338,0.6254681944847107,-0.18695691227912903,0.2831503748893738,-0.3338561915394388,-1.2516406465829337,-2.250072278739653,-0.8970747590065002,0.32768872380256653,-0.2964406907558441,0.5460126996040344,0.3367902338504791,-0.3181131184101105
8.219903945922852,0.629871666431427,-0.25129154324531555,0.0778089165687561,-0.3252966605696765,-1.2454477024272317,-2.2419671926122446,-0.8978466391563416,0.31958991289138794,-0.30287599563598633,0.4650721549987793,-0.14897692203521729,-0.35298213362693787
8.239903926849365,0.4585775136947632,-0.030783265829086304,-0.11833789944648743,-0.312902874597306,-1.2529890047941272,-2.23245080901293,-0.9037984609603882,0.3078218400478363,-0.2973114550113678,0.734430730342865,-0.7884347438812256,-0.3991003930568695
8.259903907775879,0.13086044788360596,0.282911479473114,-0.03369104862213135,-0.3010048247334595,-1.2655477650880766,-2.2184418695519885,-0.9108898043632507,0.2964800000190735,-0.28701815009117126,0.977955162525177,-0.7873866558074951,-0.3494827151298523
8.279904842376709,-0.1612623929977417,0.36216044425964355,0.1097802221775055,-0.2889538345902646,-1.2683916843025544,-2.1963753478071286,-0.9150469899177551,0.2849496006965637,-0.2854699194431305,1.3457162380218506,-0.12604939937591553,-0.12746526300907135
8.299906015396118,-0.19821947813034058,0.31094250082969666,0.07570245862007141,-0.27879088910552746,-1.2597656518308806,-2.167124550863238,-0.915260374546051,0.2751934230327606,-0.2942235469818115,1.63527512550354,0.04273881018161774,0.026634549722075462
8.319905996322632,-0.2542315721511841,0.3238910138607025,-0.03368872404098511,-0.27126632403422857,-1.2528380154694891,-2.1357366246462863,-0.9151411056518555,0.2679516673088074,-0.30119583010673523,1.369215488433838,-0.21192888915538788,0.1503993719816208
8.340107917785645,-0.5163816809654236,0.21060818433761597,0.02387714385986328,-0.26553912327076223,-1.2539112428474235,-2.1151580103793424,-0.916907012462616,0.26242953538894653,-0.300686776638031,0.6443136930465698,-0.3586168587207794,-0.08332070708274841
8.359939098358154,-0.6998589634895325,0.10292378067970276,0.2045014500617981,-0.262712925772775,-1.2612801893763252,-2.11554760069488,-0.9198005795478821,0.25970134139060974,-0.2941467761993408,-0.6089938282966614,-0.3943670690059662,-0.3037968575954437
8.379148960113525,-0.8020936250686646,-0.16500431299209595,0.29288217425346375,-0.2617007413074439,-1.2746048438079847,-2.1382508203404376,-0.9238890409469604,0.25872376561164856,-0.28194156289100647,-1.3890173435211182,-0.4670450687408447,-0.3541538715362549
