timestamp,acceleration_x,acceleration_y,acceleration_z,attitude_pitch,attitude_roll,attitude_yaw,gravity_x,gravity_y,gravity_z,rotation_x,rotation_y,rotation_z
0.0,-0.17887884378433228,0.41847771406173706,-0.2979901432991028,0.1535005465411576,-1.4988761953190355,-1.6922211510614495,-0.9856871366500854,-0.15289844572544098,-0.07101322710514069,-0.8976650238037109,0.13793066143989563,0.8826203346252441
0.019971847534179688,-0.015312492847442627,0.27327457070350647,-0.33805662393569946,0.12814770424231184,-1.494287366358961,-1.7048854104182127,-0.9888988137245178,-0.12779726088047028,-0.0758075937628746,-0.55683833360672,0.13936379551887512,1.4915306568145752
0.039988040924072266,0.0545198917388916,0.22875536978244781,-0.3291991949081421,0.09535486404010135,-1.4904870821185747,-1.7110685550558673,-0.9922485947608948,-0.09521042555570602,-0.07985849678516388,-0.33313530683517456,0.1834494024515152,1.68690824508667
0.05950784683227539,0.07976508140563965,0.20928877592086792,-0.2530752420425415,0.0613475153103096,-1.4859639280498516,-1.7141694379165648,-0.9945294260978699,-0.06130904331803322,-0.08457128703594208,-0.28105923533439636,0.2322511225938797,1.6664162874221802
0.08039188385009766,0.09449422359466553,0.21491578221321106,-0.13977974653244019,0.02905256037210776,-1.481231542990316,-1.7170644013658136,-0.995571494102478,-0.02904847264289856,-0.08940733969211578,-0.28165799379348755,0.22930344939231873,1.5118290185928345
0.09999608993530273,0.06105607748031616,0.23141874372959137,-0.0814598798751831,0.0011178316323919874,-1.4757826544743686,-1.7192525447891782,-0.9954890012741089,-0.001117831445299089,-0.09487072378396988,-0.16924512386322021,0.33348166942596436,1.2452517747879028
0.12001299858093262,0.007006287574768066,0.2218269258737564,-0.08522237837314606,-0.02085037193403346,-1.4668594157806907,-1.7176412869634068,-0.9943873286247253,0.02084886096417904,-0.10372733324766159,0.14333103597164154,0.5742443203926086,0.9678517580032349
0.13997888565063477,-0.014187633991241455,0.18680928647518158,-0.06376521289348602,-0.03664863064207881,-1.4524895154361588,-1.709073282398184,-0.992343008518219,0.03664042800664902,-0.11795175820589066,0.5348488092422485,0.8129979968070984,0.7012473344802856
0.15961194038391113,0.029458701610565186,0.13935473561286926,-0.02009563148021698,-0.04648355319321024,-1.4346703991029528,-1.693678988844246,-0.9896789193153381,0.04646681621670723,-0.1355593204498291,0.8321800827980042,0.8845259547233582,0.4834263026714325
0.1800849437713623,0.06741464138031006,0.08829857409000397,0.018401458859443665,-0.0523503321080894,-1.4162390723002023,-1.675142061977837,-0.9867259860038757,0.052326422184705734,-0.15373173356056213,0.8924077153205872,0.8618060946464539,0.3783475160598755
0.19998979568481445,0.08564293384552002,0.0509798601269722,0.04541236162185669,-0.056747140317013514,-1.3985867090168638,-1.6570943861280083,-0.9836226105690002,0.056716687977313995,-0.17108385264873505,0.8071346282958984,0.7990319728851318,0.35645583271980286
0.22003889083862305,0.09540647268295288,0.02271026000380516,0.08215653896331787,-0.06143483116157748,-1.3828584762337497,-1.6420581280298883,-0.9805383086204529,0.061396192759275436,-0.18648098409175873,0.5665094256401062,0.6791442036628723,0.3753281533718109
0.23995494842529297,0.09223687648773193,-0.006928719580173492,0.11556825041770935,-0.06771044243754176,-1.370363642671432,-1.6330518490622072,-0.9777349829673767,0.06765871495008469,-0.19863717257976532,0.1889871060848236,0.5105512738227844,0.4176429510116577
0.2599658966064453,0.0571252703666687,-0.02727963775396347,0.1273074448108673,-0.07657930330450789,-1.3614122228303551,-1.6312767263023042,-0.9752922654151917,0.07650447636842728,-0.2072482854127884,-0.18067359924316406,0.37894922494888306,0.4844569265842438
0.2800021171569824,0.005890190601348877,-0.030910365283489227,0.15074974298477173,-0.08822998368636396,-1.3544321574834393,-1.6357011745913406,-0.9728853702545166,0.08811555802822113,-0.21384494006633759,-0.48790445923805237,0.3755195140838623,0.5571364164352417
0.2999911308288574,0.007749319076538086,-0.025094442069530487,0.1677062064409256,-0.10203836751903289,-1.3476628511594513,-1.64505059553676,-0.970136284828186,0.1018613949418068,-0.22013548016548157,-0.7158429026603699,0.37301045656204224,0.5864264369010925
0.3200509548187256,0.05599397420883179,-0.028753601014614105,0.18102851510047913,-0.11704862995281384,-1.3425571545849166,-1.658149582834344,-0.9674012660980225,0.11678154766559601,-0.2247145175933838,-0.878104567527771,0.2752693295478821,0.5778343081474304
0.33995699882507324,0.08120304346084595,-0.031461820006370544,0.16824501752853394,-0.1319573554726283,-1.3399383898581614,-1.6733571373369223,-0.9650073647499084,0.13157473504543304,-0.22682353854179382,-0.920128583908081,0.19163109362125397,0.5275196433067322
0.3599390983581543,0.07349812984466553,-0.06114017963409424,0.14252585172653198,-0.1455463308150594,-1.338993256588996,-1.6884571458361852,-0.9629634618759155,0.14503300189971924,-0.22730375826358795,-0.845556378364563,0.11546334624290466,0.45071539282798767
0.37991905212402344,0.0355304479598999,-0.10959424078464508,0.15817154943943024,-0.15726932869697896,-1.3389618553017935,-1.7025542383426018,-0.9612353444099426,0.15662182867527008,-0.22692769765853882,-0.789575457572937,0.10109008848667145,0.367573082447052
0.39995908737182617,0.010304749011993408,-0.13803838193416595,0.16370970010757446,-0.16636208061379426,-1.3400585566070995,-1.715785623334834,-0.9600575566291809,0.16559575498104095,-0.22553835809230804,-0.6809558272361755,-0.02138078771531582,0.20367810130119324
0.4201059341430664,-0.030467748641967773,-0.15988799929618835,0.13581150770187378,-0.17120594107479778,-1.3445600439980017,-1.7278620510782243,-0.96027010679245,0.17037078738212585,-0.22103188931941986,-0.6004003882408142,-0.19218112528324127,-0.0012464048340916634
0.4401130676269531,-0.12812763452529907,-0.19612132012844086,0.07372161746025085,-0.17172609794629534,-1.3496870596315784,-1.7388695151090126,-0.9613041877746582,0.17088331282138824,-0.2160862237215042,-0.4868967831134796,-0.08677923679351807,-0.17511838674545288
0.46004700660705566,-0.14959901571273804,-0.24048881232738495,0.008428514003753662,-0.16915073880859544,-1.3513103463794836,-1.748747474421686,-0.9620800614356995,0.16834527254104614,-0.21462059020996094,-0.4298584461212158,0.04423576965928078,-0.2972136437892914
0.4800679683685303,-0.1159016489982605,-0.2551414966583252,0.09112226963043213,-0.16352309723950853,-1.3537953901212334,-1.7606027264399846,-0.9635202884674072,0.1627953052520752,-0.2124297171831131,-0.6130563616752625,-0.11613383889198303,-0.5302475094795227
0.5000181198120117,-0.1440332531929016,-0.21087367832660675,0.16651242971420288,-0.1535849201924714,-1.3594581980165643,-1.7775480879889516,-0.9662419557571411,0.15298183262348175,-0.20729924738407135,-0.8120090961456299,-0.14724142849445343,-0.785495400428772
0.5201199054718018,-0.1514948010444641,-0.13808280229568481,0.1532612442970276,-0.13954231869791223,-1.3665228190388994,-1.7979008612697938,-0.9696905016899109,0.139089897274971,-0.20088401436805725,-0.824826180934906,-0.34378474950790405,-1.0274546146392822
0.539139986038208,-0.1854509711265564,-0.10163701325654984,0.058777064085006714,-0.11962228308160668,-1.3788175894576138,-1.8173642674771509,-0.9746135473251343,0.11933720111846924,-0.1894381195306778,-0.6301165819168091,-0.5717595815658569,-1.294765830039978
0.5600459575653076,-0.3088104724884033,-0.08923567831516266,-0.10330593585968018,-0.0952236476426972,-1.391372470082402,-1.8312383591760806,-0.9794890284538269,0.09507980197668076,-0.1776542067527771,-0.26791083812713623,-0.5095789432525635,-1.322676658630371
0.5800509452819824,-0.3216649889945984,0.004529096186161041,-0.21744054555892944,-0.07037333657700262,-1.4005211126584742,-1.836734046182596,-0.9830987453460693,0.07031526416540146,-0.16903415322303772,0.15622296929359436,-0.36232584714889526,-1.234203815460205
0.5999829769134521,-0.20238876342773438,0.08712820708751678,-0.24714331328868866,-0.04570021700999962,-1.4059664236415284,-1.8344900374793842,-0.9854163527488708,0.04568431153893471,-0.16391322016716003,0.43075141310691833,-0.1933390498161316,-1.1518744230270386
0.6276288032531738,0.07486194372177124,0.12142740190029144,-0.1685580611228943,-0.0076467762074303005,-1.4058078348334047,-1.8249789675142414,-0.9863914251327515,0.007646701764315367,-0.1642361879348755,0.261811763048172,0.12018850445747375,-0.6233342289924622
0.6482820510864258,0.1452726125717163,0.11425971239805222,-0.06635457277297974,0.002077070373789208,-1.4031974011198634,-1.8234816682304105,-0.985986053943634,-0.0020770689006894827,-0.16681504249572754,0.041767142713069916,0.14488905668258667,-0.3178614377975464
0.6673951148986816,0.14776098728179932,0.08734586089849472,0.008122935891151428,0.0051162669041499385,-1.3995582299881093,-1.8253268046084843,-0.985361635684967,-0.005116244778037071,-0.1704002320766449,-0.16408386826515198,0.219991534948349,-0.02157910354435444
0.6885437965393066,0.13278549909591675,0.052067939192056656,0.028935685753822327,0.002293768987722612,-1.3948662772930518,-1.829088907210602,-0.9845614433288574,-0.0022937669418752193,-0.1750234216451645,-0.2237251251935959,0.231468066573143,0.22751601040363312
0.7085108757019043,0.11430585384368896,0.06209179386496544,0.00952523946762085,-0.005092684183016009,-1.3903539720642235,-1.8317552330863252,-0.983751654624939,0.005092662293463945,-0.17946243286132812,-0.18431344628334045,0.23850654065608978,0.4533587396144867
0.7297759056091309,0.10296815633773804,0.10936626046895981,-0.03766654431819916,-0.016046418093434156,-1.3856888281238593,-1.831968421725817,-0.9827898144721985,0.01604572869837284,-0.1840284764766693,-0.009484512731432915,0.2125694900751114,0.6054881811141968
0.7483830451965332,0.08498948812484741,0.12384913861751556,-0.07772079110145569,-0.028498467944342385,-1.381068894790463,-1.8271768634429983,-0.9816567897796631,0.028494611382484436,-0.1885146200656891,0.2531515955924988,0.2641070485115051,0.7058959007263184
0.7685480117797852,0.0606575608253479,0.09516662359237671,-0.054103121161460876,-0.041640443997732715,-1.374229628603375,-1.8181877045112536,-0.9798926711082458,0.041628412902355194,-0.1951339989900589,0.3654291033744812,0.3772193193435669,0.7573142051696777
0.7881178855895996,0.10454964637756348,0.05392032116651535,-3.4749507904052734e-05,-0.054260601537370515,-1.3660557093872496,-1.8076020681727116,-0.9776727557182312,0.05423397943377495,-0.20301398634910583,0.43536970019340515,0.3981555700302124,0.6159605979919434
0.8083319664001465,0.1626725196838379,0.011525467038154602,-0.06619644165039062,-0.06319310374291832,-1.3577094452671463,-1.7968356679762902,-0.9754318594932556,0.063151054084301,-0.21105585992336273,0.39783215522766113,0.3607604503631592,0.5377711057662964
0.8280148506164551,0.16574686765670776,-0.11116346716880798,-0.1014166921377182,-0.07377004349259099,-1.3513519431558356,-1.7890541565668903,-0.9733639359474182,0.07370315492153168,-0.217095285654068,0.06395943462848663,0.23134388029575348,0.692733883857727
0.8469629287719727,0.1674516797065735,-0.03984406590461731,-0.08615881204605103,-0.08796160286943484,-1.3480031110113684,-1.7872846895040335,-0.9715135097503662,0.08784821629524231,-0.22010041773319244,-0.07647985965013504,0.08313816040754318,0.6744093894958496
0.8675928115844727,0.1825912594795227,0.060550786554813385,-0.07603621482849121,-0.09811486999512235,-1.3464456563292153,-1.7818439097181193,-0.9702499508857727,0.09795752912759781,-0.22140340507030487,0.4359637498855591,0.0512276366353035,0.4276600778102875
0.8878679275512695,0.19919884204864502,0.0903804749250412,-0.11223292350769043,-0.1014898315775781,-1.3436961665071476,-1.7666700525939967,-0.96930992603302,0.1013156920671463,-0.22399453818798065,0.9170628190040588,0.06137925013899803,0.2631823420524597
0.9078059196472168,0.2078465223312378,-0.008624248206615448,-0.1728818416595459,-0.10236984589014025,-1.3408828864528493,-1.7457721357558602,-0.968588650226593,0.10219114273786545,-0.22670017182826996,1.040160059928894,0.018777107819914818,0.32368266582489014
0.9265661239624023,0.2092505693435669,-0.03200221061706543,-0.19838041067123413,-0.10436565931276395,-1.338282238157353,-1.7237056638439463,-0.9677954912185669,0.10417629778385162,-0.22917091846466064,1.0262434482574463,0.0013005556538701057,0.37022945284843445
0.946497917175293,0.21375805139541626,-0.05096001178026199,-0.13354402780532837,-0.10790144766427187,-1.3370396332984005,-1.7047710788411459,-0.9671455025672913,0.107692189514637,-0.23028655350208282,0.6750618815422058,-0.08230388164520264,0.4141647517681122
0.9675498008728027,0.18845945596694946,-0.10920841991901398,-0.0650932788848877,-0.11452453573880066,-1.3389631065428884,-1.6953411843945327,-0.9668713212013245,0.11427435278892517,-0.228256955742836,0.05514821037650108,-0.22232800722122192,0.45902228355407715
0.9872479438781738,0.1496620774269104,-0.11651566624641418,-0.05379001796245575,-0.12492751511486734,-1.344971554094354,-1.6979534712441857,-0.9670142531394958,0.12460281699895859,-0.22216525673866272,-0.471730500459671,-0.34025901556015015,0.4776875376701355
1.010951042175293,0.11076050996780396,-0.11579635739326477,-0.11729651689529419,-0.13693005748161075,-1.353497075830698,-1.7073011835231935,-0.9673431515693665,0.13650254905223846,-0.21357516944408417,-0.6853464841842651,-0.37225934863090515,0.5015634298324585
1.023879051208496,0.07516193389892578,-0.118425652384758,-0.11910007894039154,-0.14968465513644805,-1.3626767241590512,-1.7204113836952009,-0.9674805402755737,0.1491263210773468,-0.20431002974510193,-0.8566358089447021,-0.3583741784095764,0.4694046974182129
1.0430529117584229,0.09265857934951782,-0.11160646378993988,-0.08846859633922577,-0.16232139379702376,-1.3725269924905377,-1.7373831532145059,-0.9675211310386658,0.16160951554775238,-0.19438359141349792,-1.0480444431304932,-0.38606613874435425,0.425588995218277
1.0624217987060547,0.11754381656646729,-0.10964968800544739,-0.0730019062757492,-0.1738790129874341,-1.3857110541020674,-1.7585201968645574,-0.968099057674408,0.1730041652917862,-0.18125535547733307,-1.222981572151184,-0.6162726283073425,0.29413673281669617
1.0870718955993652,0.017963886260986328,-0.14864881336688995,-0.0322568416595459,-0.1826522504375028,-1.405392984419843,-1.7838322895954775,-0.9699444770812988,0.18163834512233734,-0.16191129386425018,-1.4175434112548828,-0.8387578725814819,0.1506161391735077
1.1073429584503174,-0.15160250663757324,-0.12788274884223938,0.003685787320137024,-0.18951626571429403,-1.4254093301033441,-1.8141413167359028,-0.9717341661453247,0.18838384747505188,-0.1422814130783081,-1.6099884510040283,-0.5856292247772217,0.06539968401193619
1.126953125,-0.18552327156066895,-0.08160507678985596,0.012214362621307373,-0.19362194242787067,-1.442465728927729,-1.8464276445767656,-0.9732443690299988,0.19241441786289215,-0.12558721005916595,-1.5752774477005005,-0.5424528121948242,-0.10153962671756744
1.148582935333252,-0.16128087043762207,-0.058178529143333435,-0.00845964252948761,-0.19321331587786642,-1.4586211523831736,-1.8772893550612304,-0.9752243161201477,0.19201339781284332,-0.10985713452100754,-1.4427926540374756,-0.4561009109020233,-0.2962898313999176
1.1670517921447754,-0.1283361315727234,-0.04877933859825134,-0.032789602875709534,-0.18962318135698322,-1.470270153069952,-1.905611098117281,-0.9771174192428589,0.18848884105682373,-0.09855809807777405,-1.3112130165100098,-0.15900416672229767,-0.3095850348472595
1.1868410110473633,-0.0033330917358398438,-0.03453034162521362,0.03890872001647949,-0.18742007583611808,-1.4755587246853632,-1.931898273486516,-0.9780359268188477,0.18632477521896362,-0.09342843294143677,-1.2247024774551392,0.10143780708312988,-0.16319319605827332
1.2049059867858887,0.17900919914245605,-0.03310573101043701,0.0804792046546936,-0.18682432509218277,-1.4769989606813425,-1.9538672515150808,-0.9782798290252686,0.1857394278049469,-0.0920301228761673,-0.8805065751075745,0.10130304843187332,-0.1362321525812149
1.2270231246948242,0.2690361738204956,-0.009844854474067688,0.09128742665052414,-0.1839301195792518,-1.4793829319773564,-1.966005551952522,-0.9790276885032654,0.18289481103420258,-0.0897463709115982,-0.25086265802383423,-0.09064383804798126,-0.25668466091156006
1.2449798583984375,0.23050498962402344,-0.0064469873905181885,0.06042593717575073,-0.17838151356608606,-1.4811969965539369,-1.9643208830125949,-0.9801844954490662,0.17743700742721558,-0.08805964887142181,0.4305473566055298,-0.1023995652794838,-0.2631334066390991
1.2666490077972412,0.1210634708404541,-0.086993008852005,0.06808919459581375,-0.17301417537496755,-1.4793815557833003,-1.9530176734176687,-0.9809571504592896,0.1721522957086563,-0.08992460370063782,0.6646353006362915,0.12116419523954391,-0.1764531433582306
1.2871179580688477,0.0963636040687561,-0.16879332065582275,0.1118963360786438,-0.168955145405017,-1.472231811792896,-1.9406943780060988,-0.9809765815734863,0.16815246641635895,-0.09700381010770798,0.5321499109268188,0.34891587495803833,-0.12828728556632996
1.3065128326416016,0.20473814010620117,-0.1808338612318039,0.1572951078414917,-0.16553661275941878,-1.4629686466919885,-1.9332553544285513,-0.9806017279624939,0.1647816300392151,-0.10614771395921707,0.207505464553833,0.437445729970932,-0.14242583513259888
1.326301097869873,0.2936708331108093,-0.16946010291576385,0.17684893310070038,-0.1624682494055489,-1.4547539123250004,-1.9341490824372012,-0.9801943302154541,0.16175444424152374,-0.11425743997097015,-0.2705818712711334,0.37246939539909363,-0.19820564985275269
1.346127986907959,0.3559747338294983,-0.20746983587741852,0.14198243618011475,-0.15866574400464037,-1.4498615651420945,-1.9443593801564525,-0.980226993560791,0.1580008566379547,-0.11912482976913452,-0.6721840500831604,0.26565274596214294,-0.29775485396385193
1.3653090000152588,0.37909865379333496,-0.2681126296520233,0.14047116041183472,-0.15377349378987815,-1.4489603141985985,-1.9615738399456903,-0.98087477684021,0.153168186545372,-0.1201007142663002,-0.9340857863426208,0.11746107041835785,-0.3966585397720337
1.3857569694519043,0.3333866000175476,-0.2842997610569,0.17432516813278198,-0.14721189598516168,-1.4498799667024422,-1.9825194653339056,-0.9819614291191101,0.14668075740337372,-0.11931727081537247,-1.0409693717956543,0.11769463121891022,-0.49649912118911743
1.4063310623168945,0.3010600209236145,-0.2067870944738388,0.20294658839702606,-0.13959789243672036,-1.4502193702256725,-2.004516715299336,-0.9830821752548218,0.1391449272632599,-0.11911487579345703,-0.9747574925422668,0.19274374842643738,-0.5236936807632446
1.4252989292144775,0.2776302099227905,-0.09079103171825409,0.17201752960681915,-0.13028282676098682,-1.448185986748673,-2.0216174587770097,-0.984081506729126,0.12991458177566528,-0.12126685678958893,-0.5159676671028137,0.18643774092197418,-0.643189013004303
1.4459280967712402,0.1959676742553711,-0.06429626792669296,0.07571451365947723,-0.11494906542620835,-1.4480830283950956,-2.0248750792425896,-0.9859305024147034,0.11469609290361404,-0.1215977594256401,0.4328761398792267,-0.14708669483661652,-0.9192078113555908
1.4658939838409424,-0.06427794694900513,-0.11705925315618515,0.010831892490386963,-0.09366711758404023,-1.449394272046364,-2.0122532561639863,-0.9882885217666626,0.09353021532297134,-0.12057319283485413,0.965105414390564,0.07575339078903198,-0.9933992624282837
1.4858169555664062,-0.24300533533096313,-0.1344747096300125,0.11373287439346313,-0.07290904783058225,-1.4400947364145402,-1.994616444568073,-0.9888367056846619,0.07284446805715561,-0.12998352944850922,0.9612706303596497,0.5931752324104309,-0.8240212798118591
1.5048680305480957,-0.06071192026138306,-0.12875324487686157,0.21780242025852203,-0.05560075956052826,-1.4298867010395269,-1.9794378675023037,-0.9885585904121399,0.05557211488485336,-0.14022675156593323,0.7560983300209045,0.25154823064804077,-0.7391297817230225
1.5256779193878174,-0.08486974239349365,-0.10541343688964844,0.1881171017885208,-0.03803981798133379,-1.426817188511856,-1.9694521940925187,-0.9889369606971741,0.03803064301609993,-0.14337840676307678,0.46236559748649597,0.12259617447853088,-0.8248754143714905
1.5459198951721191,-0.28651106357574463,-0.1517414003610611,0.22547882795333862,-0.02421084401469677,-1.4216255981096433,-1.9676996940184994,-0.9886048436164856,0.02420847862958908,-0.148574560880661,-0.11039917916059494,0.3934583067893982,-0.4923228621482849
1.5656030178070068,-0.17643940448760986,-0.16165415942668915,0.24530179798603058,-0.01799366102649561,-1.4134435802390433,-1.9747435702053258,-0.9874856472015381,0.017992690205574036,-0.15667884051799774,-0.41970229148864746,0.35115858912467957,-0.2860260009765625
1.5856928825378418,0.0018600821495056152,-0.09171564877033234,0.19281567633152008,-0.012431321392751932,-1.410315560341649,-1.983218360338262,-0.9870742559432983,0.012431001290678978,-0.15978045761585236,-0.20419806241989136,-0.02537810429930687,-0.446922242641449
1.605654001235962,-0.031420886516571045,0.001201313454657793,0.09891301393508911,-0.0007213091026696556,-1.4126154131415558,-1.9821452061687308,-0.9875152111053467,0.0007213090430013835,-0.157522052526474,0.49608638882637024,-0.17528903484344482,-0.6667125225067139
1.6252429485321045,-0.19801968336105347,-0.030126020312309265,0.030190065503120422,0.015498348308776189,-1.4163939872558633,-1.9698469292698586,-0.987984836101532,-0.015497728250920773,-0.15377108752727509,0.8775621056556702,-0.1975831538438797,-0.7087523937225342
1.645576000213623,-0.30226677656173706,-0.0877460464835167,0.0658891350030899,0.03063640261791715,-1.4199759409133121,-1.9555194764196837,-0.9881842136383057,-0.03063161112368107,-0.15017874538898468,0.7366824746131897,-0.1406242698431015,-0.5638324618339539
1.6644830703735352,-0.25532495975494385,-0.09292007982730865,0.0927686095237732,0.04303375261622164,-1.4249319354938026,-1.945000134397409,-0.9884647130966187,-0.043020471930503845,-0.14521314203739166,0.4804656207561493,-0.33369627594947815,-0.5500575304031372
1.6874449253082275,-0.3574044704437256,-0.12809693813323975,0.17036396265029907,0.055540611252000535,-1.4330495195401338,-1.9415401893095294,-0.9890004992485046,-0.05551205947995186,-0.13709987699985504,0.029716581106185913,-0.428260862827301,-0.6380902528762817
1.7046029567718506,-0.6290225982666016,-0.12954336404800415,0.13052703440189362,0.06806468828241133,-1.4414874544192235,-1.945558864895921,-0.9893550276756287,-0.06801214814186096,-0.1286502331495285,-0.24241824448108673,-0.4920491576194763,-0.6347587704658508
1.7242529392242432,-0.7684525847434998,-0.02323150634765625,0.05665773153305054,0.07769193799040788,-1.4514694461430737,-1.9527402831039968,-0.989893913269043,-0.07761380076408386,-0.1186848059296608,-0.2380378544330597,-0.5481701493263245,-0.38703128695487976
1.7452020645141602,-0.7812663912773132,0.02765936404466629,0.05066854506731033,0.08337419057234438,-1.461255731002053,-1.9587540441062061,-0.9905535578727722,-0.0832776352763176,-0.10894191265106201,-0.2644626796245575,-0.5005031228065491,-0.3483150899410248
1.7652239799499512,-0.8527098298072815,-0.012870892882347107,0.07997053861618042,0.09101446029537219,-1.4725154958851578,-1.9638060218812419,-0.991055428981781,-0.0908888578414917,-0.0977165699005127,-0.3502064645290375,-0.6123115420341492,-0.3771863579750061
1.7850139141082764,-0.9369122385978699,-0.07204841077327728,0.09347301721572876,0.09389145317460337,-1.4853886187590821,-1.9751575572004028,-0.9919664859771729,-0.09375356137752533,-0.08492818474769592,-0.9867216944694519,-0.716363251209259,0.05602579936385155
1.8052301406860352,-0.999974250793457,0.06979292631149292,0.03949279338121414,0.08910631648154102,-1.4960407243686744,-1.9966821827697712,-0.9932507872581482,-0.08898844569921494,-0.07438968122005463,-0.9828298687934875,-0.5681895613670349,0.2663232982158661
1.8250141143798828,-0.8877579569816589,0.16651228070259094,-0.09355699270963669,0.08034072451074886,-1.5063249252862392,-2.0143597235507547,-0.994703471660614,-0.08025432378053665,-0.0642189309000969,-0.7246432304382324,-0.6251655220985413,0.40822553634643555
1.8450679779052734,-0.8205068111419678,0.028058886528015137,-0.14356839656829834,0.06942015819009362,-1.518352551123572,-2.020195151380481,-0.9962198138237,-0.06936441361904144,-0.052293479442596436,-0.01125109288841486,-0.6469127535820007,0.7375490665435791
1.8655438423156738,-0.8421787619590759,0.08259440213441849,-0.08415806293487549,0.05307827253930873,-1.5306499320958706,-2.015288524356906,-0.9977869391441345,-0.0530533529818058,-0.040079083293676376,0.40614840388298035,-0.5230146050453186,0.8679695129394531
1.8849899768829346,-0.8259981274604797,0.17604251205921173,-0.248498797416687,0.03690596979083917,-1.5390556862959257,-1.9972968130605233,-0.9988157153129578,-0.03689759224653244,-0.03171370178461075,1.5404280424118042,-0.23070117831230164,0.8484112620353699
1.9047718048095703,-0.6921582818031311,0.21879881620407104,-0.33268749713897705,0.021138016536133675,-1.542817126209523,-1.9545697530337136,-0.9993854761123657,-0.021136442199349403,-0.027969304472208023,2.4832956790924072,0.02288157120347023,0.7642098665237427
1.926520824432373,-0.6395165324211121,-0.045147284865379333,-0.3748156428337097,0.007053070419887326,-1.5396765316922876,-1.9080627465954298,-0.9994910359382629,-0.007053012028336525,-0.03111400082707405,1.8467564582824707,0.29371050000190735,0.9087021946907043
1.9450409412384033,-0.5448240041732788,-0.1678544580936432,-0.3581444025039673,-0.012627153502269154,-1.5331768238439936,-1.8835453743766002,-0.9992128014564514,0.012626818381249905,-0.03760763257741928,0.6342832446098328,0.4407212436199188,1.0533931255340576
1.9647059440612793,-0.5282744765281677,-0.013589058071374893,-0.34812605381011963,-0.03465314384067285,-1.520249827211261,-1.8787698299959377,-0.9981232285499573,0.034646209329366684,-0.05049464479088783,-0.25356143712997437,0.8445865511894226,1.2130563259124756
1.9844980239868164,-0.49526727199554443,0.0127040334045887,-0.20821374654769897,-0.06101853210739919,-1.4995662423086809,-1.889031357771285,-0.9956079125404358,0.060980673879384995,-0.0710374191403389,-0.8572682738304138,1.2497292757034302,1.3487268686294556
2.0045900344848633,-0.36866098642349243,0.049362458288669586,-0.21717578172683716,-0.08982690426429474,-1.4740312753046476,-1.9032393832673282,-0.9913090467453003,0.08970615267753601,-0.0962245911359787,-0.6726343035697937,1.404205083847046,1.400390863418579
2.024683952331543,-0.2769666910171509,0.17991061508655548,-0.2570105195045471,-0.11952233424476581,-1.4452980363213672,-1.906367094508015,-0.9850571751594543,0.11923795938491821,-0.12427612394094467,0.06321290135383606,1.54485023021698,1.5310587882995605
2.0458431243896484,-0.2924763560295105,0.30091145634651184,-0.24435937404632568,-0.14965881220638463,-1.4085403691600296,-1.8909418998415926,-0.9758341312408447,0.14910076558589935,-0.1597391813993454,0.9905304908752441,1.977317214012146,1.7147750854492188
2.064393997192383,-0.20981675386428833,0.2515943646430969,-0.137320876121521,-0.18166949902751856,-1.3591663360176394,-1.859649803020868,-0.9616004228591919,0.18067185580730438,-0.20659704506397247,1.3952666521072388,2.4328811168670654,2.004063844680786
2.0844099521636963,-0.0061016082763671875,0.13230302929878235,-0.06344273686408997,-0.21556937921155897,-1.299413524295517,-1.8203886838670633,-0.9411030411720276,0.21390366554260254,-0.2618595063686371,1.4788910150527954,2.734572172164917,2.191910982131958
2.1032280921936035,0.19964081048965454,0.09316253662109375,0.024219512939453125,-0.24919117337430924,-1.2351034846111022,-1.7791216697356595,-0.9150185585021973,0.24662019312381744,-0.3192482590675354,1.3609548807144165,2.7264816761016846,2.2014646530151367
2.123304843902588,0.30720704793930054,0.09331744909286499,0.0321233868598938,-0.27844606352999357,-1.1694297036522858,-1.733586460172237,-0.885072648525238,0.2748619019985199,-0.3756293058395386,1.7463103532791138,2.6425790786743164,2.1414639949798584
2.1442129611968994,0.2994290590286255,0.14806121587753296,0.07303804159164429,-0.3026756230800062,-1.101702142456701,-1.6808848182995229,-0.8514309525489807,0.29807525873184204,-0.43152809143066406,1.7243634462356567,2.6832621097564697,2.2284367084503174
2.164350986480713,0.21253198385238647,-0.06209242343902588,0.18785390257835388,-0.32899698634061963,-1.0304031063810482,-1.6299961325785732,-0.8115156888961792,0.323093980550766,-0.4868803918361664,1.2698007822036743,2.86547589302063,2.4178285598754883
2.183849811553955,0.25038838386535645,-0.1754138171672821,0.1866047978401184,-0.35887977500165075,-0.9561809484131826,-1.5816176464487541,-0.7649452686309814,0.3512255847454071,-0.5399068593978882,0.9430409073829651,3.010542154312134,2.594925880432129
2.2041478157043457,0.260459303855896,-0.25439345836639404,0.19156062602996826,-0.39039434394228084,-0.8740860944381261,-1.5312469828548863,-0.709250807762146,0.38055312633514404,-0.5934160947799683,0.8257980346679688,3.3830511569976807,2.720081090927124
2.2246108055114746,0.22011590003967285,-0.1542428433895111,0.2631661891937256,-0.4167347893507975,-0.7823497920426354,-1.480015421017696,-0.6446153521537781,0.4047768712043762,-0.6485574245452881,0.9750796556472778,3.7908639907836914,2.3744163513183594
2.2456560134887695,0.18237841129302979,-0.252981573343277,0.3521999716758728,-0.4295695184598978,-0.6836048458845042,-1.427556142216084,-0.5742087960243225,0.4164794683456421,-0.7048611044883728,1.2431637048721313,3.849466323852539,2.096724510192871
2.2644968032836914,0.19111835956573486,-0.29866909980773926,0.36173611879348755,-0.4341424652375797,-0.589513570889845,-1.3759036121036345,-0.5043812394142151,0.42063257098197937,-0.7541006803512573,1.0978872776031494,3.3750531673431396,1.9667788743972778
2.2843689918518066,0.10930326581001282,-0.24685880541801453,0.35480111837387085,-0.43802380143315006,-0.506403673734777,-1.32874935662461,-0.43924403190612793,0.424150675535202,-0.7919349074363708,0.8218311071395874,3.050607681274414,1.9147484302520752
2.303596019744873,-0.028218775987625122,-0.1652129590511322,0.3993160128593445,-0.44018591907078736,-0.4254762606727662,-1.2830112346761755,-0.3734077513217926,0.4261076748371124,-0.824013888835907,0.8956376314163208,3.1916818618774414,1.8977073431015015
2.323518991470337,-0.04439803957939148,0.023463457822799683,0.4645715355873108,-0.4352986115935537,-0.3403759941905764,-1.2364014137445638,-0.30270886421203613,0.4216811954975128,-0.8547235727310181,1.1047204732894897,3.3336901664733887,1.7958483695983887
2.343395948410034,-0.05929243564605713,0.22380992770195007,0.3363962173461914,-0.4223809748152391,-0.25562045064068206,-1.1935437817400192,-0.23062452673912048,0.40993332862854004,-0.8824777603149414,1.1820149421691895,3.3884923458099365,1.6074621677398682
2.363309860229492,-0.1340244859457016,0.18346479535102844,0.27467745542526245,-0.4128999554886667,-0.17155217473195247,-1.1542929164781932,-0.15636548399925232,0.40126726031303406,-0.9025155901908875,0.42328083515167236,3.4128711223602295,1.7511627674102783
2.3831729888916016,-0.11205173283815384,0.0629611611366272,0.3279005289077759,-0.4176581061404107,-0.08752986780555494,-1.1114207908883806,-0.07990379631519318,0.4056209921836853,-0.9105421304702759,-0.2331782579421997,3.258176326751709,2.276012420654297
2.4031600952148438,-0.014855400659143925,0.24724668264389038,0.2449321746826172,-0.42532799146006794,-0.0017829030483469425,-1.0564942718396495,-0.0016240515979006886,0.41261956095695496,-0.9109019637107849,-0.17896625399589539,3.0931496620178223,2.649148464202881
2.4232189655303955,-0.0226142555475235,0.6108134984970093,0.09696608781814575,-0.41966137553702776,0.08308826699806457,-0.9999116826610014,0.07579116523265839,0.40745124220848083,-0.9100764393806458,0.4825515151023865,3.141662120819092,2.600205421447754
2.4430489540100098,-0.003987148404121399,0.6467800140380859,0.07395762205123901,-0.40079034618171355,0.1699734955532471,-0.9432574273582083,0.1557510942220688,0.3901461660861969,-0.9074841737747192,0.7565963268280029,3.2426536083221436,2.8196585178375244
2.4628028869628906,0.07816182076931,0.3204454183578491,0.13852781057357788,-0.37588975324105417,0.25399344425647374,-0.8823531313015441,0.2337278574705124,0.3671002984046936,-0.9003380537033081,0.2182660549879074,2.828552722930908,3.2360732555389404
2.4833269119262695,0.10087734460830688,0.04622659087181091,0.39979177713394165,-0.36193838686176466,0.33086733600046814,-0.8114519196302904,0.3038162589073181,0.3540877103805542,-0.8844872117042542,-0.8037496209144592,2.3360135555267334,3.4747533798217773
2.5020339488983154,0.02847304940223694,-0.19254514575004578,0.4042166471481323,-0.35825592083667895,0.4003962671264293,-0.7328243465760963,0.36503589153289795,0.3506414294242859,-0.8624380826950073,-1.3226722478866577,1.8638619184494019,3.5340523719787598
2.522645950317383,-0.09503179788589478,-0.12348675727844238,0.32406145334243774,-0.34764040863968265,0.4617555503702072,-0.6535229274761842,0.41886910796165466,0.340680330991745,-0.8417158722877502,-0.6726123690605164,1.6089311838150024,3.7326416969299316
2.542980909347534,-0.19659152626991272,0.017327070236206055,0.2811938524246216,-0.3146520732779943,0.5147384395663338,-0.5828277778129157,0.4681369364261627,0.30948564410209656,-0.8276874423027039,0.39545249938964844,1.3116743564605713,3.648752212524414
2.562729835510254,-0.24802356958389282,-0.052929311990737915,0.39548295736312866,-0.2698932858573675,0.5532659019272217,-0.5266964788094723,0.506446361541748,0.26662859320640564,-0.8200129270553589,0.5564880967140198,0.9188995361328125,3.2558820247650146
2.5826148986816406,-0.29994553327560425,-0.24830299615859985,0.5315914154052734,-0.2316465636107594,0.5794798679472507,-0.4776606524621116,0.5329625010490417,0.22958041727542877,-0.8143978118896484,0.09482435137033463,0.5114916563034058,2.8573384284973145
2.602694034576416,-0.28862059116363525,-0.38209274411201477,0.7346676588058472,-0.2024423796409358,0.5953892586498191,-0.43011635195100856,0.5493780374526978,0.2010624259710312,-0.8110226392745972,-0.1730004847049713,0.014609170146286488,2.63869309425354
2.622581958770752,-0.27918243408203125,-0.3256271183490753,0.7917959690093994,-0.17763397900282876,0.598073575645449,-0.38539753349255174,0.5541915893554688,0.17670127749443054,-0.8134176731109619,-0.23735231161117554,-0.5885910987854004,2.4065284729003906
2.6431000232696533,-0.3335779905319214,-0.13240578770637512,0.6812378764152527,-0.1542570159717192,0.5889529170843144,-0.3456979067505614,0.5488947629928589,0.15364597737789154,-0.8216492533683777,0.04740399122238159,-0.999660074710846,2.13344407081604
2.6624040603637695,-0.36973559856414795,-0.004025265574455261,0.5256365537643433,-0.13175595784697933,0.5679571003728169,-0.31394442779668585,0.533248782157898,0.13137508928775787,-0.8356950879096985,0.008487537503242493,-1.525294542312622,1.7578761577606201
2.681551933288574,-0.37342768907546997,-0.14276069402694702,0.5474025011062622,-0.11805605413530736,0.5366724520656128,-0.2848326856573525,0.5077202916145325,0.11778201907873154,-0.8534327745437622,-0.4455335736274719,-2.027839422225952,1.414021611213684
2.7022669315338135,-0.3354414403438568,-0.3072163760662079,0.5922756195068359,-0.11766833531295857,0.4936226536066292,-0.25663797889363216,0.4705427587032318,0.11739698797464371,-0.8745326995849609,-0.7709567546844482,-2.5981178283691406,1.0490113496780396
2.7222061157226562,-0.3687910735607147,-0.24695922434329987,0.4474318027496338,-0.11937385036766641,0.43985358179986067,-0.23511264033849916,0.4227766692638397,0.11909053474664688,-0.8983747959136963,-0.2856675088405609,-2.9872853755950928,0.8237720131874084
2.744936943054199,-0.5087052583694458,0.05987486243247986,0.17624956369400024,-0.10950273625278296,0.38377922791508046,-0.22216974510167495,0.3721848428249359,0.10928402841091156,-0.9217024445533752,0.754185140132904,-2.6612777709960938,0.741469144821167
2.7599658966064453,-0.5903160572052002,-0.10567135363817215,-0.022145330905914307,-0.07926503421457357,0.3374060832174208,-0.21712746981695322,0.3300011456012726,0.07918205857276917,-0.9406537413597107,1.724440097808838,-2.121288776397705,0.8422988057136536
2.7825119495391846,-0.46022528409957886,-0.34146028757095337,-0.006790459156036377,-0.044309800632127354,0.2954964869058669,-0.21044672916166826,0.29092901945114136,0.0442953035235405,-0.9557186961174011,1.2024469375610352,-2.1329543590545654,0.8070166707038879
2.801126003265381,-0.47128838300704956,-0.2603047490119934,-0.008020877838134766,-0.028222278927957947,0.2560378834513397,-0.20173058037877933,0.25314873456954956,0.028218531981110573,-0.9670157432556152,0.2577091455459595,-1.767754077911377,0.4569014608860016
2.822052001953125,-0.525536060333252,-0.24442324042320251,-0.23833084106445312,-0.023600185172078212,0.22863574496450045,-0.19599383199941672,0.22658586502075195,0.023597994819283485,-0.9737052917480469,0.12974949181079865,-1.008148431777954,0.25939488410949707
2.8422088623046875,-0.40380147099494934,-0.18926572799682617,-0.41366976499557495,-0.02187851495698417,0.21270323514805592,-0.1920702668638266,0.21105246245861053,0.02187676914036274,-0.97722989320755,-0.12322048842906952,-0.6523516178131104,0.14140307903289795
2.87631893157959,-0.2647057771682739,-0.13943560421466827,-0.3435383439064026,-0.02821799443369942,0.2017751045872958,-0.1894048638481267,0.20032896101474762,0.02821424975991249,-0.9793223738670349,-0.5164134502410889,-0.4567820727825165,0.002148183062672615
2.884830951690674,-0.15115724503993988,-0.214118093252182,-0.23572832345962524,-0.04162945930649799,0.1938880052142492,-0.18765551800077307,0.19250856339931488,0.04161743447184563,-0.9804123640060425,-0.863289475440979,-0.36165064573287964,-0.09433615207672119
2.899949073791504,-0.07120713591575623,-0.15343859791755676,-0.2658555507659912,-0.06353071076984335,0.18787583787164905,-0.18473156698723991,0.18639573454856873,0.06348798424005508,-0.9804213047027588,-1.2988258600234985,-0.25337621569633484,-0.014065846800804138
2.9199090003967285,-0.04043357074260712,-0.09706005454063416,-0.3389888405799866,-0.09122028335568932,0.18590196113857616,-0.1799537219008661,0.18406455218791962,0.09109382331371307,-0.9786838889122009,-1.4684884548187256,0.0505329966545105,-0.03815372288227081
2.9408109188079834,-0.0048758238554000854,-0.08683779090642929,-0.28500741720199585,-0.12019272053754462,0.18955832725255606,-0.17544807440053162,0.18706576526165009,0.11990354210138321,-0.9750023484230042,-1.5015267133712769,0.21896755695343018,-0.08210529386997223
2.960222005844116,0.09105446934700012,-0.0647297352552414,-0.1923653483390808,-0.15161356023394915,0.19342118948249223,-0.17274830314909348,0.19001241028308868,0.15103337168693542,-0.9700949192047119,-1.6007343530654907,0.11201499402523041,-0.2847208082675934
2.9840710163116455,0.11865147948265076,0.012269929051399231,-0.21730142831802368,-0.1834595706592135,0.19331518548246393,-0.17545159958431059,0.18888941407203674,0.1824321746826172,-0.9649037718772888,-1.4861081838607788,-0.07561197876930237,-0.6001311540603638
3.0042290687561035,0.091520294547081,0.16765516996383667,-0.26637428998947144,-0.213385498297169,0.18793014918567966,-0.1858867474255849,0.182588592171669,0.21176981925964355,-0.9601119160652161,-1.2737151384353638,-0.2553497850894928,-0.9843146800994873
3.0248827934265137,0.08694793283939362,0.13642294704914093,-0.2797647714614868,-0.24267617620417511,0.17659288740356666,-0.20383560334612724,0.1705288589000702,0.2403012365102768,-0.9556019902229309,-1.3624025583267212,-0.48802387714385986,-1.24453604221344
3.0428690910339355,0.09271959960460663,0.014224767684936523,-0.23522162437438965,-0.27651699422235265,0.15836279219014676,-0.2253813983783254,0.15171094238758087,0.2730066180229187,-0.9499742984771729,-1.6238378286361694,-0.7704752683639526,-1.365890622138977
3.060001850128174,0.001774609088897705,-0.018263787031173706,-0.18932265043258667,-0.31425864560018074,0.13556944268699275,-0.24832307589916927,0.1285354644060135,0.30911150574684143,-0.9422997236251831,-1.7743297815322876,-0.806920051574707,-1.333735704421997
3.082814931869507,-0.08200309425592422,-0.026105642318725586,-0.07163530588150024,-0.35350604928296764,0.11416699689215491,-0.2703917946160655,0.10687492787837982,0.3461891710758209,-0.9320573210716248,-1.8490245342254639,-0.593216598033905,-1.240229606628418
3.1026978492736816,-0.08164813369512558,-0.0008310973644256592,-0.007986724376678467,-0.3910137467840083,0.09616956906493226,-0.2923113396262196,0.08877400308847427,0.3811258375644684,-0.920251190662384,-1.625802755355835,-0.4424378275871277,-1.206687331199646
3.1244568824768066,-0.04416721314191818,0.0757843554019928,0.04831361770629883,-0.4209594835888723,0.07893474986274303,-0.3161500076229862,0.07196874171495438,0.4086363613605499,-0.9098553657531738,-1.1476294994354248,-0.33515608310699463,-1.2475333213806152
3.1435699462890625,0.00023927539587020874,0.03563052415847778,0.1207495927810669,-0.44071764730365875,0.06184281677563055,-0.34191409306157583,0.055897828191518784,0.42658865451812744,-0.9027167558670044,-0.6942055225372314,-0.31741830706596375,-1.218115210533142
3.1622989177703857,0.05992167070508003,-0.02119898796081543,0.16228389739990234,-0.4523125648749782,0.04366383898488047,-0.36765196202712824,0.03926047310233116,0.43704670667648315,-0.8985815644264221,-0.3619961142539978,-0.3896457254886627,-1.1757534742355347
3.182839870452881,0.08498988300561905,-0.02659013867378235,0.13995641469955444,-0.4580600463070596,0.02394076301115725,-0.39330559490651096,0.021470706909894943,0.4422089755535126,-0.8966550230979919,-0.17536932229995728,-0.4491742253303528,-1.153861403465271
3.202366828918457,0.10169734805822372,-0.03334611654281616,0.11949557065963745,-0.4612738885480111,0.003325536529731321,-0.41892747583069645,0.0029779665637761354,0.4450892210006714,-0.895481288433075,-0.14136503636837006,-0.4791012108325958,-1.156375765800476
3.2231431007385254,0.14989981055259705,-0.06000635027885437,0.12324768304824829,-0.46431276111373854,-0.01894101512461713,-0.4451257485256615,-0.016934707760810852,0.4478084146976471,-0.8939691185951233,-0.17699015140533447,-0.5869666934013367,-1.188287377357483
3.243011951446533,0.15431465208530426,0.014572113752365112,0.04454296827316284,-0.4675138603469542,-0.04346692593063328,-0.47196692201417356,-0.03879033774137497,0.4506683349609375,-0.8918482661247253,-0.21512509882450104,-0.6475327610969543,-1.2086201906204224
3.2622900009155273,0.10987447947263718,0.11287519335746765,-0.005267202854156494,-0.46986740811243455,-0.06872556298137693,-0.5003322034835442,-0.06122943386435509,0.4527680575847626,-0.8895235061645508,-0.14291714131832123,-0.5735301971435547,-1.3074058294296265
3.2829298973083496,0.10227621346712112,0.10659459233283997,0.01563429832458496,-0.46886833777380804,-0.09283702988108256,-0.5301879737614262,-0.08269916474819183,0.45187702775001526,-0.8882387280464172,0.048986561596393585,-0.5096185207366943,-1.358302116394043
3.301063060760498,0.11696738004684448,0.110354483127594,-0.019877851009368896,-0.46221876547127627,-0.11636692626678923,-0.5598533363641834,-0.1039210855960846,0.44593513011932373,-0.8890119791030884,0.31799259781837463,-0.5216912031173706,-1.3527169227600098
3.32413387298584,0.104258231818676,0.11689838767051697,0.020282864570617676,-0.451187271563928,-0.13908770336676635,-0.5888398037057193,-0.12476601451635361,0.43603429198265076,-0.8912392854690552,0.415101557970047,-0.4632984697818756,-1.3879363536834717
3.339674949645996,0.13370433449745178,0.01909777522087097,0.12580513954162598,-0.43942727404160964,-0.16089358062881276,-0.6181934565735252,-0.1449805498123169,0.42542120814323425,-0.8933070302009583,0.324754536151886,-0.48632192611694336,-1.4151924848556519
3.359900951385498,0.19926732778549194,-0.0783151388168335,0.24392414093017578,-0.42965443915488605,-0.18499580813798983,-0.6484785725448192,-0.16722384095191956,0.4165566861629486,-0.8935976624488831,0.1567271649837494,-0.6813769936561584,-1.465108871459961
3.37949800491333,0.23020733892917633,-0.12097916007041931,0.31110459566116333,-0.42357067122037617,-0.214238566283407,-0.6800427425713022,-0.19381508231163025,0.4110181927680969,-0.8907860517501831,-0.07614368200302124,-0.9630098938941956,-1.4676247835159302
3.399932861328125,0.19304317235946655,-0.01803755760192871,0.2033989429473877,-0.4184984372350158,-0.24849498500192455,-0.7109069584832385,-0.22472040355205536,0.40638893842697144,-0.8856346607208252,-0.07752388715744019,-1.1731040477752686,-1.4081025123596191
3.4199979305267334,0.11316919326782227,0.08013448119163513,0.17700523138046265,-0.41074955059260837,-0.2841044567457332,-0.7410462617498993,-0.2569832503795624,0.3992966413497925,-0.8800691962242126,0.11634982377290726,-1.16197669506073,-1.476608395576477
3.4399309158325195,0.1222185492515564,0.007348835468292236,0.24855458736419678,-0.3990470217209077,-0.31895343588901015,-0.7705339914510446,-0.288936048746109,0.3885404169559479,-0.8749584555625916,0.1617700159549713,-1.1985104084014893,-1.4465316534042358
3.4599080085754395,0.18399816751480103,-0.05756846070289612,0.28202199935913086,-0.3873910833678176,-0.35615753219555746,-0.7984219682935795,-0.32283785939216614,0.37777411937713623,-0.8677917122840881,0.09587336331605911,-1.511939525604248,-1.375632882118225
3.479154109954834,0.15990394353866577,0.0923599898815155,0.1000247597694397,-0.3741155506087733,-0.4003878760543788,-0.8238190569911208,-0.362815260887146,0.3654493987560272,-0.8572116494178772,0.2720029354095459,-1.9448086023330688,-1.3346697092056274
3.4999570846557617,0.008550465106964111,0.2920483946800232,-0.0021322965621948242,-0.3566544143226863,-0.4487947200781351,-0.8485241823961767,-0.40657591819763184,0.3491411507129669,-0.8442727327346802,0.37645819783210754,-1.9166268110275269,-1.5319008827209473
3.5199270248413086,-0.08579200506210327,0.07519254088401794,0.04604649543762207,-0.3349832410414657,-0.4919782089279037,-0.8744657093955972,-0.44611409306526184,0.32875335216522217,-0.8324082493782043,0.41387495398521423,-1.5615190267562866,-1.5755255222320557
3.539423942565918,-0.008759677410125732,-0.027440190315246582,0.08108377456665039,-0.3139921139860572,-0.532104411063927,-0.8985380442633794,-0.4825427532196045,0.3088580071926117,-0.8196091651916504,0.3123602867126465,-1.8080925941467285,-1.4684261083602905
3.5599207878112793,0.03932344913482666,0.049138039350509644,-0.010386645793914795,-0.2933061533932489,-0.5813655147661918,-0.9219072439020517,-0.5257125496864319,0.28911876678466797,-0.8000229001045227,0.22923362255096436,-2.4068071842193604,-1.54218590259552
3.579944133758545,-0.08216768503189087,0.1394689381122589,-0.026356041431427002,-0.2739800893052249,-0.6384798905195638,-0.9478999463986828,-0.5737465620040894,0.2705652117729187,-0.773051917552948,-0.09572464972734451,-2.468294382095337,-1.5910629034042358
3.5999398231506348,-0.18176257610321045,-0.03188884258270264,0.03691744804382324,-0.26050263660368617,-0.6916263696547399,-0.9769732843855015,-0.6162720322608948,0.25756627321243286,-0.7442233562469482,-0.6153876185417175,-2.0840437412261963,-1.3992761373519897
3.6200180053710938,-0.09699642658233643,-0.11436617374420166,0.08985114097595215,-0.2587223481209825,-0.7385017727380566,-1.0088936003012576,-0.6507757306098938,0.2558456361293793,-0.7148663997650146,-1.2821621894836426,-1.8452097177505493,-1.0684435367584229
3.6400299072265625,0.07983261346817017,-0.1383175551891327,0.15370017290115356,-0.2686745773520546,-0.7853423046161083,-1.0461970435519687,-0.6817002892494202,0.2654537856578827,-0.6817764043807983,-1.916821837425232,-1.9288935661315918,-0.8718374967575073
3.6600849628448486,0.21147316694259644,-0.1777288019657135,0.2416170835494995,-0.28655378247373975,-0.8392637253329206,-1.0900166155987532,-0.7138076424598694,0.2826482057571411,-0.6407718062400818,-2.3331053256988525,-2.3238182067871094,-0.7669670581817627
3.680459976196289,0.23110389709472656,-0.17398005723953247,0.2934701442718506,-0.30503105178387285,-0.9041880476741072,-1.13853756892401,-0.7496432662010193,0.3003228008747101,-0.5897806286811829,-2.3323230743408203,-2.7223188877105713,-0.8339739441871643
3.702089786529541,0.1505846381187439,-0.13647422194480896,0.24029171466827393,-0.3153826403462544,-0.9747680885388941,-1.1860952102070188,-0.7867540717124939,0.3101802468299866,-0.5336724519729614,-1.9329272508621216,-2.846459150314331,-1.0000824928283691
3.7213149070739746,0.05996125936508179,-0.12975531816482544,0.17594894766807556,-0.3156662526351711,-1.0429465267500104,-1.228440338095128,-0.8212069272994995,0.31044986844062805,-0.47879013419151306,-1.5094077587127686,-2.639172315597534,-1.139079213142395
3.7419769763946533,0.015573561191558838,-0.14832234382629395,0.15690362453460693,-0.3072154077058479,-1.104184446182592,-1.2655329874171903,-0.8512822389602661,0.30240559577941895,-0.428800106048584,-1.2210798263549805,-2.365466594696045,-1.3126081228256226
3.7608327865600586,0.021959424018859863,-0.12181088328361511,0.16281333565711975,-0.2894240821570728,-1.1596609951194201,-1.2987730677458025,-0.8785420060157776,0.28540030121803284,-0.38302820920944214,-0.8868996500968933,-2.2625253200531006,-1.6936277151107788
3.7805519104003906,0.013384521007537842,-0.09478351473808289,0.1314619481563568,-0.2593322018192372,-1.2132775684296822,-1.3269269773955983,-0.9054439067840576,0.2564351558685303,-0.338249146938324,-0.5084197521209717,-2.328721761703491,-2.0999021530151367
3.7999510765075684,-0.07076174020767212,-0.0762535035610199,0.07699310779571533,-0.21958493588636346,-1.2635275808674076,-1.3483771772969542,-0.9302758574485779,0.2178245484828949,-0.2951938509941101,-0.18494559824466705,-2.1600544452667236,-2.3224828243255615
3.8202099800109863,-0.17655831575393677,-0.038028284907341,0.046933650970458984,-0.1744401841916683,-1.3062481473503464,-1.3631092843767492,-0.950562596321106,0.173556849360466,-0.25750502943992615,0.055242232978343964,-1.7964144945144653,-2.4227852821350098
3.8406829833984375,-0.19815689325332642,0.0046411603689193726,0.02359175682067871,-0.12717106203187725,-1.3392947171950518,-1.372400808892773,-0.9654630422592163,0.12682856619358063,-0.2275865375995636,0.1826852709054947,-1.394328236579895,-2.374537467956543
3.861593008041382,-0.14741593599319458,0.009152412414550781,0.009567081928253174,-0.08212639353119675,-1.365530753533135,-1.3796850444754494,-0.9757071733474731,0.08203410357236862,-0.20314016938209534,0.026526939123868942,-1.1753456592559814,-2.1689939498901367
3.880362033843994,-0.13425737619400024,-0.005682777613401413,0.022640779614448547,-0.04379796948236252,-1.3875793796292748,-1.3916229224470766,-0.982319712638855,0.043783966451883316,-0.18201889097690582,-0.49603089690208435,-0.9512208104133606,-1.8095080852508545
3.905484914779663,-0.12859797477722168,0.016340330243110657,0.028782427310943604,-0.015215422820103202,-1.4044796721700987,-1.413103199154865,-0.9860870838165283,0.015214835293591022,-0.16553179919719696,-1.0909092426300049,-0.6937938928604126,-1.403061032295227
3.919950008392334,-0.11383473873138428,0.09390726685523987,0.06577439606189728,0.00494854203811267,-1.414633825835047,-1.441906959073248,-0.9878191947937012,-0.004948521964251995,-0.15552663803100586,-1.4294114112854004,-0.2606220543384552,-1.0119613409042358
3.939929962158203,-0.029705464839935303,0.11416265368461609,0.09109438955783844,0.014126502544251011,-1.4148460169257795,-1.4741326480411558,-0.9877657294273376,-0.014126032590866089,-0.15530343353748322,-1.5826599597930908,0.088666170835495,-0.4120999276638031
3.9599609375,0.09127664566040039,0.1340642273426056,0.09977288544178009,0.013764376531663082,-1.4134138149062276,-1.5050843187569394,-0.9875472784042358,-0.013763941824436188,-0.15671874582767487,-1.373788595199585,0.02037624642252922,-0.08307588845491409
3.9799699783325195,0.06235462427139282,0.17580218613147736,0.04751874506473541,0.011144830268799925,-1.4134580572750541,-1.5256523506773365,-0.987586498260498,-0.011144599877297878,-0.1566801816225052,-0.7000723481178284,0.007691964972764254,0.04533377289772034
3.999980926513672,0.03451192378997803,0.15715622901916504,-0.0010709315538406372,0.007864325036689592,-1.4124180490521812,-1.5324727734322465,-0.9874539375305176,-0.007864244282245636,-0.15771213173866272,-0.08897127956151962,0.07131390273571014,0.12644684314727783
4.019951820373535,0.06418049335479736,0.041870325803756714,-0.005040168762207031,0.005966434149107309,-1.4108303457487938,-1.5320172162295622,-0.9872151017189026,-0.005966398864984512,-0.15928177535533905,0.048034776002168655,0.059442777186632156,0.06337252259254456
4.040674924850464,0.14342278242111206,-0.07710979133844376,0.045674070715904236,0.005470808409079203,-1.411795061147818,-1.5319073400530359,-0.9873712062835693,-0.005470781121402979,-0.1583297997713089,-0.08335306495428085,-0.20650164783000946,-0.022100869566202164
4.059682846069336,0.18801653385162354,-0.049762412905693054,0.09478408098220825,0.007427600429603728,-1.420850869100065,-1.5342564121889042,-0.9887519478797913,-0.007427532225847244,-0.14938008785247803,-0.09333275258541107,-0.6845060586929321,-0.22483845055103302
4.0799689292907715,0.09094703197479248,-0.030331682413816452,0.09166811406612396,0.01353775037885119,-1.436768585523956,-1.5362936472134374,-0.9909409880638123,-0.013537337072193623,-0.13361459970474243,-0.042666807770729065,-0.8664586544036865,-0.37699711322784424
4.100094795227051,-0.04691469669342041,-0.06009363383054733,0.07124567031860352,0.020535252029962946,-1.4538187180085573,-1.5392778558802973,-0.9929565191268921,-0.020533809438347816,-0.1166863963007927,-0.19249577820301056,-0.8377354741096497,-0.3429282009601593
4.119969844818115,-0.11707186698913574,-0.06379744410514832,0.022083282470703125,0.026736131039195143,-1.4702300801998127,-1.5454139166774241,-0.9945918917655945,-0.026732945814728737,-0.1003609374165535,-0.2421797662973404,-0.8239993453025818,-0.3658807575702667
4.139523029327393,-0.17936277389526367,-0.0025781653821468353,-0.04443889856338501,0.0358206053343421,-1.485576047594802,-1.5463611479551302,-0.995731770992279,-0.035812944173812866,-0.08506256341934204,0.2712513208389282,-0.671077311038971,-0.5561687350273132
4.159998893737793,-0.2502748966217041,0.06646964699029922,0.024859018623828888,0.04862074602809026,-1.495683350811885,-1.5370467780554902,-0.9960018992424011,-0.04860159009695053,-0.07495368272066116,0.6962461471557617,-0.3026264011859894,-0.6138924956321716
4.179696083068848,-0.2094128131866455,-0.017675641924142838,0.11210490018129349,0.060501515068651535,-1.500803686643079,-1.5247263776362274,-0.9957262277603149,-0.060464613139629364,-0.06980753690004349,0.540367066860199,-0.19484268128871918,-0.4791780710220337
4.1999897956848145,-0.1536352038383484,-0.09253139793872833,0.08677966892719269,0.06966481349900998,-1.5061230827989625,-1.5194476212324564,-0.9954887628555298,-0.06960847973823547,-0.06447140127420425,0.0035118740051984787,-0.28934547305107117,-0.3855264186859131
4.219969987869263,-0.20529180765151978,-0.09841877967119217,0.08230763673782349,0.07620022929055323,-1.511245190648987,-1.5248228368983776,-0.9953306913375854,-0.07612650841474533,-0.05934324115514755,-0.4074175953865051,-0.2379629909992218,-0.3128975033760071
4.239969968795776,-0.2362450361251831,-0.050565265119075775,0.08700960129499435,0.08097768051558521,-1.5133367686910302,-1.5348027671494449,-0.9950783252716064,-0.08088921010494232,-0.05723976716399193,-0.5233208537101746,-0.054027680307626724,-0.2346288412809372
4.260077953338623,-0.14587324857711792,-0.02940903604030609,0.08121371269226074,0.0848743349641813,-1.513530382261277,-1.5448657273700601,-0.9947669506072998,-0.08477246761322021,-0.057028621435165405,-0.47010546922683716,-0.1158163845539093,-0.222111776471138
4.279968023300171,-0.10214120149612427,-0.08410535007715225,0.06115615367889404,0.08846482381581312,-1.5178004987800466,-1.554314896665271,-0.9946910738945007,-0.08834948390722275,-0.05276388302445412,-0.4307436943054199,-0.417048841714859,-0.17203465104103088
4.300006866455078,-0.19831818342208862,-0.04338700324296951,0.009781301021575928,0.09135304732666837,-1.526606110510094,-1.5608917603651336,-0.9948580861091614,-0.09122604131698608,-0.043991632759571075,-0.17182935774326324,-0.44438105821609497,-0.16217532753944397
4.320064067840576,-0.34711551666259766,0.008198916912078857,-0.033701300621032715,0.09366294156518522,-1.5327119724520926,-1.562354629880874,-0.9948949813842773,-0.09352605789899826,-0.03790825977921486,-0.008537877351045609,-0.18379810452461243,-0.05655647814273834
4.33997106552124,-0.333435595035553,-0.07246772199869156,0.0001799464225769043,0.09373085605431562,-1.535618866925134,-1.5631202784744327,-0.994994580745697,-0.09359367191791534,-0.03501582518219948,-0.057694729417562485,-0.15933670103549957,0.016178550198674202
4.359982013702393,-0.28430843353271484,-0.0970015674829483,-0.013270493596792221,0.09385575086477083,-1.5394749141322792,-1.5637057569017736,-0.9951103925704956,-0.0937180146574974,-0.031178459525108337,-0.002666459884494543,-0.2218470424413681,-0.037234559655189514
4.379993915557861,-0.3479698896408081,-0.10227804630994797,0.005099538713693619,0.09471713745082345,-1.5437828395760145,-1.563206673981397,-0.9951543807983398,-0.09457557648420334,-0.026889130473136902,0.03445080295205116,-0.19885125756263733,-0.011748917400836945
4.399970054626465,-0.41323477029800415,-0.09688865393400192,-0.002978978678584099,0.09373928112225909,-1.5466434995762222,-1.5646734559771749,-0.9953192472457886,-0.09360206127166748,-0.024044448509812355,-0.1887086033821106,-0.08823243528604507,0.09656482189893723
4.420619964599609,-0.43647974729537964,-0.09034339338541031,-0.06124246120452881,0.0911640460999829,-1.5466700902651982,-1.5690640772358184,-0.9955574870109558,-0.0910378247499466,-0.024023717269301414,-0.24820037186145782,0.04248723015189171,0.14975756406784058
4.439976930618286,-0.43930768966674805,-0.08526139706373215,-0.157273530960083,0.08753406130978597,-1.5445096777074707,-1.574936901016921,-0.9958271384239197,-0.08742231875658035,-0.02618299052119255,-0.37865492701530457,0.11975271999835968,0.19738489389419556
4.459942817687988,-0.4722423553466797,-0.0463775172829628,-0.17033612728118896,0.08306672811766305,-1.5410437327056117,-1.5851251345814723,-0.9961109161376953,-0.0829712301492691,-0.029645632952451706,-0.6492971777915955,0.1261277049779892,0.23203438520431519
4.479970932006836,-0.4128631353378296,-0.04905314743518829,-0.14449411630630493,0.07764225928665301,-1.5385519620393084,-1.5995841277525509,-0.9964691400527954,-0.07756427675485611,-0.03214165195822716,-0.7672260999679565,0.0020882298704236746,0.25349846482276917
4.500001907348633,-0.34834980964660645,-0.015154063701629639,-0.14047855138778687,0.07374944933070822,-1.5383905628246377,-1.611882067351885,-0.9967582821846008,-0.07368261367082596,-0.032312024384737015,-0.37575167417526245,-0.01440836675465107,0.06346187740564346
4.519984006881714,-0.38736897706985474,-0.02875305712223053,-0.13502836227416992,0.07304222547734535,-1.5363075079352249,-1.613407518133145,-0.9967406392097473,-0.07297729700803757,-0.03439004346728325,0.15580494701862335,0.19565796852111816,0.06832858920097351
4.539968967437744,-0.36911022663116455,-0.00857505202293396,-0.047491610050201416,0.07110520251610028,-1.5315239004072383,-1.6080534286887538,-0.9967039823532104,-0.07104530185461044,-0.039163120090961456,0.361949622631073,0.3363257646560669,0.11864570528268814
4.559279918670654,-0.31038612127304077,-0.004160381853580475,0.018582642078399658,0.06901450418217991,-1.5246980982369154,-1.599917940663995,-0.9965596199035645,-0.06895972788333893,-0.045972201973199844,0.3646988868713379,0.39771148562431335,0.12454686313867569
4.579971790313721,-0.24645304679870605,-0.008666351437568665,0.027992308139801025,0.06783218875182304,-1.5160853512441328,-1.5938617294597714,-0.9962074160575867,-0.06778018176555634,-0.0545579269528389,0.27695801854133606,0.4927922487258911,0.03413453325629234
4.600052833557129,-0.23009270429611206,-0.04342286288738251,0.008676104247570038,0.06710112248827997,-1.5065573625775508,-1.5870357640909936,-0.99569171667099,-0.06705077737569809,-0.0640503317117691,0.4433497488498688,0.5125861167907715,0.08582068234682083
4.619970798492432,-0.17553073167800903,0.036799877882003784,0.04156727343797684,0.06602262205557534,-1.4960070115016777,-1.5760895328055835,-0.9950318336486816,-0.06597466766834259,-0.07455681264400482,0.6234164237976074,0.6131790280342102,0.07856658101081848
4.6399970054626465,-0.10844999551773071,0.0041825175285339355,0.10168487578630447,0.06644146938691406,-1.4847764716427099,-1.5629143176854081,-0.9941042065620422,-0.06639259308576584,-0.08572424203157425,0.6390454173088074,0.5874173045158386,0.014363225549459457
4.65996789932251,-0.09981918334960938,-0.03890044242143631,0.14498646557331085,0.06628113003764466,-1.4741996505326824,-1.5533923818487543,-0.9931524991989136,-0.0662326067686081,-0.09623473882675171,0.264547735452652,0.5421364307403564,0.07934428751468658
4.679969787597656,-0.09995335340499878,-0.006401754915714264,0.13825051486492157,0.06419897476347691,-1.4631530156281687,-1.552132665585944,-0.9921640157699585,-0.06415488570928574,-0.10721424221992493,-0.15724876523017883,0.5697071552276611,0.14828602969646454
4.700014114379883,-0.09006023406982422,-0.0041350387036800385,0.13592422008514404,0.06004898420663528,-1.4513565397814823,-1.5596140233557128,-0.991085946559906,-0.060012903064489365,-0.11894123256206512,-0.6305177807807922,0.5757474899291992,0.18079280853271484
4.719969987869263,-0.09636545181274414,-0.028131451457738876,0.18636101484298706,0.05423155198019583,-1.4385899226793417,-1.5735701144472913,-0.9898161292076111,-0.054204974323511124,-0.13162781298160553,-0.7210192680358887,0.6330623030662537,0.21440373361110687
4.739970922470093,-0.05288130044937134,0.05300132930278778,0.17838694155216217,0.048870370654385424,-1.4238566145945384,-1.5836714278655193,-0.9880426526069641,-0.04885092005133629,-0.14623670279979706,-0.3145054876804352,0.8098790049552917,0.17375853657722473
4.7599711418151855,0.022940635681152344,0.07955518364906311,0.16869115829467773,0.04534524933238925,-1.4066328802983772,-1.5858191001878232,-0.9855412840843201,-0.04532971233129501,-0.1632590889930725,-0.019070373848080635,0.8901242613792419,0.16394537687301636
4.779968976974487,0.07619011402130127,-0.010860033333301544,0.16616618633270264,0.04087864659776813,-1.3887501837923464,-1.5854024622947953,-0.9826536774635315,-0.040867261588573456,-0.1808910369873047,-0.07311683893203735,0.8681725263595581,0.30645811557769775
4.799973964691162,0.07646363973617554,-0.03407124802470207,0.18875467777252197,0.03267650015359139,-1.3724754812141686,-1.5887849008241197,-0.9798755049705505,-0.03267068415880203,-0.19691820442676544,-0.4119255244731903,0.7732582092285156,0.38944217562675476
4.81997013092041,0.023528635501861572,0.0055820029228925705,0.17015573382377625,0.024001660712689752,-1.356820784012202,-1.5966840164341813,-0.9769129157066345,-0.023999355733394623,-0.21228526532649994,-0.5005162954330444,0.797334611415863,0.31467872858047485
4.8399810791015625,-0.03475743532180786,0.026785247027873993,0.18163904547691345,0.01496024764688802,-1.3394664805908272,-1.6048370472348064,-0.9732535481452942,-0.014959689229726791,-0.22924651205539703,-0.5105835199356079,0.938944399356842,0.4049190878868103
4.859977960586548,-0.05903971195220947,-0.00289171957410872,0.254466712474823,0.0038984470340241665,-1.3186225839200103,-1.6130280537722888,-0.9683650135993958,-0.0038984371349215508,-0.24950765073299408,-0.5335445404052734,1.1325657367706299,0.4587037265300751
4.879970073699951,-0.04506319761276245,-0.05685072019696236,0.3247517943382263,-0.007030828436636314,-1.2957285351602679,-1.6190097497463816,-0.9623830914497375,0.007030770648270845,-0.2716054916381836,-0.3319196105003357,1.161326289176941,0.4497792422771454
4.9001030921936035,-0.020529091358184814,-0.01830846071243286,0.3303011953830719,-0.016233980872059635,-1.2717232959806215,-1.61973665987902,-0.9554842114448547,0.01623326726257801,-0.29459571838378906,0.0016437866725027561,1.2444957494735718,0.4033508002758026
4.919994831085205,0.019781947135925293,-0.017065074294805527,0.320865273475647,-0.02304856707129548,-1.2469304487727086,-1.6158514333796987,-0.9477604031562805,0.023046527057886124,-0.31814929842948914,0.1216122955083847,1.200447678565979,0.37298956513404846
4.939979076385498,0.07583016157150269,-0.06590129435062408,0.34815555810928345,-0.029345455957539623,-1.224527341908948,-1.6113567775426014,-0.9402405023574829,0.02934124507009983,-0.3392444849014282,0.0841129943728447,1.0194776058197021,0.3824301064014435
4.960014820098877,0.08920705318450928,-0.08247317373752594,0.38772672414779663,-0.035788918757036235,-1.206384447367608,-1.6074093064517423,-0.933735191822052,0.03578127920627594,-0.3561716079711914,0.12873226404190063,0.8082929253578186,0.32586944103240967
4.980251789093018,0.03607773780822754,-0.06782399117946625,0.3937254548072815,-0.03917801323992192,-1.1906778635990847,-1.600316922970702,-0.9279081225395203,0.039167992770671844,-0.37074577808380127,0.3965053856372833,0.767679750919342,0.2600640654563904
4.999972820281982,-0.022425711154937744,-0.06643344461917877,0.41485726833343506,-0.03937452781692447,-1.1748722127479676,-1.5897602272075784,-0.9219254851341248,0.03936435282230377,-0.38536205887794495,0.5274965763092041,0.7599526047706604,0.1439625769853592
5.01997184753418,-0.045489490032196045,-0.10825297236442566,0.42532795667648315,-0.037445673979542224,-1.1606240422248815,-1.5807275955307332,-0.9164091944694519,0.03743692487478256,-0.39848774671554565,0.32520297169685364,0.6279929280281067,0.03734131157398224
5.039941787719727,-0.056191205978393555,-0.12184810638427734,0.4373522996902466,-0.035460274674156876,-1.1492216916808737,-1.5783417266427957,-0.9118722081184387,0.035452842712402344,-0.40894052386283875,-0.028031229972839355,0.5223150253295898,-0.10978963226079941
5.059134006500244,-0.02825927734375,-0.1119750589132309,0.42874544858932495,-0.03536804750554789,-1.1391611597305102,-1.582766955437221,-0.9077149033546448,0.0353606753051281,-0.4180949330329895,-0.37340065836906433,0.506121039390564,-0.07030659168958664
5.079543113708496,0.0711362361907959,-0.09648188203573227,0.3916712701320648,-0.03837056055928874,-1.1306823611084569,-1.592529375203042,-0.9040371179580688,0.03836114704608917,-0.4257289469242096,-0.6052762866020203,0.3451276123523712,-0.06580302119255066
5.099975109100342,0.13607507944107056,-0.09256231784820557,0.3300124406814575,-0.043763420012502524,-1.1275009513270178,-1.6061677466105702,-0.9024781584739685,0.043749451637268066,-0.4285079538822174,-0.8755533695220947,0.02105419710278511,-0.07050705701112747
5.119969844818115,0.08236783742904663,-0.05524368956685066,0.15480774641036987,-0.05055024667872244,-1.1296853433178138,-1.62580852859032,-0.9031227231025696,0.050528720021247864,-0.42639896273612976,-1.2528139352798462,-0.11197894811630249,-0.12891371548175812
5.139979839324951,-0.01883554458618164,-0.016047809273004532,0.1504938006401062,-0.062001238443632915,-1.1346786562750126,-1.6551250015921517,-0.9046568274497986,0.061961524188518524,-0.42161205410957336,-1.8314419984817505,-0.1958017647266388,-0.0975005254149437
5.159997940063477,0.030640721321105957,-0.022458262741565704,0.07491195201873779,-0.07582986876537362,-1.1419089153316726,-1.6899736768457965,-0.9068155288696289,0.0757572203874588,-0.4146641492843628,-1.8641656637191772,-0.32329556345939636,-0.0977063849568367
5.180027008056641,0.11949509382247925,-0.023106053471565247,-0.031292885541915894,-0.08866714354254256,-1.1536267867414698,-1.7231997605921394,-0.9106479287147522,0.08855100721120834,-0.4035826623439789,-1.647668480873108,-0.5265747308731079,-0.0955929234623909
5.200102806091309,0.12768906354904175,0.02229911834001541,-0.17848825454711914,-0.09504668809536265,-1.166801158999435,-1.7463136259438539,-0.9153476357460022,0.09490364789962769,-0.39132073521614075,-0.6152377128601074,-0.5443981885910034,-0.23347915709018707
5.219970941543579,0.10807347297668457,0.2696830630302429,-0.3428783118724823,-0.08946025769144023,-1.1759591804734326,-1.747699332438407,-0.9193679690361023,0.08934097737073898,-0.3831196427345276,0.6732652187347412,-0.2985754609107971,-0.35373449325561523
5.2399749755859375,0.04249072074890137,0.36917945742607117,-0.37556013464927673,-0.07250392247142118,-1.1776725903330745,-1.730283196200257,-0.9212900400161743,0.07244041562080383,-0.38206925988197327,1.4541226625442505,-0.0229934211820364,-0.5038988590240479
5.260052919387817,0.03258901834487915,0.24078145623207092,-0.35485661029815674,-0.05373904575556056,-1.1749065184560004,-1.7067738569600606,-0.9213217496871948,0.05371318385004997,-0.38507258892059326,1.3181025981903076,0.144118070602417,-0.27895212173461914
5.279979944229126,0.09133565425872803,0.1514793187379837,-0.35180869698524475,-0.04352648416002631,-1.1710431000464978,-1.6879354041070183,-0.9202845692634583,0.0435127429664135,-0.38882240653038025,0.7986496090888977,0.13809596002101898,0.06552006304264069
5.300002098083496,0.08608216047286987,0.20361648499965668,-0.3947080671787262,-0.04328422101384848,-1.1669063342077393,-1.6756558731265097,-0.9186779260635376,0.04327070713043213,-0.3926302194595337,0.43876543641090393,0.2734701931476593,0.3802204430103302
5.320013999938965,0.015722274780273438,0.22620776295661926,-0.3931167721748352,-0.04923326407709813,-1.1576942647373734,-1.6626492045997938,-0.9147700667381287,0.04921337589621544,-0.4009658992290497,0.562441349029541,0.6058334708213806,0.6887909770011902
5.339980125427246,-0.03255510330200195,0.251749724149704,-0.3478972911834717,-0.05886166741519012,-1.1406369960473135,-1.6449448881673139,-0.9073252081871033,0.058827683329582214,-0.4162934124469757,0.6136859655380249,1.0154693126678467,0.8876020908355713
5.359906911849976,-0.021964192390441895,0.1805979311466217,-0.27750593423843384,-0.07117113234563675,-1.1165679380267464,-1.6275156017339187,-0.8963249325752258,0.07111106067895889,-0.43765828013420105,0.4020107090473175,1.2352142333984375,0.9850232601165771
5.379971981048584,0.07766985893249512,0.08896373957395554,-0.22686606645584106,-0.08798384162190685,-1.091590432185121,-1.613127828419183,-0.8839288949966431,0.08787036687135696,-0.45929116010665894,0.17103292047977448,1.128068208694458,1.1679730415344238
5.399971961975098,0.12428253889083862,0.11469382047653198,-0.2633829712867737,-0.10737517348849103,-1.068271801941057,-1.5971581334075782,-0.8713222742080688,0.10716896504163742,-0.4788656532764435,0.4122931957244873,1.091575264930725,1.285257339477539
5.420022964477539,0.09096634387969971,0.18980750441551208,-0.24409246444702148,-0.1230331816074119,-1.0421685825662088,-1.5712246727183141,-0.8569727540016174,0.12272302061319351,-0.5005365014076233,1.0646549463272095,1.2686232328414917,1.3735114336013794
5.439988136291504,0.05672246217727661,0.1759246587753296,-0.10289102792739868,-0.13503216420834918,-1.0086864633410553,-1.5336985124099018,-0.8384301662445068,0.13462218642234802,-0.5281209349632263,1.4306477308273315,1.5801092386245728,1.5998584032058716
5.459979057312012,0.06273341178894043,0.1099286824464798,-0.012471616268157959,-0.14813507850597465,-0.9706182447862988,-1.4926693106934763,-0.8161970973014832,0.1475939005613327,-0.5586038827896118,1.199540138244629,1.6097028255462646,1.701492190361023
5.4799439907073975,0.04666900634765625,0.00478169322013855,-0.003768324851989746,-0.16486364834069003,-0.9346685728456345,-1.4562485772618767,-0.7934951186180115,0.16411782801151276,-0.5860297083854675,0.7665811777114868,1.4248003959655762,1.7770086526870728
5.499939918518066,-0.02235281467437744,-0.03366243839263916,0.040483832359313965,-0.1863815115502117,-0.9012511835249404,-1.4233496971987607,-0.7705243229866028,0.18530429899692535,-0.6098808646202087,0.5575054287910461,1.3846814632415771,1.9074153900146484
5.519969940185547,-0.04957658052444458,0.002816334366798401,0.14019691944122314,-0.2092948715106256,-0.8668365892095158,-1.3887926605524024,-0.7456504106521606,0.2077702134847641,-0.6331169009208679,0.6304318904876709,1.3794450759887695,2.020587682723999
5.539971828460693,-0.039030492305755615,0.008573591709136963,0.21765059232711792,-0.23229466524246492,-0.8314175521950307,-1.3506149322885266,-0.7190412878990173,0.23021115362644196,-0.6557304263114929,0.6417753100395203,1.3424122333526611,2.173966407775879
5.55910587310791,-0.08976107835769653,-0.028856009244918823,0.2286820411682129,-0.2558823865638662,-0.7947053201970515,-1.3097273123481639,-0.6904208064079285,0.2530991733074188,-0.6776872277259827,0.6420482993125916,1.3415969610214233,2.2687838077545166
5.579970836639404,-0.10959869623184204,-0.034221500158309937,0.2252447009086609,-0.2778492489157937,-0.7576331368927174,-1.2666254869377018,-0.6608480215072632,0.27428802847862244,-0.6986029148101807,0.7149426341056824,1.2485840320587158,2.222620725631714
5.599995136260986,-0.08966261148452759,-0.0457572340965271,0.24513006210327148,-0.29512467157020505,-0.7212890314702918,-1.221603844888003,-0.6318034529685974,0.2908591330051422,-0.7184882760047913,0.9234343767166138,1.1061670780181885,2.1653988361358643
5.619970798492432,-0.07539743185043335,-0.02261441946029663,0.2637932300567627,-0.30890640578854817,-0.6858373643528992,-1.1739648635403628,-0.6033440232276917,0.30401697754859924,-0.7372581958770752,0.9428991675376892,1.0566740036010742,2.2300753593444824
5.640174865722656,-0.09240597486495972,-0.06659334897994995,0.3165208697319031,-0.3253065803768643,-0.6496100175829578,-1.1253240959167807,-0.5731518268585205,0.31959930062294006,-0.7545549869537354,0.559561550617218,1.0510860681533813,2.4408929347991943
5.6599719524383545,-0.030794858932495117,-0.1170797348022461,0.39276885986328125,-0.35111751118781004,-0.6136117999185944,-1.0779974341098446,-0.5406924486160278,0.3439473509788513,-0.767692506313324,0.003606975544244051,0.9509625434875488,2.6903038024902344
5.679980993270874,0.05710798501968384,-0.12095031142234802,0.361849844455719,-0.384505353300672,-0.5816680800790605,-1.0307127002669791,-0.5093021988868713,0.37510064244270325,-0.7745391130447388,-0.18622897565364838,0.5399348735809326,2.8044090270996094
5.699978828430176,0.03868040442466736,-0.0032667815685272217,0.29126495122909546,-0.4128439607601278,-0.555698022513252,-0.9800117730234965,-0.48321467638015747,0.40121597051620483,-0.7781577110290527,0.45926743745803833,0.14220201969146729,2.6492068767547607
5.71999979019165,-0.07420787215232849,0.1005355715751648,0.25730037689208984,-0.4248734369143086,-0.5304016426400747,-0.9218362498133694,-0.46090254187583923,0.4122054874897003,-0.7859106659889221,1.231493353843689,0.061461806297302246,2.543527364730835
5.739337921142578,-0.164420485496521,0.04921463131904602,0.25281059741973877,-0.42474566959833565,-0.502878830102919,-0.8589634497238715,-0.43912559747695923,0.4120890498161316,-0.7983428835868835,1.5283914804458618,0.08661802858114243,2.4501631259918213
5.759979963302612,-0.17581617832183838,-0.08832904696464539,0.14293426275253296,-0.42053045654786664,-0.47684234565249145,-0.7971731262593045,-0.41898661851882935,0.4082447588443756,-0.8110403418540955,1.4696333408355713,-0.03177208825945854,2.322174072265625
5.779982089996338,-0.2138877511024475,-0.1822110414505005,0.06419634819030762,-0.4163831087497507,-0.455925868418151,-0.7409795136146741,-0.4026741087436676,0.4044552445411682,-0.8211391568183899,1.1927556991577148,-0.13087621331214905,2.0494918823242188
5.799983978271484,-0.267869234085083,-0.18667477369308472,0.05814486742019653,-0.41410741680841445,-0.43970503903032954,-0.6961977838212586,-0.3896929621696472,0.40237295627593994,-0.828393280506134,0.7984495162963867,-0.03982815146446228,1.5221811532974243
5.820011138916016,-0.24550846219062805,-0.25983139872550964,0.05812966823577881,-0.41354736310678897,-0.4262150993755782,-0.6653517484037254,-0.37857598066329956,0.40186017751693726,-0.8337796926498413,0.45362988114356995,0.17509561777114868,1.0635795593261719
5.8399810791015625,-0.16373294591903687,-0.3566460907459259,0.0951797366142273,-0.41652955480337545,-0.4127836421635586,-0.643995297474627,-0.36686089634895325,0.4045891761779785,-0.8376876711845398,0.06687725335359573,0.25251930952072144,0.872123658657074
5.8600568771362305,-0.05592653155326843,-0.38386401534080505,0.13409215211868286,-0.42500092298298037,-0.4023516403011429,-0.6288916947013536,-0.3567473888397217,0.41232162714004517,-0.8382852673530579,-0.27253660559654236,0.15165285766124725,0.7200614809989929
5.879971981048584,0.005834311246871948,-0.3708837926387787,0.1460322141647339,-0.4356510124912294,-0.3976658476509991,-0.619392150113772,-0.3510948717594147,0.4220007061958313,-0.8358515501022339,-0.3259417414665222,-0.11043290048837662,0.5035051107406616
5.899983882904053,-0.029195040464401245,-0.3207477927207947,0.11579900979995728,-0.443597930746169,-0.3991900671905647,-0.6127630889185666,-0.351053923368454,0.4291919469833374,-0.8321991562843323,-0.12679798901081085,-0.25747615098953247,0.37222567200660706
5.919980049133301,-0.12156397104263306,-0.2521404027938843,0.06219571828842163,-0.44562191129219914,-0.399771681865916,-0.606187683524394,-0.35119906067848206,0.431019127368927,-0.8311929106712341,0.14793309569358826,-0.07077949494123459,0.23553724586963654
5.939978122711182,-0.10686984658241272,-0.25525784492492676,-0.012864291667938232,-0.4424334761321057,-0.39876479171202756,-0.6018809772913094,-0.3508937954902649,0.42813989520072937,-0.8328083753585815,0.28590860962867737,-0.08076386153697968,-0.012048023752868176
5.960062026977539,-0.04121306538581848,-0.2475661337375641,-0.08198463916778564,-0.4359414265922202,-0.4031461905573112,-0.6025992914486984,-0.35562223196029663,0.4222639799118042,-0.8338021039962769,0.23962725698947906,-0.3177686035633087,-0.29609373211860657
5.979971885681152,-0.04704636335372925,-0.21374613046646118,-0.06679385900497437,-0.4300842402019171,-0.41365536361990835,-0.6103246777861007,-0.36535289883613586,0.4169473648071289,-0.8322692513465881,-0.009309129789471626,-0.38567855954170227,-0.5874563455581665
5.999971866607666,-0.04878532886505127,-0.289554238319397,0.024274766445159912,-0.4287275089930219,-0.4280138659522618,-0.626275239340289,-0.37749943137168884,0.4157138168811798,-0.8274516463279724,-0.5032227039337158,-0.3977409303188324,-0.7586390972137451
6.019970893859863,-0.01412653923034668,-0.3369201421737671,0.09665459394454956,-0.436714269487609,-0.4465372929090474,-0.6497858428172125,-0.39131471514701843,0.4229643940925598,-0.8172966837882996,-1.0912494659423828,-0.4859981834888458,-0.8619242310523987
6.039987087249756,0.019366085529327393,-0.30325445532798767,0.04295504093170166,-0.4501386300844312,-0.47139517058355546,-0.6808851983418106,-0.408892422914505,0.4350903630256653,-0.8021866083145142,-1.2838494777679443,-0.6771208047866821,-1.0666941404342651
6.064746856689453,-0.04943501949310303,-0.17788165807724,-0.06707042455673218,-0.46733694322604813,-0.529567259705164,-0.7524621769676836,-0.450992226600647,0.4505103826522827,-0.7704845666885376,-0.9399576187133789,-0.5086981654167175,-1.3150014877319336
6.079971790313721,-0.04943501949310303,-0.17788165807724,-0.06707042455673218,-0.46733694322604813,-0.529567259705164,-0.7524621769676836,-0.450992226600647,0.4505103826522827,-0.7704845666885376,-0.9399576187133789,-0.5086981654167175,-1.3150014877319336
6.100098133087158,0.04158264398574829,-0.21351322531700134,0.02980506420135498,-0.46790362720290374,-0.5574607326430294,-0.789198769917517,-0.472170352935791,0.45101621747016907,-0.7573899626731873,-0.8250267505645752,-0.7081925272941589,-1.5011814832687378
6.120098114013672,0.12713861465454102,-0.18597522377967834,0.04639655351638794,-0.4640311435086275,-0.5945058095637066,-0.830051190526606,-0.5008720755577087,0.44755661487579346,-0.7408241033554077,-0.8878476619720459,-1.1303391456604004,-1.7584577798843384
6.143869876861572,0.05287069082260132,-0.1605527698993683,0.05651652812957764,-0.4588662022898382,-0.6390185789205205,-0.876579912530719,-0.5347126722335815,0.4429318904876709,-0.7196483016014099,-1.1175765991210938,-1.2184869050979614,-1.9526066780090332
6.159743785858154,-0.007802307605743408,-0.1605147421360016,0.06035202741622925,-0.4547433349323788,-0.6863500348284804,-0.929748901187828,-0.5693156123161316,0.4392317533493042,-0.6949498653411865,-1.5444223880767822,-1.1744152307510376,-2.0599048137664795
6.179985046386719,0.008174717426300049,-0.1764739453792572,0.10899114608764648,-0.45460580225601793,-0.737124562180641,-0.9917214400910057,-0.6038930416107178,0.4391081929206848,-0.6652045845985413,-2.103346347808838,-1.2166625261306763,-2.1744558811187744
6.199944972991943,0.05797189474105835,-0.1918807327747345,0.18641448020935059,-0.4584426611645404,-0.7948600169730665,-1.0645450455750032,-0.6400641202926636,0.4425521194934845,-0.6280649304389954,-2.7119064331054688,-1.3753581047058105,-2.289689302444458
6.21999192237854,0.07825493812561035,-0.1978226602077484,0.21767818927764893,-0.4617022757235004,-0.8629515867087411,-1.1475342950933374,-0.6802141070365906,0.445472776889801,-0.5821191072463989,-2.890239953994751,-1.7886483669281006,-2.524735927581787
6.2400829792022705,0.009511291980743408,0.014073550701141357,0.1041264533996582,-0.4552730316024892,-0.9390787847699197,-1.233385058550114,-0.7248127460479736,0.43970754742622375,-0.5303807258605957,-2.7314257621765137,-1.8975533246994019,-2.7644996643066406
6.259736061096191,-0.15841078758239746,0.07870811223983765,0.09242182970046997,-0.4368555383114935,-1.0084006285250215,-1.3165411568560363,-0.7665311694145203,0.42309239506721497,-0.48313841223716736,-2.472768783569336,-1.447307825088501,-2.989147186279297
6.280000925064087,-0.151120126247406,0.028916388750076294,0.14027193188667297,-0.4087636776714051,-1.068107406200332,-1.3966375600877616,-0.8040952086448669,0.39747515320777893,-0.44209080934524536,-2.465243101119995,-1.3129907846450806,-3.144806146621704
6.300053119659424,-0.07964569330215454,-0.07082685828208923,0.20759981870651245,-0.375453815343243,-1.126688673196061,-1.4781238914139687,-0.8400930762290955,0.36669477820396423,-0.3997232913970947,-2.7856497764587402,-1.453661561012268,-3.2607641220092773
6.319432973861694,-0.09054571390151978,-0.11660727858543396,0.25049877166748047,-0.33855280253680486,-1.1883058582559654,-1.564367248417282,-0.875076174736023,0.3321223855018616,-0.35204610228538513,-3.118269443511963,-1.7091740369796753,-3.386678695678711
6.339552879333496,-0.2191835641860962,0.037523239850997925,0.13196098804473877,-0.294903519447477,-1.251153655959642,-1.6500727532932844,-0.9083645939826965,0.2906475365161896,-0.30066221952438354,-2.969576358795166,-1.8078581094741821,-3.5473740100860596
6.359975814819336,-0.4872281551361084,0.2593672275543213,-0.007451772689819336,-0.24121025525837325,-1.3009072168244022,-1.7258214409842974,-0.9358980059623718,0.2388780117034912,-0.25890564918518066,-2.4432029724121094,-1.0756075382232666,-3.709747076034546
6.379985809326172,-0.5656677484512329,0.16187818348407745,0.03503116965293884,-0.18169498441818357,-1.3301229026240982,-1.7899759565491207,-0.9551910758018494,0.18069691956043243,-0.2344330996274948,-2.2860498428344727,-0.6277283430099487,-3.5765175819396973
6.399983882904053,-0.4812780022621155,0.036638304591178894,0.18614615499973297,-0.12720237712343913,-1.3529406213231012,-1.8553141630280776,-0.9684746861457825,0.1268596202135086,-0.21439024806022644,-2.8483591079711914,-0.6553356051445007,-3.224987506866455
6.420044898986816,-0.5151039958000183,0.12812049686908722,0.220220685005188,-0.08033995548236385,-1.3718522515574092,-1.9304598287098174,-0.9771140217781067,0.08025355637073517,-0.19699688255786896,-3.477940559387207,-0.4326823949813843,-2.910465717315674
6.439997911453247,-0.46709638833999634,0.2575058341026306,0.09095507860183716,-0.03994439340097848,-1.3822633209352435,-2.011813546932832,-0.9814966917037964,0.03993377089500427,-0.18726859986782074,-3.671886920928955,-0.13262209296226501,-2.6380562782287598
6.46000599861145,-0.32969701290130615,0.2591668665409088,-0.009599685668945312,-0.004001497938321714,-1.3853638941776314,-2.093272370270157,-0.9828487634658813,0.004001487046480179,-0.18437008559703827,-3.6950812339782715,-0.05078483745455742,-2.4167699813842773
6.479979991912842,-0.2429816722869873,0.24809324741363525,0.02671392261981964,0.027011921281612422,-1.3861068335084665,-2.174899590293451,-0.9826346635818481,-0.02700863592326641,-0.18357431888580322,-3.7567052841186523,-0.11753705888986588,-2.1106090545654297
6.499981880187988,-0.20805591344833374,0.2709106504917145,0.0076842159032821655,0.05083973717931847,-1.3853291717085714,-2.2536730132691476,-0.981580376625061,-0.05081783980131149,-0.18416744470596313,-3.4667954444885254,-0.08273930847644806,-1.6934447288513184
6.519196033477783,-0.10836923122406006,0.3338544964790344,-0.17734329402446747,0.0695978680556992,-1.3819404191599207,-2.3192220678680204,-0.9798417687416077,-0.06954169273376465,-0.1872807741165161,-2.5577878952026367,0.0028740400448441505,-1.3766565322875977
6.539999961853027,0.012641847133636475,0.36228787899017334,-0.2685360312461853,0.08700696214092163,-1.378643595701989,-2.364371299600858,-0.9778822064399719,-0.08689722418785095,-0.19025003910064697,-1.5646120309829712,-0.02243131771683693,-1.175857663154602
6.55999493598938,0.06805986166000366,0.369464248418808,-0.26398766040802,0.10502400109609013,-1.3768035357611563,-2.390316758161788,-0.9758357405662537,-0.1048310399055481,-0.19171611964702606,-0.6522892713546753,-0.03507618233561516,-1.06645667552948
6.579369068145752,0.06616264581680298,0.3697867691516876,-0.2380414456129074,0.12319564855228504,-1.3755881936653958,-2.399989937121971,-0.9735722541809082,-0.12288425862789154,-0.19250060617923737,0.01123562641441822,0.07189279049634933,-0.884666919708252
6.59998083114624,0.029992997646331787,0.33470118045806885,-0.20492768287658691,0.1400751423866261,-1.3718906526470385,-2.3981213617414485,-0.9706820249557495,-0.13961751759052277,-0.19566133618354797,0.47899937629699707,0.357124000787735,-0.7355709075927734
6.619135856628418,0.042893171310424805,0.31884318590164185,-0.1832902878522873,0.15622401789371274,-1.3636598703161344,-2.3879699526054505,-0.9667059183120728,-0.15558932721614838,-0.20315386354923248,0.7982335090637207,0.5665017366409302,-0.6569135189056396
6.639997959136963,0.06390237808227539,0.2811696529388428,-0.16478782892227173,0.17480444016385252,-1.354819158641642,-2.3687777505373058,-0.9618821144104004,-0.1739155650138855,-0.21103616058826447,1.6670418977737427,0.7268463373184204,-0.8371868133544922
6.660000801086426,0.024260520935058594,0.4146168529987335,-0.22309327125549316,0.20137548200050207,-1.34121942858353,-2.329051860017779,-0.9540853500366211,-0.20001721382141113,-0.2229669839143753,2.6439368724823,1.39627206325531,-0.8267082571983337
6.680010795593262,-0.028642892837524414,0.3597925901412964,-0.6575223803520203,0.22808271042929165,-1.323387681867173,-2.2782209705234022,-0.9444406032562256,-0.2261103093624115,-0.23855005204677582,2.5449137687683105,1.4049986600875854,-0.5381546020507812
6.699999809265137,-0.21798884868621826,0.38365137577056885,-0.5780378580093384,0.24117672063116846,-1.3008104888194183,-2.2433649403685485,-0.9358807802200317,-0.23884545266628265,-0.2589983642101288,0.8925888538360596,1.6483858823776245,0.13965259492397308
6.719990968704224,-0.3067256212234497,0.1923285871744156,-0.4805797338485718,0.23661396876748955,-1.2719110744286244,-2.2359874458664377,-0.9290379285812378,-0.234412282705307,-0.2862507700920105,0.09226936101913452,1.4788600206375122,0.4375343322753906
6.739959955215454,-0.24433010816574097,0.3527809977531433,-0.5549824237823486,0.22741686018818283,-1.242352376390874,-2.2232967829672505,-0.9221738576889038,-0.22546164691448212,-0.31426501274108887,0.9153895378112793,1.844323754310608,0.7367694973945618
6.759952068328857,-0.27940529584884644,0.2683981657028198,-0.34620389342308044,0.22198372083826814,-1.204453614194723,-2.1922669457315616,-0.9107345342636108,-0.22016510367393494,-0.3494139015674591,1.5710420608520508,2.600926399230957,0.9308529496192932
6.779955863952637,-0.053789377212524414,0.12234607338905334,-0.06647586822509766,0.21134881371581385,-1.1585243279586683,-2.157822452467237,-0.8958261013031006,-0.20977889001369476,-0.3917761445045471,1.0324347019195557,2.6567044258117676,1.2256296873092651
6.799996852874756,0.14215826988220215,0.03497038781642914,0.034221112728118896,0.19626208260201125,-1.11241592869229,-2.1354501920523163,-0.8795545101165771,-0.19500453770160675,-0.4340014159679413,0.3318532407283783,2.387991189956665,1.0563777685165405
6.820026874542236,0.21383416652679443,-0.04257895052433014,0.10490360856056213,0.17906427476448586,-1.0698647431844988,-2.123456015315864,-0.8631107807159424,-0.17810888588428497,-0.47256413102149963,0.10331149399280548,2.144587516784668,1.0199353694915771
6.839984893798828,0.2049940824508667,-0.035172224044799805,0.1570059061050415,0.1666168907334619,-1.0295376656899407,-2.1088982753481633,-0.8451917767524719,-0.165847048163414,-0.5080801248550415,0.5131794810295105,2.179516077041626,0.8213854432106018
6.8599770069122314,0.19514334201812744,-0.06723719835281372,0.2818256616592407,0.15789001225756422,-0.9886673416632686,-2.09027638208618,-0.8249040246009827,-0.1572348177433014,-0.5429646372795105,0.5111238956451416,2.181232213973999,0.9036877751350403
6.879997968673706,0.2359282374382019,-0.1596747785806656,0.3577655553817749,0.14878057205067677,-0.9489851015274512,-2.0723257726223165,-0.8038450479507446,-0.14823228120803833,-0.5760730504989624,0.5396169424057007,2.05706524848938,0.8014538288116455
6.900510787963867,0.28945446014404297,-0.0847499668598175,0.4034639000892639,0.14515988672253696,-0.9128680768918703,-2.052562690080455,-0.7829388976097107,-0.1446506381034851,-0.6050478219985962,0.8315637707710266,1.843237280845642,0.6534299254417419
6.919979095458984,0.3168375492095947,0.02460119128227234,0.4179527759552002,0.14953218678285415,-0.8814489819576042,-2.030429293503382,-0.7630501985549927,-0.14897555112838745,-0.6289361119270325,1.0741840600967407,1.5947651863098145,0.39635443687438965
6.939803123474121,0.31847357749938965,-0.08182087540626526,0.4438689947128296,0.15509778356471174,-0.857132983023526,-2.0113678060938645,-0.7468945980072021,-0.15447671711444855,-0.6467499136924744,0.6248068809509277,1.1332014799118042,0.4277634024620056
6.9599769115448,0.3109171986579895,-0.19018998742103577,0.5397642850875854,0.15140647077155986,-0.8411482632577121,-2.001106337641381,-0.7368814945220947,-0.15082865953445435,-0.6589812636375427,-0.1003323644399643,0.5740276575088501,0.49651527404785156
6.979977130889893,0.3158622980117798,-0.14016886055469513,0.5540850758552551,0.1417845535486027,-0.8376042107727422,-1.9998040203609968,-0.7355857491493225,-0.14130999147891998,-0.6625292897224426,-0.2788597643375397,-0.24416059255599976,0.2660180926322937
6.999337911605835,0.16672176122665405,0.007381156086921692,0.4948333501815796,0.14054911054288216,-0.8475717732920971,-1.9993181127789679,-0.7422832250595093,-0.140086829662323,-0.6552795767784119,0.14718332886695862,-0.5739527344703674,-0.0569540373980999
7.020019054412842,0.008772850036621094,0.12422473728656769,0.5040658712387085,0.14182000591858418,-0.8574426655406404,-1.9977927260466335,-0.7485799193382263,-0.1413450837135315,-0.6478037238121033,-0.02805972658097744,-0.4351682960987091,0.061013754457235336
7.040102005004883,0.18587231636047363,0.049931153655052185,0.46631646156311035,0.13618235486085126,-0.8681159956820935,-2.001642099864475,-0.7560474276542664,-0.1357618123292923,-0.6402819156646729,-0.6792508959770203,-0.7479053139686584,0.13286320865154266
7.059978008270264,0.343090295791626,-0.0023457109928131104,0.4476524591445923,0.12408633719219218,-0.8859095822595042,-2.0124126433022296,-0.7685357928276062,-0.123768150806427,-0.6277214884757996,-0.7800019383430481,-1.1752851009368896,0.08891282975673676
7.079190969467163,0.2937021255493164,0.0390532910823822,0.5522353649139404,0.11369994991805861,-0.9130394441309795,-2.0209098494912516,-0.7862557768821716,-0.11345513164997101,-0.6073958873748779,-0.4977032244205475,-1.6304378509521484,0.207374706864357
7.099977970123291,0.15567326545715332,0.06756429374217987,0.4742087125778198,0.1062467096620756,-0.9463632976030162,-2.0228099631285827,-0.8067198991775513,-0.10604692995548248,-0.5813406705856323,-0.08472790569067001,-1.6480555534362793,0.27188050746917725
7.119987964630127,0.05756425857543945,0.16711881756782532,0.3088434934616089,0.10662123226528353,-0.9761027569082469,-2.015738482828661,-0.8236165046691895,-0.10641933232545853,-0.5570734739303589,0.673833966255188,-1.251220703125,0.07628514617681503
7.140064001083374,0.11434376239776611,0.179990753531456,0.3056034445762634,0.11481311230589467,-1.0039941573090674,-2.000959971823554,-0.8380680680274963,-0.1145610362291336,-0.5334019660949707,0.9264640212059021,-1.5029038190841675,0.08053253591060638
7.1600329875946045,0.13439631462097168,0.09193103015422821,0.304678738117218,0.12220319609224196,-1.0401749737187314,-1.985672707610947,-0.8560606837272644,-0.12189926952123642,-0.5022953152656555,0.6748828291893005,-1.8770158290863037,0.10109154134988785
7.180562973022461,0.030387043952941895,0.024775885045528412,0.3003113865852356,0.12091070643087495,-1.0796557593326692,-1.97876045029871,-0.8753576874732971,-0.12061631679534912,-0.46818864345550537,-0.163174107670784,-2.033503770828247,0.3807421624660492
7.2000439167022705,0.04198145866394043,0.0815264955163002,0.10087299346923828,0.12008390243301273,-1.121134280025877,-1.9753287180337447,-0.8941085338592529,-0.11979550868272781,-0.43153104186058044,0.6865271329879761,-1.8317384719848633,-0.25578391551971436
7.220089912414551,0.028773486614227295,0.26450246572494507,0.144203782081604,0.13402871872246194,-1.1539100528715813,-1.9576733885726012,-0.9061538577079773,-0.13362780213356018,-0.4012839198112488,1.259398102760315,-1.3418294191360474,-0.2051733285188675
7.240077972412109,0.06359416246414185,0.2228795439004898,0.26003068685531616,0.14730076607195547,-1.1839436842567443,-1.938644977787186,-0.9160721898078918,-0.14676867425441742,-0.3731899559497833,0.9107518792152405,-1.4822014570236206,-0.3001205623149872
7.260010004043579,0.06776511669158936,0.12944386899471283,0.3745605945587158,0.15685010116506085,-1.2170783825768494,-1.9317066782254555,-0.9265754818916321,-0.15620775520801544,-0.3421357572078705,0.06809817254543304,-1.7360053062438965,-0.34256839752197266
7.279770851135254,0.05439358949661255,-0.07172888517379761,0.3712421953678131,0.15941415279007887,-1.2538281298149665,-1.939954031522939,-0.9381367564201355,-0.1587398201227188,-0.3077351450920105,-0.706875741481781,-2.1510589122772217,-0.10600755363702774
7.30005407333374,-0.04797720909118652,0.0714237242937088,0.3077164888381958,0.15772441359769448,-1.3003957925239056,-1.9539979493351,-0.9517022967338562,-0.1570712774991989,-0.26380178332328796,-0.5043461918830872,-2.6993043422698975,-0.20758271217346191
7.320080995559692,-0.3077956438064575,0.15593747794628143,0.1480427384376526,0.16343901903120814,-1.3562628352726365,-1.9559629305514306,-0.9640548825263977,-0.16271235048770905,-0.21005454659461975,0.4244205355644226,-2.8636085987091064,-0.3608385920524597
7.340073108673096,-0.49430912733078003,0.17550083994865417,0.12909211218357086,0.17172007245768864,-1.411146618449952,-1.9465145325644122,-0.9727622866630554,-0.1708773821592331,-0.15663424134254456,0.5670474171638489,-2.449681282043457,-0.31726861000061035
7.360266923904419,-0.6201390624046326,0.07827393710613251,-0.061138689517974854,0.18182850085028945,-1.4594633618499548,-1.9355044188029016,-0.9774256348609924,-0.18082822859287262,-0.10927154123783112,0.6668148636817932,-2.2038376331329346,-0.5078957080841064
7.384095907211304,-0.5897635221481323,-0.0004184246063232422,-0.3738654851913452,0.19913730363731186,-1.534808979072786,-1.9230967692460657,-0.9796029329299927,-0.19782376289367676,-0.03526853770017624,-0.501061201095581,-1.5878965854644775,-0.2334812879562378
7.4051618576049805,-0.47625845670700073,-0.03314968943595886,-0.25810539722442627,0.20295135442152476,-1.5651754482540112,-1.9445717679049892,-0.9794605374336243,-0.20156098902225494,-0.005505486391484737,-1.5282610654830933,-1.916733741760254,-0.1878279447555542
7.42775297164917,-0.6541100144386292,-0.02672886848449707,-0.3102983236312866,0.206158386522083,-1.595767771858102,-1.9819366485924643,-0.9785193204879761,-0.20470115542411804,0.02444012090563774,-2.0964128971099854,-1.737993836402893,-0.06991719454526901
7.447623014450073,-0.9801552295684814,-0.03160363435745239,-0.37508058547973633,0.20574571135672345,-1.6119165785659495,-2.028245438371998,-0.978081464767456,-0.20429719984531403,0.04024164006114006,-2.4143056869506836,-0.788602352142334,0.2989465892314911
7.468657970428467,-0.9256535768508911,-0.1035114973783493,-0.21156930923461914,0.198930131809586,-1.6103188399791217,-2.078058126540556,-0.9795129895210266,-0.1976206749677658,0.03873298317193985,-2.372901678085327,-0.2194211781024933,0.5439944267272949
7.487842082977295,-0.5575914978981018,-0.10105651617050171,-0.10757458209991455,0.18936456642215288,-1.6059627025883707,-2.121527901179755,-0.9815168976783752,-0.1882348656654358,0.034530624747276306,-1.7531523704528809,-0.1516013741493225,0.5430711507797241
7.507645130157471,-0.4127751588821411,-0.06185460090637207,-0.24515223503112793,0.17946361073992023,-1.6023491119846787,-2.146967914155829,-0.9834499359130859,-0.17850182950496674,0.031040886417031288,-0.7269120812416077,0.04451984167098999,0.5372612476348877
7.527638912200928,-0.4645625948905945,-0.05752882361412048,-0.42058050632476807,0.1698336529533773,-1.5967177794107017,-2.1552556207350175,-0.9852818846702576,-0.16901840269565582,0.02554565854370594,-0.19082102179527283,0.39109936356544495,0.4239703118801117
7.548171043395996,-0.5523486733436584,-0.264207661151886,-0.5950864553451538,0.16346017660356202,-1.5856522316270059,-2.159679129117067,-0.9865612387657166,-0.16273322701454163,0.0146573381498456,-0.25165802240371704,0.606105387210846,0.19116167724132538
7.568203926086426,-0.43402642011642456,-0.31900709867477417,-0.6245461702346802,0.16173859788665515,-1.5718052354265584,-2.1660726014372482,-0.9869481921195984,-0.16103436052799225,0.000995740876533091,-0.38141462206840515,0.6419820189476013,0.024924781173467636
7.57919979095459,-0.43402642011642456,-0.31900709867477417,-0.6245461702346802,0.16173859788665515,-1.5718052354265584,-2.1660726014372482,-0.9869481921195984,-0.16103436052799225,0.000995740876533091,-0.38141462206840515,0.6419820189476013,0.024924781173467636
7.60700798034668,-0.5515543818473816,-0.2553473711013794,-0.6141693592071533,0.16249626772237416,-1.5325358916929885,-2.191808974403891,-0.9861042499542236,-0.16178208589553833,-0.03774720057845116,-0.9300689697265625,1.2575383186340332,-0.07573456317186356
7.62853479385376,-0.5575563907623291,-0.28738218545913696,-0.6457270979881287,0.16051072170095007,-1.5012025923182621,-2.215849714132386,-0.9847561120986938,-0.15982238948345184,-0.0686437115073204,-1.5005412101745605,1.4048528671264648,0.15343095362186432
7.648236989974976,-0.4868561029434204,-0.2427368462085724,-0.6026728749275208,0.15451418767373565,-1.4695158592386692,-2.247723879191766,-0.9830229878425598,-0.15390008687973022,-0.09990285336971283,-1.492667555809021,1.3773330450057983,0.13863421976566315
7.659271955490112,-0.4868561029434204,-0.2427368462085724,-0.6026728749275208,0.15451418767373565,-1.4695158592386692,-2.247723879191766,-0.9830229878425598,-0.15390008687973022,-0.09990285336971283,-1.492667555809021,1.3773330450057983,0.13863421976566315
7.6878180503845215,-0.9545971155166626,-0.1476919949054718,-0.4156314730644226,0.1371768541570464,-1.368886436895158,-2.290096826199175,-0.9704822301864624,-0.13674703240394592,-0.19865691661834717,-1.0436980724334717,3.2921934127807617,0.5034353733062744
7.7075958251953125,-0.7862236499786377,-0.08119329810142517,-0.5142769813537598,0.1202836272171464,-1.2986565465922468,-2.3103415530097826,-0.9562383890151978,-0.11999379098415375,-0.26685091853141785,-1.3137755393981934,3.4416065216064453,0.6702545881271362
7.727755069732666,-0.8218613266944885,-0.07063786685466766,-0.5428681969642639,0.09811381237338503,-1.2261037917520554,-2.3298420246501452,-0.9366530776023865,-0.09795647859573364,-0.33628225326538086,-1.0430409908294678,3.704586982727051,0.8309050798416138
7.747610092163086,-0.83085036277771,0.04023275524377823,-0.38311007618904114,0.0779397843439681,-1.147648944693391,-2.332438547405375,-0.9090330004692078,-0.07786089926958084,-0.40938568115234375,0.05726616829633713,4.110079765319824,0.9489076733589172
7.767550945281982,-0.7953749895095825,0.10637249052524567,-0.13383346796035767,0.062376027338280245,-1.0639794989139442,-2.3163860749753136,-0.8725937008857727,-0.06233558803796768,-0.4844526946544647,0.5660513043403625,4.371348857879639,1.215307593345642
7.789249897003174,-0.7682744264602661,-0.009076643735170364,0.13012444972991943,0.04515313885793347,-0.9771094654648521,-2.291943418233829,-0.8280389904975891,-0.04513779655098915,-0.5588506460189819,0.5620067119598389,4.468822956085205,1.525423288345337
7.808126926422119,-0.7049608826637268,0.010338254272937775,0.21119004487991333,0.02442452215189322,-0.8890231948948142,-2.2644010336131557,-0.7762249708175659,-0.024422094225883484,-0.6299828290939331,0.4062109887599945,4.45258092880249,1.7808212041854858
7.827633857727051,-0.6658967733383179,0.10957785695791245,0.22730988264083862,0.0020491380682310075,-0.8014516675690933,-2.23323384729598,-0.7183651924133301,-0.0020491366740316153,-0.6956631541252136,0.5374643206596375,4.353361129760742,1.9311941862106323
7.846611022949219,-0.5808538198471069,0.09032342582941055,0.2257862091064453,-0.011514007024620534,-0.7159394066369106,-2.192876373716471,-0.6562829613685608,0.011513752862811089,-0.7544270157814026,1.2620419263839722,4.214395046234131,1.942483901977539
7.866495132446289,-0.5502749681472778,0.08720547705888748,0.37857282161712646,-0.011885395825672083,-0.6302590025914081,-2.1445513267315857,-0.5893123745918274,0.011885115876793861,-0.807817816734314,1.6266071796417236,4.327327728271484,1.8804298639297485
7.887257099151611,-0.4793570637702942,0.03624745458364487,0.5704514384269714,-0.006294116282474463,-0.5433319692402115,-2.0971936279436028,-0.516980767250061,0.006294074933975935,-0.8559738993644714,1.4219410419464111,4.280430793762207,1.7511368989944458
7.907158851623535,-0.39183399081230164,0.08645882457494736,0.5779430866241455,-0.0018132930728023673,-0.460361534745988,-2.056277266162178,-0.4442712962627411,0.0018132920376956463,-0.895890474319458,1.0017342567443848,4.033254623413086,1.6357908248901367
7.927556991577148,-0.3397417664527893,0.056415773928165436,0.5032108426094055,0.0038187125079707177,-0.38299575532540875,-2.0164424370885183,-0.3736981153488159,-0.003818703116849065,-0.927542507648468,1.2399203777313232,3.719862461090088,1.799338459968567
7.948493003845215,-0.3093760013580322,0.07389593124389648,0.5963162779808044,0.018995926669287053,-0.31128253927064764,-1.9729094759034205,-0.306224524974823,-0.018994783982634544,-0.9517697691917419,1.6897467374801636,3.4783918857574463,1.7390259504318237
7.967072010040283,-0.25109055638313293,0.16217954456806183,0.5653639435768127,0.047619279350332874,-0.2463288105606761,-1.931635841420097,-0.24356882274150848,-0.04760128632187843,-0.9687147736549377,2.107771158218384,3.2039873600006104,1.4471017122268677
7.986958026885986,-0.30463409423828125,0.1935945451259613,0.5300735235214233,0.08110406071465372,-0.18517138795324975,-1.8960306873150057,-0.18350978195667267,-0.08101517707109451,-0.9796737432479858,1.8941937685012817,3.2339861392974854,1.3535447120666504
8.007142066955566,-0.32077088952064514,0.030244216322898865,0.7429180145263672,0.10919642946790753,-0.12345209619184294,-1.8633187327678074,-0.12240534275770187,-0.10897955298423767,-0.9864788055419922,1.3185971975326538,3.2623560428619385,1.4691340923309326
8.027341842651367,-0.14844785630702972,-0.14851531386375427,0.8740232586860657,0.12468037604841876,-0.06403719200935483,-1.830541426412247,-0.06349668651819229,-0.12435759603977203,-0.9902036786079407,0.5386853814125061,2.992964267730713,1.587565541267395
8.048181056976318,0.02776818722486496,-0.18842396140098572,0.7343797087669373,0.13045771953303983,-0.014463816795585976,-1.799607440372911,-0.014340410009026527,-0.1300879865884781,-0.9913987517356873,0.4112241864204407,2.408728837966919,1.4396642446517944
8.066818952560425,0.01643550768494606,0.10000009834766388,0.4818187355995178,0.14799455534549974,0.027292742857219065,-1.7722152001985123,0.026991048827767372,-0.1474549025297165,-0.9887004494667053,1.3856524229049683,2.236104965209961,1.3368192911148071
8.086580991744995,-0.12041997164487839,0.2691398859024048,0.37699252367019653,0.1856400765941674,0.06970162673509027,-1.7473239572615205,0.06844858080148697,-0.1845756471157074,-0.980431854724884,2.13259220123291,2.4457314014434814,1.297603726387024
8.10661792755127,-0.12555986642837524,0.08712621033191681,0.45472556352615356,0.2297832197837126,0.11541508554257987,-1.7235173367748087,0.11213216185569763,-0.22776643931865692,-0.9672377109527588,1.9741915464401245,2.5693352222442627,1.477822184562683
8.128150939941406,0.004910767078399658,-0.04455342888832092,0.6030789017677307,0.2706275111277787,0.15746799442569934,-1.6969706751262819,0.15111038088798523,-0.2673361599445343,-0.9516811370849609,1.8022770881652832,2.242520332336426,1.5958025455474854
