timestamp,acceleration_x,acceleration_y,acceleration_z,attitude_pitch,attitude_roll,attitude_yaw,gravity_x,gravity_y,gravity_z,rotation_x,rotation_y,rotation_z
0.0,0.2647470235824585,0.0863916277885437,-0.23204711079597473,-0.640940857414089,-1.012150392302995,-1.8113440986989657,-0.679679274559021,0.5979498624801636,-0.42484360933303833,-0.9413968920707703,0.0692024677991867,-0.3876625597476959
0.020006895065307617,0.23790687322616577,0.08367985486984253,-0.2459457516670227,-0.6443093255955955,-1.0236046689012992,-1.8328720326354317,-0.682776927947998,0.6006463766098022,-0.41598036885261536,-0.7165026664733887,0.08670706301927567,-0.23904772102832794
0.03998589515686035,0.21823006868362427,0.08950996398925781,-0.2469463050365448,-0.6474413934792072,-1.0308531624310617,-1.848087556642844,-0.6841571927070618,0.603147566318512,-0.41005122661590576,-0.4684384763240814,0.10015682876110077,-0.12667609751224518
0.05927681922912598,0.19061678647994995,0.08208626508712769,-0.2383013367652893,-0.6495382270513349,-1.033749670225243,-1.8568628481763365,-0.6842539310455322,0.6048187017440796,-0.40741994976997375,-0.26384225487709045,0.13656853139400482,-0.06114647164940834
0.08011412620544434,0.1777268648147583,0.035723090171813965,-0.23250031471252441,-0.6510999297913607,-1.0345559385693504,-1.862047428375468,-0.6837693452835083,0.6060616970062256,-0.40638506412506104,-0.1791083961725235,0.0709431916475296,-0.013155425898730755
0.1000211238861084,0.15725916624069214,-0.006550610065460205,-0.245439350605011,-0.6527785721528683,-1.0362503765577493,-1.865035229969348,-0.6835806369781494,0.6073960661888123,-0.40470704436302185,-0.12378927320241928,-0.05558296665549278,0.037802159786224365
0.12001395225524902,0.12048071622848511,-0.008366703987121582,-0.24513131380081177,-0.6551243625288405,-1.0392480359568184,-1.8669809367068833,-0.6835605502128601,0.6092578768730164,-0.4019327461719513,-0.10571927577257156,-0.1307040899991989,0.10124132037162781
0.13999700546264648,0.11538904905319214,-0.0217553973197937,-0.2947651147842407,-0.658697699711189,-1.0415590702428,-1.8639911352073522,-0.6826040744781494,0.6120875477790833,-0.39925023913383484,0.09312360733747482,-0.26516467332839966,0.303372323513031
0.15952396392822266,0.05321013927459717,-0.030375540256500244,-0.28170889616012573,-0.66283227166883,-1.0432712279626126,-1.8582129805499072,-0.6810941696166992,0.6153518557548523,-0.3968035876750946,0.08809547126293182,-0.22483226656913757,0.2550034821033478
0.17946195602416992,0.01129603385925293,-0.05183529853820801,-0.25536131858825684,-0.6657854936089214,-1.0431639168251383,-1.8537826366962489,-0.6794784665107727,0.6176770329475403,-0.3959599733352661,0.029292510822415352,-0.011819329112768173,0.1873546838760376
0.1999969482421875,0.022398412227630615,-0.07682108879089355,-0.2435479760169983,-0.6686888218440887,-1.0414415554750063,-1.8541270681188764,-0.6772446632385254,0.6199577450752258,-0.39622238278388977,-0.16896511614322662,0.1877061277627945,0.08981005847454071
0.21991991996765137,0.04330354928970337,-0.05182617902755737,-0.25000831484794617,-0.6728365915682469,-1.0372786064332387,-1.8559316721101746,-0.6733694672584534,0.6232068538665771,-0.3977271020412445,-0.2330346256494522,0.1870088130235672,0.18467874825000763
0.23998594284057617,0.03287619352340698,-0.03601902723312378,-0.21026313304901123,-0.6789794182368563,-1.0394217393585252,-1.86085200047122,-0.6709073185920715,0.6279991269111633,-0.3943358063697815,-0.44801199436187744,-0.11302237957715988,0.14326712489128113
0.25971388816833496,-0.0001233220100402832,-0.015200197696685791,-0.21369856595993042,-0.6857944876746443,-1.044979765599631,-1.867289447373067,-0.6693713665008545,0.6332880854606628,-0.38844361901283264,-0.2176133096218109,0.07089437544345856,0.1904045045375824
0.28002381324768066,-0.024232447147369385,0.07827991247177124,-0.18268591165542603,-0.6884331087129436,-1.04277375366367,-1.865912560440231,-0.6670669913291931,0.635327935218811,-0.3890760540962219,0.14936627447605133,-0.024803925305604935,0.08494734019041061
0.29996299743652344,-0.05701547861099243,0.16540509462356567,-0.1798914074897766,-0.6854958040513424,-1.0395386763097827,-1.8585581336210664,-0.6674108505249023,0.6330568790435791,-0.39217573404312134,0.49806755781173706,-0.08099857717752457,-0.038207393139600754
0.3199608325958252,-0.10317277908325195,0.19005894660949707,-0.12901243567466736,-0.6783668169622148,-1.0311708862999274,-1.84464091758922,-0.6679606437683105,0.6275222897529602,-0.4000553786754608,0.7965893745422363,0.06501632928848267,-0.0029938574880361557
0.3400228023529053,-0.09402531385421753,0.1423426866531372,-0.017904162406921387,-0.6701265228172449,-1.016505662964969,-1.8270538033082524,-0.6663964986801147,0.6210851669311523,-0.41251564025878906,0.7107768058776855,0.22765521705150604,0.007322576828300953
0.3599240779876709,-0.043126463890075684,0.06038844585418701,0.06791436672210693,-0.6648603877116226,-1.0042880376124046,-1.8158745183408174,-0.6640574336051941,0.6169492602348328,-0.4223759174346924,0.2790570557117462,0.2690012454986572,0.03531618043780327
0.3862769603729248,0.06456774473190308,0.020768463611602783,0.11963120102882385,-0.6700191607660615,-0.994762098980486,-1.8125902033275592,-0.6573259234428406,0.6210010051727295,-0.4269430637359619,-0.14653456211090088,0.011930740438401699,0.22594548761844635
0.3999500274658203,0.06456774473190308,0.020768463611602783,0.11963120102882385,-0.6700191607660615,-0.994762098980486,-1.8125902033275592,-0.6573259234428406,0.6210010051727295,-0.4269430637359619,-0.14653456211090088,0.011930740438401699,0.22594548761844635
0.4200098514556885,0.0570949912071228,0.027306556701660156,0.1129438579082489,-0.6742803398672361,-0.9951241404399636,-1.8104400866676786,-0.6552547812461853,0.6243352890014648,-0.42526060342788696,0.07511021196842194,-0.18067342042922974,0.23077119886875153
0.4401228427886963,0.02347433567047119,0.03721827268600464,0.1269080638885498,-0.6755786681357033,-0.9951684040778258,-1.8030664404559278,-0.6545931696891785,0.6253489851951599,-0.42479002475738525,0.34039393067359924,-0.27410030364990234,0.18806608021259308
0.4599621295928955,-0.026766061782836914,0.03700911998748779,0.14838996529579163,-0.6734433041927159,-0.9938119937269462,-1.7921664850963668,-0.6551339626312256,0.6236812472343445,-0.4264049232006073,0.46464598178863525,-0.24483579397201538,0.08915950357913971
0.4799690246582031,-0.04649925231933594,0.03173255920410156,0.17981261014938354,-0.6690550321876932,-0.990286009883479,-1.7813131553454942,-0.6559085845947266,0.6202450394630432,-0.4302091896533966,0.46150463819503784,-0.07817474007606506,0.03181016445159912
0.5000629425048828,-0.0006089210510253906,0.02240067720413208,0.1986793875694275,-0.6650652734153721,-0.9863447861908009,-1.7737549298305877,-0.6562667489051819,0.6171104907989502,-0.43415290117263794,0.2523932456970215,-0.016493087634444237,-0.0317835658788681
0.5199639797210693,0.06465232372283936,-0.022327899932861328,0.19484049081802368,-0.6629985042706047,-0.9849895381409248,-1.7704581019864367,-0.6567391157150269,0.6154828667640686,-0.43574613332748413,0.07765345275402069,-0.07244708389043808,0.02673736959695816
0.5396969318389893,0.08142054080963135,-0.04340982437133789,0.19852617383003235,-0.6636108282700485,-0.986796730752138,-1.7702410445148409,-0.6572109460830688,0.6159653663635254,-0.4343506395816803,-0.09929349273443222,-0.11633242666721344,0.002626031171530485
0.5592978000640869,0.10291516780853271,-0.05423158407211304,0.19827890396118164,-0.6646615305526279,-0.9919883697427782,-1.774359474542719,-0.6589149832725525,0.6167927384376526,-0.4305785596370697,-0.21195672452449799,-0.1484609842300415,-0.0833190381526947
0.5799829959869385,0.15568548440933228,-0.06601321697235107,0.20280402898788452,-0.6658274398961066,-0.9997254073127282,-1.780975572283765,-0.6616212129592896,0.6177100539207458,-0.42507871985435486,-0.27836573123931885,-0.23193883895874023,-0.09134987741708755
0.5999658107757568,0.16609936952590942,-0.055606722831726074,0.18805673718452454,-0.6664873298815137,-1.0092042290020806,-1.7871799651406797,-0.6652753949165344,0.6182288527488708,-0.4185710847377777,-0.12678778171539307,-0.3217918574810028,-0.11447689682245255
0.6199619770050049,0.11638128757476807,-0.0035163164138793945,0.1563546359539032,-0.6639506422621873,-1.0167008667464081,-1.78837462082147,-0.6697260141372681,0.6162330508232117,-0.41439589858055115,0.17657051980495453,-0.3412265181541443,-0.17953793704509735
0.639962911605835,0.09408783912658691,0.02231454849243164,0.15522617101669312,-0.6566892668880947,-1.0218026309720016,-1.7855579038139897,-0.6756308674812317,0.6104980707168579,-0.4132979214191437,0.33621272444725037,-0.35933351516723633,-0.30737555027008057
0.659963846206665,0.12472957372665405,0.01242738962173462,0.18612635135650635,-0.6486794517512747,-1.0293785242494056,-1.7845794508771105,-0.6829113960266113,0.6041346192359924,-0.4106745719909668,0.08891534805297852,-0.46460428833961487,-0.3416188657283783
0.6800680160522461,0.10333245992660522,-0.014501333236694336,0.18134111166000366,-0.6437637219482578,-1.0435562835104535,-1.7912116424948612,-0.6912232041358948,0.6002100706100464,-0.4024408757686615,-0.29716938734054565,-0.5526626706123352,-0.3513868451118469
0.6999638080596924,0.04580414295196533,0.0012317895889282227,0.18461394309997559,-0.6414747698537896,-1.0629236359909295,-1.8054836323110772,-0.7000858187675476,0.5983777046203613,-0.38964617252349854,-0.5519824028015137,-0.5010017156600952,-0.4266110360622406
0.7199599742889404,0.002328038215637207,0.06059849262237549,0.15504658222198486,-0.6387226764591298,-1.0824407363839748,-1.823818292502415,-0.7090083956718445,0.5961704254150391,-0.3766803741455078,-0.5741637945175171,-0.3605901002883911,-0.534828245639801
0.7399709224700928,0.012752115726470947,0.10005241632461548,0.10432517528533936,-0.6328881214150056,-1.099562642332141,-1.841566249131935,-0.7184406518936157,0.5914759635925293,-0.3660590648651123,-0.4316912293434143,-0.31229573488235474,-0.6296133995056152
0.7599618434906006,0.04802483320236206,0.06322091817855835,0.09098371863365173,-0.625090667775356,-1.1150839376153554,-1.85741217839192,-0.7281548380851746,0.5851708054542542,-0.3568832278251648,-0.3960493505001068,-0.3111962676048279,-0.6329624056816101
0.7799608707427979,0.0744408369064331,-0.007423877716064453,0.09672033786773682,-0.6180106557369198,-1.1311991725666388,-1.8740927136427619,-0.7375420928001404,0.5794149041175842,-0.34685754776000977,-0.5275564193725586,-0.3095342814922333,-0.6026146411895752
0.800102949142456,0.08521223068237305,-0.0536959171295166,0.07959979772567749,-0.6118549894487813,-1.1473919765121776,-1.893312675802775,-0.7462993264198303,0.5743868947029114,-0.33632880449295044,-0.64424067735672,-0.21124012768268585,-0.6321070194244385
0.8202860355377197,0.11351621150970459,-0.08618694543838501,0.02740994095802307,-0.6036085077413367,-1.1630739737272708,-1.9138679809443448,-0.7558044195175171,0.5676169991493225,-0.32645153999328613,-0.5208132863044739,-0.18646250665187836,-0.8076635599136353
0.8402400016784668,0.14052528142929077,-0.10064142942428589,0.01131466031074524,-0.5907708904104491,-1.1765723220474864,-1.9318267955534802,-0.7668071985244751,0.5570014119148254,-0.3189927637577057,-0.40309929847717285,-0.15649555623531342,-0.9729813933372498
0.8600161075592041,0.14783382415771484,-0.1290016770362854,0.026361137628555298,-0.5738639973797723,-1.1897599498904505,-1.9512942702878393,-0.7795782685279846,0.5428811311721802,-0.31231069564819336,-0.4543028771877289,-0.10411703586578369,-1.2044504880905151
0.8800499439239502,0.23202872276306152,-0.15167474746704102,0.042870670557022095,-0.5544328039399121,-1.2028969204525062,-1.9726336914416587,-0.7933080196380615,0.5264611840248108,-0.30577942728996277,-0.5453081727027893,-0.052216820418834686,-1.2321358919143677
0.9001758098602295,0.3821648359298706,-0.14190387725830078,0.01827743649482727,-0.5366480827892799,-1.2159034549614671,-1.9942814784386502,-0.8058708906173706,0.5112581253051758,-0.29864227771759033,-0.5255827903747559,-0.18208914995193481,-1.0832453966140747
0.9192330837249756,0.5059792399406433,-0.09469825029373169,-0.03121018409729004,-0.5206614521572144,-1.2319856371331306,-2.0113883870916784,-0.8181741237640381,0.49745404720306396,-0.2883239984512329,-0.3012637794017792,-0.6038209199905396,-0.9385607838630676
0.9399549961090088,0.5071212649345398,-0.05812251567840576,-0.09667831659317017,-0.5043954075809413,-1.2540088052057907,-2.0209423803379325,-0.8319046497344971,0.48327821493148804,-0.2727215588092804,0.06277569383382797,-1.1205466985702515,-0.9027113914489746
0.9600040912628174,0.37167298793792725,-0.07960116863250732,-0.18233296275138855,-0.48488471751158213,-1.2795604204023119,-2.020753181616944,-0.8474725484848022,0.4661063551902771,-0.2540377378463745,0.5287021398544312,-1.3924126625061035,-0.9901643395423889
0.980065107345581,0.2820563316345215,-0.055903851985931396,-0.14276272058486938,-0.4604451287688392,-1.3033069550533531,-2.013442875724202,-0.8639960885047913,0.44434693455696106,-0.23678424954414368,0.7344199419021606,-1.2642093896865845,-1.1339789628982544
1.0000178813934326,0.3302699327468872,-0.0866142213344574,-0.10589289665222168,-0.436174814066861,-1.322162452437883,-2.003563160084418,-0.8785030245780945,0.42247551679611206,-0.22304069995880127,0.703178882598877,-1.066494107246399,-0.9521903395652771
1.0199449062347412,0.33397042751312256,-0.09914514422416687,-0.11366522312164307,-0.4169705288384957,-1.3375348109923169,-1.9930545112509628,-0.8895582556724548,0.40499240159988403,-0.21134687960147858,0.7802006602287292,-0.9178733229637146,-0.7242037057876587
1.048671007156372,0.09378814697265625,-0.0037331581115722656,-0.19000157713890076,-0.37755325419188157,-1.3544038216825434,-1.9498574130853714,-0.907890260219574,0.36864715814590454,-0.1995856612920761,1.4367684125900269,-0.6692020893096924,-0.8330705761909485
1.05912184715271,0.09378814697265625,-0.0037331581115722656,-0.19000157713890076,-0.37755325419188157,-1.3544038216825434,-1.9498574130853714,-0.907890260219574,0.36864715814590454,-0.1995856612920761,1.4367684125900269,-0.6692020893096924,-0.8330705761909485
1.086064100265503,0.25293195247650146,-0.12106585502624512,-0.034380167722702026,-0.3433809806101979,-1.3529897361333094,-1.9174775156431618,-0.9193747639656067,0.3366726040840149,-0.20347368717193604,0.3711555600166321,0.023856375366449356,-0.31007125973701477
1.1038410663604736,0.27071231603622437,-0.03104385733604431,-0.09104382991790771,-0.33893334188071333,-1.3515741060898143,-1.911752443693852,-0.9205384254455566,0.3324812948703766,-0.20509861409664154,0.3413592576980591,-0.06051274389028549,-0.07928665727376938
1.1238439083099365,0.1298614740371704,0.06435325741767883,-0.06610631942749023,-0.3350861666693537,-1.348242699512943,-1.9018491682389769,-0.9210907816886902,0.32885053753852844,-0.20844493806362152,0.6768956780433655,0.11425862461328506,-0.10962498933076859
1.1471610069274902,0.024079620838165283,0.03627178072929382,0.0010038167238235474,-0.32834584238312076,-1.3377618568957206,-1.886113849386977,-0.9209912419319153,0.32247766852378845,-0.2185940146446228,0.925570011138916,0.38930848240852356,-0.20279811322689056
1.1666028499603271,0.018125593662261963,0.035639822483062744,-0.009535729885101318,-0.31962838704524676,-1.3235592375204364,-1.8654078619251935,-0.9204846620559692,0.3142137825489044,-0.23233120143413544,1.1847920417785645,0.352116197347641,-0.16486011445522308
1.1870920658111572,0.020069777965545654,0.06003114581108093,0.1012139618396759,-0.3097673536754166,-1.3087067291164447,-1.8422245840448284,-0.9198805093765259,0.30483707785606384,-0.24676738679409027,1.166351318359375,0.4195704162120819,-0.26185160875320435
1.2098639011383057,-0.0367891788482666,-0.02796018123626709,0.2260620892047882,-0.2969697454521492,-1.2943523485115653,-1.8223601681606858,-0.9199216365814209,0.29262393712997437,-0.26098930835723877,1.0415118932724,0.4357573986053467,-0.5043584108352661
1.2280209064483643,-0.12837719917297363,-0.18474560976028442,0.28318271040916443,-0.2775597229543347,-1.2801715608623627,-1.8056670175768395,-0.9213969707489014,0.2740095853805542,-0.2755836844444275,1.0854464769363403,0.5180078148841858,-0.9357984066009521
1.2479288578033447,-0.20472675561904907,-0.29362738132476807,0.20401573181152344,-0.2501937650338021,-1.268748802476269,-1.7937385383827347,-0.9250035285949707,0.24759168922901154,-0.2882136404514313,0.7659686207771301,0.14350803196430206,-1.37730073928833
1.269407033920288,-0.296333909034729,-0.2012380212545395,0.16027018427848816,-0.21722462308401186,-1.2723271328356172,-1.7920908486297624,-0.9333261251449585,0.21552030742168427,-0.2871468961238861,0.2752321660518646,-0.41960909962654114,-1.628796935081482
1.2891449928283691,-0.46133071184158325,-0.03704068064689636,0.4014444649219513,-0.18696226389716633,-1.2809670106021374,-1.8038307778362415,-0.9415928721427917,0.18587495386600494,-0.28080832958221436,-0.44900065660476685,-0.1100233942270279,-1.601789116859436
1.307420015335083,-0.52269446849823,0.055881068110466,0.4091394543647766,-0.15982540186334188,-1.2826179299767064,-1.8218497320728761,-0.9465438723564148,0.15914583206176758,-0.28058403730392456,-0.22605779767036438,0.24582871794700623,-1.4361556768417358
1.328387975692749,-0.4492860436439514,0.195185586810112,0.23867928981781006,-0.13453511900584827,-1.2796994180239116,-1.8237759008106356,-0.9492735862731934,0.13412964344024658,-0.2844097316265106,0.8218052983283997,0.08181839436292648,-1.1758745908737183
1.3490269184112549,-0.5899253487586975,0.21323645114898682,0.2138553261756897,-0.1037833593534758,-1.2750617502116488,-1.8054971685191452,-0.9514412879943848,0.10359714925289154,-0.28987449407577515,1.6661378145217896,0.1485411524772644,-1.2014176845550537
1.368149995803833,-0.7094623446464539,0.07075955718755722,0.2888208329677582,-0.07451210656668213,-1.2668589733564577,-1.7791744899292095,-0.9515180587768555,0.07444317638874054,-0.29844900965690613,1.3887385129928589,0.519498348236084,-0.7285396456718445
1.387732982635498,-0.7414625883102417,-0.03153263404965401,0.34716057777404785,-0.0614939302435128,-1.2506507322845384,-1.7664746663145732,-0.9473955631256104,0.06145518273115158,-0.3141099512577057,0.46010473370552063,1.0984530448913574,-0.041474271565675735
1.408743143081665,-0.6958697438240051,-0.10863544046878815,0.4032273292541504,-0.07134251719744392,-1.2220188741305502,-1.7647516354964181,-0.9374006390571594,0.07128201425075531,-0.34087979793548584,-0.6570841670036316,1.7334688901901245,0.7840050458908081
1.4262211322784424,-0.8199678659439087,-0.28632989525794983,0.4882817566394806,-0.09187906798467027,-1.1841722608965564,-1.774019524248345,-0.9222806692123413,0.09174985438585281,-0.37547338008880615,-0.6565853953361511,1.9573771953582764,0.8606356978416443
1.447437047958374,-0.589505672454834,-0.4114034175872803,0.24229827523231506,-0.11879022495176594,-1.1554435749145597,-1.7851523123398425,-0.9085260033607483,0.11851104348897934,-0.40066906809806824,-1.3463813066482544,0.6560682654380798,1.0108481645584106
1.4673888683319092,-0.44382548332214355,-0.4338299036026001,0.06310904026031494,-0.15007567856887483,-1.1622551122123124,-1.7980243133561344,-0.9073862433433533,0.14951296150684357,-0.39280563592910767,-0.9912652969360352,-1.0383515357971191,1.4336806535720825
1.4869987964630127,-0.6314463019371033,-0.31197914481163025,0.1992369294166565,-0.18640898962364516,-1.1834508621429394,-1.7978602656550842,-0.9098745584487915,0.1853312999010086,-0.37118810415267944,-0.33964860439300537,-0.6630776524543762,1.9329257011413574
1.507098913192749,-1.0152668952941895,-0.2146746814250946,0.15693610906600952,-0.2271673686431296,-1.1762870019254557,-1.7822953612206023,-0.8994671702384949,0.22521857917308807,-0.37448054552078247,0.05139856040477753,0.7905548810958862,2.3359813690185547
1.5269429683685303,-0.8956425189971924,-0.1651802659034729,-0.134754478931427,-0.2724508762495616,-1.15801269914469,-1.7655372498619943,-0.8822202086448669,0.26909270882606506,-0.3863636553287506,-0.4352855086326599,0.5472999811172485,2.5527379512786865
1.5457870960235596,-0.9012094736099243,-0.18010744452476501,-0.11471980810165405,-0.3265833550282812,-1.1469432043317818,-1.7543423599968229,-0.863332211971283,0.32080885767936707,-0.3895372748374939,-0.7556561827659607,0.3977062404155731,2.7898483276367188
1.5667750835418701,-1.0304762125015259,-0.1905524730682373,0.08277332782745361,-0.3854677661780445,-1.135604339888002,-1.7490933358192333,-0.8402513861656189,0.37599262595176697,-0.3906497657299042,-1.2075554132461548,0.44344547390937805,2.7035698890686035
1.5887019634246826,-0.9088805317878723,-0.1552196741104126,0.04477590322494507,-0.4446787599872771,-1.1280340666964008,-1.7490997883831911,-0.8156983852386475,0.43016791343688965,-0.3867710530757904,-1.2540005445480347,0.2495487928390503,2.622976779937744
1.6087400913238525,-0.822760283946991,-0.06463873386383057,-0.015206724405288696,-0.49787193116193107,-1.126130202242237,-1.7478167911633316,-0.7931607365608215,0.47755688428878784,-0.37793585658073425,-0.9435055255889893,-0.07934945821762085,2.3034470081329346
1.6226840019226074,-0.7623915672302246,0.0013915300369262695,0.010307222604751587,-0.543943211841417,-1.123019008625874,-1.7402552727169223,-0.7713150978088379,0.5175141096115112,-0.37047550082206726,-0.5222760438919067,-0.00021194224245846272,2.081437110900879
1.647063970565796,-0.692732572555542,0.057405173778533936,-0.047749072313308716,-0.5806130569870475,-1.1196577037880167,-1.728713688381706,-0.7524731159210205,0.5485366582870483,-0.36454322934150696,-0.2707980275154114,-0.22407478094100952,1.7053760290145874
1.666815996170044,-0.576697051525116,0.03733879327774048,-0.022743791341781616,-0.6128796070719141,-1.1223128761654795,-1.7221637842732702,-0.7370999455451965,0.5752253532409668,-0.35468217730522156,-0.6370648145675659,-0.47671499848365784,1.4150090217590332
1.6866040229797363,-0.4502550959587097,0.022208869457244873,0.026153504848480225,-0.6465931822707922,-1.1369072613695903,-1.7302121862794,-0.7241833806037903,0.6024708151817322,-0.33554062247276306,-1.3400282859802246,-0.4729074239730835,1.3777875900268555
1.706446886062622,-0.3984529376029968,0.13302791118621826,-0.03909692168235779,-0.680378936110792,-1.1562279808954563,-1.7463437505830992,-0.7114866375923157,0.6290876269340515,-0.31310632824897766,-1.134781002998352,-0.485580176115036,1.1625957489013672
1.7262380123138428,-0.2952176332473755,0.312346875667572,-0.025978028774261475,-0.7067743115937352,-1.1740652525294217,-1.7584027049685804,-0.7013949155807495,0.6493841409683228,-0.29384610056877136,-0.9037560224533081,-0.5547741651535034,0.9592068195343018
1.7468698024749756,-0.2479335069656372,0.2888945937156677,-0.04264196753501892,-0.7329534811001908,-1.1945479279297986,-1.7719220339144028,-0.6912145018577576,0.6690675616264343,-0.27307751774787903,-1.1196813583374023,-0.5446433424949646,1.2000812292099
1.7667269706726074,-0.24458587169647217,0.45348477363586426,-0.049341678619384766,-0.7667004247200863,-1.2201239910753852,-1.7940915858149464,-0.6763736009597778,0.6937626600265503,-0.2474111020565033,-1.5660966634750366,-0.5172737240791321,1.3937007188796997
1.7860100269317627,-0.13244521617889404,0.3900343179702759,-0.013472199440002441,-0.8042377166288446,-1.2528358492728526,-1.8249643896332006,-0.6588909029960632,0.7203021049499512,-0.21685907244682312,-1.696641206741333,-0.4794823229312897,1.4361807107925415
1.8060870170593262,-0.017253518104553223,0.24086636304855347,0.10514897108078003,-0.8406095586428043,-1.2915895043143255,-1.866935444817313,-0.641178548336029,0.7450498342514038,-0.18382316827774048,-1.9871079921722412,-0.46105217933654785,1.0853790044784546
1.826653003692627,0.059781551361083984,0.08500951528549194,0.047918856143951416,-0.8674425734167455,-1.3345393083158028,-1.9145819732469005,-0.6288123726844788,0.7626773715019226,-0.15138857066631317,-1.903745412826538,-0.2822501063346863,0.656719446182251
1.8478400707244873,0.33401376008987427,-0.16576987504959106,0.10207150876522064,-0.8818644663194964,-1.3856315425988037,-1.9729321962102953,-0.624846339225769,0.7719255089759827,-0.11704021692276001,-2.0634138584136963,-0.25236332416534424,0.06983351707458496
1.8623700141906738,0.5730461478233337,-0.3410285711288452,0.09569662809371948,-0.8846955340032948,-1.4431928671304741,-2.0427342035518667,-0.6283745169639587,0.7737221121788025,-0.08062081784009933,-2.358487367630005,-0.16634073853492737,-0.5296204686164856
1.8852818012237549,0.7509875297546387,-0.3090746998786926,-0.007966157048940659,-0.8745427215590595,-1.5051095778646786,-2.1187805725406443,-0.6399645805358887,0.7672502994537354,-0.042097754776477814,-2.3919057846069336,-0.13963037729263306,-0.8557599782943726
1.9058010578155518,0.8540359735488892,-0.14000731706619263,-0.14211910963058472,-0.8587509276638392,-1.5637885848481008,-2.191282294597596,-0.6533675789833069,0.7570270299911499,-0.004578706342726946,-2.2044568061828613,-0.14854104816913605,-0.8356637954711914
1.9259159564971924,0.8743922114372253,0.00968170166015625,-0.2708033323287964,-0.8416607362636588,-1.6169946009263954,-2.256392093379115,-0.6655147075653076,0.7457505464553833,0.030767522752285004,-2.041718006134033,-0.2581329047679901,-0.7676801085472107
1.9454138278961182,0.8708091974258423,0.09164261817932129,-0.36728405952453613,-0.8265257346711407,-1.6603905030913304,-2.309668449147437,-0.6747185587882996,0.7355822324752808,0.06061312556266785,-1.6457555294036865,-0.09079413115978241,-0.4737783968448639
1.9657680988311768,0.8985183238983154,-0.014637291431427002,-0.40992844104766846,-0.817696805324585,-1.692404292745038,-2.3532502624041114,-0.6788527965545654,0.729572594165802,0.08296328037977219,-1.405566930770874,0.013517806306481361,-0.0907573401927948
1.985821008682251,0.9440265893936157,-0.11084222793579102,-0.43862056732177734,-0.817337310945134,-1.719488697051199,-2.3905342075249023,-0.6766162514686584,0.7293267250061035,0.10135575383901596,-1.1492680311203003,-0.0428868792951107,0.38547900319099426
2.0050480365753174,0.9371697902679443,-0.2279362678527832,-0.42535197734832764,-0.8260734851845937,-1.7442945934752556,-2.4218569433153845,-0.6675927639007568,0.7352758049964905,0.11700253933668137,-0.7793411612510681,-0.1328047811985016,0.8191299438476562
2.025620937347412,0.9287741780281067,-0.3980902433395386,-0.4011702537536621,-0.8424336689921338,-1.7659188947117328,-2.4456420422620786,-0.6530172824859619,0.7462652921676636,0.12906047701835632,-0.4422380030155182,-0.26020359992980957,1.0074108839035034
2.0449631214141846,0.9060057401657104,-0.5511310696601868,-0.4174414873123169,-0.8605135490420223,-1.778294639488949,-2.4548575094745986,-0.6380613446235657,0.7581775188446045,0.13433009386062622,0.19102409482002258,-0.16586455702781677,1.0059034824371338
2.0661909580230713,0.9185518622398376,-0.6487342119216919,-0.381522536277771,-0.8818533899220543,-1.7727162733949375,-2.4464038327053634,-0.6228060722351074,0.7719184160232544,0.12749440968036652,0.7449177503585815,0.04983045160770416,0.8666694760322571
2.085942029953003,0.9565361738204956,-0.6649208068847656,-0.32361674308776855,-0.8995619281870001,-1.7548938137318253,-2.4229267639506196,-0.6114435195922852,0.783054530620575,0.11385437101125717,0.9825408458709717,-0.1114407330751419,0.6541317105293274
2.1058881282806396,0.8989126682281494,-0.36509978771209717,-0.3471825122833252,-0.9164228353492792,-1.7341713021219067,-2.3919840922004503,-0.6005576252937317,0.793429434299469,0.09899845719337463,1.182984709739685,-0.2295846790075302,0.7225174903869629
2.1256959438323975,0.7484011054039001,0.03673410415649414,-0.387602299451828,-0.9347277714479997,-1.7049201433563406,-2.350930953873077,-0.5887027382850647,0.8044373989105225,0.07943595945835114,1.5402343273162842,-0.08828960359096527,0.6742536425590515
2.144408941268921,0.7472718954086304,-0.0003650188446044922,-0.23584866523742676,-0.9495522931859641,-1.6612218881427716,-2.2976803965881074,-0.5796693563461304,0.8131549954414368,0.052560266107320786,1.7233457565307617,0.07375442981719971,0.40220803022384644
2.16497802734375,0.8702720999717712,-0.1987895965576172,-0.09082329273223877,-0.9542064192165888,-1.6146719462781245,-2.2376433129506417,-0.5777000784873962,0.815855085849762,0.025363227352499962,1.7945096492767334,-0.4448080360889435,-0.21638835966587067
2.1866390705108643,0.812311053276062,-0.2205272912979126,0.09194111824035645,-0.9460624979192859,-1.5739415497659124,-2.16991638760959,-0.5848788022994995,0.8111188411712646,0.0018395803635939956,2.215740203857422,-0.8625254034996033,-0.6310710310935974
2.2068140506744385,0.46276599168777466,-0.25800180435180664,0.13455355167388916,-0.9253296524283195,-1.5306559974684955,-2.093209356120614,-0.6010869145393372,0.7988191246986389,-0.024140791967511177,2.224971294403076,-1.0103896856307983,-1.500808596611023
2.227200984954834,0.1376475691795349,-0.354095995426178,0.20196044445037842,-0.8845360427643265,-1.4935242380977929,-2.0248546400943166,-0.6317576169967651,0.7736210823059082,-0.048914626240730286,2.284864902496338,-0.6750340461730957,-2.3012568950653076
2.2461678981781006,-0.03975415229797363,-0.26392149925231934,0.09818588942289352,-0.8251359655202151,-1.4626609240722301,-1.9611929684197118,-0.6744945645332336,0.7346400618553162,-0.07322236895561218,2.4322218894958496,-1.1655734777450562,-3.2130320072174072
2.2647430896759033,-0.2179163694381714,-0.1811504364013672,0.020329542458057404,-0.747625203759816,-1.452426991454578,-1.8999915994500154,-0.7281743288040161,0.6798992156982422,-0.08659833669662476,2.8382701873779297,-2.1168878078460693,-3.986558198928833
2.2838380336761475,-0.740504801273346,-0.29899799823760986,0.11442966014146805,-0.6583960787204697,-1.4504330924048006,-1.8328905278177872,-0.7852519750595093,0.6118489503860474,-0.09497455507516861,3.2771239280700684,-2.117154598236084,-4.377871036529541
2.304875135421753,-1.6926004886627197,-0.47956907749176025,-0.02767086774110794,-0.5492165555534797,-1.4666047724850297,-1.770733308426853,-0.8483083844184875,0.5220191478729248,-0.0887078046798706,2.894228458404541,-2.9961836338043213,-5.79040002822876
2.3245320320129395,-2.199211835861206,-0.2487957775592804,0.03445601463317871,-0.4299335359939588,-1.5066935844926814,-1.729419753272362,-0.9071266651153564,0.41681039333343506,-0.05822908505797386,1.612321376800537,-2.7602314949035645,-5.857509136199951
2.3446528911590576,-2.315115451812744,0.5062332153320312,0.2368643879890442,-0.31279210348526776,-1.5370620713823502,-1.7116623535083972,-0.9509368538856506,0.3077164590358734,-0.03209131956100464,0.6328333020210266,-0.901330292224884,-5.339602947235107
2.3643879890441895,-1.238455057144165,1.0129073858261108,0.07899141311645508,-0.23389408989795837,-1.5417298414079774,-1.71619753715457,-0.972360372543335,0.23176732659339905,-0.028271062299609184,-1.1568082571029663,0.4707225263118744,-2.3687822818756104
2.3842761516571045,-0.010537803173065186,1.1994343996047974,0.5463507175445557,-0.23124042418459398,-1.5375627773839262,-1.7602587057542605,-0.9728454947471619,0.2291851043701172,-0.03234301880002022,-2.2644827365875244,1.2020299434661865,2.5096311569213867
2.4042251110076904,0.10544931888580322,-0.4126761853694916,0.34001243114471436,-0.31737639626831177,-1.5216293708575497,-1.7935594427813897,-0.9489094614982605,0.31207504868507385,-0.0466926209628582,-1.4479175806045532,0.8348069190979004,4.195977687835693
2.424152135848999,-0.9023109078407288,-0.05265742540359497,0.08390135318040848,-0.36292518453374323,-1.510866194929214,-1.796877974672003,-0.933184027671814,0.35501039028167725,-0.055992890149354935,1.417527437210083,0.4539811313152313,0.7515368461608887
2.4441230297088623,-0.3155794143676758,-0.564021110534668,0.241408109664917,-0.36373699627257294,-1.4835335222629311,-1.7505143792878142,-0.9310178756713867,0.35576921701431274,-0.08145008236169815,2.0989248752593994,0.6149314641952515,-0.062356237322092056
2.4640660285949707,0.12140929698944092,-1.1575002670288086,0.3811314105987549,-0.35962993636193363,-1.4688024026689457,-1.7252339395342005,-0.9311628341674805,0.35192787647247314,-0.09530365467071533,0.09322641789913177,-0.01459558680653572,-0.21099728345870972
2.483940839767456,0.0517888069152832,-0.4460885226726532,0.2694227695465088,-0.352644323091934,-1.4748184084607197,-1.7443100042530593,-0.9341436624526978,0.34538060426712036,-0.08993348479270935,-1.5361188650131226,0.14496175944805145,-0.5959361791610718
2.5038340091705322,0.10118353366851807,-0.07853731513023376,0.04720127582550049,-0.34360543025813944,-1.482384314586262,-1.7804734552482773,-0.9378687739372253,0.3368839621543884,-0.08313558995723724,-1.5810383558273315,0.3369753956794739,-0.5003965497016907
2.523803949356079,0.2007107138633728,-0.014767259359359741,-0.008299298584461212,-0.3414632796527172,-1.4853013153872219,-1.8117334214297005,-0.9388242959976196,0.3348662555217743,-0.08046092838048935,-1.357596516609192,0.44808489084243774,0.021629981696605682
2.5429399013519287,0.032317161560058594,0.028409212827682495,-0.01071310043334961,-0.3470619722195424,-1.4829659219163898,-1.8373575046224888,-0.9367514252662659,0.34013643860816956,-0.08248747140169144,-1.1299911737442017,0.6615473628044128,0.29591017961502075
2.5637049674987793,-0.163621187210083,0.0665096640586853,0.001117117702960968,-0.3564738696311379,-1.4732369789563686,-1.856381851815168,-0.9326769709587097,0.348971962928772,-0.09128113836050034,-0.7421135902404785,0.9656609892845154,0.5546069145202637
2.583881139755249,-0.19271224737167358,-0.025943994522094727,0.08808009326457977,-0.3717590920815149,-1.4570152230573086,-1.870493232610563,-0.9256656169891357,0.36325493454933167,-0.10578013211488724,-0.8108245134353638,1.2208256721496582,0.8013636469841003
2.603670835494995,-0.20604819059371948,-0.06874746084213257,0.16824615001678467,-0.3899077532908989,-1.4379987403485988,-1.8907015469421715,-0.916800320148468,0.38010308146476746,-0.12246964126825333,-1.313082218170166,1.3969208002090454,0.7517318725585938
2.6236629486083984,-0.1554940938949585,-0.10983330011367798,0.15196192264556885,-0.40941410214103297,-1.4228014854001545,-1.922062250976851,-0.9073264002799988,0.39807191491127014,-0.13526864349842072,-1.8217706680297852,1.3311023712158203,0.8156236410140991
2.6425130367279053,-0.11991149187088013,-0.10899114608764648,0.12098866701126099,-0.43283555168342014,-1.4157337051801,-1.9637908113090499,-0.8968884944915771,0.41944652795791626,-0.14019934833049774,-2.251349687576294,1.0509014129638672,0.9182769060134888
2.662637948989868,-0.17644262313842773,-0.0988975465297699,0.1217166930437088,-0.4576644682775779,-1.4174560477488514,-2.010827931487583,-0.88656085729599,0.4418541491031647,-0.13702110946178436,-2.323737382888794,0.8873177766799927,0.8845426440238953
2.6833109855651855,-0.271260142326355,-0.11152052879333496,0.1417284458875656,-0.4822111156377962,-1.4228431600445637,-2.0610525397016937,-0.8762925267219543,0.4637393057346344,-0.13060462474822998,-2.4989960193634033,0.8796272277832031,0.8870834708213806
2.7034449577331543,-0.27851009368896484,-0.15121588110923767,0.14944829046726227,-0.5077267968194319,-1.4280842146554302,-2.1129468299065373,-0.8649682402610779,0.4861920475959778,-0.12428636103868484,-2.402101516723633,0.860477089881897,1.0784034729003906
2.7232699394226074,-0.2526094317436218,-0.09328389167785645,0.2430686354637146,-0.5389514101817577,-1.4349609826515926,-2.1695278536376885,-0.8503416776657104,0.5132363438606262,-0.11622215062379837,-2.687453031539917,1.3598321676254272,1.246943473815918
2.7431559562683105,-0.3203893303871155,-0.059601664543151855,0.17294250428676605,-0.5698502983478697,-1.432590699277,-2.222828326629308,-0.8339534997940063,0.5395060181617737,-0.11599654704332352,-2.2663979530334473,1.6479085683822632,1.2259258031845093
2.7629778385162354,-0.23058998584747314,-0.043743252754211426,0.18856334686279297,-0.5993595776067687,-1.4225127877235626,-2.267668272084285,-0.8166360259056091,0.5641137957572937,-0.12198909372091293,-1.8910342454910278,1.8249411582946777,1.1879709959030151
2.78315806388855,-0.20458024740219116,-0.1253511905670166,0.2025005966424942,-0.6282604674240143,-1.408432632712391,-2.3079951499722533,-0.7984104752540588,0.5877382755279541,-0.13078413903713226,-1.8718401193618774,1.9130849838256836,1.1378926038742065
2.80324387550354,-0.21646857261657715,-0.19202286005020142,0.24825243651866913,-0.6554917957746551,-1.3945270954256803,-2.3513084819188954,-0.7804645895957947,0.6095491647720337,-0.13901464641094208,-2.0561001300811768,2.0764737129211426,0.9721917510032654
2.8221960067749023,-0.1745748519897461,-0.20629507303237915,0.2549993395805359,-0.6806905607826876,-1.383735827882032,-2.401401763444886,-0.7635813355445862,0.6293298602104187,-0.14452558755874634,-2.2646875381469727,2.1251518726348877,0.8000084757804871
2.8430898189544678,-0.12405580282211304,-0.18410730361938477,0.2331371158361435,-0.703000546624745,-1.376795894632542,-2.4572061130553595,-0.7485944628715515,0.6465097069740295,-0.14707744121551514,-2.3403027057647705,2.1422054767608643,0.5890963673591614
2.8599140644073486,-0.06774801015853882,-0.1635446548461914,0.1880936175584793,-0.7225932756362025,-1.3706783634743323,-2.5129207366867705,-0.7351236939430237,0.6613320708274841,-0.14910723268985748,-2.1733362674713135,2.1241490840911865,0.5436906218528748
2.8826539516448975,-0.040557026863098145,-0.12960511445999146,0.16010403633117676,-0.7411923302599723,-1.3620466499022992,-2.5643985435643697,-0.7216500639915466,0.6751679182052612,-0.15287122130393982,-1.9544517993927002,2.2081732749938965,0.49668681621551514
2.902815103530884,-0.022137999534606934,-0.10867571830749512,0.14806605875492096,-0.7584646390946822,-1.3487495571048747,-2.610905658709382,-0.7080713510513306,0.6878077387809753,-0.15986093878746033,-1.796689748764038,2.2817301750183105,0.48395341634750366
2.920701026916504,-0.02210932970046997,-0.08839476108551025,0.14657855033874512,-0.7750309496938173,-1.3336058090367537,-2.656433818323609,-0.6943976879119873,0.6997382044792175,-0.16786439716815948,-1.7866262197494507,2.4044291973114014,0.3740205764770508
2.9416189193725586,0.003217935562133789,-0.12101542949676514,0.14814181625843048,-0.7900683494017883,-1.3172067089805102,-2.703329174938897,-0.6812880039215088,0.7104013562202454,-0.17656880617141724,-1.8350156545639038,2.554399013519287,0.2952628433704376
2.9616329669952393,0.04944503307342529,-0.15330183506011963,0.1504819542169571,-0.8047233372769715,-1.3013546616865503,-2.7535108974734146,-0.6682958006858826,0.7206388711929321,-0.18455465137958527,-1.9308072328567505,2.63305401802063,0.2115173488855362
2.9808619022369385,0.08320623636245728,-0.15053677558898926,0.14794093370437622,-0.8176591591068139,-1.286508059989767,-2.8064845125273927,-0.656479001045227,0.729546844959259,-0.19182509183883667,-1.9131486415863037,2.7230584621429443,0.02204345539212227
3.0024449825286865,0.13677620887756348,-0.13304764032363892,0.13635054230690002,-0.8267127088165512,-1.2694168147032463,-2.8585732280524763,-0.6467708945274353,0.7357088923454285,-0.20104770362377167,-1.7567218542099,2.809690237045288,-0.14157482981681824
3.0223639011383057,0.18413692712783813,-0.10668200254440308,0.12058867514133453,-0.832727200201689,-1.2496118363261732,-2.9071436585259,-0.6384521722793579,0.7397691607475281,-0.2124159038066864,-1.5294550657272339,2.7945449352264404,-0.2806991636753082
3.042752981185913,0.21760910749435425,-0.08761709928512573,0.08727309107780457,-0.8360341944365486,-1.2270174585568496,-2.9512897757582945,-0.631183385848999,0.7419902682304382,-0.22596004605293274,-1.3858635425567627,2.702688455581665,-0.35963132977485657
3.06164813041687,0.224381685256958,-0.07225966453552246,0.044100821018218994,-0.8369801384796693,-1.2027048451004312,-2.989590927687508,-0.6248487234115601,0.7426241040229797,-0.24098487198352814,-1.1102590560913086,2.609232187271118,-0.4081290662288666
3.0804169178009033,0.21605819463729858,-0.03679913282394409,0.04480832815170288,-0.8355472243278819,-1.1772132454845994,-3.024292198696789,-0.6194854378700256,0.7416636943817139,-0.25724107027053833,-1.048524022102356,2.5243494510650635,-0.5478243827819824
3.1004531383514404,0.22606170177459717,-0.0354466438293457,0.03662267327308655,-0.8318096824735315,-1.1532733028430229,-3.059101478928612,-0.6156796813011169,0.7391514778137207,-0.2731184959411621,-0.976800262928009,2.4642534255981445,-0.6544783115386963
3.1221859455108643,0.2465420961380005,-0.008064746856689453,0.024230539798736572,-0.8284742288513389,-1.13025176997849,-3.0928131679450943,-0.6114561557769775,0.736900806427002,-0.288268506526947,-0.9654520750045776,2.319519519805908,-0.5876370668411255
3.1422250270843506,0.22997963428497314,0.012445807456970215,0.007384955883026123,-0.8261482248992021,-1.1092330981615424,-3.1251147018409386,-0.6067955493927002,0.7353264093399048,-0.3018184304237366,-0.9202130436897278,2.185656785964966,-0.5841712951660156
3.160936117172241,0.20793378353118896,0.017735064029693604,0.00992843508720398,-0.8239524494842918,-1.090692325766132,3.125452478862241,-0.6025261282920837,0.7338365316390991,-0.31376129388809204,-0.9576553106307983,2.074357748031616,-0.6242456436157227
3.1818599700927734,0.21809667348861694,-0.004816174507141113,0.030318915843963623,-0.8219088694020742,-1.0765660855198798,3.0903940133225247,-0.5993528962135315,0.7324467897415161,-0.3229518532752991,-1.0930262804031372,1.9009758234024048,-0.6686611175537109
3.2018988132476807,0.2385048270225525,-0.0100022554397583,0.039586544036865234,-0.8213236125770317,-1.0715716133559525,3.0492988771037,-0.5981088280677795,0.7320482134819031,-0.32614651322364807,-1.350295901298523,1.5957331657409668,-0.7251241207122803
3.22182297706604,0.21686244010925293,0.039311230182647705,-0.009294480085372925,-0.8220448164169262,-1.0785003402225515,3.0019030536533626,-0.5998886227607727,0.7325392961502075,-0.3217448592185974,-1.4629998207092285,1.2111214399337769,-0.7441279292106628
3.2420079708099365,0.1711098551750183,0.1184229850769043,-0.06823113560676575,-0.8220746411314261,-1.088642445293733,2.958359545615506,-0.6031014919281006,0.7325596213340759,-0.3156341314315796,-1.1269806623458862,0.9960542321205139,-0.6146329045295715
3.2620208263397217,0.14514541625976562,0.21010547876358032,-0.0781511664390564,-0.8210104823595273,-1.0918947773775893,2.9285318592842695,-0.6048165559768677,0.7318348288536072,-0.31403011083602905,-0.6431469917297363,0.8789141774177551,-0.44547030329704285
3.2820069789886475,0.10564857721328735,0.2513390779495239,-0.04993706941604614,-0.8172500254670454,-1.08764145964691,2.9116963352708782,-0.6059080958366394,0.7292670011520386,-0.3178759813308716,-0.21529348194599152,0.7867040038108826,-0.4296671450138092
3.3017971515655518,0.06111198663711548,0.2118878960609436,-0.006547868251800537,-0.8103282514153588,-1.0785356812909308,2.903159488750634,-0.6074225306510925,0.7245134711265564,-0.3257579505443573,-0.06916818767786026,0.7440596222877502,-0.4828590750694275
3.3215301036834717,0.04579359292984009,0.13978028297424316,0.03652825951576233,-0.8017911377617521,-1.0725944413181303,2.89194605121953,-0.6108876466751099,0.7186028361320496,-0.33230456709861755,-0.23995041847229004,0.6574103236198425,-0.6213913559913635
3.341015100479126,0.09085291624069214,0.09850239753723145,0.08214014768600464,-0.7949298885126959,-1.0736030258267528,2.872740518223179,-0.6155417561531067,0.7138144969940186,-0.33403217792510986,-0.6417813301086426,0.6124948859214783,-0.6212897896766663
3.3620059490203857,0.14987611770629883,0.07129889726638794,0.09972971677780151,-0.7914240899189665,-1.081916961932522,2.844499406005721,-0.6205030679702759,0.7113549113273621,-0.33007633686065674,-0.8916645646095276,0.5540854334831238,-0.6151962280273438
3.380981922149658,0.19034183025360107,0.09804242849349976,0.0644109845161438,-0.7894360330226159,-1.0935418244207833,2.8149941987438796,-0.6255531311035156,0.7099562287330627,-0.3234899044036865,-0.7920878529548645,0.3645249307155609,-0.5313596129417419
3.3999340534210205,0.18771791458129883,0.1564396619796753,0.050659626722335815,-0.7853467492250381,-1.102229480963439,2.794863855458361,-0.6309247016906738,0.7070704102516174,-0.31935155391693115,-0.25666344165802,0.21327733993530273,-0.4820252060890198
3.421656847000122,0.16356992721557617,0.18764960765838623,0.059013694524765015,-0.7767444694563734,-1.1020077302887776,2.7892717098608255,-0.6362568736076355,0.7009612917900085,-0.32222774624824524,0.2435876727104187,0.20679903030395508,-0.4729478061199188
3.4414119720458984,0.19700157642364502,0.09657448530197144,0.11319434642791748,-0.7657784796785156,-1.0966984114793978,2.790571026271002,-0.6413376331329346,0.6930983662605286,-0.3290908634662628,0.2534916400909424,0.23531518876552582,-0.4522929787635803
3.461378812789917,0.24007189273834229,0.02508687973022461,0.1253722906112671,-0.7575345728227055,-1.0940794125518278,2.7885508814078546,-0.6455285549163818,0.6871322989463806,-0.3333800137042999,-0.01315180491656065,0.1595667153596878,-0.35349997878074646
3.481184959411621,0.2618027925491333,0.03657388687133789,0.09826454520225525,-0.7526144992008178,-1.0961707254050752,2.7822985281463,-0.6492236256599426,0.6835494041442871,-0.33357030153274536,-0.14006157219409943,0.044783852994441986,-0.29660630226135254
3.5003058910369873,0.2725974917411804,0.0952180027961731,0.053526103496551514,-0.7483103722522261,-1.1015448786492803,2.7762245040991047,-0.6536248326301575,0.6804015040397644,-0.33140385150909424,-0.008162971585988998,-0.15639524161815643,-0.29909810423851013
3.5210139751434326,0.2807733416557312,0.11621636152267456,0.038698405027389526,-0.7419960681236206,-1.1049685353256855,2.7767353890697706,-0.6585811376571655,0.6757606267929077,-0.33108729124069214,0.3034061789512634,-0.2234657108783722,-0.237398162484169
3.539989948272705,0.2844810485839844,0.11852246522903442,0.05453866720199585,-0.7344429455368496,-1.1061306828366184,2.7828396762514487,-0.6635094881057739,0.6701738238334656,-0.3325995206832886,0.42775529623031616,-0.306507408618927,-0.25065967440605164
3.561025857925415,0.24198156595230103,0.1625000238418579,0.012761592864990234,-0.7254312599676999,-1.1081686579989105,2.79068910775393,-0.6695634722709656,0.6634581685066223,-0.33392852544784546,0.502802848815918,-0.4081293046474457,-0.2930644750595093
3.5809149742126465,0.19221043586730957,0.22314059734344482,-0.00740736722946167,-0.7150750818328294,-1.1099198771056047,2.8001788113765027,-0.6762651205062866,0.6556740999221802,-0.33579322695732117,0.5722270607948303,-0.3806033134460449,-0.31382155418395996
3.6007111072540283,0.17886042594909668,0.22830736637115479,0.011394768953323364,-0.7049218002817842,-1.1110753739191077,2.8091141650392433,-0.6825836300849915,0.6479742527008057,-0.3379480242729187,0.4805314242839813,-0.3258424997329712,-0.2868342101573944
3.6207690238952637,0.16119664907455444,0.24294263124465942,-0.006509125232696533,-0.6964553420389746,-1.1120978749726291,2.816851669971357,-0.6878233551979065,0.6415025591850281,-0.3396669626235962,0.44740763306617737,-0.26805004477500916,-0.21348720788955688
3.6406381130218506,0.1319522261619568,0.2632441520690918,-0.039364755153656006,-0.6893063310995542,-1.1111656656853497,2.8256399071204683,-0.6915989518165588,0.6360020637512207,-0.3423337936401367,0.4833488166332245,-0.21902009844779968,-0.1378498524427414
3.6607069969177246,0.10878348350524902,0.2720561623573303,-0.06298592686653137,-0.6820611934909726,-1.1076844448475447,2.8367134605549484,-0.6945075392723083,0.6303943991661072,-0.34678882360458374,0.6076136231422424,-0.10833175480365753,-0.13404341042041779
3.6806528568267822,0.1269437074661255,0.22567623853683472,-0.04791444540023804,-0.674234279356824,-1.1004891777156467,2.849725991971096,-0.69637131690979,0.6242993474006653,-0.3540019989013672,0.6226807832717896,-0.006698958575725555,-0.11550544947385788
3.6999619007110596,0.1257302165031433,0.19781845808029175,-0.04837709665298462,-0.6669829040325277,-1.0937708606520569,2.8604991902980217,-0.6979807019233704,0.6186183094978333,-0.3607414960861206,0.4344325363636017,-0.014433843083679676,-0.12485348433256149
3.7203938961029053,0.0337522029876709,0.23548352718353271,-0.0920252799987793,-0.6635419642796796,-1.093453401764861,2.8645107439113224,-0.699752688407898,0.6159111261367798,-0.36193886399269104,0.004921152256429195,-0.199997678399086,-0.047027524560689926
3.7405309677124023,-0.12287253141403198,0.2159593105316162,-0.020539045333862305,-0.6662086791473487,-1.0988986130704985,2.858458720883087,-0.7002476453781128,0.6180098056793213,-0.35737529397010803,-0.6992717981338501,0.12838837504386902,0.06677784025669098
3.759960889816284,-0.11736452579498291,0.15242958068847656,0.18450629711151123,-0.6777609277034653,-1.1050445560801314,2.8340493092318373,-0.6960053443908691,0.6270503997802734,-0.34983521699905396,-1.4152133464813232,0.7683039903640747,0.1471063643693924
3.7801148891448975,0.08460408449172974,0.1277552843093872,0.21261337399482727,-0.6971898652267687,-1.1066054792444184,2.8028441599290854,-0.6855257749557495,0.6420658230781555,-0.3432285189628601,-1.5184677839279175,0.9606043696403503,0.43035462498664856
3.800097942352295,0.2089681625366211,0.16956979036331177,0.13000595569610596,-0.7133144870600748,-1.1043495770530616,2.779312934092265,-0.6754141449928284,0.6543437838554382,-0.3400736153125763,-0.6908174157142639,0.754769504070282,0.19669227302074432
3.819981813430786,0.29295241832733154,0.11482590436935425,0.01427459716796875,-0.715610960486301,-1.0940279046954433,2.7778642337320925,-0.6705312728881836,0.6560786366462708,-0.3463362753391266,0.4657820463180542,0.3342091739177704,-0.07448633760213852
3.8403170108795166,0.37242013216018677,0.01269078254699707,-0.006601661443710327,-0.7029531492534482,-1.0829451933416272,2.7940362632918263,-0.6739338636398315,0.6464735865592957,-0.3576102554798126,1.057720422744751,-0.29388678073883057,-0.4819488823413849
3.8599231243133545,0.40937405824661255,-0.04342222213745117,0.050062477588653564,-0.6820452296610853,-1.0846691771882597,2.808535528866396,-0.6863517165184021,0.6303820013999939,-0.3626844882965088,0.868940532207489,-0.7690085768699646,-0.8259595036506653
3.8815720081329346,0.42069023847579956,-0.13119518756866455,0.07072725892066956,-0.6600343285632483,-1.0990287815111333,2.81364603505482,-0.7036798000335693,0.6131439805030823,-0.3590114712715149,0.492019385099411,-0.971241295337677,-0.9203052520751953
3.901676893234253,0.46390390396118164,-0.10815268754959106,-0.01018822193145752,-0.6393931516335166,-1.1211023656465806,2.8122199760339424,-0.7226778268814087,0.5967085957527161,-0.34882044792175293,0.4401957392692566,-1.1378518342971802,-1.0045257806777954
3.9199788570404053,0.5636292099952698,-0.04092514514923096,-0.11429154872894287,-0.6149722800585378,-1.141822532853692,2.8165245175619105,-0.7427827715873718,0.576935887336731,-0.33973363041877747,0.9818092584609985,-1.1808197498321533,-1.0202473402023315
3.9399609565734863,0.708558976650238,-0.11196637153625488,-0.0683661699295044,-0.5881125690558213,-1.154623296635742,2.8355846739972708,-0.7609730362892151,0.5547916889190674,-0.33634260296821594,1.4945993423461914,-1.1773555278778076,-0.7578908801078796
3.959630012512207,0.7268707752227783,-0.27864593267440796,0.037766486406326294,-0.5635431354877728,-1.1631510036959682,2.8641968440386627,-0.7760956287384033,0.5341848134994507,-0.33514493703842163,1.6834025382995605,-1.23530113697052,-0.5757471323013306
3.979935884475708,0.6180861592292786,-0.3651885986328125,0.12298545241355896,-0.5411670682267679,-1.1722883567819211,2.8924331164084127,-0.7899459004402161,0.5151366591453552,-0.3325953483581543,1.3772226572036743,-1.1031609773635864,-0.6133635640144348
4.000010967254639,0.48200660943984985,-0.38087284564971924,0.07757005095481873,-0.5179851386477258,-1.1821609407387512,2.9115943919070784,-0.8040281534194946,0.49513059854507446,-0.3292178809642792,1.0720291137695312,-0.9014579057693481,-0.8884856104850769
4.0199668407440186,0.46591442823410034,-0.33407947421073914,0.0068438053131103516,-0.49301656699563945,-1.195030517753565,2.923230036325909,-0.8194454312324524,0.47328534722328186,-0.3232804834842682,0.7596976161003113,-1.041309118270874,-1.0363149642944336
4.0401530265808105,0.4325956106185913,-0.2627127170562744,-0.009119480848312378,-0.4688841272070371,-1.2175252300598496,2.9256803693338806,-0.8369840979576111,0.45189112424850464,-0.30862942337989807,0.2948482930660248,-1.2839194536209106,-1.133629322052002
4.059970140457153,0.3484823703765869,-0.2148629128932953,0.021333754062652588,-0.44667030961069704,-1.24447556593617,2.9192654831170897,-0.8542960286140442,0.4319649040699005,-0.28911012411117554,-0.05260640010237694,-1.07075834274292,-1.1398000717163086
4.079446077346802,0.3341960906982422,-0.10417801141738892,0.07171973586082458,-0.4263495571324285,-1.2659908391793424,2.9103715670539785,-0.8685131669044495,0.41354990005493164,-0.27324244379997253,0.02966185100376606,-0.7063028216362,-1.0244191884994507
4.0999839305877686,0.2599523067474365,0.05365148186683655,0.04637330770492554,-0.40570537727093,-1.275988962485135,2.9132794901549217,-0.8791846036911011,0.39466696977615356,-0.2669695019721985,0.9298243522644043,-0.4135854244232178,-0.914198637008667
4.119961977005005,0.04725867509841919,0.11953294277191162,-0.001164078712463379,-0.37849936458197353,-1.2716677133422274,2.9370283415497505,-0.8879570364952087,0.3695264756679535,-0.27382972836494446,1.863951563835144,-0.09904886782169342,-1.0675455331802368
4.139962911605835,-2.187490463256836e-05,0.03216052055358887,0.058094948530197144,-0.3456367427270895,-1.2608759192020849,2.969448923531832,-0.8960353136062622,0.33879584074020386,-0.2869461178779602,1.9032021760940552,-0.013867832720279694,-1.125795602798462
4.159961938858032,-0.04874521493911743,-0.0663159191608429,0.12460985779762268,-0.31419682273615485,-1.253191805080711,2.9963576241501726,-0.9034796953201294,0.3090527057647705,-0.2970035672187805,1.4431898593902588,-0.07510083168745041,-1.1132681369781494
4.1800830364227295,-0.32129836082458496,-0.007809579372406006,0.16637083888053894,-0.2830268691769232,-1.2508627765298883,3.010823814381184,-0.9114897847175598,0.27926337718963623,-0.3019908368587494,0.9259359240531921,-0.12282644957304001,-1.4795011281967163
4.199962854385376,-0.52972012758255,0.0009578168392181396,0.21603667736053467,-0.24788019639066716,-1.2515282557629352,3.01448967513031,-0.9204447865486145,0.24534949660301208,-0.3042781352996826,0.49360641837120056,-0.10107189416885376,-1.676135778427124
4.21996283531189,-0.6324878931045532,0.008593633770942688,0.2838341295719147,-0.21515414182454895,-1.254969038525719,3.0090295758003123,-0.9286237359046936,0.21349802613258362,-0.30344158411026,0.014420274645090103,-0.09805967658758163,-1.5959839820861816
4.240056991577148,-0.6952601671218872,0.07739852368831635,0.283683180809021,-0.18752298308894783,-1.2594977099656604,2.9977296324180362,-0.9352483153343201,0.18642587959766388,-0.30092546343803406,-0.11313941329717636,-0.07145141065120697,-1.3437767028808594
4.260008096694946,-0.6355987787246704,0.144148588180542,0.22070887684822083,-0.16519542578950347,-1.2607928144140634,2.9921765032186887,-0.9393677115440369,0.16444510221481323,-0.3009089529514313,0.3435443043708801,-0.018837114796042442,-0.9799492955207825
4.280229806900024,-0.6576135158538818,0.15996001660823822,0.21081310510635376,-0.1428630110377775,-1.2583966255075636,3.0001392692058704,-0.9419042468070984,0.14237754046916962,-0.30421197414398193,1.1877257823944092,0.24367307126522064,-0.8252834677696228
4.299980878829956,-0.6369388103485107,0.11274050176143646,0.3113900423049927,-0.12370446709555485,-1.2471923976777188,3.022973246467097,-0.940850555896759,0.12338920682668686,-0.31555554270744324,1.484232783317566,0.574368417263031,-0.3508705496788025
4.320038080215454,-0.5507170557975769,0.034615859389305115,0.36103272438049316,-0.10935496553761691,-1.227492771145879,3.052553308947609,-0.9360231161117554,0.1091371402144432,-0.3345891237258911,1.7747830152511597,1.0307612419128418,0.07191193103790283
4.33995509147644,-0.4371854066848755,-0.028600461781024933,0.32292115688323975,-0.10306255348325259,-1.1990536943419419,3.0916659414847554,-0.9267520308494568,0.10288019478321075,-0.3613121807575226,2.1851646900177,1.4821014404296875,0.5168941020965576
4.360013008117676,-0.6193976402282715,-0.08776598423719406,0.31751036643981934,-0.09630707055852883,-1.1550366967725374,-3.1391378071518066,-0.9105706810951233,0.09615826606750488,-0.4020134210586548,2.706024646759033,2.427501916885376,1.063416838645935
4.379990816116333,-0.5693580508232117,-0.24627968668937683,0.20297396183013916,-0.09286386911433074,-1.1139088186245507,-3.0878052149658908,-0.8935632109642029,0.09273045510053635,-0.4392562210559845,2.191368579864502,0.9008772969245911,0.8628390431404114
4.400026082992554,-0.3665676712989807,-0.4146595001220703,0.5018756985664368,-0.10399473307647496,-1.106159304107644,-3.055110020217428,-0.8891544938087463,0.10380738228559494,-0.4456774592399597,-0.1312931329011917,-0.06608416885137558,1.4968798160552979
4.419960975646973,-0.688755214214325,-0.5484396815299988,0.6239655613899231,-0.14026880011024107,-1.1019134429126136,-3.056349907442258,-0.8833121061325073,0.1398092806339264,-0.44745177030563354,-1.2316546440124512,0.6989285945892334,1.721801996231079
4.439970016479492,-0.818413257598877,-0.25930917263031006,0.32498276233673096,-0.18431641949719893,-1.0836519585112194,-3.0619090018495316,-0.8687053918838501,0.18327456712722778,-0.4601755142211914,-1.1658763885498047,0.9048572778701782,1.9016507863998413
4.4599621295928955,-0.6516866683959961,-0.14598654210567474,0.1575879454612732,-0.23109145286884328,-1.071505876060967,-3.0603902052584484,-0.8545847535133362,0.22904010117053986,-0.46607476472854614,-0.9592280983924866,0.36272719502449036,2.394317388534546
4.479982137680054,-0.7250838875770569,-0.25406235456466675,0.29913201928138733,-0.28777238462556437,-1.0623212203184367,-3.051522974321514,-0.8375687599182129,0.2838169038295746,-0.4668259918689728,-0.9718626141548157,0.39286932349205017,2.9088854789733887
4.500000953674316,-0.8962339162826538,-0.1542339324951172,0.21319428086280823,-0.34713808219676234,-1.049117114204744,-3.0348574829391324,-0.8152682185173035,0.3402079939842224,-0.4686110019683838,-0.4919021427631378,0.320448100566864,2.9516801834106445
4.51996111869812,-0.9035665392875671,-0.1876620352268219,0.10083037614822388,-0.3987031614287069,-1.0337972172859444,-3.0048657862189705,-0.7918528914451599,0.3882235586643219,-0.4714357852935791,0.18330056965351105,0.1796955019235611,2.911527395248413
4.53996205329895,-0.8968817591667175,-0.307254433631897,0.10223996639251709,-0.4419717242526753,-1.0146443078386782,-2.9664221938244246,-0.7676844000816345,0.4277225434780121,-0.4771941006183624,0.556781530380249,0.14422930777072906,2.591965913772583
4.560023069381714,-0.8130532503128052,-0.3238529860973358,0.10634905099868774,-0.4787423521119388,-0.9949595075622312,-2.929779954525261,-0.7444419860839844,0.4606632888317108,-0.4833173155784607,0.1812238246202469,0.1476931869983673,2.265655040740967
4.5799689292907715,-0.7433500289916992,-0.41762441396713257,0.07888612151145935,-0.5169063188491593,-0.9827840166000159,-2.909022460820224,-0.7233400344848633,0.49419301748275757,-0.4822368621826172,-0.8430162072181702,0.0651356428861618,1.9228003025054932
4.599960088729858,-0.6691520810127258,-0.36712610721588135,0.03913450241088867,-0.5590305983470446,-0.9852386531717426,-2.9122968278283357,-0.7065346837043762,0.5303646326065063,-0.4685320258140564,-1.6295396089553833,-0.09874118119478226,1.4669312238693237
4.619961977005005,-0.575831949710846,-0.2080182433128357,0.022890597581863403,-0.5988222880038826,-0.9964591786282933,-2.930097496371984,-0.6934704780578613,0.5636700987815857,-0.44874799251556396,-1.7091734409332275,-0.0535709485411644,1.0617183446884155
4.640005826950073,-0.47140300273895264,-0.08686256408691406,-0.04795798659324646,-0.6303292285594229,-1.0091487993043426,-2.9489187839739017,-0.6837331652641296,0.5894107222557068,-0.4302370548248291,-1.3458400964736938,-0.17411814630031586,0.7917652726173401
4.659960031509399,-0.3569369912147522,-0.05281013250350952,-0.03939136862754822,-0.656831112894276,-1.0257841849271458,-2.96784340601132,-0.6771969795227051,0.6106103658676147,-0.41055965423583984,-1.392099380493164,-0.24949242174625397,0.7063366174697876
4.679969072341919,-0.36946719884872437,0.01490873098373413,-0.02948811650276184,-0.6821674908141925,-1.047522632520962,-2.9939229706960986,-0.6723419427871704,0.6304769515991211,-0.3878854215145111,-1.6514394283294678,-0.3202599883079529,0.3819698691368103
4.699970006942749,-0.3109000325202942,0.07574611902236938,0.012330055236816406,-0.7046866581299152,-1.0744190125175939,-3.029182931285894,-0.6698740124702454,0.6477951407432556,-0.36280906200408936,-1.7777928113937378,-0.1765158772468567,0.19986452162265778
4.719961881637573,-0.22513025999069214,0.10037094354629517,-0.06056591868400574,-0.7211707495471119,-1.10548942434543,-3.0678118519759647,-0.6711863279342651,0.6602643728256226,-0.3369864225387573,-1.6085656881332397,-0.3671864867210388,-0.02690017968416214
4.739586114883423,-0.11818277835845947,0.1013486385345459,-0.0049934983253479,-0.7333437209285212,-1.1399020598455547,-3.1069020377717207,-0.6750302314758301,0.6693575382232666,-0.31031399965286255,-1.5768373012542725,-0.4614522457122803,-0.12000428885221481
4.760029077529907,-0.11772000789642334,0.11498129367828369,0.017670750617980957,-0.742388190333324,-1.1769303578822115,3.134892576147539,-0.6804368495941162,0.6760495901107788,-0.2827768325805664,-1.5953361988067627,-0.4952442944049835,-0.2978653907775879
4.77997088432312,-0.11371678113937378,0.15229076147079468,-0.013319998979568481,-0.7473464537856654,-1.2179859345907171,3.090144684215813,-0.6883158683776855,0.6796947717666626,-0.25344935059547424,-1.6693971157073975,-0.5858267545700073,-0.5077124238014221
4.800033807754517,-0.02503865957260132,0.13652199506759644,0.013537764549255371,-0.7469391312777847,-1.2659366497580262,3.0372614314648865,-0.6999370455741882,0.6793959736824036,-0.2202484905719757,-2.072981119155884,-0.6302893161773682,-0.7183372974395752
4.819966077804565,0.20176076889038086,0.1889033317565918,-0.03910624980926514,-0.7469627740841457,-1.3213090966614558,2.9748664674591176,-0.7110381722450256,0.6794133186340332,-0.1811695396900177,-2.3915927410125732,-0.710080087184906,-0.49998238682746887
4.839972972869873,0.16498339176177979,0.3366619944572449,-0.054747581481933594,-0.7495963166972035,-1.3852206507039329,2.904164410034316,-0.7193963527679443,0.6813433170318604,-0.13505640625953674,-2.699547290802002,-0.8467633724212646,-0.43938449025154114
4.859924077987671,0.005865931510925293,0.30022573471069336,0.007257580757141113,-0.7469913406781976,-1.4523855204108185,2.8264957597861917,-0.7285985946655273,0.6794342994689941,-0.08667944371700287,-2.8507699966430664,-0.5876556634902954,-0.6846655607223511
4.879971027374268,0.14804357290267944,0.36590278148651123,-0.07496136426925659,-0.7377514555271842,-1.513226747825356,2.7524409277733053,-0.7387571930885315,0.672625720500946,-0.04257699102163315,-2.545471429824829,-0.48322227597236633,-0.6080639958381653
4.899998903274536,0.2799164652824402,0.4518691897392273,-0.1058383584022522,-0.7307851419652324,-1.562174096327874,2.692158617547603,-0.7446230053901672,0.6674544811248779,-0.006420470308512449,-1.7938436269760132,-0.41504162549972534,-0.3080281615257263
4.919971942901611,0.32597285509109497,0.43022656440734863,-0.12263762950897217,-0.7259263748436062,-1.5958775831962562,2.6532228089241254,-0.7476495504379272,0.6638285517692566,0.018755922093987465,-1.1171295642852783,-0.4357185661792755,-0.17325478792190552
4.940069913864136,0.384421706199646,0.24603736400604248,-0.0834510326385498,-0.7226062431831471,-1.6206577812116878,2.625960969046945,-0.7491527199745178,0.6613418459892273,0.03738483041524887,-1.0642963647842407,-0.18499110639095306,-0.11136525869369507
4.959963083267212,0.47266215085983276,0.10109996795654297,-0.08221601694822311,-0.7194294097202961,-1.6398869900392965,2.5980852568755806,-0.7503876090049744,0.6589555740356445,0.05192742869257927,-1.0910600423812866,0.08006549626588821,-0.04448958858847618
4.979964971542358,0.6046825051307678,0.12385779619216919,-0.16460132598876953,-0.7184061958381573,-1.654485268681961,2.573008726540463,-0.7502208948135376,0.658185601234436,0.06293218582868576,-0.7290214896202087,0.0836307555437088,0.10342676192522049
4.999963045120239,0.7328713536262512,0.10171031951904297,-0.1587151288986206,-0.7215409504493528,-1.6632699317268986,2.5573465753433164,-0.747580885887146,0.660542368888855,0.06932923197746277,-0.43335455656051636,0.07379543781280518,0.3216671347618103
5.0199620723724365,0.7878432273864746,0.005664408206939697,-0.17743825912475586,-0.7294842476077884,-1.6674832589774173,2.5498606733847202,-0.7420364618301392,0.6664852499961853,0.07196963578462601,-0.10043055564165115,0.016599882394075394,0.5322669148445129
5.039963960647583,0.867871105670929,-0.10183799266815186,-0.1365293264389038,-0.742107975931942,-1.667828494195515,2.5482946983960435,-0.7335785627365112,0.6758430600166321,0.07140495628118515,0.10266182571649551,0.03680182620882988,0.7086479067802429
5.060007810592651,0.9157040119171143,-0.17909884452819824,-0.14831793308258057,-0.7579024859919378,-1.664513513546053,2.5521850493716,-0.7230923771858215,0.6873995661735535,0.06796527653932571,0.29632723331451416,0.0474737323820591,0.8579350709915161
5.080009937286377,0.9627799391746521,-0.24913060665130615,-0.13251161575317383,-0.7769332313867027,-1.659037277315844,2.5592907321622125,-0.7102928757667542,0.7010958790779114,0.06284010410308838,0.426804780960083,-0.023380111902952194,0.9842788577079773
5.100095987319946,1.005416989326477,-0.29211288690567017,-0.14019501209259033,-0.7984519534090452,-1.6499223878935136,2.5752911603956052,-0.6956331133842468,0.7162767052650452,0.055157870054244995,1.0295310020446777,-0.2297445684671402,1.0397439002990723
5.119936943054199,0.9644531607627869,-0.10949099063873291,-0.19355714321136475,-0.8216616765443768,-1.616677335167626,2.6313946360419807,-0.6802888512611389,0.7322784662246704,0.03123425878584385,3.2072153091430664,-0.45282530784606934,1.1400011777877808
5.14000391960144,0.8824554085731506,0.1776706576347351,-0.1726933717727661,-0.8482737437480196,-1.5348530308921917,2.7544339066941395,-0.6608521342277527,0.7501400113105774,-0.023763438686728477,4.760523319244385,-0.4982863664627075,1.38698148727417
5.1599390506744385,0.763330340385437,-0.0528835654258728,0.05938286334276199,-0.8686453984975663,-1.4300508585428855,2.90170795261067,-0.6394748091697693,0.7634547352790833,-0.09060222655534744,4.382585525512695,-0.0882568433880806,1.5143482685089111
5.179136037826538,0.7468194961547852,-0.2573831081390381,0.1211070567369461,-0.8837856473603461,-1.3371620698358067,3.0225957759120448,-0.6169977784156799,0.7731453776359558,-0.14683321118354797,2.948796510696411,-0.045134320855140686,1.3733234405517578
5.19990611076355,0.7794926762580872,-0.2986968159675598,0.09966002404689789,-0.8962357962347286,-1.2811516859774665,3.100050227883016,-0.598538875579834,0.7809814810752869,-0.17838004231452942,1.4641529321670532,-0.4219222366809845,1.0541355609893799
5.2199108600616455,0.7037734985351562,-0.3879457712173462,0.08682844042778015,-0.9032541848285284,-1.2605379540992454,-3.140395887495865,-0.5895004868507385,0.7853456139564514,-0.1890011727809906,1.1742138862609863,-0.8305307030677795,0.32288065552711487
5.2399139404296875,0.5666042566299438,-0.24455058574676514,0.08075153827667236,-0.8885151818790518,-1.235390701932444,-3.0849179959650335,-0.5954282283782959,0.7761363387107849,-0.207551971077919,2.8859703540802,-0.9425674080848694,-0.5394394993782043
5.2599639892578125,0.46640467643737793,-0.015684902667999268,0.13608089089393616,-0.8491685898017182,-1.1755845186219849,-2.9823186478832313,-0.6096848845481873,0.7507314085960388,-0.254336416721344,4.306895732879639,-0.9062422513961792,-0.6548699736595154
5.279916048049927,0.22908973693847656,-0.2091861367225647,0.24361830949783325,-0.8085259687843863,-1.1312831317833831,-2.8957548641729027,-0.6249333024024963,0.723270058631897,-0.2938348650932312,2.3334851264953613,-1.1811109781265259,-0.8901949524879456
5.2999279499053955,-0.09988325834274292,-0.4640694856643677,0.20197081565856934,-0.7740108463841997,-1.1462957475063125,-2.879469118251104,-0.6516427397727966,0.6990090608596802,-0.2945305109024048,0.3688147962093353,-1.4088823795318604,-1.6750524044036865
5.319990873336792,-0.2616872787475586,-0.21894460916519165,0.09202557802200317,-0.7373300012718169,-1.1893951410880659,-2.8969976386550194,-0.6870737671852112,0.6723138093948364,-0.2755429446697235,0.20677173137664795,-1.8688563108444214,-2.265681743621826
5.339931964874268,-0.42276859283447266,0.06428498029708862,0.05879783630371094,-0.6840971457884072,-1.236041033444413,-2.900445256554252,-0.7319709062576294,0.6319735646247864,-0.2546137273311615,1.5880558490753174,-2.275094509124756,-2.677259922027588
5.359986066818237,-0.7775042653083801,0.02532815933227539,0.16465169191360474,-0.6208884889974535,-1.2638755707843683,-2.8787499272022137,-0.7753522992134094,0.5817580819129944,-0.24573677778244019,1.518798589706421,-1.967558741569519,-2.9710497856140137
5.379986047744751,-1.0774658918380737,-0.07608497142791748,0.09318621456623077,-0.5552611738706067,-1.3104393392945948,-2.8870064217342284,-0.821124255657196,0.5271652340888977,-0.21875064074993134,-0.25864067673683167,-2.2243752479553223,-3.337496280670166
5.3998658657073975,-1.2463117837905884,0.0014891624450683594,-0.19903481006622314,-0.4962269231219859,-1.3682027317991374,-2.914649974463908,-0.8614001274108887,0.47611093521118164,-0.17694160342216492,-0.28839120268821716,-2.124507188796997,-2.9909377098083496
5.419981002807617,-1.2717124223709106,0.5311950445175171,-0.48768264055252075,-0.4387058102271439,-1.406101386046209,-2.9109214865559756,-0.8930522203445435,0.4247681796550751,-0.14842559397220612,1.8050092458724976,-1.7988040447235107,-2.593052625656128
5.439964056015015,-0.9580515027046204,0.7720082998275757,-0.3298582434654236,-0.38488512288757154,-1.4179268149865067,-2.8652756734078824,-0.9160330891609192,0.3754526674747467,-0.14113463461399078,2.7354981899261475,-1.1146926879882812,-2.090993642807007
5.459996938705444,-0.5791263580322266,0.25802379846572876,0.13231921195983887,-0.34852223128608106,-1.413701197398195,-2.8261728038717577,-0.9283047318458557,0.34150925278663635,-0.14704377949237823,1.111960768699646,0.20240579545497894,-0.7662871479988098
5.479970932006836,-0.3266984820365906,-0.3488874137401581,0.35222816467285156,-0.3496026390682367,-1.3986408632088614,-2.829194525700081,-0.9256210327148438,0.3425244987010956,-0.160943865776062,-1.3102586269378662,1.2300965785980225,0.709769606590271
5.499980926513672,-0.2050837278366089,-0.3409120738506317,0.23705227673053741,-0.37780525250962177,-1.38632245455141,-2.865127391516446,-0.9137060046195984,0.3688814043998718,-0.17049327492713928,-2.0263423919677734,1.2109761238098145,1.378410816192627
5.520004987716675,-0.18574625253677368,-0.08509480953216553,0.038388848304748535,-0.41145645782434953,-1.3757114855756838,-2.890778456415503,-0.8991537094116211,0.3999446630477905,-0.1776709407567978,-0.8534066081047058,0.7873351573944092,1.3195997476577759
5.53995680809021,-0.17326951026916504,-0.1358286440372467,0.004540443420410156,-0.4340598912292634,-1.3645637950458531,-2.8893953304701188,-0.8880403637886047,0.4205576479434967,-0.1857842355966568,0.4828755855560303,0.2820333242416382,1.0459775924682617
5.5599610805511475,-0.26472097635269165,-0.2595176100730896,0.16344040632247925,-0.45359301335589414,-1.3497254778870267,-2.8679652585568784,-0.8770027160644531,0.4381980299949646,-0.1971011757850647,0.7642256021499634,0.42435222864151,1.2002665996551514
5.579962968826294,-0.4054427146911621,-0.349189817905426,0.26837390661239624,-0.47272561090595544,-1.3354252153716717,-2.8557060196821458,-0.8657823204994202,0.45531466603279114,-0.2076285481452942,-0.24764445424079895,0.4220382869243622,1.0203533172607422
5.599962949752808,-0.25602734088897705,-0.45707693696022034,0.3476032018661499,-0.4998497793684144,-1.3270655367691373,-2.865293532584663,-0.8517150282859802,0.47929370403289795,-0.21179984509944916,-1.2687381505966187,0.7245084643363953,1.302392840385437
5.6199610233306885,-0.2953833341598511,-0.4478292465209961,0.24046730995178223,-0.5318278887168938,-1.3274997209635118,-2.892923446528958,-0.836498498916626,0.5071095824241638,-0.20763027667999268,-1.7274631261825562,0.6716609001159668,1.2663136720657349
5.640007019042969,-0.2916773557662964,-0.38249796628952026,0.22623683512210846,-0.5642842293715142,-1.3310823911209604,-2.927208903695663,-0.8208104968070984,0.5348111391067505,-0.20061717927455902,-1.8873584270477295,0.7245625257492065,1.1317538022994995
5.659961938858032,-0.2552258372306824,-0.4128223657608032,0.2538922429084778,-0.59279474473757,-1.3365146267394028,-2.965586153130861,-0.8067249059677124,0.5586811304092407,-0.19253648817539215,-1.960701823234558,0.899455726146698,0.938206136226654
5.679963827133179,-0.2122730016708374,-0.4582032561302185,0.28335630893707275,-0.6192518820115018,-1.341208174778347,-3.0088195007490275,-0.7929455041885376,0.5804260969161987,-0.1853184849023819,-2.109152317047119,1.0679142475128174,0.8267210125923157
5.699991941452026,-0.22861874103546143,-0.41876399517059326,0.25395435094833374,-0.6435490820009998,-1.347236947586462,-3.0579976949400023,-0.7800635695457458,0.6000383496284485,-0.177355095744133,-2.304954767227173,1.2708723545074463,0.6396524310112
5.71996808052063,-0.28533637523651123,-0.29033881425857544,0.16735035181045532,-0.662540891729287,-1.3532866184590533,-3.11199170740778,-0.7698547840118408,0.6151221394538879,-0.17014256119728088,-2.255038261413574,1.4103213548660278,0.2936359643936157
5.740043878555298,-0.2283940315246582,-0.2195587158203125,0.12776722013950348,-0.6756202186721367,-1.3585982250878519,3.118050916264984,-0.7628169059753418,0.6253814101219177,-0.16434240341186523,-2.133300542831421,1.375268816947937,0.13435932993888855
5.759962797164917,-0.19295662641525269,-0.24026024341583252,0.10282738506793976,-0.6853908647118152,-1.3647960633540956,3.064759709076981,-0.7578032612800598,0.6329756379127502,-0.1583539992570877,-2.210233211517334,1.3721699714660645,0.004490564111620188
5.7799599170684814,-0.14162516593933105,-0.1986212134361267,0.11017048358917236,-0.6937200415105383,-1.3749375120298761,3.0038271817194886,-0.754172682762146,0.6394018530845642,-0.14962957799434662,-2.530977249145508,1.441455602645874,-0.14858077466487885
5.799978017807007,-0.13093560934066772,-0.13345813751220703,0.011745572090148926,-0.6983624516910052,-1.3892656422615253,2.9388078170397427,-0.7533113360404968,0.6429643630981445,-0.138271301984787,-2.4395153522491455,1.3306940793991089,-0.2813587486743927
5.819999933242798,-0.1087956428527832,-0.046201884746551514,0.00691598653793335,-0.6996496150370988,-1.4024853257032017,2.876725997801871,-0.7542567849159241,0.6439496874809265,-0.1281622350215912,-2.265298366546631,1.4045885801315308,-0.4279114902019501
5.839980840682983,-0.03699851036071777,-0.03082573413848877,-3.6954879760742188e-06,-0.6970260554889001,-1.410554317632757,2.8182017978889453,-0.7569316625595093,0.6419402360916138,-0.12234118580818176,-2.1365740299224854,1.557204008102417,-0.527169406414032
5.859936952590942,0.07212483882904053,-0.014993071556091309,-0.02711571753025055,-0.6930801969862871,-1.4154798010142218,2.7614733457085925,-0.7600217461585999,0.6389097571372986,-0.11900238692760468,-2.1203413009643555,1.5809484720230103,-0.5309187769889832
5.880053997039795,0.12833398580551147,0.04094672203063965,-0.08232438564300537,-0.6891972682184533,-1.4210058237671734,2.705084564233287,-0.7631149888038635,0.6359179019927979,-0.11517003178596497,-2.1262190341949463,1.45846426486969,-0.5370456576347351
5.899968862533569,0.15427100658416748,0.1036374568939209,-0.12535011768341064,-0.6839001994199564,-1.4279220160509443,2.6499410960690564,-0.767216682434082,0.6318209171295166,-0.110367551445961,-2.04827618598938,1.314530372619629,-0.5776992440223694
5.9200279712677,0.17612826824188232,0.1593538522720337,-0.13882142305374146,-0.677960852447925,-1.4349597847343598,2.5982455607647106,-0.7716788649559021,0.6272061467170715,-0.10547169297933578,-1.8645681142807007,1.3024930953979492,-0.5229014158248901
5.939965009689331,0.20857876539230347,0.17251545190811157,-0.1232108473777771,-0.6738621056517816,-1.438342998828687,2.5497832655192556,-0.7745731472969055,0.6240085363388062,-0.10319900512695312,-1.8322430849075317,1.411309838294983,-0.39762043952941895
5.95996880531311,0.2666846513748169,0.17982971668243408,-0.1268734335899353,-0.6720211036752115,-1.436945572718883,2.504103011375457,-0.7755653858184814,0.6225689053535461,-0.10443443804979324,-1.6957790851593018,1.5833309888839722,-0.2252018004655838
5.979964017868042,0.31410902738571167,0.20935726165771484,-0.12814849615097046,-0.6734624989634844,-1.4312647629965838,2.46191888838134,-0.7740699648857117,0.6236962676048279,-0.10871363431215286,-1.5894125699996948,1.6128249168395996,-0.08898792415857315
5.9999659061431885,0.33050405979156494,0.1801249384880066,-0.14249050617218018,-0.6758418928685698,-1.4218647923239194,2.424333616498161,-0.7715442180633545,0.6255543828010559,-0.11576443910598755,-1.4150840044021606,1.6310566663742065,-0.0661424994468689
6.019963979721069,0.3287942409515381,0.159107506275177,-0.1284223198890686,-0.6780812579491597,-1.4123752968839094,2.3885913192830355,-0.7690256834030151,0.6272999048233032,-0.12285937368869781,-1.3628796339035034,1.5612125396728516,-0.1260121613740921
6.039968967437744,0.2999628186225891,0.1540575623512268,-0.13507896661758423,-0.6797665043742114,-1.4025982733438815,2.3552478910349675,-0.7667445540428162,0.6286114454269409,-0.1301950216293335,-1.254158616065979,1.5143002271652222,-0.1194576546549797
6.059988975524902,0.2610830068588257,0.1920369267463684,-0.10919204354286194,-0.6812777379025298,-1.392947239719698,2.323396757769144,-0.7645161747932434,0.6297860741615295,-0.13742046058177948,-1.2326229810714722,1.4608651399612427,-0.16331790387630463
6.079964876174927,0.23098909854888916,0.1806018352508545,-0.08349438011646271,-0.6827208906236492,-1.3847351239449797,2.290992251822192,-0.7624682188034058,0.6309064030647278,-0.14352580904960632,-1.2895820140838623,1.395217776298523,-0.13707223534584045
6.100001096725464,0.18213874101638794,0.16127556562423706,-0.06510782241821289,-0.685271631058882,-1.379206907861092,2.2569007825842973,-0.7600807547569275,0.6328833699226379,-0.14743176102638245,-1.3803925514221191,1.325181245803833,-0.1102120503783226
6.119971036911011,0.1167873740196228,0.18131273984909058,-0.031111180782318115,-0.6889792424390829,-1.37585596370614,2.2203068552062026,-0.7572751641273499,0.6357495784759521,-0.1495223492383957,-1.4572439193725586,1.3393590450286865,-0.06744047999382019
6.140054941177368,0.09027880430221558,0.2028336524963379,0.005418732762336731,-0.6936852751749419,-1.3715634460105843,2.1838899770606126,-0.7536851763725281,0.6393750905990601,-0.15217772126197815,-1.3711340427398682,1.421338438987732,-0.015626749023795128
6.159990072250366,0.10564887523651123,0.2245355248451233,0.03364430367946625,-0.6994094064612677,-1.3645519519581706,2.1515981379420333,-0.7490053772926331,0.6437658667564392,-0.15670639276504517,-1.1341124773025513,1.34650719165802,0.09404642879962921
6.179973840713501,0.11831158399581909,0.19075417518615723,0.06469748914241791,-0.7069287475515303,-1.3540150598231715,2.127372075067316,-0.7425640821456909,0.6495015621185303,-0.1635439097881317,-0.8597427606582642,1.2598048448562622,0.24101148545742035
6.199970960617065,0.08698701858520508,0.14651226997375488,0.07830645143985748,-0.7152147158867317,-1.342408033752381,2.109763517809312,-0.7353482842445374,0.6557795405387878,-0.1709272414445877,-0.6393211483955383,1.0418248176574707,0.26044347882270813
6.2199718952178955,0.026080548763275146,0.12881547212600708,0.09212525188922882,-0.722631588045126,-1.3311125391321454,2.0975314185230456,-0.7286257743835449,0.6613608002662659,-0.17806270718574524,-0.43417593836784363,0.9075577855110168,0.2478192001581192
6.239964008331299,-0.019435644149780273,0.12203735113143921,0.11213159561157227,-0.7287350583950254,-1.3194909658966254,2.0894308409936055,-0.7225841283798218,0.6659265160560608,-0.18551108241081238,-0.3413248658180237,0.823614239692688,0.19155631959438324
6.259972810745239,-0.02159106731414795,0.0794517993927002,0.1630464792251587,-0.7340222870192844,-1.3079247996438716,2.081035796645814,-0.7169802188873291,0.6698615550994873,-0.1929384022951126,-0.4093250036239624,0.8946504592895508,0.17392022907733917
6.279979944229126,0.03112691640853882,0.012435674667358398,0.16614218056201935,-0.7403694242286812,-1.2960140166977956,2.0712612522672145,-0.7105245590209961,0.6745606660842896,-0.20030654966831207,-0.4736832082271576,0.9245208501815796,0.23801711201667786
6.299976110458374,0.09871143102645874,-0.010932981967926025,0.16074520349502563,-0.7478879583234397,-1.2855784240080934,2.0605654591196068,-0.7035088539123535,0.6800918579101562,-0.20627740025520325,-0.46533575654029846,0.8475898504257202,0.24480277299880981
6.319990873336792,0.13680225610733032,-0.013646483421325684,0.12858882546424866,-0.7538327702766338,-1.2760909502445745,2.0514493724641407,-0.6976392269134521,0.684438169002533,-0.21176449954509735,-0.3038254678249359,0.7096876502037048,0.13060607016086578
6.339977979660034,0.18436920642852783,-0.05678880214691162,0.09054352343082428,-0.7571524170712016,-1.2660708726084462,2.0475768841758226,-0.6933109164237976,0.6868546009063721,-0.2180611789226532,-0.08472795784473419,0.5651708245277405,0.1155688539147377
6.35996413230896,0.22057020664215088,-0.08509564399719238,0.08296960592269897,-0.7598036034676214,-1.256226158986025,2.0482775760220773,-0.6893966197967529,0.6887790560722351,-0.22431175410747528,0.06253613531589508,0.3981055021286011,0.14425431191921234
6.380052804946899,0.22176200151443481,-0.07053303718566895,0.08185085654258728,-0.7627043411436427,-1.2473963633080656,2.050745775032165,-0.6854919791221619,0.6908791065216064,-0.22975431382656097,0.009180119261145592,0.31346678733825684,0.19352927803993225
6.399994134902954,0.21452116966247559,-0.04661965370178223,0.06843367218971252,-0.766908692194146,-1.2395116055404578,2.0532570690367478,-0.6809061169624329,0.6939126253128052,-0.23420511186122894,0.014214040711522102,0.3116554915904999,0.25249508023262024
6.419961929321289,0.20858633518218994,0.0654149055480957,0.08671683073043823,-0.7702561030156083,-1.2321549688155038,2.0545889072740997,-0.6769701838493347,0.6963191032409668,-0.23843497037887573,0.057238057255744934,0.33226028084754944,0.07307436317205429
6.439976930618286,0.22499042749404907,0.07627475261688232,0.048192813992500305,-0.770198426193424,-1.219925620696011,2.061989405677206,-0.6740413904190063,0.6962776780128479,-0.24670961499214172,0.39088863134384155,0.36126503348350525,0.14560581743717194
6.459964036941528,0.22842907905578613,0.10619783401489258,0.03399685025215149,-0.769751242863215,-1.2046163729497037,2.0750172152522377,-0.6704761981964111,0.6959566473960876,-0.2571108043193817,0.5109280943870544,0.24150827527046204,0.11100532859563828
6.479960918426514,0.19616442918777466,0.19003582000732422,-0.032670289278030396,-0.7675774155491432,-1.190601389184901,2.0909957115472992,-0.6682103872299194,0.6943939924240112,-0.26704278588294983,0.6367367506027222,0.048037879168987274,0.10454946011304855
6.499982118606567,0.1756523847579956,0.22569096088409424,-0.024689674377441406,-0.7641756008137666,-1.1772808037353435,2.109562308788912,-0.6667718887329102,0.691942036151886,-0.2768239378929138,0.7196347713470459,0.001819161931052804,0.09776768833398819
6.519972085952759,0.1922816038131714,0.15328657627105713,0.024384915828704834,-0.7612438744083269,-1.1634512170810363,2.1285641478510784,-0.6647396087646484,0.6898224949836731,-0.28682079911231995,0.6220154166221619,0.0720558613538742,0.1708284318447113
6.53996205329895,0.21103531122207642,0.10948163270950317,0.029597610235214233,-0.7600600061927307,-1.1509801438501766,2.1440331041901386,-0.6618562340736389,0.6889649629592896,-0.29542091488838196,0.491304874420166,0.08459135890007019,0.14497828483581543
6.55996298789978,0.2275879979133606,0.15827465057373047,-0.0014456212520599365,-0.7574590186681707,-1.1404741765636133,2.1587980846965196,-0.6603425741195679,0.6870774030685425,-0.3031044900417328,0.6309556365013123,-0.0590440109372139,0.06239129602909088
6.579962968826294,0.22369146347045898,0.19931596517562866,-0.017350852489471436,-0.751956876340611,-1.130668669827074,2.177899288951253,-0.660749077796936,0.6830692887306213,-0.3111708462238312,0.8684523105621338,-0.2616177201271057,-0.0015459043206647038
6.599963903427124,0.183759868144989,0.21173715591430664,-0.0007988512516021729,-0.7426367239422982,-1.12206825997005,2.2001668628517463,-0.6637556552886963,0.6762326955795288,-0.31958991289138794,0.9842056035995483,-0.3667508065700531,-0.14815780520439148
6.619990110397339,0.15914011001586914,0.20581722259521484,0.021918922662734985,-0.730196364042377,-1.1163030192718486,2.220570165626128,-0.6694093346595764,0.6670159697532654,-0.3270793855190277,0.9096288681030273,-0.42670518159866333,-0.3039272725582123
6.64007306098938,0.1626703143119812,0.17500722408294678,0.02701142430305481,-0.716661999331934,-1.1145458146388953,2.236593930092379,-0.6768763661384583,0.656871497631073,-0.3322024941444397,0.7567548155784607,-0.47014474868774414,-0.38710716366767883
6.660002946853638,0.1726425290107727,0.14542734622955322,0.036180853843688965,-0.7027527730000305,-1.1176567834255797,2.246989912320097,-0.686055064201355,0.6463207006454468,-0.33406293392181396,0.5787858366966248,-0.5312086939811707,-0.5205531716346741
6.679966926574707,0.18260854482650757,0.10665148496627808,0.06577014923095703,-0.6884653918743416,-1.1247331833321366,2.252087399903947,-0.6966619491577148,0.6353528499603271,-0.33314985036849976,0.384170264005661,-0.4977819621562958,-0.6007678508758545
6.699971914291382,0.1960422396659851,0.06696981191635132,0.09183642268180847,-0.674331660857972,-1.134571533380053,2.251990717323786,-0.7079747319221497,0.6243754029273987,-0.33004137873649597,0.197509765625,-0.49463212490081787,-0.6861600279808044
6.719972848892212,0.2136613130569458,0.03382444381713867,0.08655118942260742,-0.6599430630302386,-1.1484401962645259,2.2462454288568217,-0.7206041812896729,0.613071858882904,-0.3238406181335449,0.030151233077049255,-0.5597926378250122,-0.8205479979515076
6.73957085609436,0.19877779483795166,-0.008346855640411377,0.04028075933456421,-0.6436425886107258,-1.1648186049181815,2.2387712781520075,-0.7348954677581787,0.6001131534576416,-0.3159002661705017,0.0774051696062088,-0.5876316428184509,-0.9078726172447205
6.759980916976929,0.17731285095214844,-0.009901762008666992,0.0863523781299591,-0.6257524674776874,-1.181077599307518,2.2293239441273602,-0.7497463822364807,0.5857073068618774,-0.30794045329093933,-0.13845492899417877,-0.47155123949050903,-1.0458946228027344
6.779961824417114,0.2232370376586914,-0.06988507509231567,0.10732853412628174,-0.609898439414915,-1.1991624954692193,2.2121630593645674,-0.7637492418289185,0.5727841854095459,-0.29766666889190674,-0.6288119554519653,-0.3484462797641754,-0.9005310535430908
6.799969911575317,0.31680864095687866,-0.11783432960510254,0.096844881772995,-0.6026272004561688,-1.2199847363594327,2.1862085615288778,-0.7736721038818359,0.566808819770813,-0.2831241488456726,-1.0516574382781982,-0.28677311539649963,-0.5332038402557373
6.820000886917114,0.40939682722091675,-0.07924515008926392,0.11427021026611328,-0.6044067386958819,-1.2412159151935003,2.1579032535339735,-0.7785528302192688,0.5682740211486816,-0.2663087546825409,-1.1344578266143799,-0.2727063298225403,-0.06111380085349083
6.839964151382446,0.3742995858192444,-0.011871039867401123,0.057545438408851624,-0.6120964737620485,-1.2611746538310384,2.136100863188538,-0.7795272469520569,0.5745845437049866,-0.24937888979911804,-0.735289990901947,-0.46788716316223145,0.20479843020439148
6.859933137893677,0.18981969356536865,-0.04115790128707886,-0.04167455434799194,-0.6197488006551635,-1.276806062424195,2.128426457362708,-0.7790989279747009,0.5808306932449341,-0.23588278889656067,-0.07434675842523575,-0.6467517614364624,0.24822348356246948
6.88005805015564,-0.03530508279800415,-0.0299646258354187,-0.018805474042892456,-0.6196632135605851,-1.2882860249559709,2.13176256878818,-0.7818030714988708,0.5807610154151917,-0.22693723440170288,0.232474222779274,-0.6596465706825256,-0.20880870521068573
6.899964094161987,-0.09648334980010986,-0.10522288084030151,0.08238264918327332,-0.6125423434225412,-1.2997964860897384,2.1317435239219322,-0.7883282899856567,0.5749494433403015,-0.21902507543563843,-0.11005980521440506,-0.4745936393737793,-0.410457581281662
6.91999888420105,-0.03818851709365845,-0.1984339952468872,0.07111120223999023,-0.60717545895597,-1.3136276090497092,2.1222394835273817,-0.7942548394203186,0.5705500245094299,-0.20888280868530273,-0.46797671914100647,-0.3970104455947876,-0.3041743040084839
6.939964056015015,-0.00947725772857666,-0.12958455085754395,-0.010020002722740173,-0.6026838959497006,-1.32728931176806,2.1114348511019005,-0.7995132803916931,0.5668555498123169,-0.19862863421440125,-0.19492141902446747,-0.3552398979663849,-0.3750130832195282
6.959973096847534,0.05830413103103638,-0.08368140459060669,-0.0018481314182281494,-0.5952513982849819,-1.3354966106005304,2.1076627698334938,-0.8051915764808655,0.5607169270515442,-0.19303712248802185,0.058931056410074234,-0.26922184228897095,-0.4340938627719879
6.980008840560913,0.13439810276031494,-0.15619754791259766,-0.008361458778381348,-0.5866778208913592,-1.3399756488011618,2.1089096961785025,-0.8106982707977295,0.5535974502563477,-0.19052155315876007,0.22526271641254425,-0.274097204208374,-0.34297358989715576
6.999969959259033,0.17242324352264404,-0.15654230117797852,-0.005378171801567078,-0.5801067359766319,-1.343680031582865,2.1134910949044285,-0.8149251341819763,0.548113226890564,-0.18833212554454803,0.271900475025177,-0.37218526005744934,-0.24988611042499542
7.01996111869812,0.1471739411354065,-0.12314784526824951,0.002009555697441101,-0.5727807741762949,-1.3481830093565275,2.1210256764061763,-0.8196595311164856,0.5419710874557495,-0.1855422556400299,0.5340291857719421,-0.44860154390335083,-0.28538838028907776
7.039963006973267,0.1149054765701294,-0.12123262882232666,0.022347524762153625,-0.565380920549428,-1.349198718691198,2.1348062794556424,-0.8237373232841492,0.5357375144958496,-0.18558597564697266,0.7665277719497681,-0.3893826901912689,-0.22516092658042908
7.05996298789978,0.0586010217666626,-0.13909995555877686,0.05708874762058258,-0.5574128358658663,-1.346420215813919,2.1518757333278167,-0.8273540735244751,0.5289924144744873,-0.1888178288936615,0.7409834265708923,-0.24197112023830414,-0.22158391773700714
7.079983949661255,0.03643929958343506,-0.16128355264663696,0.10448336601257324,-0.5512183372740156,-1.3442791709317605,2.162943385716588,-0.8301252722740173,0.5237255096435547,-0.19132110476493835,0.24630071222782135,-0.1293918490409851,-0.1550263911485672
7.099970102310181,0.03599828481674194,-0.18149155378341675,0.11746835708618164,-0.5500249696683392,-1.3485605606355298,2.1594245350076986,-0.831545889377594,0.522708535194397,-0.18790289759635925,-0.5303299427032471,-0.12665005028247833,-0.01923356205224991
7.119966983795166,-0.03675127029418945,-0.11557722091674805,0.1111898422241211,-0.5540973530154533,-1.360073165904019,2.140613837091838,-0.8315654993057251,0.5261759161949158,-0.17787067592144012,-1.068015456199646,-0.059310682117938995,0.07464110106229782
7.139997959136963,-0.049562692642211914,-0.009116530418395996,0.12903833389282227,-0.5613988531516518,-1.374343207733482,2.115731566509406,-0.8302286863327026,0.5323708653450012,-0.16523215174674988,-1.0389128923416138,-0.03917292132973671,0.24546416103839874
7.159962892532349,0.09418618679046631,0.10835260152816772,0.13622266054153442,-0.571100036014264,-1.3845704087323785,2.0984314545062634,-0.8267607688903809,0.540557861328125,-0.15576915442943573,-0.40250149369239807,-0.09145708382129669,0.3830343782901764
7.179962873458862,0.18701177835464478,0.14126372337341309,0.07877643406391144,-0.5775545450093763,-1.3824432178512458,2.108497058626702,-0.822982907295227,0.5459767580032349,-0.15687088668346405,1.2026814222335815,-0.315358966588974,0.3757063150405884
7.20002007484436,0.05123680830001831,0.15103304386138916,0.06410324573516846,-0.5748206981971878,-1.3660540805581816,2.1572614392775273,-0.8217599391937256,0.5436843037605286,-0.17064005136489868,2.7206623554229736,-0.6680338978767395,0.1380760818719864
7.219970941543579,-0.23654764890670776,0.018313825130462646,0.2256225049495697,-0.5605938654201923,-1.3448005680804973,2.222662745881784,-0.8254032731056213,0.5316892862319946,-0.1897796243429184,2.818356513977051,-0.6311782598495483,-0.40240636467933655
7.239962816238403,-0.390497624874115,-0.15614205598831177,0.34314030408859253,-0.5384441997834728,-1.3278833500179617,2.2744440053571373,-0.8333030939102173,0.512800931930542,-0.20649778842926025,1.9138691425323486,-0.4388619065284729,-0.6992354393005371
7.260000944137573,-0.40697038173675537,-0.1582912802696228,0.3103110194206238,-0.5160875009949826,-1.3176549575094612,2.307402234461422,-0.8420378565788269,0.49348101019859314,-0.2178274393081665,1.5235819816589355,-0.18685948848724365,-0.6823871731758118
7.280000925064087,-0.4561617970466614,-0.014971613883972168,0.2948390245437622,-0.49462723370025274,-1.3074070082535165,2.3318160285335106,-0.8497922420501709,0.4747036099433899,-0.22914987802505493,1.1254620552062988,0.10280641168355942,-0.9169461727142334
7.29993200302124,-0.36822402477264404,-0.10023987293243408,0.27785778045654297,-0.4709066007662516,-1.2959643122560998,2.349217580142297,-0.8577129244804382,0.4536944031715393,-0.2418469786643982,1.1210193634033203,0.21994048357009888,-0.9337714910507202
7.320007085800171,-0.4013330340385437,-0.07636758685112,0.28745877742767334,-0.44505637383969304,-1.2828902248813017,2.3715179752358893,-0.8654364943504333,0.4305087625980377,-0.25628504157066345,1.5782420635223389,0.1234738677740097,-1.0304213762283325
7.339125871658325,-0.4979463815689087,-0.0003497898578643799,0.3307746350765228,-0.41284110063398777,-1.269321276427093,2.4021305857141075,-0.8746733069419861,0.4012133479118347,-0.27198246121406555,2.011399507522583,-0.08167262375354767,-1.1387256383895874
7.3600029945373535,-0.4343247413635254,-0.01013287901878357,0.32577651739120483,-0.38232474046420484,-1.2605336855366538,2.4363104665791333,-0.8835006952285767,0.3730783760547638,-0.28326544165611267,1.8198915719985962,-0.35855013132095337,-0.9628087878227234
7.379974126815796,-0.5203095078468323,0.03711932897567749,0.2926328182220459,-0.3488013560038269,-1.2565732210148617,2.468462710000364,-0.8937683701515198,0.34177160263061523,-0.2904660403728485,2.2712347507476807,-0.23375500738620758,-1.147200345993042
7.400028944015503,-0.4772065281867981,-0.009811371564865112,0.32285550236701965,-0.3178396369258324,-1.24480340802641,2.5078443019042354,-0.8998839855194092,0.31251513957977295,-0.3042091727256775,2.0261929035186768,0.05418241396546364,-0.655447781085968
7.419965028762817,-0.4678950309753418,-0.22169479727745056,0.3354702889919281,-0.29934154864396895,-1.2346074014738497,2.5363677596938863,-0.9020390510559082,0.2948910892009735,-0.31522175669670105,1.0402098894119263,0.12126868218183517,-0.17538560926914215
7.4399919509887695,-0.4552898406982422,-0.4246075451374054,0.3555087149143219,-0.2985127029016676,-1.2280387594866935,2.548678144536372,-0.9001789093017578,0.29409900307655334,-0.32122212648391724,-0.0021649328991770744,0.1957925409078598,0.4385776221752167
7.460031986236572,-0.4828926920890808,-0.42011022567749023,0.25645485520362854,-0.30995215247138413,-1.2247896263931988,2.550162532398727,-0.8959068059921265,0.3050130605697632,-0.322983056306839,-0.021679632365703583,-0.08567961305379868,0.6378011107444763
7.479986906051636,-0.4009854197502136,-0.2754020094871521,0.16046693921089172,-0.32309294545963746,-1.2270765344337482,2.5603337766880743,-0.8927922248840332,0.3175009787082672,-0.31955504417419434,0.4279363453388214,-0.3751397430896759,1.0125466585159302
7.499974012374878,-0.5256317257881165,-0.35232996940612793,0.22415068745613098,-0.3437232226369054,-1.2273057182807376,2.5761917367250655,-0.8865083456039429,0.33699485659599304,-0.3170766830444336,0.18996886909008026,-0.038175661116838455,1.4490548372268677
7.519972085952759,-0.7949631810188293,-0.2419152557849884,0.17267447710037231,-0.37700332237994083,-1.221994315936484,2.582384062913789,-0.8737838268280029,0.36813589930534363,-0.3177702724933624,-0.8568230271339417,0.32380422949790955,1.883392095565796
7.539993047714233,-0.828679621219635,-0.18950626254081726,0.1153937578201294,-0.4274906861931705,-1.221874588925815,2.5708155725461572,-0.855173647403717,0.41458860039711,-0.3111181855201721,-1.7667551040649414,0.08661554008722305,2.4925730228424072
7.5599730014801025,-0.8854188919067383,-0.09615495800971985,0.24575957655906677,-0.49167249799412377,-1.2291144633461388,2.5481297356687374,-0.8305845856666565,0.4721009433269501,-0.2953810691833496,-2.0600225925445557,0.0568307489156723,2.7796435356140137
7.579998016357422,-1.0029494762420654,0.05693674087524414,0.1320537030696869,-0.5528799653132299,-1.23410422088216,2.5370030145996223,-0.8032335042953491,0.5251402854919434,-0.2811473309993744,-0.8719071745872498,0.030918901786208153,2.663348436355591
7.59999680519104,-0.973846435546875,0.11542385816574097,0.03656744956970215,-0.6004099654752022,-1.22982537060187,2.5503676466167424,-0.777603268623352,0.5649808049201965,-0.2759167551994324,0.21743786334991455,-0.280813068151474,2.2173261642456055
7.6200549602508545,-0.9025223851203918,-0.07159531116485596,0.10776305198669434,-0.6385410889549717,-1.2222124947984774,2.5728044283070877,-0.7546737790107727,0.5960246324539185,-0.27426692843437195,-0.001889549195766449,-0.23528926074504852,1.9985971450805664
7.640062093734741,-0.8337318301200867,-0.12774980068206787,0.11304342746734619,-0.6755656984488206,-1.2239962005378242,2.576905968073073,-0.7338952422142029,0.6253388524055481,-0.26523450016975403,-0.9292188286781311,-0.194774329662323,1.6152663230895996
7.660218000411987,-0.7131288051605225,0.009099423885345459,0.015505462884902954,-0.7111491265424102,-1.2349755952185177,2.563131537958702,-0.7152923941612244,0.6527047753334045,-0.24966678023338318,-1.1104613542556763,0.03394034877419472,1.3575176000595093
7.680048942565918,-0.6253447532653809,0.18960601091384888,-0.13973718881607056,-0.738076912317261,-1.241380741051687,2.5522331078665057,-0.6999880075454712,0.6728665232658386,-0.23930631577968597,-0.3489378094673157,-0.09853167831897736,0.9587460160255432
7.70002293586731,-0.4083041548728943,0.26775312423706055,-0.15984010696411133,-0.755323776173448,-1.2398546639278194,2.5597388445812146,-0.688543438911438,0.6855244040489197,-0.23656794428825378,0.09501880407333374,-0.1541564166545868,0.8367294669151306
7.720014810562134,-0.4048653244972229,0.07825666666030884,-0.02620135247707367,-0.7693083444590305,-1.2411613394023127,2.559698498267696,-0.6797142028808594,0.6956385374069214,-0.23254184424877167,-0.6258249282836914,-0.005932766944169998,0.4934694766998291
7.739971876144409,-0.2304316759109497,0.030932486057281494,-0.04853874444961548,-0.7832179251499831,-1.2552867107530312,2.5389091026226054,-0.6736669540405273,0.7055634260177612,-0.21989381313323975,-1.166507363319397,-0.045948803424835205,0.357258141040802
7.767364978790283,-0.1016663908958435,0.15714764595031738,-0.056680843234062195,-0.8051719363296246,-1.302199141996754,2.4833927350049594,-0.6681395769119263,0.7209498286247253,-0.18390439450740814,-0.6486321091651917,-0.10204331576824188,0.17241565883159637
7.788250923156738,-0.017352044582366943,0.24340951442718506,-0.18112172186374664,-0.8096024741016524,-1.3126394856774044,2.474177230577184,-0.6669285297393799,0.7240130305290222,-0.17610174417495728,-0.1774527132511139,-0.24140991270542145,0.12011289596557617
7.808243036270142,0.026763975620269775,0.10983091592788696,-0.12096096575260162,-0.8132862973362178,-1.3214400167481573,2.466749446282677,-0.6658632755279541,0.7265491485595703,-0.1695663332939148,-0.46265074610710144,-0.11565855145454407,0.0509471632540226
7.828222036361694,0.10329008102416992,0.0003764629364013672,-0.07277773320674896,-0.8162934324698113,-1.3389396322984766,2.445790467154091,-0.6665988564491272,0.7286121249198914,-0.15738579630851746,-0.9894518256187439,-0.09107980132102966,0.013598082587122917
7.848582983016968,0.12679564952850342,0.08401715755462646,-0.032736778259277344,-0.8222052008961059,-1.3626675470392473,2.4151298743032936,-0.665919303894043,0.732648491859436,-0.1406334936618805,-1.0950963497161865,-0.057986557483673096,0.03441334515810013
7.868217945098877,0.09018981456756592,0.23613101243972778,-0.09227393567562103,-0.8271294895366185,-1.380415951272386,2.3924081817972533,-0.6647595763206482,0.7359911203384399,-0.1281086802482605,-0.5229965448379517,-0.0671207532286644,0.14925327897071838
7.888272047042847,0.22494566440582275,0.10693514347076416,-0.04427798092365265,-0.8318520169816529,-1.3895526181436855,2.38183901137579,-0.6624763607978821,0.7391799688339233,-0.12140191346406937,-0.38636156916618347,-0.053055182099342346,0.2214428037405014
7.907986879348755,0.32165688276290894,-0.05657285451889038,-0.00028055906295776367,-0.8398999694869543,-1.4020191980957257,2.3671581714567678,-0.6580522656440735,0.7445763349533081,-0.11213091015815735,-0.7662529945373535,-0.13621461391448975,0.414960116147995
7.928055047988892,0.28763139247894287,-0.13919693231582642,0.008227288722991943,-0.8520947406238887,-1.4265360767757038,2.339134451368043,-0.6515688896179199,0.7526612281799316,-0.09465301781892776,-1.1942448616027832,-0.19267575442790985,0.4656212627887726
7.947711944580078,0.2573760747909546,-0.2140873670578003,5.304813385009766e-06,-0.8644189060929048,-1.4566429984538427,2.3032275089699983,-0.6448578834533691,0.7607182264328003,-0.07393410056829453,-1.2352697849273682,-0.13566111028194427,0.42341914772987366
7.967705011367798,0.3901650309562683,-0.3110036849975586,-0.019685566425323486,-0.8754572636732564,-1.4860969404673616,2.2693928337020486,-0.6383493542671204,0.7678365111351013,-0.054197464138269424,-0.9811916351318359,-0.2705627381801605,0.48799726366996765
7.986780881881714,0.39378881454467773,-0.3214629888534546,-0.051680561155080795,-0.8868597306526073,-1.5132634100107123,2.2452889771279407,-0.630803644657135,0.7750914096832275,-0.03633206710219383,-0.7162357568740845,-0.604678213596344,0.5217717885971069
8.007768869400024,0.26371651887893677,-0.2812191843986511,-0.11124742031097412,-0.8986968074821173,-1.5412786904194695,2.229034430638137,-0.6223592162132263,0.7825161814689636,-0.018375910818576813,-0.39936956763267517,-0.9193023443222046,0.6700425148010254
8.027637958526611,0.17484039068222046,-0.2262868881225586,-0.22124892473220825,-0.9123909010480734,-1.5670748499625005,2.222161748133776,-0.61185222864151,0.7909688949584961,-0.0022770045325160027,0.04240924492478371,-1.0226207971572876,0.7438308000564575
8.047757863998413,0.1921381950378418,-0.19514095783233643,-0.26893937587738037,-0.9276500691437817,-1.5780022854019402,2.231531599550483,-0.5997005105018616,0.8002128601074219,0.004321491811424494,0.5325669646263123,-0.8083540201187134,0.7103778123855591
8.066484928131104,0.2899473309516907,-0.32464873790740967,-0.258547306060791,-0.9423854625298634,-1.5710859451268924,2.2518375054367903,-0.5878600478172302,0.8089627027511597,0.00017025505076162517,0.541375994682312,-0.17669376730918884,0.7103539109230042
8.086557149887085,0.39779865741729736,-0.3896547555923462,-0.36216533184051514,-0.9558583723620665,-1.5579911291100788,2.2670015322675225,-0.5768606066703796,0.8168092370033264,-0.007387217599898577,0.24782584607601166,0.21019206941127777,0.7065447568893433
8.106604814529419,0.5926904082298279,-0.365070641040802,-0.362030029296875,-0.9708523393101908,-1.5489577240084866,2.2711076738911795,-0.5644617676734924,0.8253672122955322,-0.01232901681214571,0.05489390343427658,0.3528037369251251,0.8113464117050171
