timestamp,acceleration_x,acceleration_y,acceleration_z,attitude_pitch,attitude_roll,attitude_yaw,gravity_x,gravity_y,gravity_z,rotation_x,rotation_y,rotation_z
0.0,0.19071543216705322,-0.14600664377212524,-0.07945901155471802,-0.6229085594465326,-1.0762044000897801,-1.9591095298657533,-0.714854896068573,0.5833998918533325,-0.3855219781398773,-2.284365177154541,0.15280681848526,-1.1749244928359985
0.019802093505859375,0.20443964004516602,-0.10994225740432739,-0.14505204558372498,-0.6245154323300882,-1.1118040294188598,-2.022998551581703,-0.7272820472717285,0.5847042202949524,-0.35941869020462036,-2.306959629058838,-0.05269308388233185,-1.085271954536438
0.040544986724853516,0.11909610033035278,0.0033063888549804688,-0.19819486141204834,-0.6228075079980158,-1.14718248548503,-2.077291647965454,-0.7404493093490601,0.5833178162574768,-0.3338790535926819,-1.5711758136749268,-0.21018017828464508,-0.944430947303772
0.06002616882324219,0.05606919527053833,0.03929638862609863,-0.15086159110069275,-0.6168342110869715,-1.1715606583885794,-2.1137328182587423,-0.7515648007392883,0.5784556865692139,-0.3170796036720276,-0.9770540595054626,-0.12558051943778992,-0.8327392935752869
0.08058023452758789,0.10703128576278687,-0.005775272846221924,-0.08609440922737122,-0.608177798957066,-1.1885162555667736,-2.14057740910222,-0.7614504098892212,0.571372926235199,-0.306147962808609,-0.7466664910316467,-0.03469916805624962,-0.7917618751525879
0.10057711601257324,0.20363259315490723,-0.07018274068832397,-0.10546192526817322,-0.5991146211144169,-1.2015074900434595,-2.1621015368000034,-0.7701611518859863,0.563911497592926,-0.2980872094631195,-0.612753689289093,-0.05063827708363533,-0.6922996044158936
0.1205592155456543,0.2918914556503296,-0.1034441590309143,-0.08737221360206604,-0.5917021852663467,-1.214776559606303,-2.1822616394622885,-0.7779449820518494,0.5577746033668518,-0.2892908751964569,-0.7209529280662537,-0.14330491423606873,-0.5944619178771973
0.14061498641967773,0.2593373656272888,-0.14218378067016602,-0.08330106735229492,-0.5859194705702072,-1.2303541994783316,-2.2033054280406423,-0.7853841781616211,0.5529657006263733,-0.2782101035118103,-0.7065581679344177,-0.20151087641716003,-0.5961989164352417
0.1601710319519043,0.16831845045089722,-0.14552390575408936,-0.034740149974823,-0.5768794422903868,-1.244728847848526,-2.2246069278265583,-0.7940052151679993,0.5454110503196716,-0.26848241686820984,-0.6873459815979004,-0.056118085980415344,-0.8507943749427795
0.1799602508544922,0.1998136043548584,-0.1285279393196106,-0.02595418691635132,-0.5629272747129024,-1.2571068369601115,-2.2462554077707777,-0.8044279217720032,0.5336640477180481,-0.260956734418869,-0.6036434173583984,-0.05027475208044052,-1.0254780054092407
0.2006511688232422,0.2760922312736511,-0.07936984300613403,-0.03663948178291321,-0.5466520054150199,-1.2694131810849871,-2.265647120465565,-0.8157651424407959,0.519830048084259,-0.25358253717422485,-0.44769808650016785,-0.1466682255268097,-0.9995700716972351
0.22056818008422852,0.308333158493042,-0.060916125774383545,-0.0542202889919281,-0.5307000224121082,-1.2797049727078473,-2.2790903279532486,-0.8261708617210388,0.5061371922492981,-0.24752220511436462,-0.2234380841255188,-0.1400449424982071,-0.8506482243537903
0.24056625366210938,0.3212980628013611,-0.03182944655418396,-0.04020047187805176,-0.5170563031644844,-1.2863970705364531,-2.2878037269999645,-0.8343596458435059,0.49432340264320374,-0.24390286207199097,-0.09659921377897263,-0.08807335793972015,-0.7128540277481079
0.2603292465209961,0.2889113426208496,-0.004937320947647095,-0.035589128732681274,-0.5038979905725218,-1.288647577304712,-2.2908436975591027,-0.8410813212394714,0.48284268379211426,-0.24381449818611145,0.2619050145149231,-0.008536185137927532,-0.6071915030479431
0.28087615966796875,0.20978045463562012,0.03616619110107422,0.008638471364974976,-0.49056871131673135,-1.2856115710171234,-2.2853217697335304,-0.8464384078979492,0.47112759947776794,-0.2481556236743927,0.5194802284240723,0.05952133983373642,-0.5897322297096252
0.3001401424407959,0.13486641645431519,0.03467583656311035,0.06016117334365845,-0.47517771977933887,-1.2805322714081102,-2.278558552555932,-0.8520143628120422,0.4574964940547943,-0.2544970214366913,0.4376629590988159,0.13786515593528748,-0.6985287070274353
0.3210182189941406,0.20229119062423706,-0.03170856833457947,0.09060800075531006,-0.46091084149130485,-1.2754317722798185,-2.2759761230512154,-0.8568627834320068,0.44476407766342163,-0.2607129216194153,0.18907004594802856,0.2359253168106079,-0.6146466732025146
0.34056520462036133,0.22586536407470703,0.004087269306182861,0.09335696697235107,-0.4491061133338613,-1.271655068478396,-2.277949609598767,-0.8608294129371643,0.4341604709625244,-0.2654759883880615,0.002591831609606743,0.2118731439113617,-0.5418916344642639
0.3605833053588867,0.18890362977981567,0.02684539556503296,0.11277848482131958,-0.43963397348055816,-1.269639867570546,-2.283016287739078,-0.8641814589500427,0.4256082773208618,-0.2684180438518524,-0.07174358516931534,0.2258901596069336,-0.4685228765010834
0.3810901641845703,0.1592145562171936,-0.04100713133811951,0.08457207679748535,-0.43403935422268186,-1.2639738232767546,-2.2821338372618105,-0.8649031519889832,0.4205390214920044,-0.2740251123905182,0.3628096282482147,0.26311272382736206,-0.06671380251646042
0.4008359909057617,0.1376720666885376,0.057838380336761475,-0.007633805274963379,-0.4306625937451389,-1.254108286095359,-2.2665167333156337,-0.8635022044181824,0.4174729883670807,-0.28298500180244446,1.111092448234558,0.053693633526563644,0.16523142158985138
0.4206681251525879,0.024019718170166016,0.21370017528533936,0.003796875476837158,-0.4230428326829478,-1.2433871800935874,-2.2376150666872094,-0.8634058237075806,0.4105369448661804,-0.2932407557964325,1.6332823038101196,-0.15300415456295013,-0.17291812598705292
0.4407320022583008,-0.17515969276428223,0.3227851986885071,0.08026620745658875,-0.40147537949193846,-1.2350530627972727,-2.2070109353006386,-0.8690907955169678,0.3907768428325653,-0.3032732903957367,1.6236330270767212,-0.2408326268196106,-0.9574748277664185
0.46068525314331055,-0.2145048975944519,0.17061007022857666,0.08859485387802124,-0.37106525499026977,-1.231522547187635,-2.187058822122527,-0.8788179159164429,0.362608402967453,-0.31015241146087646,1.0387245416641235,-0.12169478833675385,-1.1747467517852783
0.480715274810791,-0.1626484990119934,-0.015637636184692383,0.09999546408653259,-0.34684532513688937,-1.2308242235076994,-2.1830461782416175,-0.8866221308708191,0.3399326801300049,-0.31360313296318054,0.17037570476531982,0.06144556403160095,-0.997189462184906
0.5008471012115479,-0.2495359182357788,0.10698086023330688,0.07928258180618286,-0.32795912199155014,-1.2303637264016465,-2.1891006430428543,-0.892370879650116,0.3221116065979004,-0.3160988986492157,0.04047117009758949,0.16407349705696106,-1.0408014059066772
0.5366091728210449,-0.31628096103668213,0.11447739601135254,0.1235789954662323,-0.2837866387176595,-1.225267214154393,-2.2002952199160437,-0.9032625555992126,0.27999281883239746,-0.32514750957489014,0.1450715959072113,0.133184552192688,-1.1014448404312134
0.5401730537414551,-0.31628096103668213,0.11447739601135254,0.1235789954662323,-0.2837866387176595,-1.225267214154393,-2.2002952199160437,-0.9032625555992126,0.27999281883239746,-0.32514750957489014,0.1450715959072113,0.133184552192688,-1.1014448404312134
0.5649731159210205,-0.30194514989852905,0.30881351232528687,0.09160828590393066,-0.24109221052234991,-1.226687635223502,-2.1994173903038416,-0.9141498804092407,0.23876339197158813,-0.3276006579399109,0.6622083783149719,-0.19319365918636322,-1.0084079504013062
0.5843501091003418,-0.31349945068359375,0.2233666032552719,0.1278652548789978,-0.2184609613547246,-1.2296551263298785,-2.194493533488031,-0.9199753403663635,0.21672742068767548,-0.3266109228134155,0.43161749839782715,-0.16803929209709167,-0.9178248047828674
0.6038022041320801,-0.26885002851486206,0.050543636083602905,0.22523993253707886,-0.20320174490230203,-1.2313321664611352,-2.197174193593003,-0.9235329031944275,0.2018062323331833,-0.3261309564113617,-0.17019912600517273,0.06309512257575989,-0.6384202837944031
0.6244339942932129,-0.29187673330307007,0.08326764404773712,0.2729548215866089,-0.1944757021977361,-1.2293947269520353,-2.2068248896558265,-0.9245235323905945,0.19325214624404907,-0.3284967541694641,-0.3338828682899475,0.33304858207702637,-0.5200992226600647
0.6437792778015137,-0.32783424854278564,0.1863623410463333,0.23166072368621826,-0.18519309106681925,-1.2233861663525094,-2.2129729849915067,-0.9241800308227539,0.18413633108139038,-0.3346422016620636,0.10822965949773788,0.3418118953704834,-0.5294911861419678
0.6664443016052246,-0.2889450788497925,0.17343953251838684,0.23722180724143982,-0.17452149790068477,-1.2173837081747014,-2.210564167878027,-0.9239457249641418,0.17363692820072174,-0.34084421396255493,0.42751839756965637,0.210453063249588,-0.3637540638446808
0.6799392700195312,-0.2889450788497925,0.17343953251838684,0.23722180724143982,-0.17452149790068477,-1.2173837081747014,-2.210564167878027,-0.9239457249641418,0.17363692820072174,-0.34084421396255493,0.42751839756965637,0.210453063249588,-0.3637540638446808
0.7086341381072998,-0.32087719440460205,0.025222256779670715,0.3915347158908844,-0.1725473827508351,-1.208597781579854,-2.2102948130475815,-0.9212342500686646,0.17169246077537537,-0.3490694463253021,-0.569237232208252,0.09081365913152695,0.1323431134223938
0.7285070419311523,-0.3528652787208557,0.19814522564411163,0.3339739441871643,-0.1789527955461291,-1.2123476012167993,-2.222734171701257,-0.9214878678321838,0.17799918353557587,-0.34521961212158203,-0.712107241153717,-0.2599061131477356,0.07439836859703064
0.7499423027038574,-0.396440327167511,0.1688869744539261,0.3484906554222107,-0.18648588429000984,-1.2220002500255114,-2.235602058851605,-0.9234908223152161,0.1854068636894226,-0.3358410596847534,-0.7263213396072388,-0.36101672053337097,0.22357159852981567
0.7660202980041504,-0.4581379294395447,0.0774117112159729,0.40338635444641113,-0.19873523405067334,-1.2282015564997069,-2.2478694760623616,-0.9233471751213074,0.1974296122789383,-0.32932010293006897,-0.869134247303009,-0.08882321417331696,0.4751169681549072
0.7883131504058838,-0.45597273111343384,0.16421976685523987,0.36359408497810364,-0.21380936641760157,-1.2348390340779671,-2.2616121447929918,-0.9225978255271912,0.21218405663967133,-0.3221663534641266,-0.8290075659751892,-0.5104457139968872,0.6299381256103516
0.8089420795440674,-0.35715168714523315,0.19803649187088013,0.20733857154846191,-0.23189271657725058,-1.2513328976836862,-2.265889028000009,-0.9239916205406189,0.22981998324394226,-0.30565088987350464,-0.3723193109035492,-1.000765323638916,0.8808364868164062
0.8280971050262451,-0.515556812286377,0.11783529818058014,0.1946241557598114,-0.25171195930998796,-1.2704503202314288,-2.259643940285001,-0.9251325130462646,0.24906232953071594,-0.2865277826786041,0.2813940644264221,-1.0274158716201782,1.2047460079193115
0.8470091819763184,-0.52574622631073,0.14844393730163574,0.19409224390983582,-0.27551496905187683,-1.2835646661861109,-2.2426556063539484,-0.92286217212677,0.27204251289367676,-0.27261385321617126,0.5792803764343262,-0.7592582702636719,1.5308728218078613
0.8679022789001465,-0.5176260471343994,0.1953738033771515,0.10982400178909302,-0.30108264128117546,-1.293257744819494,-2.223021126228826,-0.9184702038764954,0.2965543270111084,-0.26166415214538574,0.4633743166923523,-0.8061736822128296,1.4563730955123901
0.8879899978637695,-0.5352144241333008,0.1401970386505127,0.08444422483444214,-0.32859009908859116,-1.3050449854059727,-2.208136032209001,-0.913271963596344,0.3227088749408722,-0.24858294427394867,0.18019996583461761,-0.797226071357727,1.598016381263733
0.9059581756591797,-0.5578646659851074,0.09060722589492798,0.07556137442588806,-0.35985849792020275,-1.3174857381915397,-2.198450871074918,-0.9060787558555603,0.352141797542572,-0.2345578372478485,-0.06984013319015503,-0.8022822141647339,1.624517798423767
0.9283981323242188,-0.49344998598098755,0.16273757815361023,0.034565269947052,-0.39128394258288185,-1.3307186759065457,-2.1903247528607257,-0.8979074954986572,0.38137564063072205,-0.21980686485767365,0.09107904136180878,-0.8175144791603088,1.6327667236328125
0.9478261470794678,-0.5039074420928955,0.18007975816726685,-0.032958388328552246,-0.42145951268272674,-1.342827273934808,-2.1764213686632776,-0.888884425163269,0.4090926945209503,-0.2062230408191681,0.46948134899139404,-0.9591461420059204,1.6048110723495483
0.9676241874694824,-0.4823756814002991,0.11754679679870605,-0.052052900195121765,-0.45067038212649607,-1.354186936038556,-2.1553140395838475,-0.8791202902793884,0.43556907773017883,-0.19346092641353607,0.6962480545043945,-1.064832091331482,1.6626322269439697
0.9881951808929443,-0.47084301710128784,0.057324886322021484,-0.021808981895446777,-0.48006882041063065,-1.3660464523315619,-2.133501539977293,-0.8684362769126892,0.4618402123451233,-0.18033938109874725,0.5664007663726807,-1.0867640972137451,1.6237648725509644
1.0078961849212646,-0.4472091794013977,-0.026119112968444824,-0.030325353145599365,-0.5100622500880196,-1.3781078882416358,-2.1154151813540025,-0.8565629124641418,0.4882315695285797,-0.16712327301502228,0.36644092202186584,-0.9551795125007629,1.6665339469909668
1.0275073051452637,-0.4574647545814514,-0.036134421825408936,-0.054804250597953796,-0.5413114992871071,-1.3905453759720439,-2.103846681671524,-0.8431485891342163,0.5152604579925537,-0.15364596247673035,0.03935728967189789,-0.8801658749580383,1.5763462781906128
1.0473661422729492,-0.47926247119903564,-0.04569214582443237,-0.0892777293920517,-0.5723244594575652,-1.405887930515981,-2.09981300619984,-0.8292397856712341,0.5415875315666199,-0.13800184428691864,-0.24955017864704132,-0.8908306956291199,1.5516716241836548
1.0671262741088867,-0.5507221817970276,-0.06736087799072266,-0.04132264107465744,-0.6033715579070326,-1.4249074023355348,-2.1039165263542547,-0.8146800994873047,0.5674219131469727,-0.1197032481431961,-0.5404622554779053,-0.7475131154060364,1.4672003984451294
1.0872759819030762,-0.5864577889442444,-0.05912148952484131,-0.07100927084684372,-0.6331458602904547,-1.4426410802875027,-2.111721557240564,-0.7995591163635254,0.5916838049888611,-0.10303237289190292,-0.47586333751678467,-0.5916523933410645,1.4249558448791504
1.1009361743927002,-0.5346987247467041,-0.05222445726394653,-0.11897795647382736,-0.6623461409382065,-1.4588400969722233,-2.120659695630957,-0.7836148738861084,0.6149685978889465,-0.08809895813465118,-0.6700835824012756,-0.49126359820365906,1.3712713718414307
1.1230251789093018,-0.49332869052886963,-0.12015020847320557,-0.1283314824104309,-0.6897046270403637,-1.4797298458413888,-2.140737691146791,-0.7682375311851501,0.6363093256950378,-0.07015473395586014,-1.1398452520370483,-0.33441364765167236,1.1899404525756836
1.142472267150879,-0.3925740718841553,-0.026543855667114258,-0.1766524314880371,-0.7118324666519897,-1.5043874120516747,-2.1700507626523757,-0.7554972171783447,0.6532223224639893,-0.05024563521146774,-1.2012587785720825,-0.2790720760822296,0.8346680998802185
1.1641011238098145,-0.26284873485565186,0.03488057851791382,-0.2528308033943176,-0.7279972051392953,-1.5277876062204676,-2.1964660014952897,-0.7458183765411377,0.6653758883476257,-0.032096486538648605,-0.8363034725189209,-0.3076806366443634,0.7354933619499207
1.1854171752929688,-0.15095728635787964,0.033602237701416016,-0.2742181420326233,-0.7428493762787599,-1.544797340400522,-2.2132596049992808,-0.7362957000732422,0.6763893365859985,-0.019147256389260292,-0.49789100885391235,-0.301636666059494,0.6582782864570618
1.2077140808105469,-0.06686258316040039,0.024101316928863525,-0.27752435207366943,-0.7547155823403292,-1.5601729898438021,-2.2250530009867564,-0.7284256219863892,0.6850814819335938,-0.007738601882010698,-0.4410449266433716,-0.43457910418510437,0.530132532119751
1.2271161079406738,0.0325203537940979,-0.023864567279815674,-0.24613213539123535,-0.7645325051213614,-1.5787360392342256,-2.2380182794172,-0.7216837406158447,0.69219970703125,0.00573008181527257,-0.49189698696136475,-0.5174559950828552,0.46339303255081177
1.2484631538391113,0.13091832399368286,0.033438026905059814,-0.2603503465652466,-0.7732717808682197,-1.5974165604550283,-2.2491920743447973,-0.7153757810592651,0.6984803676605225,0.019047969952225685,-0.193790465593338,-0.5776664018630981,0.45447489619255066
1.2667880058288574,0.20561271905899048,0.06504738330841064,-0.3127943277359009,-0.7836326031359041,-1.6083147277887033,-2.247066384834227,-0.7078558206558228,0.7058572173118591,0.026570087298750877,0.3311256766319275,-0.683474063873291,0.5792169570922852
1.2868671417236328,0.25264132022857666,0.034320294857025146,-0.2569746971130371,-0.7962870117833524,-1.6143829461071737,-2.2350551919106834,-0.6987016797065735,0.7147642970085144,0.030473344027996063,0.5239076614379883,-0.7527585029602051,0.6639127135276794
1.3067669868469238,0.26585859060287476,-0.025093376636505127,-0.1823875904083252,-0.8103240446593392,-1.6184541200047429,-2.220697548614487,-0.6884813904762268,0.7245105504989624,0.032836366444826126,0.5606620907783508,-0.726024329662323,0.6766526103019714
1.3265221118927002,0.3201647996902466,0.004801273345947266,-0.19459259510040283,-0.8247083231534357,-1.6199085858580229,-2.200884132095053,-0.6779529452323914,0.7343498468399048,0.033322595059871674,0.9212732911109924,-0.8528093695640564,0.743010401725769
1.345695972442627,0.3918799161911011,-0.02976226806640625,-0.19211864471435547,-0.8423710247261378,-1.6150882098147958,-2.1690783030363368,-0.6650428771972656,0.7462235689163208,0.029475277289748192,1.2780227661132812,-1.036620855331421,0.9084463715553284
1.3654870986938477,0.38526344299316406,-0.09543615579605103,-0.15391242504119873,-0.8624485573682942,-1.6055813447359244,-2.1277198834051063,-0.6501866579055786,0.7594377994537354,0.022625882178544998,1.5246919393539429,-1.060003638267517,0.9922509789466858
1.386322021484375,0.3325633406639099,-0.13802570104599,-0.10289585590362549,-0.884093644327164,-1.5920111231171539,-2.0829974771649087,-0.6338481307029724,0.7733407020568848,0.013448976911604404,1.4023563861846924,-0.9888579249382019,0.9728506207466125
1.4062952995300293,0.29684698581695557,-0.16085398197174072,-0.09112906455993652,-0.902744867774438,-1.576319927482029,-2.0387665082783575,-0.6194484233856201,0.7850301861763,0.003421620698645711,1.4686808586120605,-0.8985061049461365,0.9353577494621277
1.424272060394287,0.34348922967910767,-0.15575408935546875,-0.09118199348449707,-0.9199234062362723,-1.5547206672678267,-1.9885731740151862,-0.6058031320571899,0.7955552339553833,-0.009739523753523827,1.5534093379974365,-0.9355149865150452,0.7567745447158813
1.4459919929504395,0.36062902212142944,-0.14849853515625,-0.03392261266708374,-0.9341216006874554,-1.5324723817270365,-1.936170404897333,-0.5940884947776794,0.8040771484375,-0.022778969258069992,1.586281657218933,-0.9861828088760376,0.7431644797325134
1.4660840034484863,0.3049161434173584,-0.14045584201812744,-0.022483162581920624,-0.9467523776111069,-1.508565480402791,-1.8818805769715483,-0.5831906199455261,0.8115221261978149,-0.03633936867117882,1.5390937328338623,-1.0077221393585205,0.6537589430809021
1.4850330352783203,0.2854897975921631,-0.11218464374542236,-0.04225611314177513,-0.9579967222741386,-1.4834107165282058,-1.8272480789849754,-0.5729653835296631,0.8180410265922546,-0.05019676685333252,1.5365456342697144,-0.9391582608222961,0.7562808990478516
1.5059881210327148,0.32130712270736694,-0.10357433557510376,-0.012277603149414062,-0.9703278871603244,-1.4581793434377257,-1.7740703295660198,-0.5614500045776367,0.8250710368156433,-0.06349746882915497,1.3608577251434326,-0.9303693175315857,0.7109257578849792
1.5259251594543457,0.3051005005836487,-0.047902822494506836,0.028273947536945343,-0.9795038112338199,-1.4362908553336744,-1.7255785358784326,-0.5523996949195862,0.8302208781242371,-0.07475212216377258,1.2804155349731445,-0.9184391498565674,0.5363963842391968
1.5440802574157715,0.30975979566574097,-0.04915297031402588,0.05794525146484375,-0.9852201582382372,-1.4131752257699675,-1.6765005693108168,-0.5458285808563232,0.8333938121795654,-0.08675374835729599,1.3574507236480713,-0.8787010312080383,0.44534265995025635
1.564864158630371,0.3105654716491699,-0.04683941602706909,0.04426145553588867,-0.9887184947507515,-1.3859296537993862,-1.6225169092189884,-0.5403934121131897,0.8353221416473389,-0.10105457156896591,1.5300509929656982,-0.9274535179138184,0.42003893852233887
1.588705062866211,0.32106679677963257,-0.05822855234146118,0.04960745573043823,-0.9907588601114851,-1.355277875620995,-1.5628852395561519,-0.5353765487670898,0.8364421129226685,-0.11720380187034607,1.616716742515564,-0.9751250743865967,0.43368154764175415
1.6041581630706787,0.303705632686615,-0.07226783037185669,0.09100830554962158,-0.9918199012241433,-1.3240009560476738,-1.5026928079556634,-0.5305886268615723,0.837023138999939,-0.13367179036140442,1.5476105213165283,-0.9298489689826965,0.4078825116157532
1.6215171813964844,0.2716084122657776,-0.07488769292831421,0.10915596783161163,-0.9913653039851819,-1.2953208520854265,-1.4473545049538112,-0.5269031524658203,0.8367743492126465,-0.14893551170825958,1.4033067226409912,-0.8484508991241455,0.3320833742618561
1.6419730186462402,0.2838028073310852,-0.09062397480010986,0.09808582067489624,-0.9896480728686118,-1.2692001092847103,-1.3960203334478345,-0.5242050290107727,0.8358328342437744,-0.16307289898395538,1.3577629327774048,-0.854088306427002,0.30730703473091125
1.660499095916748,0.2816683053970337,-0.08610701560974121,0.0913575291633606,-0.9869292414084259,-1.2443786579082257,-1.3455900196134603,-0.5221468806266785,0.8343371748924255,-0.17676088213920593,1.3740882873535156,-0.8544333577156067,0.27383139729499817
1.680488109588623,0.2511481046676636,-0.0892534852027893,0.09810949862003326,-0.982273268372621,-1.2201332755215026,-1.2964304469975094,-0.5213507413864136,0.8317614793777466,-0.1906997114419937,1.3500968217849731,-0.810930073261261,0.18287885189056396
1.7004871368408203,0.2475404143333435,-0.0918315052986145,0.11685815453529358,-0.976061565455906,-1.1978382024632417,-1.2510460429783121,-0.5217714905738831,0.8282971382141113,-0.2041536420583725,1.2174572944641113,-0.7333070039749146,0.12241920828819275
1.723872184753418,0.23682576417922974,-0.08125334978103638,0.10623224079608917,-0.9695766707671662,-1.17810252640178,-1.2102977261941954,-0.5225923657417297,0.8246463537216187,-0.21646161377429962,1.1597774028778076,-0.6654983162879944,0.10522978007793427
1.7405872344970703,0.20888197422027588,-0.04226791858673096,0.10014015436172485,-0.9623862636927982,-1.159845044141221,-1.172874438654542,-0.5239760279655457,0.8205578327178955,-0.22832916676998138,1.096733570098877,-0.6086926460266113,0.06152550131082535
1.7604990005493164,0.19994831085205078,-0.04184412956237793,0.09896194934844971,-0.9550624703052072,-1.1424914660335288,-1.1378056800569705,-0.5253878235816956,0.8163498044013977,-0.23987680673599243,1.0372929573059082,-0.5339818596839905,0.0911627858877182
1.7825350761413574,0.1656874418258667,-0.022936701774597168,0.10900864005088806,-0.9478568426886375,-1.1257881822760691,-1.1052040578701503,-0.5266035795211792,0.8121669888496399,-0.2511441707611084,1.0050565004348755,-0.45863470435142517,0.051610108464956284
1.804267168045044,0.136177659034729,-0.02808964252471924,0.10390987992286682,-0.9399677986865078,-1.1091950975405367,-1.0735814270871098,-0.528084397315979,0.8075391054153442,-0.26269274950027466,0.9797118902206421,-0.4663369357585907,0.027026614174246788
1.8221330642700195,0.06037265062332153,0.015599846839904785,0.09858474135398865,-0.931013664110975,-1.0972947527679062,-1.0467694592493397,-0.531335175037384,0.8022255301475525,-0.2722449004650116,0.851746678352356,-0.49951425194740295,-0.11757873743772507
1.8439841270446777,-0.03514522314071655,0.1323230266571045,0.03635448217391968,-0.9209965305525728,-1.0910383989432646,-1.0263964183997347,-0.5367237329483032,0.7962049245834351,-0.2792590856552124,0.7108667492866516,-0.5049707293510437,-0.16363069415092468
1.8649210929870605,-0.03031069040298462,0.16985327005386353,-0.030967533588409424,-0.9147778742612175,-1.0846103108214125,-1.006324225813535,-0.5392847061157227,0.792427122592926,-0.2850114107131958,0.6596037745475769,-0.4324849545955658,0.22847168147563934
1.8848299980163574,-0.03512948751449585,0.07337874174118042,-0.002166569232940674,-0.9163943611137874,-1.0740114703938137,-0.9841689249168623,-0.5351067781448364,0.7934120893478394,-0.29010018706321716,0.4192092716693878,-0.27107876539230347,0.4666547477245331
1.9046051502227783,-0.09131038188934326,0.009575605392456055,0.01793670654296875,-0.9208041633080651,-1.065301851294646,-0.9675567719809255,-0.529493510723114,0.7960885167121887,-0.2930525839328766,0.29786378145217896,-0.19113732874393463,0.40412142872810364
1.9229650497436523,-0.09480005502700806,-0.02606523036956787,-0.01907181739807129,-0.924716058649623,-1.0562241633654599,-0.951806952059312,-0.5240963697433472,0.7984498739242554,-0.29631197452545166,0.3425825536251068,-0.17941755056381226,0.400789737701416
1.9439482688903809,-0.10691899061203003,-0.05988997220993042,-0.040871232748031616,-0.9283934831795,-1.0466546508820826,-0.9355141224123925,-0.51869136095047,0.8006584644317627,-0.29984214901924133,0.31279271841049194,-0.15595191717147827,0.3977736830711365
1.964482307434082,-0.13958406448364258,-0.0767316222190857,-0.02505970001220703,-0.9321144253027056,-1.0378492901464866,-0.9218326610805263,-0.5134616494178772,0.802882194519043,-0.3028821051120758,0.20448711514472961,-0.05024350434541702,0.3200037479400635
1.9844441413879395,-0.16336774826049805,-0.07086622714996338,-0.009601026773452759,-0.9354134440866254,-1.0300579968268773,-0.9125288363579551,-0.508812427520752,0.8048444986343384,-0.3055081069469452,0.11362718045711517,0.07960902899503708,0.2580540180206299
2.0025830268859863,-0.16150790452957153,-0.0891079306602478,-0.025732040405273438,-0.9391119497327276,-1.0219486075598614,-0.9055517441985047,-0.5037753582000732,0.8070340156555176,-0.3080691397190094,0.041224271059036255,0.1452903151512146,0.2642463743686676
2.02255916595459,-0.1576654613018036,-0.10394316911697388,-0.051403969526290894,-0.9433423709972202,-1.0144222672983143,-0.899749027541528,-0.4985387921333313,0.8095248937606812,-0.31004613637924194,0.042640943080186844,0.135482057929039,0.2764946520328522
2.041522979736328,-0.16233256459236145,-0.14306068420410156,-0.04792219400405884,-0.9474243066686509,-1.0055417918034033,-0.8925625386830545,-0.4929714500904083,0.8119145631790161,-0.3126886785030365,0.09402277320623398,0.17499671876430511,0.27921944856643677
2.0633339881896973,-0.16413545608520508,-0.2150469422340393,-0.026168733835220337,-0.9509271444204983,-0.9954439465826845,-0.8853881760397967,-0.4873995780944824,0.8139544725418091,-0.3161010444164276,0.058280471712350845,0.2551639974117279,0.22399969398975372
2.084407091140747,-0.1472644805908203,-0.2842246890068054,-0.007834702730178833,-0.9539708033759491,-0.9863942095880264,-0.881461115085207,-0.4824504554271698,0.8157188296318054,-0.319130539894104,-0.036385342478752136,0.3269357979297638,0.14832442998886108
2.1043200492858887,-0.12171819806098938,-0.32174819707870483,-0.015343993902206421,-0.9564584631921073,-0.9797682651507927,-0.8817376269029565,-0.4786388874053955,0.8171553015708923,-0.3211885094642639,-0.1214582547545433,0.3423274755477905,0.046332597732543945
2.1222400665283203,-0.1024121344089508,-0.3158521056175232,-0.01692083477973938,-0.958090929672832,-0.9771010019825597,-0.8866131177353729,-0.4766741991043091,0.8180952072143555,-0.32171738147735596,-0.21427211165428162,0.3333371877670288,-0.061372462660074234
2.1424901485443115,-0.07191407680511475,-0.31749653816223145,-0.01592656970024109,-0.9592266483249536,-0.978823677236753,-0.8966295106538705,-0.47645628452301025,0.8187478184700012,-0.32037705183029175,-0.3206310272216797,0.3080325424671173,-0.17412248253822327
2.164052963256836,-0.03967881202697754,-0.289176881313324,-0.027459651231765747,-0.9595202303389533,-0.9847406466229777,-0.9105476570884694,-0.47814348340034485,0.8189163208007812,-0.3174194097518921,-0.3493216335773468,0.2341328263282776,-0.2381286770105362
2.1841161251068115,-0.03127458691596985,-0.23272204399108887,-0.058597713708877563,-0.9588073361767063,-0.9937301524962631,-0.9258081404092565,-0.4814665615558624,0.8185069561004639,-0.3134267032146454,-0.33934450149536133,0.11135914921760559,-0.31321465969085693
2.2056169509887695,-0.04582598805427551,-0.18078434467315674,-0.07624644041061401,-0.95666501925449,-1.0039108991309615,-0.9404269588097134,-0.48611071705818176,0.8172743320465088,-0.3094498813152313,-0.2638440430164337,0.08371340483427048,-0.3039246201515198
2.222954273223877,-0.05202054977416992,-0.16004765033721924,-0.05940449237823486,-0.9548138588814128,-1.0121998439212214,-0.9535334775018198,-0.48994117975234985,0.8162062168121338,-0.30621129274368286,-0.30203157663345337,0.16417087614536285,-0.25835946202278137
2.2440121173858643,-0.05519542098045349,-0.12301832437515259,-0.07358238101005554,-0.9541074296597718,-1.0206151010579816,-0.9687400730661517,-0.4929918348789215,0.8157978653907776,-0.3023788034915924,-0.4005056619644165,0.20912067592144012,-0.2919563055038452
2.2640981674194336,-0.028030693531036377,-0.06346780061721802,-0.12096846103668213,-0.9527711423866111,-1.0313564853035488,-0.985919274516222,-0.4971463680267334,0.8150243163108826,-0.2976258397102356,-0.3591878414154053,0.11345274746417999,-0.3226832449436188
2.284080982208252,0.006135821342468262,-0.0363956093788147,-0.14576739072799683,-0.9505046142967182,-1.0413727826027988,-0.9999626384235848,-0.5016955733299255,0.8137089014053345,-0.2935636043548584,-0.23127233982086182,0.03966729715466499,-0.28599247336387634
2.302694082260132,0.019513189792633057,-0.015765905380249023,-0.1506299376487732,-0.9479893548927211,-1.0498789255842338,-1.0106705257328183,-0.5059481263160706,0.8122442960739136,-0.2903032600879669,-0.19420771300792694,-0.021577240899205208,-0.2537072002887726
2.322585105895996,0.03139293193817139,-0.007798194885253906,-0.1510401964187622,-0.9456864664043253,-1.0581818003357644,-1.0200638894633276,-0.5099696516990662,0.8108988404273987,-0.28700903058052063,-0.19514299929141998,-0.03814956173300743,-0.20706972479820251
2.3436391353607178,0.0714719295501709,-0.031961143016815186,-0.1244712769985199,-0.9451271144369195,-1.0671094587861727,-1.0301455467820007,-0.5129086375236511,0.8105713725090027,-0.28266364336013794,-0.28849175572395325,-0.022031132131814957,-0.1182059496641159
2.3625121116638184,0.09639829397201538,-0.04484063386917114,-0.1170344352722168,-0.9475562606847271,-1.0748924461716762,-1.0399009792129799,-0.5133600234985352,0.8119915723800659,-0.27772557735443115,-0.32480907440185547,0.021102845668792725,0.033457547426223755
2.3824381828308105,0.10484540462493896,-0.019969701766967773,-0.15105348825454712,-0.9511483022247982,-1.0820598934706989,-1.048541574429275,-0.5127586722373962,0.8140829205513,-0.2726677358150482,-0.2686237096786499,-0.0631716400384903,0.049230895936489105
2.403330087661743,0.13395678997039795,-0.009721934795379639,-0.15862512588500977,-0.9546357115963992,-1.0884710381428224,-1.0533401348025127,-0.511978030204773,0.8161032795906067,-0.26805633306503296,-0.14733463525772095,-0.17774900794029236,0.1398533433675766
2.422243118286133,0.12771093845367432,-0.01947730779647827,-0.150718092918396,-0.9588551064909338,-1.0934708833797864,-1.054116743128225,-0.5102488398551941,0.8185344338417053,-0.26390892267227173,-0.12159566581249237,-0.25274354219436646,0.20663833618164062
2.4423701763153076,0.103390634059906,-0.021988213062286377,-0.13237491250038147,-0.9642293029761079,-1.101025218771579,-1.0566872604621271,-0.508297860622406,0.8216097950935364,-0.25805163383483887,-0.2472703754901886,-0.2902563810348511,0.19799339771270752
2.4621291160583496,0.0704350471496582,0.004312872886657715,-0.12087294459342957,-0.9702872375998681,-1.110277740069729,-1.060970868648253,-0.5061955451965332,0.82504802942276,-0.25112098455429077,-0.23480987548828125,-0.2934236526489258,0.22196097671985626
2.4822072982788086,-0.006706714630126953,0.12172859907150269,-0.12230949103832245,-0.9742697074996206,-1.1197557518827232,-1.0645565534484867,-0.505591869354248,0.8272918462753296,-0.244877889752388,-0.08738165348768234,-0.36669477820396423,0.02195071429014206
2.5035130977630615,-0.07396823167800903,0.2144562005996704,-0.10602965950965881,-0.9724255151562211,-1.126326250208238,-1.0632001180922503,-0.508566677570343,0.8262544274330139,-0.24220633506774902,0.24871665239334106,-0.38951238989830017,-0.13600967824459076
2.5229482650756836,-0.07877010107040405,0.1772226095199585,-0.0592133104801178,-0.9663882532478033,-1.124752933065407,-1.0524567009283576,-0.512675940990448,0.8228386044502258,-0.24515369534492493,0.51683509349823,-0.32421112060546875,-0.1130678802728653
2.5428740978240967,-0.045151591300964355,0.09277349710464478,0.002774745225906372,-0.9608111859798122,-1.1193145336938708,-1.0390662541956233,-0.5154564380645752,0.8196565508842468,-0.2499365508556366,0.35373520851135254,-0.23189258575439453,-0.08610361069440842
2.5644330978393555,-0.0005974173545837402,0.04482322931289673,0.06054496765136719,-0.9574222255089342,-1.1190287941285573,-1.0344712209418372,-0.5178810358047485,0.8177104592323303,-0.2512950003147125,0.03948802500963211,-0.12906330823898315,-0.10900534689426422
2.585456132888794,0.0388563871383667,0.04428499937057495,0.09007894992828369,-0.954677947693175,-1.1230047268975951,-1.0375341556894753,-0.520896852016449,0.8161276578903198,-0.2502046227455139,-0.024135906249284744,-0.025647439062595367,-0.2170872539281845
2.600619077682495,0.03503584861755371,0.14210468530654907,0.0715336799621582,-0.948114733729547,-1.1238468648229283,-1.0381616397319726,-0.525926411151886,0.812317430973053,-0.2520756125450134,0.3479999005794525,0.0053972965106368065,-0.3667309880256653
2.62044095993042,0.06133699417114258,0.12823814153671265,0.09239533543586731,-0.9369704669617275,-1.1132827584446394,-1.0262467516632723,-0.5313229560852051,0.8057675957679749,-0.26159992814064026,0.7252756357192993,0.07589596509933472,-0.3180428147315979
2.6406121253967285,0.13108086585998535,0.03956246376037598,0.11558359861373901,-0.9255029167568485,-1.096661923724722,-1.0071462190933558,-0.5350878834724426,0.7989233136177063,-0.27459537982940674,0.7288911938667297,0.04622657597064972,-0.18713819980621338
2.6605660915374756,0.19541549682617188,-0.017930209636688232,0.14575204253196716,-0.918754968570022,-1.0868800486421288,-0.9947596541050658,-0.5371360778808594,0.7948467135429382,-0.2823180854320526,0.1862802505493164,-0.06189891695976257,-0.12150152027606964
2.6804871559143066,0.14272630214691162,0.04129725694656372,0.15334618091583252,-0.9151043624930042,-1.0898933209497406,-0.9963360087983408,-0.5405535101890564,0.7926262021064758,-0.28203871846199036,0.004740563221275806,-0.06697739660739899,-0.2330816090106964
2.701411247253418,0.06617468595504761,0.1625118851661682,0.1716500222682953,-0.9089243379267512,-1.0910853600266202,-0.998397200472317,-0.5452243685722351,0.7888430953025818,-0.2836494445800781,0.20439322292804718,0.08196486532688141,-0.3900635242462158
2.721360206604004,0.11184215545654297,0.12401813268661499,0.16003885865211487,-0.8990493380230054,-1.0842094986549267,-0.9928959416158092,-0.55012047290802,0.7827355861663818,-0.2910202443599701,0.548501193523407,0.17893926799297333,-0.25707677006721497
2.740568161010742,0.18789494037628174,0.050842106342315674,0.15790745615959167,-0.8901660458180708,-1.0680097933232244,-0.9766260264913577,-0.5514051914215088,0.7771762609481812,-0.3032321631908417,0.7666580677032471,0.14586110413074493,-0.08801708370447159
2.7595551013946533,0.22435319423675537,0.006319820880889893,0.1544535756111145,-0.8801841068716036,-1.048310693985411,-0.9541425938405587,-0.5520204901695251,0.7708561420440674,-0.31789037585258484,0.9655386209487915,0.09017396718263626,-0.09064789861440659
2.7806100845336914,0.28539830446243286,-0.04984092712402344,0.1607288420200348,-0.8682344724116812,-1.0267157844387982,-0.9275326626959959,-0.5528696179389954,0.7631893157958984,-0.3344805836677551,1.0927441120147705,0.01893432065844536,-0.07713834196329117
2.801730155944824,0.3146316409111023,-0.12083566188812256,0.1672607958316803,-0.8547564701157789,-1.0066742756448521,-0.8999567764449755,-0.5546981692314148,0.7544111013412476,-0.35096126794815063,1.1533422470092773,-0.08670173585414886,-0.14162187278270721
2.820531129837036,0.3129372000694275,-0.12329524755477905,0.18227776885032654,-0.8387514646601112,-0.9908986612777014,-0.8752431217746126,-0.5591225028038025,0.743809163570404,-0.36623767018318176,1.1063814163208008,-0.19428910315036774,-0.30792465806007385
2.841996192932129,0.347400426864624,-0.17985773086547852,0.2137627899646759,-0.8223690288240965,-0.9782724737892083,-0.8534077169644944,-0.5644872188568115,0.732759952545166,-0.38002246618270874,1.0010714530944824,-0.13319635391235352,-0.2456158548593521
2.86124324798584,0.3407973647117615,-0.17883312702178955,0.23018395900726318,-0.8070198933533312,-0.9667253407966068,-0.8356796414837043,-0.5692520141601562,0.7222291827201843,-0.3928578495979309,0.8934489488601685,-0.024733707308769226,-0.3928509056568146
2.8835062980651855,0.30949223041534424,-0.04988187551498413,0.16687017679214478,-0.7881882539400651,-0.9579965665177269,-0.822227330877356,-0.576826274394989,0.7090769410133362,-0.4055633544921875,0.9614880681037903,-0.09076225757598877,-0.5915771126747131
2.9021902084350586,0.3029836416244507,-0.06301993131637573,0.14454340934753418,-0.7671592544298056,-0.9523977146439051,-0.8100855837745244,-0.586568295955658,0.6940930485725403,-0.417339950799942,0.9275941848754883,-0.2004358470439911,-0.60536128282547
2.9210729598999023,0.30261969566345215,-0.10695672035217285,0.20585626363754272,-0.7481381237184851,-0.9485708405289488,-0.7995112242463349,-0.5955884456634521,0.6802752614021301,-0.42720019817352295,0.7685224413871765,-0.10316184908151627,-0.4845244586467743
2.9420652389526367,0.3133951425552368,-0.13771075010299683,0.2779598534107208,-0.7332615059182143,-0.9447257761068742,-0.7932430892531177,-0.6020762324333191,0.6692965030670166,-0.43536943197250366,0.5031248331069946,0.05380309000611305,-0.48563140630722046
2.9617409706115723,0.3362463712692261,-0.14851295948028564,0.30846476554870605,-0.7190366710715831,-0.9424100766248109,-0.7925358790663096,-0.6087073683738708,0.6586601138114929,-0.4423148036003113,0.41492345929145813,0.10494226217269897,-0.6353000998497009
2.9817941188812256,0.37514275312423706,-0.18341249227523804,0.31936734914779663,-0.7032698573789983,-0.9420872004697155,-0.7943868411655749,-0.6168878078460693,0.6467151641845703,-0.44856345653533936,0.3655259311199188,0.032157715409994125,-0.7547126412391663
3.000894069671631,0.37534064054489136,-0.2272661328315735,0.3101158142089844,-0.6861090384519851,-0.9473611217185196,-0.8011565574575087,-0.6281636357307434,0.6335315108299255,-0.451717346906662,0.2121219038963318,-0.12782351672649384,-0.9177460074424744
3.021618127822876,0.4321904182434082,-0.2525330185890198,0.2902483642101288,-0.6711114384182449,-0.959505454805066,-0.8130514875700543,-0.6413121223449707,0.6218567490577698,-0.449458509683609,-0.14757472276687622,-0.36620858311653137,-0.7903569936752319
3.043138027191162,0.40791910886764526,-0.19945687055587769,0.2567859888076782,-0.6634307354993144,-0.9791605798989759,-0.8305184809016476,-0.6539670825004578,0.61582350730896,-0.43941834568977356,-0.4724304676055908,-0.45763906836509705,-0.6589361429214478
3.063646078109741,0.2683168649673462,-0.06489711999893188,0.18710929155349731,-0.6562751421062633,-0.9992289023122202,-0.8495790412672231,-0.6663423776626587,0.6101700067520142,-0.42857953906059265,-0.31401753425598145,-0.3666718900203705,-0.7943944931030273
3.080566167831421,0.23370951414108276,-0.005927145481109619,0.1326867938041687,-0.643631625600365,-1.01216844567303,-0.8617440455407631,-0.6783201098442078,0.6001043915748596,-0.4239770174026489,0.15703874826431274,-0.21150606870651245,-0.7553985714912415
3.0995211601257324,0.2598005533218384,-0.04098844528198242,0.07104337215423584,-0.6276044436111193,-1.018787767623405,-0.864361621854001,-0.6892134547233582,0.5872073769569397,-0.42446738481521606,0.5026895403862,-0.2864837348461151,-0.7226302623748779
3.120528221130371,0.21333247423171997,-0.042151570320129395,0.08469879627227783,-0.607730796177767,-1.0210044779770593,-0.8605623500649157,-0.6999658346176147,0.5710060596466064,-0.42895227670669556,0.9270941019058228,-0.1606653481721878,-0.8322182893753052
3.1415631771087646,0.11974483728408813,-0.0736086368560791,0.02115809917449951,-0.5824048344235506,-1.0139247803541214,-0.8455041688010209,-0.7089630961418152,0.5500339269638062,-0.44140034914016724,1.5191786289215088,-0.1836412400007248,-0.6275660991668701
3.160336971282959,0.118030846118927,-0.09453856945037842,-0.2029246687889099,-0.5528636205470056,-1.0142332427089327,-0.8175923083118612,-0.7225841283798218,0.5251263976097107,-0.4495716094970703,1.8875072002410889,-1.3111240863800049,-0.7571794986724854
3.182730197906494,0.05655747652053833,-0.15397757291793823,-0.0011400580406188965,-0.5197458004756463,-1.0335946526221345,-0.7949603923547082,-0.7456902861595154,0.496659517288208,-0.44415712356567383,1.4702880382537842,-1.6871765851974487,-0.9948320388793945
3.2029452323913574,-0.15470433235168457,-0.3377968668937683,0.0755314826965332,-0.4887365955907442,-1.0616201831967451,-0.7853347206133234,-0.7709243893623352,0.4695107638835907,-0.43038979172706604,0.8970635533332825,-1.6342885494232178,-1.4490835666656494
3.220705032348633,-0.39227229356765747,-0.19269394874572754,0.010649144649505615,-0.4498219472082016,-1.0964582215785104,-0.7842763646133072,-0.8011024594306946,0.4348052144050598,-0.4113143980503082,1.025925636291504,-1.8248735666275024,-1.8484671115875244
3.2409791946411133,-0.5197288990020752,-0.21304574608802795,0.13569343090057373,-0.405975702030363,-1.1345859289547113,-0.7842753003463121,-0.8326883316040039,0.3949153423309326,-0.38816535472869873,0.8078517317771912,-2.009594678878784,-2.0977132320404053
3.2609500885009766,-0.7066812515258789,-0.34119462966918945,0.17141786217689514,-0.3603732000749614,-1.178600723508536,-0.7898753128498545,-0.8647146224975586,0.35262349247932434,-0.35766658186912537,0.6477205753326416,-2.2055394649505615,-2.2975165843963623
3.2808501720428467,-0.8394309878349304,-0.19371965527534485,0.19343751668930054,-0.3102610390644368,-1.2238323308808767,-0.7914088390548427,-0.8955087065696716,0.30530720949172974,-0.32380855083465576,1.1112579107284546,-2.2267796993255615,-2.4383420944213867
3.300593137741089,-0.927061915397644,-0.12343055009841919,0.185258150100708,-0.2544479766626674,-1.2641974401240523,-0.7773609780002632,-0.9226695895195007,0.2517111897468567,-0.29210010170936584,1.9714603424072266,-2.1648685932159424,-2.3424289226531982
3.322035074234009,-0.958761990070343,-0.13006523251533508,0.06006768345832825,-0.20048211463385496,-1.3002114682769514,-0.7497123630290775,-0.9443144202232361,0.19914181530475616,-0.2619413733482361,1.9533129930496216,-1.8959726095199585,-2.0752673149108887
3.3410000801086426,-0.9522488713264465,-0.11337099969387054,0.13796323537826538,-0.15614956028993543,-1.3265639667569384,-0.7313865734043284,-0.958517849445343,0.15551577508449554,-0.2388695478439331,0.8783447742462158,-1.0809521675109863,-1.717210292816162
3.360628128051758,-0.7548916935920715,-0.05345086753368378,0.15129365026950836,-0.1290959954958091,-1.341147643130443,-0.7300600497746034,-0.9656436443328857,0.12873771786689758,-0.2257412225008011,-0.04572450369596481,-0.4561843276023865,-0.8330571055412292
3.380556106567383,-0.663540780544281,-1.2427568435668945e-05,0.2831953763961792,-0.12354116416421734,-1.3449692933553667,-0.7370398702724513,-0.9671812653541565,0.12322714924812317,-0.22220592200756073,-0.27830538153648376,0.1902739405632019,0.1529122143983841
3.400634288787842,-0.7347455024719238,0.041986897587776184,0.35599786043167114,-0.1333037725722503,-1.3352984385666835,-0.7367999683237257,-0.963771402835846,0.13290932774543762,-0.2312571257352829,0.1430436074733734,0.6953761577606201,0.6508094668388367
3.4205541610717773,-0.8282222747802734,0.014757856726646423,0.37432125210762024,-0.14602358104546573,-1.3175604266090823,-0.7232364130768473,-0.9578037261962891,0.14550518989562988,-0.24787160754203796,0.799763023853302,0.8546684384346008,0.9401026964187622
3.4406023025512695,-0.8810329437255859,-0.25436848402023315,0.3541008532047272,-0.16164186942271894,-1.2970133072986674,-0.7027570562043531,-0.9502048492431641,0.16093888878822327,-0.2668509781360626,0.558876633644104,0.8742445707321167,1.0778542757034302
3.460524082183838,-0.8892444372177124,-0.30318087339401245,0.12971928715705872,-0.18331039034256993,-1.281620725374999,-0.6945863156112548,-0.9424206018447876,0.18228548765182495,-0.28038445115089417,-0.5185850262641907,0.48361483216285706,1.211838722229004
3.480548143386841,-0.8119327425956726,-0.12781597673892975,0.046362340450286865,-0.2136197288855112,-1.2770597081720685,-0.7070616687426768,-0.9354123473167419,0.21199873089790344,-0.2829498052597046,-1.3292934894561768,0.332468181848526,1.4272381067276
3.5005202293395996,-0.8360974192619324,-0.042891889810562134,0.05534672737121582,-0.2530421926449518,-1.2703883879180526,-0.7213728564322186,-0.9247974753379822,0.2503504157066345,-0.28648677468299866,-1.0270456075668335,0.7254400849342346,1.9028018712997437
3.5205471515655518,-0.86995929479599,0.036000728607177734,0.03218013048171997,-0.2945810865251565,-1.2519124055402846,-0.7215084950805036,-0.9086815118789673,0.29033899307250977,-0.3000023066997528,-0.2140338122844696,1.0834907293319702,2.0162570476531982
3.540546178817749,-0.8151480555534363,0.11313262581825256,-0.032222747802734375,-0.33202102379340565,-1.2232969606432376,-0.7063919761679992,-0.888877272605896,0.3259543478488922,-0.32194891571998596,0.23049290478229523,1.28877592086792,1.993065357208252
3.560534954071045,-0.7409833669662476,-0.00776064395904541,-0.07530543208122253,-0.3679350041669666,-1.1923092280212595,-0.689332478670282,-0.867033839225769,0.3596894145011902,-0.3447842597961426,-0.09487579017877579,1.202305555343628,1.9627493619918823
3.5822792053222656,-0.6637584567070007,-0.06643104553222656,-0.08560705184936523,-0.40638190688032994,-1.1665681262763152,-0.6797490887750446,-0.8445271849632263,0.39528849720954895,-0.3612770438194275,-0.5764399766921997,1.004761815071106,1.9268317222595215
3.600605010986328,-0.6063278913497925,0.03193661570549011,-0.0951484739780426,-0.44620929381303126,-1.1504847957316082,-0.6796888892175927,-0.8235732913017273,0.431549072265625,-0.36809301376342773,-0.9972206950187683,0.6041272282600403,1.7107667922973633
3.6205251216888428,-0.5067607164382935,0.04343870282173157,-0.1282787024974823,-0.4826173408783897,-1.143192725765109,-0.6817740704264983,-0.806029200553894,0.4640991687774658,-0.36732664704322815,-0.6443609595298767,0.31594255566596985,1.5897958278656006
3.640519142150879,-0.4208085536956787,0.13193902373313904,-0.07030162215232849,-0.5162186654938002,-1.13724791908202,-0.6804171787404066,-0.7892287373542786,0.49359509348869324,-0.36535197496414185,-0.624325692653656,0.2351900190114975,1.475740909576416
3.6605000495910645,-0.39864909648895264,0.13785535097122192,-0.07037517428398132,-0.5472046990742621,-1.1330364682199954,-0.6817044137372404,-0.7734549641609192,0.5203021168708801,-0.3620131015777588,-0.7889043688774109,0.24138887226581573,1.2687007188796997
3.6804890632629395,-0.3127114176750183,0.17128968238830566,-0.08614742755889893,-0.5754656235690888,-1.131705096839738,-0.6875225130377249,-0.759355902671814,0.5442254543304443,-0.3566473126411438,-0.8394895792007446,0.19311615824699402,1.1232516765594482
3.700681209564209,-0.216067373752594,0.20659297704696655,-0.09718319773674011,-0.6020409089084416,-1.1323614196365417,-0.6948832738448296,-0.7462282180786133,0.5663257241249084,-0.3498839735984802,-0.8398686647415161,0.16325484216213226,0.9789279103279114
3.7206239700317383,-0.11789882183074951,0.20916640758514404,-0.07256904244422913,-0.6236673712572615,-1.1353241271905086,-0.7029149637730667,-0.7359831929206848,0.5840160250663757,-0.342424213886261,-0.6411446332931519,0.03537872061133385,0.7713257670402527
3.74055814743042,0.038700997829437256,0.14596909284591675,-0.05761179327964783,-0.6440386189155914,-1.1394498239447728,-0.7098108617580382,-0.7264299988746643,0.600429892539978,-0.3343406915664673,-0.7948737740516663,-0.07136557251214981,0.7955904006958008
3.7604942321777344,0.07765066623687744,0.11888974905014038,-0.017142385244369507,-0.665268663258812,-1.149304483183951,-0.7246145639690346,-0.7178942561149597,0.6172705292701721,-0.32187727093696594,-1.1553763151168823,0.10854436457157135,0.6933148503303528
3.780506134033203,0.17230045795440674,0.17871791124343872,-0.032005757093429565,-0.6853879723021671,-1.159839245655565,-0.7472761804928557,-0.7097150683403015,0.6329734325408936,-0.3092721998691559,-1.134299635887146,0.1856372058391571,0.3611064553260803
3.8003311157226562,0.3919910192489624,0.17708277702331543,-0.07257026433944702,-0.6978126157671909,-1.1663029800962716,-0.7630926941768059,-0.7044148445129395,0.6425431370735168,-0.3015599250793457,-0.4795624613761902,0.1331348419189453,0.36220595240592957
3.8205161094665527,0.5532976388931274,0.0655590295791626,-0.010559052228927612,-0.7065633871005715,-1.1674212285186016,-0.7672809768675771,-0.6995531320571899,0.6492237448692322,-0.2985534071922302,-0.274916410446167,0.08346661925315857,0.2710047662258148
3.840571165084839,0.6329854726791382,-0.14277315139770508,0.13457831740379333,-0.712380776137268,-1.1680303858540348,-0.7734519561997465,-0.696248471736908,0.6536374092102051,-0.2966417968273163,-0.368650883436203,0.23176172375679016,0.09037904441356659
3.860527992248535,0.8024280071258545,-0.22632718086242676,0.16159144043922424,-0.7164161274184252,-1.1693221193198762,-0.7809803642630081,-0.694197416305542,0.6566860675811768,-0.29470905661582947,-0.3077908158302307,0.1337519884109497,0.07000485062599182
3.8806161880493164,0.9126861691474915,-0.27836573123931885,0.1747622787952423,-0.7186925190746044,-1.1717766739842133,-0.7868232343866266,-0.6935395002365112,0.6584011316299438,-0.29242268204689026,-0.23379378020763397,-0.03370136767625809,0.015428539365530014
3.9005532264709473,0.9804778695106506,-0.2313501238822937,0.18588188290596008,-0.7213064022509115,-1.176609503304719,-0.7901480459583275,-0.6933532357215881,0.6603662967681885,-0.28840556740760803,-0.04702332615852356,-0.20697186887264252,0.009029888547956944
3.9205479621887207,1.0422265529632568,-0.27123087644577026,0.27128010988235474,-0.7216442749120154,-1.1811999761236145,-0.7888219322333292,-0.6944634914398193,0.6606199741363525,-0.2851350009441376,0.11637549102306366,-0.24453867971897125,0.13337624073028564
3.940538167953491,0.9954661726951599,-0.3718244433403015,0.2959368824958801,-0.7239129017088307,-1.180797865240735,-0.7849726184796182,-0.6929607391357422,0.6623213291168213,-0.28484368324279785,0.02502395585179329,-0.020825428888201714,0.07569095492362976
3.9605469703674316,0.9345534443855286,-0.3889662027359009,0.1712077260017395,-0.7232084580231631,-1.182071108634391,-0.7866865979635888,-0.6937545537948608,0.6617934107780457,-0.28413793444633484,-0.10005173832178116,-0.004172240383923054,-0.13139276206493378
3.980545997619629,1.001592755317688,-0.40801191329956055,0.1809300184249878,-0.7211989006043383,-1.186432756843939,-0.78990939545313,-0.6962186694145203,0.6602855324745178,-0.28160741925239563,0.062149208039045334,-0.2694016695022583,-0.12849752604961395
4.000555992126465,0.9574774503707886,-0.35095471143722534,0.14700478315353394,-0.7164281572367425,-1.1902823993293599,-0.7834441363000915,-0.7002143263816833,0.6566951274871826,-0.28009188175201416,0.5487430691719055,-0.5539673566818237,-0.17567966878414154
4.020589113235474,0.8995640873908997,-0.3846355676651001,0.1808685064315796,-0.7071042438781462,-1.195614837377547,-0.769134301111156,-0.7073644399642944,0.6496350169181824,-0.2785857319831848,0.7215809226036072,-0.9135638475418091,-0.2592807412147522
4.040554046630859,0.8772760629653931,-0.4946979284286499,0.2539449632167816,-0.6975700481710158,-1.2067342814734834,-0.755202665269397,-0.7161738276481628,0.6423572301864624,-0.27289626002311707,0.600056529045105,-1.025342345237732,-0.2688189446926117
4.06055212020874,0.7442814111709595,-0.4720892310142517,0.16877231001853943,-0.6857091620047759,-1.2208828426532448,-0.744560948939745,-0.7270694971084595,0.6332220435142517,-0.2653298079967499,0.6439349055290222,-1.0693349838256836,-0.6293442249298096
4.08055305480957,0.6638268232345581,-0.3698562979698181,0.10594436526298523,-0.6652389727596895,-1.2343325968758243,-0.7301802391779222,-0.7426538467407227,0.6172471642494202,-0.25975289940834045,1.1372419595718384,-1.1977500915527344,-0.846225917339325
4.100625991821289,0.6061208248138428,-0.3464866280555725,0.08115574717521667,-0.6413617221443174,-1.2473469236294472,-0.7084853841520709,-0.759731113910675,0.5982871055603027,-0.2546786069869995,1.0867325067520142,-1.3618749380111694,-0.8674672842025757
4.120572090148926,0.4299941062927246,-0.34732675552368164,0.09084337949752808,-0.6173719385194025,-1.265808674773419,-0.6941738326908056,-0.7777724862098694,0.5788942575454712,-0.244850292801857,0.8905673027038574,-1.30868399143219,-1.036826252937317
4.140592098236084,0.27839213609695435,-0.25303852558135986,-0.03623461723327637,-0.5893291388666227,-1.2835465046046255,-0.6802882778546244,-0.7972520589828491,0.5558034777641296,-0.23552432656288147,1.0944854021072388,-1.253844141960144,-1.361807942390442
4.160548210144043,0.08448189496994019,-0.26275575160980225,-0.036870479583740234,-0.554501120585149,-1.2936126676211237,-0.6608010034913838,-0.8177125453948975,0.526519238948822,-0.2326454073190689,1.4598444700241089,-0.786311149597168,-1.5778884887695312
4.18053412437439,-0.1691279411315918,-0.21488475799560547,-0.06848302483558655,-0.5124583364266407,-1.2943071751281296,-0.6358191465897255,-0.8384406566619873,0.4903212785720825,-0.23791339993476868,1.7585054636001587,-0.6249116063117981,-1.7625794410705566
4.200150966644287,-0.3048400282859802,-0.2319927215576172,-0.23461806774139404,-0.470676506444342,-1.2973776694956194,-0.6072507098039635,-0.8581544160842896,0.4534893333911896,-0.24066266417503357,1.7529436349868774,-1.1423202753067017,-1.708085298538208
4.220548152923584,-0.7283360958099365,-0.09086829423904419,-0.3593519330024719,-0.4230796201914095,-1.3175611973603805,-0.5831645743578329,-0.882748007774353,0.4105704724788666,-0.2284470945596695,1.5808608531951904,-1.8279556035995483,-2.224886655807495
4.240547180175781,-0.8805383443832397,-0.031844645738601685,-0.5295202732086182,-0.37199983141899257,-1.3452429915083772,-0.5584496802888753,-0.90800541639328,0.3634791970252991,-0.20834890007972717,1.8441861867904663,-1.7546111345291138,-2.195528984069824
4.260609149932861,-1.0530881881713867,0.06882792711257935,-0.38946405053138733,-0.3228765447585147,-1.364506519638584,-0.529982863882455,-0.9282200336456299,0.31729575991630554,-0.1942455917596817,1.7897220849990845,-1.135261058807373,-1.9467968940734863
4.2806360721588135,-0.8524582386016846,0.17008864879608154,-0.37671834230422974,-0.28527248095414975,-1.3737387988810297,-0.5022431682950079,-0.9410141110420227,0.28141891956329346,-0.1878720372915268,1.4531300067901611,-0.5952163338661194,-1.227173924446106
4.3005499839782715,-0.7017869353294373,0.2369059920310974,-0.15151765942573547,-0.26516829186441054,-1.373357466405049,-0.48388783750032155,-0.9462996125221252,0.2620716691017151,-0.18930253386497498,0.7073129415512085,0.14037659764289856,-0.41399064660072327
4.320587158203125,-0.5706314444541931,0.18615075945854187,0.029580384492874146,-0.2618698696532854,-1.3615602485204596,-0.4706528092566486,-0.944841206073761,0.2588871121406555,-0.2006313055753708,0.7890897393226624,0.6035464406013489,0.28743883967399597
4.339797019958496,-0.5512431859970093,0.027323126792907715,0.09206089377403259,-0.266579351218347,-1.3429190046441966,-0.44736854652111874,-0.9397391080856323,0.26343315839767456,-0.21793058514595032,1.1889218091964722,0.6169134974479675,0.5703768730163574
4.360603094100952,-0.610060453414917,-0.19000059366226196,0.22303149104118347,-0.2717478068298776,-1.3252288830721906,-0.4269009710402729,-0.934403657913208,0.26841551065444946,-0.23418554663658142,0.45713573694229126,0.5618271827697754,0.3057825565338135
4.380551099777222,-0.5464137196540833,-0.3130539357662201,0.27212846279144287,-0.2749081015395325,-1.314964148385984,-0.42605950810689874,-0.9311254620552063,0.2714584767818451,-0.24354861676692963,-0.35105326771736145,0.4363451302051544,0.04456935077905655
4.400550127029419,-0.48967796564102173,-0.22735846042633057,0.22109496593475342,-0.2769992697173285,-1.3106341205955894,-0.43860733049039613,-0.929511547088623,0.27347055077552795,-0.24743154644966125,-0.8487393260002136,0.3515538275241852,-0.12458345293998718
4.420582294464111,-0.43287038803100586,-0.17895448207855225,0.13428933918476105,-0.2795668300731759,-1.3088266253518022,-0.45783127634380744,-0.9283814430236816,0.27593931555747986,-0.24892853200435638,-0.9824479818344116,0.36609983444213867,-0.07294340431690216
4.4405481815338135,-0.38898515701293945,-0.09761592745780945,0.07089757919311523,-0.28518164998338236,-1.3069969709765479,-0.47777641858143893,-0.9264141321182251,0.28133177757263184,-0.25021880865097046,-0.9408222436904907,0.3794415295124054,0.1646265983581543
4.460548162460327,-0.2850129008293152,-0.020933151245117188,0.004711836576461792,-0.29598805773100323,-1.3051564391635757,-0.4917748079881116,-0.9229643940925598,0.2916850745677948,-0.25111064314842224,-0.7026064991950989,0.20670227706432343,0.49339115619659424
4.480550289154053,-0.2917236089706421,0.021691977977752686,0.01992112398147583,-0.31386503139268845,-1.307033038126397,-0.5052940268801674,-0.91825270652771,0.3087371587753296,-0.24797892570495605,-0.9861554503440857,-0.0038812453858554363,0.8371158242225647
4.500547170639038,-0.3342360258102417,-0.004208028316497803,-0.005146324634552002,-0.33424981858127,-1.312198055512263,-0.5218993093865693,-0.9132463932037354,0.3280605971813202,-0.2415730059146881,-0.8527641296386719,0.0617135651409626,0.8207998871803284
4.520592212677002,-0.3589615225791931,-0.14617934823036194,0.023953378200531006,-0.35570519796154,-1.3102498717167752,-0.5309738602486733,-0.9057632684707642,0.34825149178504944,-0.24148260056972504,-0.7644751071929932,0.39780041575431824,0.9426169991493225
4.540664196014404,-0.29347556829452515,-0.13040772080421448,0.07196736335754395,-0.3755471852861862,-1.305010985284088,-0.5434145526597114,-0.8976408839225769,0.366781622171402,-0.24436111748218536,-0.8193063735961914,0.5682310461997986,0.7289977073669434
4.560583114624023,-0.2213115096092224,-0.10938581824302673,0.06450535356998444,-0.39296613025207716,-1.2981334319520212,-0.5563982681360429,-0.8896504640579224,0.38293012976646423,-0.24877038598060608,-0.8233518004417419,0.6102838516235352,0.6205337643623352
4.580533027648926,-0.176907479763031,-0.12650516629219055,0.10808870196342468,-0.40904157695061566,-1.2934847127977611,-0.5723380034509781,-0.8824492692947388,0.39773014187812805,-0.2511855661869049,-1.1074504852294922,0.4723202586174011,0.5121661424636841
4.600509166717529,-0.11513298749923706,-0.09668654203414917,0.13175004720687866,-0.42380440313137574,-1.294271205523566,-0.5944081361526895,-0.8769020438194275,0.41123124957084656,-0.248861163854599,-1.1748532056808472,0.34165868163108826,0.38188332319259644
4.62053108215332,-0.058064043521881104,-0.08941081166267395,0.14395809173583984,-0.43735820312782353,-1.2981686874661589,-0.6166346216478269,-0.8724170327186584,0.42354780435562134,-0.2439182996749878,-1.2020806074142456,0.20192021131515503,0.3876030147075653
4.640491008758545,-0.11329972743988037,-0.11018228530883789,0.20665836334228516,-0.4510340964191797,-1.3051186470698164,-0.643281810652536,-0.8684203624725342,0.43589645624160767,-0.2363061159849167,-1.4544481039047241,0.24250882863998413,0.28457948565483093
4.660488128662109,-0.14809906482696533,-0.06950420141220093,0.24908003211021423,-0.46409879130097725,-1.3133245686784876,-0.6740131061354072,-0.8647490739822388,0.4476171135902405,-0.22770242393016815,-1.5493323802947998,0.2747746407985687,0.320443719625473
4.680487155914307,-0.10666733980178833,-0.05520939826965332,0.25295865535736084,-0.47869385040306267,-1.3235364765154045,-0.7045534553205007,-0.8606026768684387,0.4606202244758606,-0.21723775565624237,-1.418694257736206,0.09980147331953049,0.41036421060562134
4.700005054473877,-0.1496317982673645,-0.003364086151123047,0.2488405704498291,-0.4930207506435348,-1.3361219533398265,-0.730559336512496,-0.8567616939544678,0.47328904271125793,-0.20483410358428955,-1.1705149412155151,-0.15089981257915497,0.41182899475097656
4.7205681800842285,-0.14375275373458862,-0.05491983890533447,0.26188239455223083,-0.5058618722186499,-1.3511711589200497,-0.7531073268447956,-0.8537448048591614,0.484561562538147,-0.1905779242515564,-1.1104018688201904,-0.23587027192115784,0.40008074045181274
4.740511178970337,-0.10765939950942993,-0.14762502908706665,0.26197248697280884,-0.5185451096084382,-1.3674929022852733,-0.7786387793743931,-0.8506536483764648,0.4956170320510864,-0.17536354064941406,-1.3864262104034424,-0.13703015446662903,0.35837098956108093
4.760515213012695,-0.07532107830047607,-0.16580075025558472,0.22005069255828857,-0.5306064739489855,-1.3866117642518103,-0.813249722334566,-0.847912073135376,0.506056547164917,-0.1579626053571701,-1.7911714315414429,-0.01953885704278946,0.24246598780155182
4.780569076538086,-0.034542202949523926,-0.1699017882347107,0.19527286291122437,-0.540449583879657,-1.4079583899289212,-0.8573815858554156,-0.8461341857910156,0.5145215392112732,-0.1390136182308197,-2.079768419265747,0.13919050991535187,0.06746892631053925
4.8006272315979,0.01671016216278076,-0.16669046878814697,0.11457592248916626,-0.546377807590102,-1.429675236597473,-0.905946356692002,-0.8459186553955078,0.5195958018302917,-0.1201757937669754,-2.0795207023620605,0.18307150900363922,-0.12943565845489502
4.820600986480713,0.08158904314041138,-0.12367475032806396,0.03762352466583252,-0.5472337965626107,-1.450185714642926,-0.9515213727834686,-0.8477634787559509,0.5203269720077515,-0.10274797677993774,-1.7858664989471436,0.14709468185901642,-0.26415368914604187
4.840548992156982,0.0899817943572998,-0.06673580408096313,-0.016245178878307343,-0.5402167181082528,-1.4632945071643766,-0.9919203868629919,-0.8526466488838196,0.5143218636512756,-0.09201580286026001,-1.8565921783447266,0.7519862651824951,-0.9636337757110596
4.86055326461792,-0.017822742462158203,-0.2328394651412964,-0.12831521034240723,-0.5291466899605508,-1.4692891074220484,-1.0364339404732759,-0.8587948083877563,0.5047969222068787,-0.0874745175242424,-1.815392255783081,0.9225543141365051,-0.6569777727127075
4.880548000335693,0.20377033948898315,-0.17035746574401855,-0.19984537363052368,-0.5196485997843581,-1.4789922660657224,-1.0803689381838595,-0.8643386960029602,0.49657514691352844,-0.07957347482442856,-1.7699799537658691,0.3074796497821808,-0.5698087811470032
4.900547027587891,0.28409361839294434,0.04291090369224548,-0.14262503385543823,-0.5108850850026568,-1.4956147820557342,-1.1222218193643378,-0.8698480725288391,0.4889495074748993,-0.0655200183391571,-1.8753286600112915,0.16857591271400452,-0.6834375858306885
4.920547008514404,0.14978104829788208,0.010787725448608398,-0.05877792462706566,-0.49774773876655315,-1.5104490371178754,-1.1681770478570563,-0.8770607709884644,0.4774477779865265,-0.05299258604645729,-2.0583672523498535,0.5434150099754333,-0.7906255722045898
4.940571069717407,0.1761723756790161,-0.08452558517456055,-0.10156047344207764,-0.48581154089490747,-1.5203873904305698,-1.2181000172368148,-0.8831731677055359,0.4669261574745178,-0.044557567685842514,-2.190913677215576,0.8356375694274902,-0.6615070104598999
4.96055006980896,0.16308975219726562,0.06212419271469116,-0.15708529949188232,-0.47633013509605554,-1.5215798166719985,-1.264583045019683,-0.8876075744628906,0.45852091908454895,-0.04372025281190872,-1.883972406387329,1.1884782314300537,-0.5070854425430298
4.980578184127808,0.21921849250793457,0.14321306347846985,-0.2104625701904297,-0.4680333998478589,-1.5148905562651724,-1.303693145142094,-0.8910630345344543,0.45113205909729004,-0.049867529422044754,-1.5628302097320557,1.2045273780822754,-0.4644991457462311
5.000545978546143,0.2690030336380005,0.07422828674316406,-0.20072996616363525,-0.4624842631612315,-1.505534800514857,-1.3372365650473823,-0.8930418491363525,0.4461727738380432,-0.058364156633615494,-1.475894808769226,1.2580409049987793,-0.28378942608833313
5.020542144775391,0.27763164043426514,-0.015712380409240723,-0.1469133496284485,-0.45945768732573966,-1.4954625904162075,-1.37202795128908,-0.8937512636184692,0.4434621036052704,-0.06745728105306625,-1.6200380325317383,1.2962666749954224,-0.22413642704486847
5.040547132492065,0.33397263288497925,-0.014559388160705566,-0.14840716123580933,-0.45856300369157305,-1.4859853885473255,-1.408471402601375,-0.8934667706489563,0.44266003370285034,-0.07595796138048172,-1.626049280166626,1.2511677742004395,-0.12198758125305176
5.060546159744263,0.3568565249443054,-0.007070332765579224,-0.1648821234703064,-0.45965568586735195,-1.477438680057238,-1.4435632912211591,-0.8923026919364929,0.4436395466327667,-0.08354613929986954,-1.5285238027572632,1.169663667678833,-0.01611260138452053
5.080559253692627,0.2781827449798584,-0.014638364315032959,-0.13308924436569214,-0.46275641294920294,-1.4685459064013902,-1.4764954910350339,-0.8901517987251282,0.44641631841659546,-0.0913369357585907,-1.4512224197387695,1.2305535078048706,0.032436490058898926
5.100556135177612,0.2057591676712036,-0.0027908682823181152,-0.10146491974592209,-0.4663843797081146,-1.456922812819631,-1.508360271912534,-0.8874150514602661,0.4496597647666931,-0.10149214416742325,-1.4238736629486084,1.3521071672439575,0.02847294695675373
5.120550155639648,0.24362683296203613,0.0027499496936798096,-0.09076463431119919,-0.4707604743371275,-1.4435918593532262,-1.5387592884663714,-0.8840230107307434,0.4535641670227051,-0.11306215077638626,-1.308996319770813,1.329293131828308,0.09197299182415009
5.140549182891846,0.2569561004638672,0.03881922364234924,-0.09961175918579102,-0.47592362824934537,-1.4308997225475677,-1.565043304692887,-0.8801862001419067,0.4581596255302429,-0.12394469231367111,-1.0858765840530396,1.1388126611709595,0.08894331008195877
5.16058611869812,0.26808106899261475,0.07900428771972656,-0.09791626036167145,-0.4806576097306214,-1.4208298429309227,-1.586747022073966,-0.8767391443252563,0.4623623788356781,-0.1324761062860489,-0.926263153553009,0.8786112666130066,0.12462379783391953
5.180494070053101,0.30109137296676636,0.07594341039657593,-0.08317244052886963,-0.4867522716566626,-1.41405183317158,-1.6061201662664104,-0.8730214238166809,0.46775782108306885,-0.1379730999469757,-0.8418791890144348,0.7261601686477661,0.2138383537530899
5.199855089187622,0.265167772769928,0.134916752576828,-0.08567744493484497,-0.49420986702836556,-1.4079637901855597,-1.6219975436324734,-0.86869877576828,0.4743362069129944,-0.14271600544452667,-0.650820791721344,0.6261546611785889,0.29568713903427124
5.220551013946533,0.20655381679534912,0.22581332921981812,-0.10964173078536987,-0.5013997085237872,-1.4016130998160503,-1.631769522845801,-0.8643907904624939,0.48065343499183655,-0.14765186607837677,-0.2566620111465454,0.4758654832839966,0.29664477705955505
5.240548133850098,0.20500308275222778,0.23997384309768677,-0.12812678515911102,-0.5087921918013162,-1.3929561511812054,-1.630934746792774,-0.8595593571662903,0.4871227741241455,-0.15449638664722443,0.14829818904399872,0.37025579810142517,0.43762722611427307
5.260548114776611,0.1721787452697754,0.18704605102539062,-0.07388351857662201,-0.5162801709848494,-1.381580351290279,-1.6243085826236943,-0.8541397452354431,0.49364855885505676,-0.16357368230819702,0.23318637907505035,0.4712538421154022,0.37591445446014404
5.280548095703125,0.16324323415756226,0.139543354511261,-0.02730904519557953,-0.521976563783786,-1.3675249553881916,-1.6184499141934559,-0.8489884734153748,0.4985944628715515,-0.1749919056892395,0.10588689148426056,0.6446541547775269,0.3329903185367584
5.300546169281006,0.16827493906021118,0.1587558388710022,-0.04177336394786835,-0.5283056637806239,-1.3522023346087608,-1.6167301064701751,-0.8431101441383362,0.5040707588195801,-0.1872914880514145,-0.05473098158836365,0.8156343102455139,0.30480092763900757
5.320600986480713,0.13408684730529785,0.18207013607025146,-0.04589591920375824,-0.5335800100938235,-1.3340871619741816,-1.6166180305263458,-0.8369830250740051,0.508618950843811,-0.2019067406654358,-0.0503583624958992,0.997591495513916,0.20636841654777527
5.340662956237793,0.1440771222114563,0.1902744174003601,-0.03787526488304138,-0.5367788352399974,-1.3131608121149467,-1.6169011450916346,-0.8309972882270813,0.5113704800605774,-0.21896056830883026,-0.07292080670595169,1.0934019088745117,0.10303527116775513
5.360548973083496,0.1732577681541443,0.12005060911178589,-0.009709000587463379,-0.5387187074985322,-1.2927636046587578,-1.6204103127648593,-0.8254032135009766,0.5130366086959839,-0.23559120297431946,-0.33083903789520264,1.1298984289169312,0.0052060894668102264
5.380550146102905,0.19996142387390137,0.0700463056564331,0.06508287787437439,-0.5410150008470875,-1.2756010403931741,-1.632011453856611,-0.8201093077659607,0.5150063037872314,-0.24937847256660461,-0.6649610996246338,1.18660569190979,-0.05484691634774208
5.400619029998779,0.2417038083076477,0.046189844608306885,0.09932327270507812,-0.5445513786298869,-1.2602977788773408,-1.6485551941303198,-0.8144577741622925,0.5180343985557556,-0.26134100556373596,-0.7402631640434265,1.1893621683120728,-0.028544293716549873
5.420539140701294,0.28119730949401855,0.04524266719818115,0.09906259179115295,-0.5483389421211542,-1.244703730068425,-1.6623793795304247,-0.8084189891815186,0.5212703943252563,-0.2733788788318634,-0.475849986076355,1.0752942562103271,0.03249000012874603
5.4405481815338135,0.29716867208480835,-0.009382426738739014,0.11075657606124878,-0.5515051797312405,-1.2285059467349513,-1.6695500806258334,-0.8023262619972229,0.523969829082489,-0.2858816385269165,-0.22153805196285248,0.9241093993186951,0.05664215609431267
5.460583209991455,0.27658581733703613,-0.09048861265182495,0.1221047043800354,-0.5528022866499919,-1.2124201835195532,-1.671844414029194,-0.7969869375228882,0.5250741839408875,-0.2985115051269531,-0.020916011184453964,0.8113506436347961,-0.016484783962368965
5.480546951293945,0.258849561214447,-0.10868394374847412,0.17962715029716492,-0.5518783151363837,-1.196554763454536,-1.6720765835744305,-0.792602002620697,0.5242876410484314,-0.31129515171051025,0.01768762618303299,0.8012619018554688,-0.07216763496398926
5.500547170639038,0.23105227947235107,-0.13498687744140625,0.19485723972320557,-0.5494215465921911,-1.181374633615478,-1.6724515347509439,-0.7889747023582458,0.522193968296051,-0.3237786889076233,0.0711492970585823,0.7400604486465454,-0.17111192643642426
5.520547151565552,0.2214760184288025,-0.13975733518600464,0.14520183205604553,-0.5441097172040672,-1.1664253357810623,-1.6698501436960693,-0.7865854501724243,0.5176565647125244,-0.33662328124046326,0.3279266655445099,0.6147370934486389,-0.26923123002052307
5.540547132492065,0.19817465543746948,-0.15743154287338257,0.15638601779937744,-0.5343172132835327,-1.1534615374465402,-1.6655118755607659,-0.7867519855499268,0.5092535614967346,-0.34882980585098267,0.368160605430603,0.4936962127685547,-0.4768431782722473
5.560214996337891,0.16160190105438232,-0.21317845582962036,0.18648332357406616,-0.5213426454120365,-1.1443795941723587,-1.6658032857284997,-0.7895011305809021,0.49804484844207764,-0.358663409948349,0.10586430877447128,0.44043052196502686,-0.7394163012504578
5.580547094345093,0.13397061824798584,-0.21556374430656433,0.22420412302017212,-0.5063671956626739,-1.1400529123806484,-1.6741115781393345,-0.7946305274963379,0.4850035309791565,-0.36514949798583984,-0.12179411202669144,0.4216717481613159,-0.9064834713935852
5.600640296936035,0.12803876399993896,-0.15976271033287048,0.21482977271080017,-0.4908350791579244,-1.1375305057155545,-1.6860989040298775,-0.8004480004310608,0.47136253118515015,-0.3702709972858429,-0.13258147239685059,0.3723849654197693,-0.9608389735221863
5.6206231117248535,0.12932276725769043,-0.0988893210887909,0.1832205057144165,-0.47305660753734574,-1.1357785003401253,-1.6959794452201504,-0.8072708249092102,0.45560935139656067,-0.37514546513557434,0.11359050124883652,0.2560053765773773,-1.0401713848114014
5.640541076660156,0.11027032136917114,-0.07584559917449951,0.15483540296554565,-0.4511648186597817,-1.134465660570914,-1.6997400702410645,-0.8156232237815857,0.4360140860080719,-0.3803297281265259,0.5011835098266602,0.05419129133224487,-1.1038342714309692
5.660537242889404,0.08973175287246704,-0.10608449578285217,0.1936565637588501,-0.4262649439531264,-1.1353299864359392,-1.6996319292416175,-0.8255411386489868,0.41347286105155945,-0.38408616185188293,0.5284054279327393,-0.1126207709312439,-1.1571178436279297
5.680568218231201,0.01541978120803833,-0.11379382014274597,0.22773030400276184,-0.3998123694727328,-1.1398283437245125,-1.7024832907728327,-0.8369072675704956,0.38924551010131836,-0.3848041892051697,0.32022127509117126,-0.2641812860965729,-1.4284191131591797
5.699653148651123,-0.030099928379058838,-0.030560821294784546,0.19567641615867615,-0.36903465683606573,-1.1513525482300093,-1.7114309020221088,-0.8518275618553162,0.36071524024009705,-0.3798346519470215,0.2745145261287689,-0.5610997676849365,-1.690586805343628
5.7205541133880615,-0.09633064270019531,-0.004694074392318726,0.14620757102966309,-0.3336498775742441,-1.1684399749834042,-1.7193653403588869,-0.8693982362747192,0.3274937868118286,-0.3699928820133209,0.47644445300102234,-0.8950591087341309,-1.8607484102249146
5.7405781745910645,-0.26949775218963623,0.03220975399017334,0.1053895354270935,-0.2937591528455973,-1.1912857394033203,-1.7248093171023022,-0.889056384563446,0.28955239057540894,-0.35459601879119873,0.5052500367164612,-1.2161656618118286,-2.0728912353515625
5.760523080825806,-0.3496595621109009,-0.006544485688209534,0.15929296612739563,-0.2510243473253735,-1.2172964099301435,-1.7317196354459374,-0.9087633490562439,0.24839633703231812,-0.33533352613449097,0.3955169916152954,-1.1578978300094604,-2.1388285160064697
5.780410289764404,-0.40446656942367554,0.016119420528411865,0.08531144261360168,-0.20758192364589045,-1.2424872795252337,-1.7375467467604937,-0.926267683506012,0.20609433948993683,-0.315520703792572,0.5976519584655762,-1.2361668348312378,-2.1232099533081055
5.8005170822143555,-0.41848474740982056,0.09841620922088623,0.03074583411216736,-0.16405266506042263,-1.2652908342118472,-1.7334072442471549,-0.9408903121948242,0.16331778466701508,-0.2967369556427002,1.1827170848846436,-1.105323314666748,-1.9053441286087036
5.820578098297119,-0.44234782457351685,0.18401774764060974,-0.016300082206726074,-0.12027286224776701,-1.285973665574161,-1.7197969900050103,-0.9527785778045654,0.11998309940099716,-0.27895742654800415,1.2698824405670166,-1.0360838174819946,-1.8812988996505737
5.840932130813599,-0.4352048635482788,0.06193970888853073,0.01751825213432312,-0.0817365050325531,-1.3017506355991102,-1.708502602721766,-0.9608067274093628,0.08164552599191666,-0.26492419838905334,0.8548670411109924,-0.6831910610198975,-1.579131841659546
5.860660076141357,-0.4099329710006714,0.040001675486564636,0.05911612510681152,-0.0521545661626598,-1.3112373628096587,-1.7039538137006267,-0.9651892185211182,0.05213092640042305,-0.25630536675453186,0.45456463098526,-0.35607701539993286,-1.1487277746200562
5.8805742263793945,-0.30817973613739014,0.1374923437833786,0.014231234788894653,-0.03342756965078154,-1.314695988078315,-1.698692720133677,-0.9668447375297546,0.0334213450551033,-0.253168523311615,0.5452783703804016,-0.07324150204658508,-0.5772367715835571
5.900551080703735,-0.26803529262542725,0.16305133700370789,-0.0007238388061523438,-0.02145959322658264,-1.3156668906602769,-1.6879888611873497,-0.9674079418182373,0.021457945927977562,-0.252312570810318,0.8343714475631714,-0.056997817009687424,-0.26442670822143555
5.920583248138428,-0.2795109748840332,0.08798813074827194,0.002341330051422119,-0.01526869168334038,-1.3163765757999268,-1.6722546866214578,-0.9676967859268188,0.015268098562955856,-0.25165456533432007,0.7774830460548401,-0.06812778115272522,0.0048912218771874905
5.94054913520813,-0.39658868312835693,-0.05011184513568878,0.040994852781295776,-0.016100704619225942,-1.316984974487052,-1.6616193598861833,-0.9678369760513306,0.01610000990331173,-0.2510624825954437,0.18302321434020996,-0.12820026278495789,0.41028138995170593
5.9605491161346436,-0.4561219811439514,-0.007667360827326775,0.06836706399917603,-0.023553945977427822,-1.3210778546921862,-1.658823551495267,-0.9687133431434631,0.02355176769196987,-0.24706265330314636,-0.24148119986057281,-0.3219637870788574,0.3932963013648987
5.980616092681885,-0.5062274932861328,0.0023025311529636383,0.0465865284204483,-0.033317643724018374,-1.3289152138141291,-1.6598042364055268,-0.9703503847122192,0.03331147879362106,-0.23939648270606995,-0.14419938623905182,-0.48246443271636963,0.5130410194396973
6.000550270080566,-0.4678627848625183,-0.037367336452007294,0.08906979858875275,-0.04583675012050519,-1.3389254869752747,-1.6602406028284216,-0.972216010093689,0.045820701867341995,-0.2295573502779007,-0.15413613617420197,-0.4544239938259125,0.7334364056587219
6.020548105239868,-0.5293331742286682,-0.04643834009766579,0.09164753556251526,-0.06219498167196465,-1.3461416882234367,-1.660667655103489,-0.9729863405227661,0.06215489283204079,-0.22233900427818298,-0.2772168219089508,-0.24481600522994995,0.8329678773880005
6.040595054626465,-0.5669233202934265,-0.04186686873435974,0.05011552572250366,-0.08140073326619733,-1.3491516192695385,-1.6636490067752097,-0.9723071455955505,0.08131086826324463,-0.2191065102815628,-0.4398789703845978,-0.0510537289083004,1.0108124017715454
6.060547113418579,-0.5743923783302307,0.005074642598628998,-0.009701311588287354,-0.10570251980671452,-1.3505269068373191,-1.6697411936117177,-0.9703922867774963,0.1055057942867279,-0.21727308630943298,-0.7183172106742859,-0.034508220851421356,1.2442626953125
6.080568075180054,-0.5873981714248657,-0.0007480829954147339,-0.004811137914657593,-0.13684066503872677,-1.3523351226492109,-1.6811714492984848,-0.9671062231063843,0.13641400635242462,-0.21470168232917786,-1.0653468370437622,-0.004823738243430853,1.5610615015029907
6.1005470752716064,-0.5941002368927002,0.02310018241405487,0.030810773372650146,-0.1749187336671777,-1.353263869380522,-1.6956401860731714,-0.9615334272384644,0.17402811348438263,-0.21252764761447906,-1.0624268054962158,0.17049410939216614,1.8537789583206177
6.120622158050537,-0.6304674744606018,0.05575306713581085,0.04749301075935364,-0.21678448722259816,-1.3496698814823231,-1.7047827972240996,-0.9528152346611023,0.21509048342704773,-0.21419523656368256,-0.7385116815567017,0.37818390130996704,2.0194897651672363
6.140552997589111,-0.6369007229804993,0.02247607707977295,0.0664154589176178,-0.259541758955504,-1.3417000283363838,-1.708034823486484,-0.9412547945976257,0.25663769245147705,-0.21949151158332825,-0.5302044153213501,0.44626665115356445,2.077569007873535
6.160548210144043,-0.598553478717804,0.00947532057762146,0.011436358094215393,-0.30186628828817463,-1.3334312975595994,-1.7060010995487782,-0.9280121326446533,0.29730263352394104,-0.22450999915599823,-0.2644539177417755,0.2946476638317108,2.070899724960327
6.180819034576416,-0.5451882481575012,-0.02943524718284607,-0.002644956111907959,-0.34180786312036227,-1.3274475081852741,-1.6990150942489388,-0.914391279220581,0.33519092202186584,-0.22701500356197357,-0.07975687831640244,0.0935613289475441,1.9936511516571045
6.199687957763672,-0.47606033086776733,-0.0747123658657074,0.024586141109466553,-0.37989661940393366,-1.3235694833745815,-1.6918578864592115,-0.9004656076431274,0.3708244562149048,-0.22726856172084808,-0.2420906275510788,0.049466487020254135,1.8575677871704102
6.220594167709351,-0.42242491245269775,-0.08422043919563293,0.02823890745639801,-0.4155839553005824,-1.321692985360257,-1.6894706230236096,-0.8866419196128845,0.4037242531776428,-0.22555018961429596,-0.3855212926864624,0.02962655760347843,1.6803855895996094
6.240548133850098,-0.3513571619987488,-0.029454529285430908,-0.02262699604034424,-0.4490924635383247,-1.3228064382077875,-1.6891409263176285,-0.8732828497886658,0.4341481626033783,-0.2211168259382248,-0.4356182813644409,-0.1451728641986847,1.5978144407272339
6.260548114776611,-0.3327144980430603,0.004839003086090088,-0.02526727318763733,-0.48118249412304936,-1.3284933712187887,-1.6908959779858534,-0.860553503036499,0.4628277122974396,-0.21269351243972778,-0.4584692120552063,-0.3419564664363861,1.488869547843933
6.280600070953369,-0.25981003046035767,0.023293733596801758,-0.032723456621170044,-0.5118585233078313,-1.3365419298821204,-1.6915404584838118,-0.8480240702629089,0.4897984266281128,-0.20236864686012268,-0.29835882782936096,-0.43212419748306274,1.4907797574996948
6.300546169281006,-0.22437816858291626,0.0243682861328125,-0.07719080150127411,-0.5409179491185305,-1.34383953817425,-1.68734244985584,-0.8352531790733337,0.514923095703125,-0.19288969039916992,-0.056416746228933334,-0.48345768451690674,1.455498456954956
6.320548057556152,-0.19639843702316284,0.03158313035964966,-0.09024696052074432,-0.5691998576287206,-1.3503208374060809,-1.6819889138695319,-0.8219426870346069,0.5389582514762878,-0.18421275913715363,-0.1797875463962555,-0.42952674627304077,1.378082036972046
6.340548038482666,-0.18495839834213257,0.013442039489746094,-0.09394185245037079,-0.5966326589791616,-1.3569457912965721,-1.6806788891179258,-0.8083887696266174,0.5618600845336914,-0.17555879056453705,-0.2598373591899872,-0.3065255284309387,1.3549103736877441
6.360567092895508,-0.10780417919158936,0.047721803188323975,-0.11498481035232544,-0.6231868610513247,-1.3603775090192736,-1.6765478157958984,-0.7941123843193054,0.5836259126663208,-0.1696067899465561,0.07798583060503006,-0.3024928867816925,1.314762830734253
6.380576133728027,-0.03197598457336426,0.030614376068115234,-0.11895531415939331,-0.6470355934289255,-1.3586669293969282,-1.6627472200996178,-0.779990017414093,0.6028238534927368,-0.16798613965511322,0.4528086185455322,-0.33365052938461304,1.2662419080734253
6.400551080703735,0.008787810802459717,-0.038735032081604004,-0.12955844402313232,-0.6692528269470382,-1.3521223118154415,-1.6431255416194486,-0.7656086087226868,0.6204001903533936,-0.17013931274414062,0.5020477771759033,-0.1924859583377838,1.253707766532898
6.420547008514404,0.04044288396835327,-0.08007532358169556,-0.11848317086696625,-0.6904296876911733,-1.34540434776565,-1.6289523854049401,-0.751471996307373,0.6368685364723206,-0.1723034530878067,0.08114078640937805,-0.018040917813777924,1.0775963068008423
6.440546989440918,0.15243881940841675,-0.127538800239563,-0.08995895087718964,-0.7105797672665181,-1.3423135042949341,-1.6254636274847198,-0.7382848262786865,0.6522733569145203,-0.1716833859682083,-0.21182794868946075,0.07623391598463058,0.9577939510345459
6.460586071014404,0.247589111328125,-0.09981566667556763,-0.07978701591491699,-0.7286607215627082,-1.3399291402432933,-1.624347409103572,-0.726272702217102,0.6658710241317749,-0.17071640491485596,-0.052023954689502716,0.07897617667913437,0.8037528991699219
6.480556964874268,0.3089451193809509,-0.05112195014953613,-0.05225299298763275,-0.741803276844905,-1.3317000964310697,-1.6149645142205242,-0.7162784934043884,0.6756184697151184,-0.17459934949874878,0.4177827537059784,0.1187882125377655,0.6776615977287292
6.5005481243133545,0.389640748500824,-0.09828025102615356,-0.021386489272117615,-0.7517535768249587,-1.3166268257486884,-1.596918121820237,-0.7070236206054688,0.6829208135604858,-0.18367627263069153,0.569513738155365,0.16682612895965576,0.6316444873809814
6.520549297332764,0.4820815920829773,-0.13817369937896729,0.024289682507514954,-0.7611415610285676,-1.30083808814645,-1.5789597233933186,-0.6978256106376648,0.6897484660148621,-0.1930975466966629,0.48477068543434143,0.1454937756061554,0.5796247124671936
6.54057502746582,0.5484918355941772,-0.15445250272750854,0.029598653316497803,-0.7685617772663644,-1.285261950345822,-1.559814533969741,-0.6898035407066345,0.6951019763946533,-0.20249593257904053,0.6847288608551025,0.08466015756130219,0.5286500453948975
6.560546159744263,0.634492814540863,-0.1720038652420044,0.04226623475551605,-0.7735028389304072,-1.2668126990916202,-1.5340800576307727,-0.6826648116111755,0.6986457109451294,-0.214156374335289,0.9374474883079529,-0.03710666671395302,0.4947475790977478
6.580609083175659,0.6631931662559509,-0.21050280332565308,0.04519924521446228,-0.7767512408213324,-1.2468639716542056,-1.5030002930752906,-0.6761021614074707,0.7009661197662354,-0.22700759768486023,1.0589218139648438,-0.15117615461349487,0.49987339973449707
6.6005871295928955,0.6823522448539734,-0.22387707233428955,0.055744171142578125,-0.7785177839860373,-1.2267657860896437,-1.468497544397302,-0.6702368259429932,0.7022249102592468,-0.24013128876686096,1.2297242879867554,-0.23096810281276703,0.4806351065635681
6.620645046234131,0.7083839774131775,-0.2944917678833008,0.11143410205841064,-0.7779779784413947,-1.2045053727676194,-1.4303572904101811,-0.665079653263092,0.7018405199050903,-0.255126029253006,1.3264302015304565,-0.24893110990524292,0.4083816707134247
6.6406121253967285,0.7473401427268982,-0.311252236366272,0.10406187176704407,-0.7742662965014915,-1.1827691993194258,-1.389704513864269,-0.6617841124534607,0.699191689491272,-0.2705046236515045,1.533729910850525,-0.43233057856559753,0.3262858986854553
6.660548210144043,0.7331263422966003,-0.31933218240737915,0.09126031398773193,-0.766516738439411,-1.1606940013434566,-1.3434124066077573,-0.6606013774871826,0.6936303377151489,-0.28719833493232727,1.880781888961792,-0.559246301651001,0.2826347351074219
6.680549144744873,0.7306679487228394,-0.23254269361495972,-0.003041088581085205,-0.7565062016111793,-1.1368107508224572,-1.288970306512941,-0.6598213911056519,0.6863847970962524,-0.30579668283462524,2.135392665863037,-0.8993319272994995,0.3737696707248688
6.700554132461548,0.5262395739555359,-0.030323326587677002,-0.15282019972801208,-0.7448071973088989,-1.1146862963466824,-1.2284079109724602,-0.6600591540336609,0.6778301000595093,-0.32383373379707336,2.30476975440979,-0.9256488084793091,0.464778870344162
6.720566272735596,0.3920544981956482,-0.0061684250831604,-0.02540448307991028,-0.7328968758388622,-1.0922699634431556,-1.1707419902723977,-0.6597546935081482,0.6690255403518677,-0.34224066138267517,2.0205166339874268,-0.6584391593933105,0.4366360902786255
6.740554094314575,0.39942431449890137,-0.044195592403411865,0.08061349391937256,-0.7225596535993054,-1.069782571007007,-1.120694261820815,-0.6579235196113586,0.6613068580627441,-0.3602917790412903,1.825829029083252,-0.5633161664009094,0.3316265046596527
6.760547161102295,0.38310152292251587,-0.02137380838394165,0.08849707245826721,-0.708234294513361,-1.0541186776705134,-1.0735043795150518,-0.6603690385818481,0.6504937410354614,-0.37519440054893494,2.039553642272949,-0.9729663133621216,0.1636362075805664
6.780576229095459,0.3076976537704468,-0.07728457450866699,0.1598469614982605,-0.6882370138810104,-1.045262039963048,-1.0231157375996893,-0.6681408286094666,0.6351764798164368,-0.38747748732566833,2.2734375,-1.4375524520874023,-0.020511168986558914
6.8005781173706055,0.23236191272735596,-0.08674412965774536,0.22255033254623413,-0.6616165452272804,-1.0487354911333981,-0.9742075881873459,-0.6839000582695007,0.6143931150436401,-0.39344874024391174,2.3526763916015625,-1.9133381843566895,-0.35550057888031006
6.820548057556152,0.12294095754623413,-0.16924822330474854,0.3306467533111572,-0.6304847750824686,-1.0607308681157899,-0.9295821216130983,-0.7049264907836914,0.5895364284515381,-0.39436736702919006,2.246223211288452,-1.9637871980667114,-0.6131950616836548
6.840548038482666,0.05497169494628906,-0.23937171697616577,0.3880024552345276,-0.5958287353621816,-1.0808814315840705,-0.8945893686667046,-0.7303257584571838,0.561194896697998,-0.3894672691822052,1.8872780799865723,-2.1025233268737793,-1.0335984230041504
6.860550165176392,0.04969698190689087,-0.3377952575683594,0.3770216107368469,-0.5578212031277389,-1.114339269480226,-0.8715174015280116,-0.7615501284599304,0.5293389558792114,-0.37395450472831726,1.6985238790512085,-2.5891964435577393,-1.4939056634902954
6.880580186843872,-0.017483234405517578,-0.14767390489578247,0.24451696872711182,-0.5107130926771418,-1.1607235022400801,-0.8479874129899688,-0.8000675439834595,0.48879948258399963,-0.34780359268188477,2.2338502407073975,-3.2516098022460938,-1.9463354349136353
6.900547981262207,-0.18550699949264526,-0.026617109775543213,0.21149498224258423,-0.4539942771722767,-1.2102065754626545,-0.810510153700901,-0.840906023979187,0.4385586977005005,-0.31708574295043945,2.907111644744873,-3.386646032333374,-2.0601251125335693
6.920551300048828,-0.5123582482337952,-0.07857370376586914,0.12103244662284851,-0.39320891987181134,-1.2597141074577378,-0.7638351417798153,-0.8793501257896423,0.38315442204475403,-0.2827296853065491,3.068451404571533,-3.443449020385742,-2.2516725063323975
6.94055700302124,-0.8569259643554688,-0.2065633237361908,-0.07974600791931152,-0.3346465098254108,-1.3071445031824027,-0.7165159907383855,-0.9118881821632385,0.3284353017807007,-0.24615110456943512,2.750438690185547,-2.9078874588012695,-2.156083822250366
6.96057915687561,-1.1281077861785889,-0.002116769552230835,-0.2877514362335205,-0.2761833759263241,-1.3491056026534143,-0.6852009335513753,-0.9385579228401184,0.2726856470108032,-0.2115466147661209,1.4270308017730713,-2.1994786262512207,-2.8399713039398193
6.980524063110352,-0.9803736209869385,0.0020819157361984253,-0.252339243888855,-0.22271617008082187,-1.3794048303734652,-0.6871508421224518,-0.9574926495552063,0.22087952494621277,-0.18552681803703308,-0.5649853944778442,-0.6879862546920776,-2.2134201526641846
7.000559091567993,-0.5876407623291016,0.2340564876794815,-0.04594606161117554,-0.19912636299409653,-1.3855910517451147,-0.719193594870572,-0.963476300239563,0.1978130340576172,-0.1805095225572586,-1.8950235843658447,0.538545548915863,-0.6710917353630066
7.020560264587402,-0.2838989496231079,0.44160783290863037,-0.05405646562576294,-0.2052620271623532,-1.37946113225591,-0.7533590620773458,-0.9611420035362244,0.20382370054721832,-0.1861778050661087,-1.3324377536773682,0.812526524066925,0.6661854386329651
7.040650129318237,-0.22437530755996704,0.20091597735881805,0.11739745736122131,-0.2276348850331902,-1.3628048036238554,-0.7630379758228151,-0.9532066583633423,0.22567404806613922,-0.20116817951202393,0.0028927954845130444,0.994404137134552,1.1625993251800537
7.060671091079712,-0.2576119303703308,-0.17457936704158783,0.08826160430908203,-0.24506392637780938,-1.3408291014733358,-0.7482807652558279,-0.9445824027061462,0.24261833727359772,-0.22113503515720367,0.8678147196769714,0.8112109303474426,0.7814661264419556
7.080603122711182,-0.16914379596710205,-0.4946189820766449,0.1838943064212799,-0.2529064004833266,-1.3213883768128807,-0.7324939229424694,-0.9382323026657104,0.2502189576625824,-0.23897843062877655,0.12677469849586487,0.8071755170822144,0.35450831055641174
7.1007080078125,-0.13756906986236572,-0.6295862197875977,0.28372806310653687,-0.2588559471011749,-1.3083506928233444,-0.7443313732967795,-0.9335827827453613,0.25597476959228516,-0.2507995069026947,-1.287253737449646,0.7557421326637268,-0.01672424003481865
7.1206560134887695,-0.09787917137145996,-0.3888686001300812,0.1403176486492157,-0.2676477871638309,-1.3028524115155462,-0.7770579879710462,-0.929983377456665,0.2644636929035187,-0.25532305240631104,-1.904515027999878,0.6667080521583557,0.057439081370830536
7.140635013580322,-0.1487520933151245,-0.20454049110412598,0.04640895128250122,-0.2809293170006261,-1.29947440118801,-0.8164833190730242,-0.9256498217582703,0.27724865078926086,-0.25749897956848145,-2.0647783279418945,0.8106128573417664,0.2607242166996002
7.160757064819336,-0.23972004652023315,-0.1901608407497406,0.023596137762069702,-0.3011849172648124,-1.2897086593620373,-0.8553009623392833,-0.917506754398346,0.2966519892215729,-0.2649138271808624,-2.071000576019287,1.285064697265625,0.6522470712661743
7.180559158325195,-0.2993932366371155,-0.1416657567024231,0.016764163970947266,-0.327754536970435,-1.2705703089919522,-0.8904094036911462,-0.9044185280799866,0.32191792130470276,-0.2799934148788452,-1.8766916990280151,1.713631272315979,0.9561631083488464
7.199660301208496,-0.31226712465286255,-0.10239887237548828,0.002449512481689453,-0.359318096839493,-1.2430134395023797,-0.9175106291213346,-0.8862955570220947,0.35163596272468567,-0.3013843894004822,-1.5110266208648682,1.932875156402588,1.253466248512268
7.229526996612549,-0.38072431087493896,-0.11258363723754883,0.11782523989677429,-0.4301719849215107,-1.171598672533923,-0.9429873551431142,-0.8374307751655579,0.4170271158218384,-0.3532682955265045,-0.9930596947669983,2.044692039489746,1.5894577503204346
7.249044179916382,-0.3728224039077759,-0.14426222443580627,0.15345019102096558,-0.46673410305156154,-1.1322352172439152,-0.9469490010227191,-0.8085284233093262,0.44997209310531616,-0.3792191743850708,-0.8432088494300842,2.088318347930908,1.6183018684387207
7.268834114074707,-0.38554537296295166,-0.16673427820205688,0.20193910598754883,-0.5021655232383646,-1.0894940000929956,-0.9465787803758147,-0.7769609689712524,0.48132485151290894,-0.40578126907348633,-0.6799251437187195,2.200377941131592,1.5445443391799927
7.288689136505127,-0.3979061245918274,-0.13182663917541504,0.2407221794128418,-0.5328985461861809,-1.0420425155011575,-0.9418550646541051,-0.7437107563018799,0.5080320835113525,-0.434508740901947,-0.43259701132774353,2.296436071395874,1.3445537090301514
7.2998552322387695,-0.3979061245918274,-0.13182663917541504,0.2407221794128418,-0.5328985461861809,-1.0420425155011575,-0.9418550646541051,-0.7437107563018799,0.5080320835113525,-0.434508740901947,-0.43259701132774353,2.296436071395874,1.3445537090301514
7.328695297241211,-0.24450474977493286,-0.18276065587997437,0.26692044734954834,-0.5775048367852591,-0.9418504879282172,-0.9243500415730406,-0.6775076985359192,0.5459350943565369,-0.49288779497146606,-0.314627468585968,2.245041847229004,0.8970125913619995
7.347732067108154,-0.19628077745437622,-0.21897917985916138,0.30600953102111816,-0.5942912200976125,-0.8941916690238599,-0.9196099776522059,-0.646019697189331,0.5599216222763062,-0.5187932848930359,-0.41182398796081543,2.251340389251709,0.7056017518043518
7.367889165878296,-0.1417061686515808,-0.20560097694396973,0.30577534437179565,-0.6091964830208518,-0.8500387773613124,-0.9191739434402394,-0.6161521673202515,0.5722087025642395,-0.5412336587905884,-0.4637269973754883,2.1419942378997803,0.5002425312995911
7.389163017272949,-0.048246800899505615,-0.19785410165786743,0.3204737901687622,-0.6214603194156245,-0.8081003639547382,-0.9195604150806596,-0.5878006219863892,0.5822230577468872,-0.5616999268531799,-0.41235238313674927,2.080094575881958,0.41581445932388306
7.40893816947937,0.025650441646575928,-0.18165147304534912,0.3529942035675049,-0.6325238373386869,-0.769347002449705,-0.9224409678311353,-0.5610814094543457,0.5911822319030762,-0.5793888568878174,-0.5623350739479065,1.9717199802398682,0.16319268941879272
7.428351163864136,0.05954015254974365,-0.1555957794189453,0.33988749980926514,-0.6413004547419432,-0.7378786588024973,-0.9321125939836123,-0.5390629172325134,0.5982380509376526,-0.5928934812545776,-0.5991751551628113,1.7398579120635986,-0.10889900475740433
7.448935031890869,0.09851706027984619,-0.14877963066101074,0.33362841606140137,-0.6472605531950131,-0.7140970299099679,-0.9456820771106879,-0.522467315196991,0.6030033230781555,-0.6028392314910889,-0.5486120581626892,1.4900721311569214,-0.3180074393749237
7.4686150550842285,0.12530893087387085,-0.13764238357543945,0.3543059825897217,-0.6499432756917929,-0.6970610430338811,-0.9634722980758702,-0.5110816955566406,0.6051412224769592,-0.6104094982147217,-0.6006754040718079,1.3092906475067139,-0.596027135848999
7.487308979034424,0.14143818616867065,-0.12955361604690552,0.3486570119857788,-0.6500753684712257,-0.6855514982749297,-0.986641231531802,-0.5039718151092529,0.6052464246749878,-0.6161893606185913,-0.5941430926322937,1.2395182847976685,-0.7929853200912476
7.50798225402832,0.16309547424316406,-0.139923095703125,0.34293878078460693,-0.6493964895449084,-0.6791896070073619,-1.0150853846805856,-0.5002995133399963,0.6047058701515198,-0.6197026371955872,-0.7831798791885376,1.1180351972579956,-1.0225342512130737
7.527374267578125,0.19118154048919678,-0.1638895869255066,0.33706986904144287,-0.6481837094549332,-0.6784881818948533,-1.0495019604977345,-0.5003246665000916,0.6037395000457764,-0.6206239461898804,-0.8258274793624878,1.0574373006820679,-1.1372140645980835
7.548473119735718,0.22285610437393188,-0.139640212059021,0.31571871042251587,-0.6459039147544132,-0.6807801600730591,-1.0856685060247184,-0.5026107430458069,0.601920485496521,-0.6205434799194336,-0.814835250377655,0.8941576480865479,-1.257206916809082
7.56791615486145,0.2354394793510437,-0.09188252687454224,0.271511971950531,-0.6412907226598119,-0.6880422269393526,-1.123614134280131,-0.508861780166626,0.598230242729187,-0.6190155744552612,-0.7748687863349915,0.6679986119270325,-1.3719099760055542
7.5871100425720215,0.2645602226257324,-0.13355839252471924,0.27262449264526367,-0.6361074619689878,-0.700627284573557,-1.1636413444720162,-0.5186038017272949,0.5940687656402588,-0.6149249076843262,-0.9335047006607056,0.462706983089447,-1.4319170713424683
7.607956171035767,0.2928641438484192,-0.19767987728118896,0.2969028353691101,-0.6341601511874785,-0.71996760291947,-1.2086985839929962,-0.5311607122421265,0.592501163482666,-0.6056491136550903,-1.2822307348251343,0.269976407289505,-1.442033052444458
7.628092288970947,0.2873534560203552,-0.1504054069519043,0.21064335107803345,-0.6355590577533975,-0.746604145764385,-1.257681763000766,-0.546539306640625,0.5936275124549866,-0.5906786918640137,-1.428412914276123,-0.07064677774906158,-1.4177707433700562
7.647805213928223,0.23264580965042114,0.015078842639923096,0.11538565158843994,-0.634949071553502,-0.7807849358389835,-1.3072101483855556,-0.5666607618331909,0.5931364893913269,-0.5719133019447327,-1.2328773736953735,-0.37080660462379456,-1.503048300743103
7.667603015899658,0.18767613172531128,0.09832531213760376,0.012398004531860352,-0.6285460247210214,-0.8179779378757056,-1.3512649509758758,-0.590294599533081,0.5879693031311035,-0.5530321002006531,-0.8605333566665649,-0.7480388283729553,-1.4334168434143066
7.687513113021851,0.15960359573364258,0.12008076906204224,0.015143394470214844,-0.6164922504068941,-0.8559318193122399,-1.3860704564762656,-0.6161618828773499,0.578176736831665,-0.5348424315452576,-0.42172014713287354,-0.9801869988441467,-1.355968713760376
7.706663131713867,0.16475528478622437,0.045562148094177246,0.08612942695617676,-0.6020468512010366,-0.8902400380477675,-1.4106256437953588,-0.6405701637268066,0.56633061170578,-0.518593966960907,-0.30544623732566833,-1.0478253364562988,-1.0277169942855835
7.727410078048706,0.16958212852478027,-0.033323585987091064,0.13229525089263916,-0.5939206025442126,-0.9239031186655309,-1.432986983847667,-0.66131192445755,0.5596145391464233,-0.4994979500770569,-0.6967712044715881,-1.068996548652649,-0.7680845856666565
7.746606111526489,0.13469040393829346,-0.03102433681488037,0.1043434739112854,-0.59365031521581,-0.9606766231520858,-1.4601543799024594,-0.6793529987335205,0.5593904852867126,-0.4749336838722229,-1.024160385131836,-1.1063427925109863,-0.5929346680641174
7.767442226409912,0.06070506572723389,0.05785572528839111,-0.026503324508666992,-0.5953109150863787,-0.9969500192323332,-1.485143983017442,-0.6953487396240234,0.5607662200927734,-0.449479341506958,-0.680608868598938,-1.1915830373764038,-0.44174396991729736
7.787280082702637,0.0021665096282958984,0.1817479133605957,-0.10434070229530334,-0.5908870536636868,-1.027869608785212,-1.4951877513067873,-0.7110288143157959,0.5570979118347168,-0.4290454387664795,0.24999205768108368,-1.31928551197052,-0.3622865676879883
7.807335138320923,-0.022993385791778564,0.25711625814437866,-0.1617516279220581,-0.5804440119824572,-1.05096069379966,-1.4850231217654208,-0.7257554531097412,0.5483952760696411,-0.4153814911842346,0.9190917015075684,-1.5516393184661865,-0.1341932862997055
7.827301025390625,-0.07008826732635498,0.23804354667663574,-0.08704808354377747,-0.5685190994357823,-1.0709219392773912,-1.4641888171209598,-0.7395888566970825,0.5383846759796143,-0.40391862392425537,1.1374142169952393,-1.5332119464874268,-0.0364968441426754
7.847090244293213,-0.09731477499008179,0.10971152782440186,-0.0549808144569397,-0.5602725098827059,-1.0864753898093773,-1.440245168638546,-0.7496854066848755,0.5314170718193054,-0.3944209814071655,0.9694303274154663,-1.3002915382385254,0.27416667342185974
7.867040157318115,-0.1529349684715271,0.1228904128074646,-0.1167072057723999,-0.55872969997735,-1.0990470969142299,-1.419002218362176,-0.75531405210495,0.5301095247268677,-0.38533738255500793,0.7644872069358826,-1.1108959913253784,0.3703601658344269
7.888397216796875,-0.21114248037338257,0.3039829134941101,-0.23379015922546387,-0.55691180725828,-1.1102912130577083,-1.3980091142369784,-0.7604610323905945,0.5285671949386597,-0.37724801898002625,0.9663582444190979,-1.1573936939239502,0.24120010435581207
7.908408164978027,-0.25080662965774536,0.42048412561416626,-0.2854247987270355,-0.5497552483053707,-1.1207413718720907,-1.3722426452125276,-0.7677481174468994,0.5224785804748535,-0.3709166347980499,1.2777522802352905,-1.2394537925720215,0.11961855739355087
7.926997184753418,-0.3085000514984131,0.38789546489715576,-0.2576088011264801,-0.5424294958724609,-1.1286905269556753,-1.3454236245516003,-0.7741110920906067,0.5162182450294495,-0.36642980575561523,1.0308510065078735,-0.8363246917724609,0.23735061287879944
7.947271108627319,-0.4157169461250305,0.40125101804733276,-0.28459522128105164,-0.5415164113467948,-1.1282135133551203,-1.3256652502469286,-0.7743618488311768,0.515436053276062,-0.3670007586479187,0.5284199714660645,-0.1489029824733734,0.3667635917663574
7.966971158981323,-0.3574775457382202,0.4943079352378845,-0.3222183585166931,-0.5435194757858239,-1.1200425992855212,-1.3136783471810822,-0.7704064846038818,0.5171514749526978,-0.3728651702404022,0.4270705580711365,0.28576362133026123,0.29178544878959656
7.986776113510132,-0.09981679916381836,0.45820242166519165,-0.30627864599227905,-0.5454497307177697,-1.1054722319789945,-1.2987707870644998,-0.7639984488487244,0.5188026428222656,-0.3836016356945038,0.6459087133407593,0.41323646903038025,0.468473881483078
8.00676417350769,0.08097118139266968,0.2631675601005554,-0.2029109001159668,-0.5492524377194469,-1.0843084828241338,-1.2768181587522076,-0.753960132598877,0.5220497846603394,-0.3987583518028259,0.8236561417579651,0.5507376194000244,0.7409788370132446
8.026632070541382,0.18615567684173584,0.11902660131454468,-0.11831128597259521,-0.5548872568609607,-1.0589765692980528,-1.2501774251239661,-0.7410416007041931,0.5268474817276001,-0.4162803292274475,0.9406961798667908,0.5762816071510315,0.813681423664093
8.046525955200195,0.276899516582489,0.08247798681259155,-0.06604903936386108,-0.5585402789560401,-1.0310576646671101,-1.217822926221788,-0.7274763584136963,0.529948890209198,-0.43581247329711914,1.2738218307495117,0.49316802620887756,0.9160258173942566
8.065520286560059,0.3352586030960083,0.07984817028045654,-0.027501791715621948,-0.560544898360471,-1.0002735579606152,-1.1762291673164718,-0.7128220796585083,0.531647801399231,-0.4574224650859833,1.6052359342575073,0.3673344850540161,1.115199089050293
8.086441040039062,0.32707715034484863,0.03416484594345093,0.0385890007019043,-0.56102976501565,-0.9662027237134952,-1.1254967273170482,-0.6966145634651184,0.5320584177970886,-0.4812922179698944,1.9521915912628174,0.4339662194252014,1.3332091569900513
8.10640001296997,0.281114399433136,-0.023418307304382324,0.10825693607330322,-0.5619629426341392,-0.9237662256343455,-1.067212163008539,-0.6751726865768433,0.5328482985496521,-0.5101123452186584,1.9120393991470337,0.6732418537139893,1.6027605533599854
8.12651014328003,0.22832351922988892,0.0007895231246948242,0.09808558225631714,-0.5639750337819618,-0.882286372652882,-1.0117625091732376,-0.6526094079017639,0.5345498323440552,-0.5369892716407776,1.7016187906265259,0.47837746143341064,1.4276396036148071
8.146268129348755,0.19099688529968262,0.00634002685546875,0.0725778341293335,-0.5639071760992629,-0.846595318931259,-0.9600301840953632,-0.6330592632293701,0.5344924926757812,-0.5599586963653564,1.595500111579895,0.3289337158203125,1.4469413757324219
8.166215181350708,0.14671331644058228,0.01778542995452881,0.10660713911056519,-0.5651337555963356,-0.8169015123754487,-0.9125411924090525,-0.6156769394874573,0.5355287790298462,-0.5780578255653381,1.306991696357727,0.1120418980717659,1.3069928884506226
8.187613010406494,0.1118859052658081,0.035693228244781494,0.13320177793502808,-0.5667497775805287,-0.7926631168194943,-0.8709248581063517,-0.6008691191673279,0.536892831325531,-0.5922013521194458,1.1180580854415894,0.07247593253850937,1.2801419496536255
8.205419063568115,0.07846558094024658,0.11865317821502686,0.12842190265655518,-0.5697938379601086,-0.7722771186714344,-0.8338011184510844,-0.5875293612480164,0.5394584536552429,-0.6031532883644104,0.8887391090393066,-0.04698752611875534,1.113240361213684
8.226161003112793,0.06621944904327393,0.14716404676437378,0.12210923433303833,-0.5723603075331735,-0.7574550370205654,-0.8023835243095606,-0.5775719881057739,0.5416176915168762,-0.6107870936393738,0.775957465171814,-0.16798026859760284,1.0403130054473877
8.245602130889893,0.06439566612243652,0.12727385759353638,0.12583839893341064,-0.5771875513948327,-0.7453358924612934,-0.7719301269242035,-0.5683477520942688,0.5456692576408386,-0.6158133149147034,0.604032039642334,-0.27241960167884827,1.1440515518188477
8.263723134994507,0.055128395557403564,0.13848847150802612,0.1546228528022766,-0.5851845847683371,-0.7359807872033055,-0.7435788099312197,-0.5596145391464233,0.5523532629013062,-0.6178491115570068,0.43288958072662354,-0.3380388021469116,1.1418558359146118
8.286559104919434,0.039979517459869385,0.16579800844192505,0.16282182931900024,-0.5944060966529631,-0.7280042097308987,-0.7166988541804882,-0.5512557625770569,0.5600168108940125,-0.6184644103050232,0.37121477723121643,-0.35990992188453674,1.1362961530685425
8.306547164916992,0.01472616195678711,0.18289124965667725,0.17703211307525635,-0.6036398900357507,-0.7207042498477593,-0.6912344081393205,-0.5432906746864319,0.567642867565155,-0.6185604333877563,0.35550013184547424,-0.341195285320282,1.0554286241531372
8.325812101364136,-0.012321054935455322,0.14152473211288452,0.15416383743286133,-0.611706150185653,-0.7125867442728027,-0.665133258563556,-0.5352405905723572,0.5742650628089905,-0.6194652318954468,0.4519970417022705,-0.3541659116744995,1.104346513748169
8.34279203414917,-0.011769473552703857,0.13930785655975342,0.15050441026687622,-0.6188119707951582,-0.7034106563482353,-0.6364287142952245,-0.5268810987472534,0.5800678133964539,-0.621222734451294,0.5383884310722351,-0.3835470974445343,1.1351875066757202
