timestamp,acceleration_x,acceleration_y,acceleration_z,attitude_pitch,attitude_roll,attitude_yaw,gravity_x,gravity_y,gravity_z,rotation_x,rotation_y,rotation_z
0.0,-0.03040352463722229,-0.09319537878036499,0.3523818254470825,-0.6059697638392475,-0.5297577914515134,-1.7068709644243198,-0.4153514504432678,0.5695594549179077,-0.7092850208282471,-0.012906018644571304,0.01873728074133396,-0.007640672381967306
0.019926071166992188,0.025345951318740845,-0.14931440353393555,0.3446681499481201,-0.608400268049367,-0.5307174500102355,-1.7080755232531062,-0.41533002257347107,0.571555495262146,-0.7076901197433472,-0.2280832678079605,-0.06089727208018303,0.01111608650535345
0.039399147033691406,0.053038716316223145,-0.13924068212509155,0.28930211067199707,-0.6118036880217194,-0.5351660041768715,-1.7119659208465574,-0.41747960448265076,0.5743449330329895,-0.7041581273078918,-0.18699586391448975,-0.1538301408290863,-0.11935874074697495
0.059873104095458984,0.07477408647537231,-0.09010303020477295,0.24963271617889404,-0.6115747605721606,-0.541135971752077,-1.7169981456837389,-0.4217436611652374,0.5741574764251709,-0.7017659544944763,-0.01090092584490776,-0.13004811108112335,-0.2483328878879547
0.07999014854431152,0.11398199200630188,-0.10195714235305786,0.2631577253341675,-0.6092632693497126,-0.5470685602851545,-1.722887280304693,-0.4265887439250946,0.5722634196281433,-0.700383186340332,-0.08819997310638428,-0.1613672375679016,-0.25325602293014526
0.09992599487304688,0.14347302913665771,-0.14647597074508667,0.21475499868392944,-0.6104468533600493,-0.556665224865155,-1.7303632457163154,-0.43293216824531555,0.5732336640357971,-0.695681631565094,-0.31974801421165466,-0.36649757623672485,-0.22775425016880035
0.11998915672302246,0.10472741723060608,-0.09069490432739258,0.11353909969329834,-0.612857375745373,-0.570294736844817,-1.7400697429532301,-0.4416261911392212,0.5752071738243103,-0.6885514259338379,-0.2704351544380188,-0.4003499746322632,-0.32877033948898315
0.1400289535522461,0.04730790853500366,0.01956993341445923,0.060519635677337646,-0.6121987235199038,-0.5824935139924926,-1.750466468007805,-0.4502009451389313,0.5746682286262512,-0.6834293007850647,-0.14594517648220062,-0.21569092571735382,-0.4223141074180603
0.1599431037902832,0.054845333099365234,0.04009747505187988,0.030979633331298828,-0.6095295230692401,-0.5919896522372635,-1.761229192683204,-0.45752477645874023,0.5724817514419556,-0.6803938150405884,-0.16645604372024536,-0.14612747728824615,-0.4305698871612549
0.1799170970916748,0.10227993130683899,0.031507015228271484,-0.007832705974578857,-0.6096222659170647,-0.6018145953533512,-1.7721004099970774,-0.4641573429107666,0.572557806968689,-0.6758220791816711,-0.336902379989624,-0.2206212431192398,-0.3059460520744324
0.1999220848083496,0.0930834412574768,0.06612229347229004,-0.04638195037841797,-0.6124065490954802,-0.6121801593485474,-1.782674559653035,-0.4702196419239044,0.5748383402824402,-0.6696673631668091,-0.37701475620269775,-0.18733838200569153,-0.27337053418159485
0.21993112564086914,0.07160469889640808,0.12137472629547119,-0.08937656879425049,-0.6152994210634947,-0.6219430124708578,-1.7936988674741365,-0.4757641553878784,0.5772030353546143,-0.6636905670166016,-0.4017273187637329,-0.17259423434734344,-0.30704429745674133
0.24005699157714844,0.07116711139678955,0.13272976875305176,-0.12166917324066162,-0.6181020438130256,-0.6338629238220924,-1.806455168546097,-0.48268136382102966,0.5794894099235535,-0.6566664576530457,-0.4581071734428406,-0.2828288674354553,-0.3395451009273529
0.25992417335510254,0.08945861458778381,0.11227750778198242,-0.1503695249557495,-0.623492605233996,-0.6491692307838901,-1.8208602419732223,-0.49077993631362915,0.5838741660118103,-0.6467038989067078,-0.6914963722229004,-0.43164852261543274,-0.29530078172683716
0.279926061630249,0.10928040742874146,0.08872038125991821,-0.15223991870880127,-0.6323516267710134,-0.6697592870295799,-1.8382610498136462,-0.5007598996162415,0.5910432934761047,-0.6323823928833008,-0.8739990592002869,-0.6260427832603455,-0.26869794726371765
0.2999281883239746,0.13746780157089233,0.10947996377944946,-0.18187791109085083,-0.6414525418338063,-0.6938829706960629,-1.8540449981304532,-0.5124067068099976,0.5983598828315735,-0.6159585118293762,-0.5089548230171204,-0.8420839905738831,-0.11771268397569656
0.32003021240234375,0.12881171703338623,0.23234355449676514,-0.19764792919158936,-0.6447133547572179,-0.7133285930068034,-1.8587193788975436,-0.5230072140693665,0.6009693741798401,-0.6043999791145325,-0.028285641223192215,-0.7869006395339966,-0.017457451671361923
0.3399031162261963,0.019913136959075928,0.22510766983032227,-0.17678475379943848,-0.641628269479172,-0.7289474395500113,-1.8591632358596593,-0.5336155295372009,0.598500669002533,-0.5975378751754761,0.1765563189983368,-0.8029118776321411,-0.2177208811044693
0.35926294326782227,-0.027799129486083984,0.1027141809463501,-0.18462425470352173,-0.6369353720595904,-0.748248990329115,-1.8624345211236188,-0.5469537377357483,0.5947344899177551,-0.5891795754432678,-0.04072891175746918,-0.9339936375617981,-0.27834656834602356
0.37943005561828613,-0.055792927742004395,0.07578635215759277,-0.144112229347229,-0.6351284869865361,-0.7694486623477499,-1.8689895529007639,-0.5600669980049133,0.5932809710502625,-0.578223705291748,-0.14582239091396332,-0.7451072931289673,-0.2278900146484375
0.39993810653686523,-0.10646724700927734,0.05406486988067627,-0.08035725355148315,-0.6349112353112409,-0.7831848861392435,-1.8734489472722584,-0.5680474638938904,0.5931060314178467,-0.5705675482749939,-0.13416534662246704,-0.367684543132782,0.0036860713735222816
0.4205141067504883,-0.09178179502487183,-0.016349077224731445,-0.03703296184539795,-0.6410590418202365,-0.7908365890041781,-1.8762122539405746,-0.5697935223579407,0.5980445742607117,-0.5636293888092041,-0.5002846121788025,-0.31069308519363403,0.21025240421295166
0.4392421245574951,-0.09761834144592285,-0.10563540458679199,-0.01725602149963379,-0.6518686145034724,-0.8034693213834645,-1.884523753072611,-0.5721814632415771,0.6066729426383972,-0.5518664121627808,-0.6373485326766968,-0.42554226517677307,0.08116719126701355
0.4598822593688965,-0.1677839756011963,-0.1194068193435669,-0.010318875312805176,-0.6599848484136167,-0.8167525898872675,-1.8935614682966397,-0.5758531093597412,0.6131048798561096,-0.5408287048339844,-0.4154723882675171,-0.33516114950180054,-0.006175048649311066
0.4799642562866211,-0.2005542516708374,-0.08741194009780884,0.02561575174331665,-0.6614570418919249,-0.8265351603858905,-1.9009249634867436,-0.580451488494873,0.6142672300338745,-0.5345575213432312,-0.15018026530742645,-0.1984729766845703,-0.28486689925193787
0.5000021457672119,-0.12691330909729004,-0.1430383324623108,0.1057349443435669,-0.6581264781696003,-0.8350222006944211,-1.9092480158357792,-0.5864808559417725,0.611635684967041,-0.530982255935669,-0.13723482191562653,-0.17723463475704193,-0.37613898515701294
0.5199151039123535,-0.02716851234436035,-0.20880895853042603,0.13702893257141113,-0.6548584055347865,-0.8460965106685064,-1.919865974762538,-0.5938183665275574,0.6090469360351562,-0.5257772207260132,-0.29424840211868286,-0.28542181849479675,-0.4559344947338104
0.5390329360961914,0.028681039810180664,-0.1905590295791626,0.13204413652420044,-0.6512843825839061,-0.86182519242092,-1.9353448083975366,-0.6036627292633057,0.6062083840370178,-0.51778644323349,-0.3417971134185791,-0.34033069014549255,-0.6037737727165222
0.5599150657653809,0.09633314609527588,-0.1948602795600891,0.08589786291122437,-0.6461504151604932,-0.8784658042895451,-1.9501974581347994,-0.6145827174186707,0.6021173596382141,-0.5096498727798462,-0.24994298815727234,-0.444688618183136,-0.5552547574043274
0.5799181461334229,0.18007934093475342,-0.19538754224777222,0.07988005876541138,-0.6389181564291148,-0.8959145557944252,-1.962940197350091,-0.6267650127410889,0.5963273644447327,-0.5015568137168884,-0.06240175664424896,-0.5415000319480896,-0.671562135219574
0.599390983581543,0.23375457525253296,-0.2281840443611145,0.08063313364982605,-0.6273600942076323,-0.9133831804509828,-1.972796709259253,-0.6408437490463257,0.587009608745575,-0.4947110116481781,0.09662885218858719,-0.6091069579124451,-0.7280423641204834
0.6199131011962891,0.27189433574676514,-0.2645508050918579,0.079975426197052,-0.6142724311429899,-0.9331190806958324,-1.9845194091236562,-0.6565989255905151,0.5763640999794006,-0.48650020360946655,-0.07796898484230042,-0.7201249003410339,-0.9143857955932617
0.6399569511413574,0.3205565810203552,-0.29771822690963745,0.02094346284866333,-0.5997938944255866,-0.9599785173722006,-2.0020396995499765,-0.6761932373046875,0.5644723773002625,-0.47342780232429504,-0.20791883766651154,-0.9840201735496521,-1.1040560007095337
0.6599202156066895,0.36642539501190186,-0.28751176595687866,0.004206478595733643,-0.5827948557780646,-0.9920192268019465,-2.0215508382769416,-0.6989449262619019,0.5503596067428589,-0.4567059874534607,-0.18358850479125977,-1.0985018014907837,-1.1708139181137085
0.6799201965332031,0.39150744676589966,-0.3046025037765503,0.047086119651794434,-0.5672493813338224,-1.0247615493979232,-2.0413676523756235,-0.7207463383674622,0.537314236164093,-0.4379706382751465,-0.4793456196784973,-1.1197088956832886,-1.0554773807525635
0.6999239921569824,0.40594542026519775,-0.32915198802948,0.05304849147796631,-0.5561232786159072,-1.063151351484396,-2.0687528260079477,-0.7422033548355103,0.5278976559638977,-0.41286611557006836,-0.9202780723571777,-1.283536434173584,-1.0773366689682007
0.7199640274047852,0.4371078610420227,-0.268718421459198,0.0011875629425048828,-0.5455297031925995,-1.10887795294216,-2.1023980920749032,-0.7652634382247925,0.518871009349823,-0.3809789717197418,-1.0567981004714966,-1.57429039478302,-1.2690733671188354
0.739922046661377,0.41020816564559937,-0.12566572427749634,-0.10629737377166748,-0.5259900787004139,-1.1617466440842639,-2.13733070083269,-0.7934784293174744,0.5020694732666016,-0.34397435188293457,-0.718921422958374,-1.9050735235214233,-1.7446802854537964
0.7599201202392578,0.38800209760665894,-0.07041862607002258,-0.14680886268615723,-0.4959067367876792,-1.2114233800178014,-2.160122409885748,-0.8233506083488464,0.4758293628692627,-0.3093222379684448,-0.025383446365594864,-1.9459692239761353,-1.793195128440857
0.780048131942749,0.37609636783599854,-0.14258575439453125,-0.08297425508499146,-0.4624862700346512,-1.2542877509657817,-2.169589889365066,-0.8504921793937683,0.4461745619773865,-0.2785523533821106,0.24453642964363098,-1.9259436130523682,-1.614027500152588
0.7999281883239746,0.35388994216918945,-0.13036340475082397,-0.08888392150402069,-0.43160283976529185,-1.294752769002444,-2.172447436436128,-0.8739094734191895,0.4183271825313568,-0.24755720794200897,0.39539721608161926,-1.983388066291809,-1.4231711626052856
0.8199610710144043,0.2828841805458069,0.023822635412216187,-0.10403996706008911,-0.40190319827940457,-1.3332389428171525,-2.171847805829884,-0.8944717049598694,0.39117059111595154,-0.21657785773277283,0.4434071481227875,-1.8941532373428345,-1.5194238424301147
0.839972972869873,0.1998324990272522,0.14141687750816345,-0.1176130473613739,-0.3684010668727748,-1.3672952122123294,-2.1674912467932974,-0.9136540293693542,0.36012423038482666,-0.18853946030139923,0.7061591744422913,-1.6868903636932373,-1.6097726821899414
0.8599231243133545,0.23617923259735107,0.1330167055130005,-0.11099511384963989,-0.3338917858230634,-1.3949823173146334,-2.1555387497048675,-0.9302099943161011,0.32772237062454224,-0.16525012254714966,1.0323246717453003,-1.5229369401931763,-1.5927680730819702
0.8798601627349854,0.2630041241645813,0.17067566514015198,-0.10335396230220795,-0.2992554944807501,-1.4177386957069076,-2.1369275064851903,-0.944385290145874,0.29480886459350586,-0.14568479359149933,1.2770190238952637,-1.3509721755981445,-1.5096379518508911
0.8999209403991699,0.259335458278656,0.10893356800079346,-0.09191763401031494,-0.26549710122062037,-1.4367915170681338,-2.1139143766030104,-0.9563111662864685,0.2623889744281769,-0.12892292439937592,1.3697179555892944,-1.2165697813034058,-1.5526750087738037
0.9199719429016113,0.21952205896377563,0.0799965113401413,-0.10343419760465622,-0.23044835285093243,-1.454106357410158,-2.08908110813029,-0.9669432640075684,0.22841404378414154,-0.11334751546382904,1.4540799856185913,-1.1396515369415283,-1.6244250535964966
0.9400882720947266,0.16304528713226318,0.1334611177444458,-0.07649683207273483,-0.1947791827345671,-1.4703000530348393,-2.063910552372835,-0.9761403799057007,0.19354990124702454,-0.09843005985021591,1.3896524906158447,-0.9784215688705444,-1.6522719860076904
0.9599261283874512,0.07488816976547241,0.1172051876783371,-0.018344633281230927,-0.15882168096699734,-1.48055391055538,-2.039517480243811,-0.9833963513374329,0.15815483033657074,-0.08898575603961945,1.3975027799606323,-0.44187507033348083,-1.7063703536987305
0.9800171852111816,0.06721800565719604,0.14513060450553894,-0.0635342001914978,-0.12224816245700132,-1.4819244973855032,-2.0105600482875228,-0.9886199831962585,0.121943898499012,-0.08809251338243484,1.859941840171814,-0.11676870286464691,-1.6975144147872925
0.9999160766601562,0.08123302459716797,0.2709631621837616,-0.07630181312561035,-0.08483608310799498,-1.47756081504296,-1.9716942182240718,-0.9920759797096252,0.08473435789346695,-0.09276566654443741,2.2606022357940674,0.1672670990228653,-1.6937932968139648
1.0199661254882812,-0.0024246573448181152,0.21417510509490967,0.0996214747428894,-0.04640050410587201,-1.470901390687771,-1.9321379409713297,-0.9939437508583069,0.04638385400176048,-0.09962154179811478,1.9147801399230957,0.17578238248825073,-1.7723863124847412
1.0392889976501465,-0.2687743306159973,0.20044782757759094,0.30815017223358154,-0.007773569342505028,-1.4644229414063854,-1.9074551568437585,-0.9943177700042725,0.007773491088300943,-0.106169693171978,0.8151074051856995,0.4705151319503784,-1.7997331619262695
1.0599279403686523,-0.5401960015296936,0.28600814938545227,0.6278339624404907,0.026474586853327514,-1.4488738867178075,-1.9098131619003051,-0.9922289252281189,-0.026471493765711784,-0.12157799303531647,-0.5727033019065857,1.0440303087234497,-1.5757420063018799
1.0799670219421387,-0.42529064416885376,0.32616811990737915,0.6919009685516357,0.048752250408679684,-1.4245267587994541,-1.9307715659863691,-0.9881463050842285,-0.048732940107584,-0.1455754041671753,-1.0177539587020874,1.1617971658706665,-0.8704279065132141
1.0999431610107422,-0.13402891159057617,0.48864832520484924,0.46980714797973633,0.05535761045813935,-1.4068599984091499,-1.9488784060418867,-0.9850813150405884,-0.0553293414413929,-0.16295303404331207,-0.625990629196167,0.5446661114692688,-0.03080269880592823
1.119955062866211,-0.13077831268310547,0.36320793628692627,0.3440929651260376,0.04603985940517518,-1.3985067929233188,-1.956535211571599,-0.9841509461402893,-0.046023596078157425,-0.17125678062438965,-0.39018917083740234,0.38937827944755554,0.7143579721450806
1.1399521827697754,-0.3292514681816101,0.023462215438485146,0.3561815023422241,0.02902059871652818,-1.3876802623836126,-1.9615421247531193,-0.9828670620918274,-0.02901652455329895,-0.1820177584886551,-0.26452985405921936,0.6837815046310425,0.8041537404060364
1.1591219902038574,-0.3360040783882141,0.07511989772319794,0.3548617362976074,0.013719050213167052,-1.3716455031603703,-1.956121956279468,-0.9801427125930786,-0.0137186199426651,-0.19781839847564697,0.5244019627571106,0.8374214172363281,0.737671434879303
1.1799380779266357,-0.2706454396247864,0.18488340079784393,0.41108763217926025,0.00576061934601075,-1.3547913109511474,-1.9355529915216263,-0.9767453074455261,-0.0057605872862041,-0.2143256515264511,1.236879587173462,0.9132401943206787,0.5317105650901794
1.1993861198425293,-0.22551679611206055,-0.05753988027572632,0.5517480373382568,0.00203054736732921,-1.3369760426668427,-1.911777614133171,-0.9727864265441895,-0.0020305460784584284,-0.23169507086277008,0.8621308207511902,0.8912501931190491,0.3407936692237854
1.2199571132659912,-0.16443395614624023,-0.2815697491168976,0.7187276482582092,-0.003142520318704293,-1.3195243394829357,-1.9015721241143067,-0.96859210729599,0.0031425151973962784,-0.2486349642276764,0.01177436113357544,0.7472612261772156,0.4285556375980377
1.239941120147705,-0.17545878887176514,-0.22650444507598877,0.5916645526885986,-0.011615067106096371,-1.3076141858780639,-1.9018771706290492,-0.9655019044876099,0.011614806018769741,-0.2601369023323059,-0.10966357588768005,0.44128701090812683,0.3948182165622711
1.2592451572418213,-0.1711922287940979,0.0644763857126236,0.5519189834594727,-0.01746408283419085,-1.3019248701694457,-1.8973900445991108,-0.9639243483543396,0.017463194206357002,-0.26560312509536743,0.5411199331283569,0.051376450806856155,0.2891766130924225
1.279928207397461,-0.22509825229644775,0.09573066234588623,0.4072590470314026,-0.015582724164885582,-1.303206346924256,-1.876865993392828,-0.9642938375473022,0.015582093968987465,-0.26437586545944214,1.382035732269287,-0.07548101246356964,0.0734754130244255
1.299929141998291,-0.28250253200531006,0.06783074885606766,0.35016119480133057,-0.0067846771505931805,-1.302441613603821,-1.849066575693083,-0.9641863107681274,0.006784624885767698,-0.26513931155204773,1.4818803071975708,0.15292969346046448,-0.1356789767742157
1.3199691772460938,-0.22892463207244873,-0.011941463686525822,0.19323983788490295,0.003103818437487528,-1.3004994901689861,-1.8237655470613918,-0.9636871218681335,-0.003103813389316201,-0.2670162320137024,1.1204545497894287,-0.0627346783876419,-0.12540556490421295
1.3399319648742676,-0.1795332431793213,-0.0036121499724686146,0.1484515368938446,0.007511686686366726,-1.3064141165083103,-1.8076630065341348,-0.965226948261261,-0.007511616218835115,-0.26130563020706177,0.5511471033096313,-0.42044124007225037,0.14103177189826965
1.3599531650543213,-0.347289502620697,-0.032404568046331406,0.2737053334712982,0.0032248294543923725,-1.3134226027538416,-1.801778105333953,-0.9670567512512207,-0.003224823856726289,-0.2545403242111206,0.009502923116087914,-0.21275345981121063,0.41811078786849976
1.3799240589141846,-0.4924481511116028,-0.05414649844169617,0.3937644958496094,-0.007576614112727453,-1.3137446096842746,-1.7997912810829144,-0.9671160578727722,0.007576541509479284,-0.25422295928001404,-0.0395435132086277,0.0458827018737793,0.682605504989624
1.3999590873718262,-0.502963662147522,0.020076140761375427,0.3409969210624695,-0.020406725810274622,-1.3176906151578742,-1.7890989882946309,-0.9679377675056458,0.02040530927479267,-0.25035977363586426,0.8685620427131653,-0.44811707735061646,0.8443024754524231
1.4199409484863281,-0.569396436214447,0.16303887963294983,0.45143041014671326,-0.030737208418969222,-1.3248633422154865,-1.7632397699026368,-0.9694525599479675,0.030732369050383568,-0.24334636330604553,1.3043431043624878,-0.20823025703430176,0.7185086011886597
1.4399521350860596,-0.7432113289833069,0.07292545586824417,0.4746856093406677,-0.03690028149310352,-1.3216917642118762,-1.7303855912036858,-0.9684738516807556,0.03689190745353699,-0.2463684380054474,1.6765915155410767,0.4650050401687622,0.7830939292907715
1.4593262672424316,-0.8105682730674744,-0.01489848643541336,0.27255722880363464,-0.04578286455410337,-1.309943699325079,-1.6906488847410999,-0.9651579856872559,0.04576687142252922,-0.25763416290283203,2.039795398712158,0.3585526645183563,1.1562283039093018
1.4799931049346924,-0.6983089447021484,0.03595000505447388,0.155782550573349,-0.06258617359313261,-1.305630151164497,-1.643647438408023,-0.9631595015525818,0.06254532188177109,-0.2615565359592438,2.0938894748687744,-0.18128883838653564,1.626251459121704
1.4999351501464844,-0.7050447463989258,0.1263517439365387,0.1918274462223053,-0.08631016424864632,-1.30822339721049,-1.5953267164863714,-0.9621305465698242,0.08620304614305496,-0.2585999369621277,1.834804892539978,-0.24891893565654755,1.9308522939682007
1.5199341773986816,-0.8531782627105713,0.03240947425365448,0.22329753637313843,-0.12030039503514099,-1.3084454875864224,-1.5539385831890706,-0.9588029384613037,0.12001043558120728,-0.2574772536754608,1.3653888702392578,-0.03451262414455414,2.398878335952759
1.5400290489196777,-0.926497220993042,-0.005789250135421753,0.13704001903533936,-0.1643805820391615,-1.3024139537151374,-1.5192984835932921,-0.9512035846710205,0.1636412888765335,-0.26159754395484924,0.7137159705162048,0.07707294076681137,2.6102402210235596
1.5600190162658691,-0.9330112338066101,0.09141755104064941,0.09438455104827881,-0.21137659869461375,-1.2986560029687428,-1.5014164099352587,-0.9417599439620972,0.20980605483055115,-0.2628110647201538,-0.1927083134651184,-0.14315751194953918,2.4552321434020996
1.579984188079834,-0.7850487232208252,-0.006589561700820923,0.022273927927017212,-0.26366199574590626,-1.3062478373557997,-1.496406001743251,-0.9318549633026123,0.260617733001709,-0.2524375021457672,-0.7617108821868896,-0.6245436072349548,2.6444857120513916
1.5993201732635498,-0.6763869524002075,0.11298990249633789,0.1031772792339325,-0.3163797562629464,-1.3222428148287393,-1.5005013421320397,-0.9211626052856445,0.31112805008888245,-0.23379263281822205,-0.8795550465583801,-0.8383381962776184,2.391158103942871
1.619941234588623,-0.6482414603233337,0.2156088650226593,0.05810350179672241,-0.3649807284478027,-1.3417143012809722,-1.5024026396647825,-0.9097267389297485,0.35693129897117615,-0.2121257781982422,-0.4750514328479767,-1.0350500345230103,2.3735036849975586
1.6400032043457031,-0.5608044862747192,0.20970284938812256,0.02065253257751465,-0.4150742044173591,-1.363575987794929,-1.5025159621190682,-0.895509660243988,0.4032578468322754,-0.18827036023139954,-0.6046969294548035,-1.1570980548858643,2.466097593307495
1.6599371433258057,-0.5250528454780579,0.2392941117286682,-0.0779663473367691,-0.46612327191541925,-1.3898028865807461,-1.505411217208787,-0.8787254095077515,0.449426531791687,-0.16080328822135925,-0.6643543243408203,-1.345422625541687,2.509960889816284
1.6799349784851074,-0.44916582107543945,0.30172693729400635,-0.08250468969345093,-0.51682877907671,-1.4187984844566564,-1.511216150550802,-0.8593669533729553,0.4941256046295166,-0.13163724541664124,-0.6077635288238525,-1.2465013265609741,2.403393268585205
1.6999850273132324,-0.40974223613739014,0.3367231488227844,-0.15359467267990112,-0.5644488676746013,-1.4439076516752627,-1.5117553554563026,-0.8380910754203796,0.5349502563476562,-0.10691870003938675,-0.1217716783285141,-1.2471808195114136,2.323197364807129
1.7199370861053467,-0.29176098108291626,0.2701336145401001,-0.16242295503616333,-0.6096290131040976,-1.4648582137239345,-1.5060012380403769,-0.8152641654014587,0.5725633502006531,-0.08669210225343704,0.06668324023485184,-1.1587733030319214,2.2280282974243164
1.7399370670318604,-0.20361286401748657,0.19273144006729126,-0.17457598447799683,-0.6518153906087507,-1.4816189245743885,-1.496312541171219,-0.7918248176574707,0.6066306233406067,-0.07080066204071045,0.26417967677116394,-1.1026135683059692,2.0355870723724365
1.7600312232971191,-0.12569141387939453,0.1126941442489624,-0.19352132081985474,-0.6902051500465487,-1.4971107527587697,-1.4850689858777775,-0.769023060798645,0.636695384979248,-0.05676868557929993,0.22200548648834229,-1.111391305923462,1.902541160583496
1.7799391746520996,-0.0506325364112854,0.028334319591522217,-0.15724533796310425,-0.7267103490807721,-1.515259205925918,-1.4808649874906157,-0.7462121248245239,0.664414644241333,-0.04148513451218605,-0.027553752064704895,-1.0401058197021484,1.777246356010437
1.799971103668213,0.02206367254257202,-0.06612080335617065,-0.2177003026008606,-0.7625531700087,-1.5349395423979715,-1.4782350213467519,-0.7226101160049438,0.6907698512077332,-0.025921586900949478,0.027076205238699913,-1.1145639419555664,1.7960094213485718
1.8199381828308105,0.07132786512374878,-0.02100282907485962,-0.24653512239456177,-0.7952542832390597,-1.555428542962317,-1.4741185444180902,-0.7000205516815186,0.7140416502952576,-0.010758612304925919,0.2142191082239151,-1.1653430461883545,1.5173550844192505
1.8399462699890137,0.09863537549972534,-0.15014177560806274,-0.24658268690109253,-0.8256379473678901,-1.570144672585118,-1.4659546328569801,-0.6780879497528076,0.7349805235862732,-0.00044187891762703657,0.2719933092594147,-0.9364835023880005,1.5158698558807373
1.8600339889526367,0.19648611545562744,-0.2368307113647461,-0.2102367877960205,-0.8531737736610552,-1.5830963872518928,-1.4596425781092315,-0.6575458645820618,0.7533712387084961,0.00808826182037592,0.24313966929912567,-0.8991641402244568,1.21579909324646
1.880012035369873,0.2569039463996887,-0.28240281343460083,-0.24816620349884033,-0.8744720574586871,-1.5931086691018528,-1.4494208251920768,-0.6412424445152283,0.767204999923706,0.01430999580770731,0.42416149377822876,-0.807156503200531,0.8990421295166016
1.8999390602111816,0.26419568061828613,-0.41642969846725464,-0.24650168418884277,-0.8906296862469661,-1.5956607240438638,-1.4353926348537005,-0.6287283897399902,0.7774679064750671,0.015636174008250237,0.44269439578056335,-0.5497968792915344,0.7196581959724426
1.9199390411376953,0.3440200686454773,-0.5037495493888855,-0.2621634006500244,-0.90215380081681,-1.5965488948563933,-1.4227136057611436,-0.6197160482406616,0.7846639156341553,0.015962809324264526,0.4368094503879547,-0.5369641780853271,0.39144477248191833
1.939941167831421,0.4177069067955017,-0.4612126350402832,-0.23320412635803223,-0.9078427394811677,-1.5908617124852962,-1.4019131013813273,-0.6153236627578735,0.7881779074668884,0.012348363175988197,0.9685832858085632,-0.5247800350189209,0.1849500685930252
1.959975242614746,0.3614662289619446,-0.439860463142395,-0.20921993255615234,-0.9117614016142089,-1.5678170731005396,-1.3636339436391867,-0.6123512983322144,0.7905835509300232,-0.0018243553349748254,1.2549105882644653,-0.12230230867862701,0.21134114265441895
1.9799489974975586,0.2715904712677002,-0.5233395099639893,-0.17232900857925415,-0.914129382387083,-1.5420921696586116,-1.332205892790919,-0.6102288961410522,0.7920314073562622,-0.01752091757953167,0.6298941373825073,0.17920206487178802,0.06445304304361343
1.999946117401123,0.2914947271347046,-0.5218773484230042,-0.21402955055236816,-0.9153347336435749,-1.5298704462431791,-1.3224192450324779,-0.6090150475502014,0.7927666306495667,-0.024938402697443962,-0.08628738671541214,0.2282622754573822,0.12116984277963638
2.0200090408325195,0.2650851607322693,-0.4262005090713501,-0.25835633277893066,-0.9176093009389545,-1.5326637454617897,-1.3300656406910314,-0.6072789430618286,0.7941510081291199,-0.023168344050645828,-0.1376630663871765,0.09701122343540192,0.059069253504276276
2.039943218231201,0.1270642876625061,-0.29295575618743896,-0.06342119723558426,-0.9151695343706624,-1.527668193610262,-1.3436117183874678,-0.6090896725654602,0.792665958404541,-0.0262851994484663,-0.5223437547683716,1.3346672058105469,-0.396096408367157
2.060042142868042,-0.5020029544830322,-0.5976812243461609,-0.7941584587097168,-0.9000373027907846,-1.4851889996073673,-1.328985795442575,-0.6193045973777771,0.7833501100540161,-0.053146906197071075,1.1715331077575684,2.042156934738159,-0.8917701840400696
2.0800609588623047,-0.05087536573410034,-0.4314926266670227,-0.3297709822654724,-0.8812738028127272,-1.417939023997497,-1.3009346773944281,-0.6287511587142944,0.7715498805046082,-0.09686481207609177,0.6327664852142334,2.0330419540405273,-0.7770200967788696
2.0999622344970703,0.3582999110221863,-0.4638136029243469,-0.128731369972229,-0.8669392848716637,-1.3838569606140683,-1.295077443648778,-0.6358879208564758,0.7623517513275146,-0.12027683854103088,0.06907042860984802,1.1084599494934082,-0.5365620255470276
2.1199791431427,0.1353970170021057,-0.1714268922805786,-0.10624264180660248,-0.8584029709967196,-1.3614787837389914,-1.2955055441047498,-0.6393796801567078,0.7567996382713318,-0.1358228325843811,0.0857170969247818,1.2619330883026123,-0.3969656229019165
2.1402969360351562,-0.016760170459747314,-0.052854835987091064,-0.05503188073635101,-0.8499299587928512,-1.330050258871655,-1.290607539516917,-0.641000509262085,0.7512341737747192,-0.15737049281597137,0.46126681566238403,1.4435030221939087,-0.36695918440818787
2.1601109504699707,0.1919635534286499,0.02509528398513794,-0.03379398584365845,-0.8382738016988915,-1.2937287093867134,-1.275982295058043,-0.6432422995567322,0.7434898614883423,-0.18292662501335144,0.7259634733200073,1.1090458631515503,-0.44729843735694885
2.180004119873047,0.22471004724502563,-0.15913772583007812,-0.06302642822265625,-0.8275427542433963,-1.2577888528152341,-1.2570615105224792,-0.643808126449585,0.7362707853317261,-0.20836642384529114,0.7244294881820679,1.1265257596969604,-0.24618302285671234
2.2001161575317383,0.20109814405441284,-0.2897164821624756,-0.08311083912849426,-0.8190271730274392,-1.2255185285072654,-1.2425931252916953,-0.6426266431808472,0.7304818034172058,-0.23114396631717682,0.4594765305519104,1.056994915008545,-0.2602882981300354
2.2200632095336914,0.2443934679031372,-0.3357800245285034,-0.09792041778564453,-0.813787160709975,-1.2003313512833207,-1.235078773793262,-0.6401607990264893,0.7268931865692139,-0.24863730370998383,0.25625643134117126,0.8933959603309631,-0.11015092581510544
2.2401320934295654,0.2276313304901123,-0.26004886627197266,-0.16312360763549805,-0.8084669833129174,-1.1789962089750223,-1.2272087406434555,-0.6382759809494019,0.7232292890548706,-0.2637105882167816,0.5492550134658813,0.6676565408706665,-0.19081446528434753
2.2600979804992676,0.17256534099578857,-0.16564244031906128,-0.1894664168357849,-0.8001070650364035,-1.1513216814871134,-1.2063413803195757,-0.6362342834472656,0.7174306511878967,-0.28372395038604736,1.0435924530029297,0.606652557849884,-0.018043315038084984
2.280071258544922,0.16851603984832764,-0.1822797656059265,-0.09739744663238525,-0.7910230896426385,-1.1232305107593792,-1.1823968247987358,-0.6338633894920349,0.7110729813575745,-0.30429017543792725,0.8018947839736938,0.47355860471725464,-0.13104961812496185
2.308351993560791,0.1647965908050537,-0.20860260725021362,-0.10024195909500122,-0.7766327246169312,-1.0801666732807547,-1.1431844564686442,-0.6291369795799255,0.7008816003799438,-0.33608320355415344,0.9760887622833252,0.33394262194633484,0.10084744542837143
2.3283872604370117,0.20155274868011475,-0.09095418453216553,-0.023417532444000244,-0.7671314058115588,-1.0560477315204528,-1.1173577262133214,-0.6266169548034668,0.694072961807251,-0.35442063212394714,1.212833046913147,0.22574514150619507,-0.059319473803043365
2.348513126373291,0.2377924919128418,-0.07069355249404907,-0.06927579641342163,-0.7534483347723718,-1.030126407653891,-1.084649945065554,-0.6253048181533813,0.6841577887535095,-0.37539589405059814,1.477304458618164,0.11769244074821472,0.07133103907108307
2.359748125076294,0.2377924919128418,-0.07069355249404907,-0.06927579641342163,-0.7534483347723718,-1.030126407653891,-1.084649945065554,-0.6253048181533813,0.6841577887535095,-0.37539589405059814,1.477304458618164,0.11769244074821472,0.07133103907108307
2.388221263885498,0.3430216312408447,-0.10982322692871094,0.004751086235046387,-0.7249209707257206,-0.9808965672353241,-1.0130930515569412,-0.6220439672470093,0.6630762815475464,-0.4164027273654938,1.4374761581420898,0.03443155437707901,0.17056554555892944
2.407142162322998,0.4335644245147705,-0.11967486143112183,0.061958909034729004,-0.7124256162624418,-0.9615226093072842,-0.9807911021878105,-0.6206067800521851,0.6536713242530823,-0.4330832064151764,1.2852739095687866,-0.24661901593208313,0.17183560132980347
2.4279911518096924,0.5025458931922913,-0.07381570339202881,0.08782362937927246,-0.7011402750518437,-0.9521601907442165,-0.9516016058115134,-0.6224952936172485,0.6450893878936768,-0.44312456250190735,1.2181921005249023,-0.7757652997970581,0.22434517741203308
2.4484140872955322,0.43090391159057617,0.13476049900054932,-0.13795697689056396,-0.6901034981784182,-0.9546977844579422,-0.9213812366132431,-0.6293904185295105,0.6366170048713684,-0.4456306993961334,1.3515489101409912,-1.3412953615188599,0.14752157032489777
2.467772960662842,0.20519834756851196,0.39697265625,-0.21905726194381714,-0.6728659774899384,-0.9585702755657691,-0.8870584456249286,-0.639997661113739,0.6232298612594604,-0.44943034648895264,1.8445955514907837,-1.1007916927337646,0.04615155979990959
2.487612247467041,0.18806719779968262,0.2998218536376953,-0.009089618921279907,-0.6548845922332904,-0.9497232868242138,-0.8464184163539732,-0.6450069546699524,0.6090677380561829,-0.4615219533443451,1.6703187227249146,-0.5873169898986816,0.3627926707267761
2.507655143737793,0.3404597043991089,0.20445334911346436,0.05382779240608215,-0.6442134113818262,-0.9394727554048931,-0.8091153401461537,-0.6454524397850037,0.6005696654319763,-0.47191858291625977,1.433773398399353,-0.719589114189148,0.46001937985420227
2.526642084121704,0.38694167137145996,0.3018873929977417,0.051167815923690796,-0.6327277637481646,-0.9336965145421106,-0.7729369673190989,-0.6482179760932922,0.5913466811180115,-0.4797108769416809,1.667067050933838,-0.8345736265182495,0.2742864191532135
2.5478241443634033,0.3390916585922241,0.2622263431549072,0.04076084494590759,-0.6119799140673082,-0.9287602815568227,-0.7347777546442716,-0.6555284857749939,0.574489176273346,-0.4901474118232727,2.0173511505126953,-0.9282146692276001,-0.09718440473079681
2.566627025604248,0.42255985736846924,0.20980244874954224,0.10442256927490234,-0.5832703510518593,-0.9306038354593679,-0.6997963274606398,-0.6693861484527588,0.5507565140724182,-0.49858760833740234,2.0238287448883057,-1.2749950885772705,-0.4479604959487915
2.587527275085449,0.47793954610824585,0.12430506944656372,0.231492817401886,-0.5514271995643102,-0.9417534739227585,-0.6692185530835576,-0.6887398362159729,0.5239034295082092,-0.5011613965034485,1.9473390579223633,-1.4300111532211304,-0.5488728880882263
2.6075210571289062,0.4372110962867737,0.026658058166503906,0.28883665800094604,-0.5206752471313507,-0.9553806735936186,-0.6411479089412242,-0.708329439163208,0.4974660277366638,-0.5007964968681335,1.7438822984695435,-1.3554085493087769,-0.5670982599258423
2.6273531913757324,0.3883153200149536,-0.014127522706985474,0.31816503405570984,-0.49295804865178894,-0.9734233440357372,-0.6239980329576322,-0.7283727526664734,0.47323381900787354,-0.49550262093544006,1.102731704711914,-1.312153935432434,-0.8676853775978088
2.6476430892944336,0.36125999689102173,-0.04177004098892212,0.2819727063179016,-0.46615429847887857,-0.9952394745050017,-0.6166614124391994,-0.7493826746940613,0.44945424795150757,-0.4862268269062042,1.0504226684570312,-1.2551342248916626,-0.9993160963058472
2.668102264404297,0.3538914918899536,0.08273342251777649,0.16665980219841003,-0.43419958890918753,-1.017715844342436,-0.6065908281284227,-0.7719518542289734,0.4206843972206116,-0.47656574845314026,1.4019591808319092,-1.397487759590149,-1.247551679611206
2.6898651123046875,0.3266487717628479,0.12299895286560059,0.20767301321029663,-0.3956339626863019,-1.0403807853167015,-0.5942670634832597,-0.79596346616745,0.38539326190948486,-0.46681293845176697,1.5206931829452515,-1.346680760383606,-1.4542856216430664
2.705578088760376,0.294603168964386,-0.00926297903060913,0.26533105969429016,-0.35578719967119077,-1.062097771038609,-0.5841763606111906,-0.8186815977096558,0.3483283817768097,-0.4565388858318329,1.2431046962738037,-1.2349258661270142,-1.5463707447052002
2.725330114364624,0.2848045229911804,-0.020683318376541138,0.2806668281555176,-0.3176549418470358,-1.0844719108375742,-0.5797810854854674,-0.839827835559845,0.3123396933078766,-0.4439968764781952,0.9701419472694397,-1.163437843322754,-1.6005364656448364
2.743406057357788,0.2590693235397339,-0.02573522925376892,0.28952085971832275,-0.2805927524590939,-1.1082729425366766,-0.5794955204885961,-0.8599300384521484,0.276925265789032,-0.4287572503089905,0.784570574760437,-1.2448081970214844,-1.712372064590454
2.762606143951416,0.16219758987426758,0.0020432770252227783,0.2449376881122589,-0.24248284100664488,-1.1341900966340341,-0.5817456222216941,-0.8796811699867249,0.24011357128620148,-0.41049546003341675,0.6615386605262756,-1.3195466995239258,-1.8098026514053345
2.7810471057891846,0.027133405208587646,-0.014715507626533508,0.24439215660095215,-0.20488168299376114,-1.1626718641984366,-0.5887741792032225,-0.8986697196960449,0.20345132052898407,-0.3885876536369324,0.19280213117599487,-1.2808818817138672,-1.9438538551330566
2.8011860847473145,-0.13125264644622803,-0.001072898507118225,0.3063438832759857,-0.16844842313790692,-1.1851069933969365,-0.6049519926509116,-0.913425087928772,0.1676529347896576,-0.37087321281433105,-0.22866764664649963,-0.6028070449829102,-1.9880491495132446
2.82100510597229,0.04581195116043091,-0.0005070865154266357,0.38025784492492676,-0.13578095953061783,-1.1966324941259194,-0.624152340673192,-0.9222463369369507,0.1353641301393509,-0.362130343914032,-0.13773348927497864,-0.45879316329956055,-1.7452287673950195
2.842074155807495,0.3195841312408447,0.07192545384168625,0.35115769505500793,-0.10476433496867199,-1.2130511580894499,-0.6305756093117236,-0.9315531253814697,0.10457279533147812,-0.34824317693710327,0.704251229763031,-1.2000653743743896,-1.4305927753448486
2.8623781204223633,0.028183937072753906,0.08185794949531555,0.09430250525474548,-0.06980989647758977,-1.240902306508021,-0.6228854779619105,-0.9437723159790039,0.06975320726633072,-0.3231537342071533,0.9630923867225647,-1.4379314184188843,-1.6829718351364136
2.8834340572357178,-0.45929449796676636,-0.047131724655628204,0.18300744891166687,-0.03288578425374562,-1.2643843314500713,-0.6233832745830367,-0.9529064297676086,0.03287985548377037,-0.3014765977859497,0.07613620162010193,-0.8071103096008301,-1.7227271795272827
2.9045121669769287,-0.41687554121017456,-0.10621588677167892,0.31741592288017273,-0.0065606335118095155,-1.2774282794205898,-0.6369292347898281,-0.9572547078132629,0.006560586392879486,-0.2891717851161957,-0.38210898637771606,-0.5900442004203796,-1.166373610496521
2.9229631423950195,-0.28712713718414307,0.07657822221517563,0.236225426197052,0.010309635881053174,-1.2892243415032694,-0.6444752521618631,-0.9605688452720642,-0.010309453122317791,-0.27785131335258484,0.2958371341228485,-0.5865477323532104,-0.7385475039482117
2.945435047149658,-0.4313197135925293,0.2375745326280594,0.053313225507736206,0.02699140730425941,-1.2991046560818906,-0.6327287358304062,-0.9629673957824707,-0.026988130062818527,-0.26826366782188416,1.0862171649932861,-0.36339128017425537,-0.6044725775718689
2.966405153274536,-0.5689164400100708,0.10836832225322723,0.23855051398277283,0.04310473168207348,-1.301741230653044,-0.6181076111034627,-0.9631270170211792,-0.043091386556625366,-0.2655737102031708,0.6744393110275269,0.20186245441436768,-0.47478973865509033
2.986639976501465,-0.7180956602096558,-0.08623037487268448,0.4125351309776306,0.04855449153456414,-1.2923697239458893,-0.6124071773451526,-0.9603558778762817,-0.048535414040088654,-0.27451926469802856,0.07322419434785843,0.7025725841522217,0.1555207222700119
3.0064029693603516,-0.6866569519042969,-0.10225673019886017,0.5096689462661743,0.03859164065051817,-1.279227195505222,-0.6154650215672433,-0.9570809006690979,-0.03858206048607826,-0.28724145889282227,-0.6603696346282959,0.5426383018493652,0.635857343673706
3.025485038757324,-0.5727040767669678,-0.1029866561293602,0.5044944286346436,0.018474510786443275,-1.2739637426179624,-0.6275235809631146,-0.9561045169830322,-0.018473459407687187,-0.29244285821914673,-1.07905912399292,-0.09818153083324432,0.919893205165863
3.046614170074463,-0.475580096244812,-0.16467049717903137,0.44816267490386963,-0.01044997102863794,-1.2773127664728097,-0.6434422086289016,-0.9571897387504578,0.010449781082570553,-0.28927281498908997,-1.192703366279602,-0.21729086339473724,1.1284217834472656
3.0661001205444336,-0.5834482908248901,-0.13156530261039734,0.2320670783519745,-0.03515208119726344,-1.285666027359305,-0.6474196444745132,-0.9590321779251099,0.03514484316110611,-0.2811087369918823,0.08923026919364929,-0.3567441999912262,1.2759119272232056
3.086092948913574,-0.6451365351676941,0.13214179873466492,0.1995176076889038,-0.054591719824830146,-1.2922061765713946,-0.6308809744208387,-0.9600118398666382,0.05456460639834404,-0.27459076046943665,0.8601427674293518,-0.34468725323677063,0.9639570713043213
3.1062071323394775,-0.7762075066566467,0.11698369681835175,0.1900111436843872,-0.06785214204743277,-1.2954083195667374,-0.6029093932999117,-0.9601054191589355,0.06780008971691132,-0.27129465341567993,1.4452952146530151,-0.12123943865299225,1.2675212621688843
3.125974178314209,-0.8424931168556213,-0.0039315372705459595,0.22236505150794983,-0.09040395985129483,-1.2910095801248642,-0.5674112214800138,-0.9571895599365234,0.09028086811304092,-0.2750230133533478,1.297235131263733,0.20805616676807404,1.794816017150879
3.146785259246826,-0.9691259264945984,-0.07761415839195251,0.13975292444229126,-0.12262938294073557,-1.2826023129022408,-0.5321910874249176,-0.9515589475631714,0.12232226133346558,-0.2820868194103241,1.1812496185302734,0.29030612111091614,2.3257062435150146
3.16106915473938,-1.0016686916351318,-0.10446883738040924,0.11540928483009338,-0.16483012256063093,-1.2715452698108278,-0.49418878020915924,-0.9426061511039734,0.1640847623348236,-0.29080891609191895,1.1624094247817993,0.35025554895401,2.7592108249664307
3.1850342750549316,-1.0684490203857422,-0.10726368427276611,0.17841500043869019,-0.21184127177713255,-1.2580549909522016,-0.457140645621709,-0.9302235245704651,0.21026036143302917,-0.30079036951065063,0.85406893491745,0.31874993443489075,2.760067939758301
3.2055912017822266,-1.0291136503219604,-0.24611499905586243,0.16744324564933777,-0.2610952448061923,-1.2467700133208763,-0.42665694955803246,-0.9158328175544739,0.25813883543014526,-0.3075951635837555,0.3544362485408783,0.13226668536663055,2.881377935409546
3.225851058959961,-0.928130030632019,-0.38475722074508667,0.27495503425598145,-0.31600013994964665,-1.2359311697194963,-0.4066619844792588,-0.897691011428833,0.3107672333717346,-0.3123694956302643,-0.20019949972629547,0.4965973198413849,2.9252495765686035
3.2464089393615723,-0.8731873631477356,-0.302809476852417,0.213832825422287,-0.3705578895981636,-1.2166478010557045,-0.3908191604053063,-0.8742796778678894,0.36213549971580505,-0.3232535123825073,-0.23452803492546082,0.7353768944740295,2.5983378887176514
3.2659130096435547,-0.7565721273422241,-0.09235191345214844,-0.11913931369781494,-0.41146635459510467,-1.2029691926874166,-0.37195180377953835,-0.8552291393280029,0.3999537229537964,-0.3295758068561554,0.3240808844566345,-0.08722829818725586,1.9862914085388184
3.285443067550659,-0.5074383020401001,-0.13644450902938843,0.013380855321884155,-0.4469201327915304,-1.2027061019692737,-0.3579599449561707,-0.8413776755332947,0.4321902096271515,-0.3244922161102295,-0.43237099051475525,-0.35657799243927,1.8115227222442627
3.3054251670837402,-0.49063605070114136,-0.27867457270622253,0.08501747250556946,-0.4877923744285328,-1.2097319549975796,-0.35908959391967077,-0.8264111280441284,0.468676894903183,-0.3120681345462799,-1.0489364862442017,-0.34748926758766174,1.923112154006958
3.3252880573272705,-0.42967545986175537,-0.10274654626846313,-0.00863388180732727,-0.527489793928663,-1.2230216451535603,-0.36810077123723994,-0.8123441934585571,0.5033659338951111,-0.2944818437099457,-1.0302321910858154,-0.5005818605422974,1.5448426008224487
3.344602108001709,-0.33633285760879517,-0.03238987922668457,-0.006456732749938965,-0.5609345948025408,-1.2370476523455454,-0.3758515540046851,-0.8000350594520569,0.5319778323173523,-0.2773871421813965,-0.6178811192512512,-0.5659561157226562,1.3912407159805298
3.3652429580688477,-0.2792242169380188,0.01905757188796997,-0.06942135095596313,-0.5868331587086059,-1.2508165546500494,-0.37638561312420016,-0.7904322743415833,0.5537267923355103,-0.2619231343269348,-0.3744645118713379,-0.7188025712966919,1.0641744136810303
3.3853421211242676,-0.19967037439346313,-0.09387022256851196,0.010724067687988281,-0.6096357234554044,-1.2660496904481,-0.3784418122789502,-0.7820802330970764,0.5725688338279724,-0.24599924683570862,-0.5247924327850342,-0.6797903776168823,1.1425763368606567
3.405100107192993,-0.16323941946029663,-0.13852113485336304,-0.004469037055969238,-0.6352774176355178,-1.282338724299319,-0.38691042091901845,-0.7716514468193054,0.5934008359909058,-0.2289750725030899,-0.9210816025733948,-0.44129201769828796,1.0100831985473633
3.4231691360473633,-0.15566831827163696,-0.06794089078903198,-0.09006696939468384,-0.6563611813169936,-1.3013960378355012,-0.40459048365004774,-0.7636433243751526,0.6102381348609924,-0.2108515352010727,-0.9483773708343506,-0.43668609857559204,0.6688819527626038
3.4442262649536133,-0.02225494384765625,-0.11383295059204102,-0.09410858154296875,-0.6732008588869248,-1.3224073255315905,-0.4237229574360079,-0.7578355669975281,0.6234917044639587,-0.1922072470188141,-1.0204417705535889,-0.4727674722671509,0.572352945804596
3.46547794342041,0.015613257884979248,-0.1460169553756714,-0.03118574619293213,-0.6886803131157283,-1.345022647558922,-0.4475093858341493,-0.7524908185005188,0.6355188488960266,-0.17283940315246582,-1.1339008808135986,-0.3022506833076477,0.5318211913108826
3.4847991466522217,-0.004236161708831787,-0.05482053756713867,-0.09968334436416626,-0.7020019320452657,-1.3669875883937834,-0.4735827456924778,-0.7477476000785828,0.6457475423812866,-0.15454325079917908,-1.1146976947784424,-0.1744571179151535,0.3421044647693634
3.5047149658203125,0.06929641962051392,-0.020041048526763916,-0.10855591297149658,-0.7121110603588122,-1.3885817441420096,-0.501632813575311,-0.744452178478241,0.6534332633018494,-0.13717155158519745,-1.1470729112625122,-0.20650994777679443,0.2060878574848175
3.5245771408081055,0.0986064076423645,-0.0677453875541687,-0.09935992956161499,-0.7183232074008357,-1.4108959633110412,-0.530945666428939,-0.7433056235313416,0.6581231355667114,-0.11987826973199844,-1.137357473373413,-0.06779858469963074,0.06795335561037064
3.5450000762939453,0.12694913148880005,-0.07860773801803589,-0.12288463115692139,-0.7223201029971094,-1.4315090163295154,-0.561418299609295,-0.7430076003074646,0.6611271500587463,-0.10416604578495026,-1.1629047393798828,0.007600296754390001,-0.06232218071818352
3.5649681091308594,0.10993921756744385,-0.037458837032318115,-0.18064802885055542,-0.7227324475598113,-1.4495064727643918,-0.5914664258612067,-0.7444913983345032,0.6614364981651306,-0.09074468165636063,-1.1488168239593506,0.23221920430660248,-0.14870353043079376
3.5846352577209473,0.18850493431091309,-0.09888601303100586,-0.16349512338638306,-0.722014145865872,-1.4660943077498025,-0.6247005872714245,-0.7463663220405579,0.6608975529670715,-0.07843288034200668,-1.2607272863388062,0.2816930115222931,-0.2317982316017151
3.6047770977020264,0.23591840267181396,-0.12173867225646973,-0.15073388814926147,-0.719225375674024,-1.4798769635730047,-0.6574902868747777,-0.7492088675498962,0.6588020920753479,-0.06830590963363647,-1.146696925163269,0.5547528266906738,-0.26115015149116516
3.6243860721588135,0.26407140493392944,-0.07718253135681152,-0.19973093271255493,-0.7154179942582395,-1.4860250900035556,-0.685219215889741,-0.7521085143089294,0.6559329628944397,-0.0639103353023529,-0.9242169260978699,0.6586289405822754,-0.3528172969818115
3.644745111465454,0.28814709186553955,-0.12338775396347046,-0.17807787656784058,-0.7105182828535115,-1.4878376243609437,-0.7105191314727911,-0.7554170489311218,0.6522267460823059,-0.06281257420778275,-1.0182465314865112,0.8391972184181213,-0.262975811958313
3.6646840572357178,0.3490592837333679,-0.1850540041923523,-0.15210646390914917,-0.7083133894082431,-1.4881145855421953,-0.7386999868547691,-0.7568657994270325,0.6505537629127502,-0.06272197514772415,-1.0985534191131592,0.9051523208618164,-0.17755134403705597
3.6842479705810547,0.38017380237579346,-0.15301591157913208,-0.12976378202438354,-0.7061927619724078,-1.4852809829010631,-0.765920268775547,-0.7580579519271851,0.6489418148994446,-0.06498406827449799,-0.936352014541626,1.127936601638794,-0.18967421352863312
3.7043800354003906,0.4876134395599365,-0.15773451328277588,-0.09686285257339478,-0.7023731096587749,-1.4752576870546477,-0.7845802827039513,-0.7598303556442261,0.6460309028625488,-0.07281483709812164,-0.392097145318985,1.1379927396774292,-0.3060160279273987
3.7256669998168945,0.595991849899292,-0.198652982711792,-0.002904057502746582,-0.6963838107485587,-1.4571866888969016,-0.7910656325704135,-0.7622212171554565,0.6414476633071899,-0.08697018027305603,-0.06539048999547958,1.128745436668396,-0.28066644072532654
3.7449660301208496,0.6985130310058594,-0.2284562587738037,0.11651302874088287,-0.6900790832258167,-1.4357273706009617,-0.7930989927934581,-0.7641716003417969,0.6365981698036194,-0.10384815186262131,0.02867475524544716,1.22734797000885,-0.22716912627220154
3.763443946838379,0.6915923953056335,-0.357815682888031,0.12133240699768066,-0.6881357802851668,-1.4101435948775087,-0.7942208480514242,-0.7624849081039429,0.6350982785224915,-0.1235601156949997,-0.16458483040332794,1.4151663780212402,-0.11149968206882477
3.7843899726867676,0.594018816947937,-0.4581451416015625,0.145402729511261,-0.6851011871339451,-1.3865948218646882,-0.8034556412039736,-0.7612552642822266,0.6327513456344604,-0.1418321281671524,-0.4838206470012665,1.4887621402740479,-0.32924652099609375
3.8050832748413086,0.4500046372413635,-0.3452160358428955,0.006281420588493347,-0.6777942552723757,-1.3712234350278876,-0.82196201289971,-0.7634966969490051,0.6270763874053955,-0.15442897379398346,-0.7577576637268066,1.2326912879943848,-0.5933056473731995
3.824268102645874,0.20005536079406738,-0.03025960922241211,-0.14655530452728271,-0.6702754714139545,-1.362181606882347,-0.8465818880200436,-0.7666600942611694,0.6212018728256226,-0.16229784488677979,-0.9400480389595032,1.277813196182251,-0.5203353762626648
3.845306158065796,-0.07251006364822388,0.24657291173934937,-0.24924862384796143,-0.6641471391154952,-1.349995770343465,-0.8690186057639887,-0.7683256268501282,0.6163877844810486,-0.1724584996700287,-0.5345152020454407,1.2506567239761353,-0.4455311894416809
3.8629860877990723,-0.06660115718841553,0.4583876132965088,-0.3629310131072998,-0.6575083492593902,-1.3366344427562102,-0.8758876127485616,-0.769916296005249,0.6111465692520142,-0.1836540848016739,0.04533100128173828,0.39781659841537476,-0.19931179285049438
3.8838231563568115,-0.10810941457748413,0.19076865911483765,-0.4124716818332672,-0.6665947861157282,-1.3262977131962974,-0.8743090318162346,-0.762557327747345,0.6183133125305176,-0.1902504414319992,-0.1178731694817543,0.6600309014320374,1.043818473815918
3.9037110805511475,-0.28544843196868896,0.21463608741760254,-0.5760327577590942,-0.6822395237041807,-1.3114004091412668,-0.8691768913680981,-0.7501962184906006,0.6305328607559204,-0.19908317923545837,0.3183436095714569,0.5153354406356812,0.6150203347206116
3.9237051010131836,0.037691473960876465,0.017026126384735107,-0.3997495770454407,-0.6962098332149775,-1.2865176587117,-0.8465909469148521,-0.736483097076416,0.6413142085075378,-0.21519485116004944,0.748437225818634,0.5340685248374939,1.1186773777008057
3.943748950958252,0.1728839874267578,-0.15171658992767334,-0.07940566539764404,-0.7132502746220633,-1.2590565858542517,-0.824422130540471,-0.7197896242141724,0.6542952060699463,-0.23194992542266846,0.36556944251060486,0.8002342581748962,1.0415971279144287
3.9635162353515625,0.11625266075134277,-0.17236661911010742,-0.06955364346504211,-0.7310907086968222,-1.2320017216476653,-0.810548491178814,-0.7021291851997375,0.6676819920539856,-0.247417151927948,0.061145104467868805,0.9429372549057007,0.9863547086715698
3.983386993408203,0.14050722122192383,-0.16198945045471191,-0.01946282386779785,-0.749838508002412,-1.2078158916015562,-0.802516238373723,-0.6841169595718384,0.6815205812454224,-0.25983405113220215,-0.13791145384311676,0.9570760726928711,0.971683144569397
4.002683162689209,0.14202439785003662,-0.07761496305465698,0.05221584439277649,-0.766999978823255,-1.185521632362252,-0.7988329862408688,-0.6672167778015137,0.6939783692359924,-0.2705843448638916,-0.1835336834192276,1.0133936405181885,0.7058215141296387
4.023313045501709,0.12508052587509155,6.979703903198242e-05,0.1002267599105835,-0.7777337772895883,-1.1622788231348349,-0.796661910641832,-0.6538740396499634,0.701666533946991,-0.283042311668396,-0.08580734580755234,1.182161808013916,0.3391816318035126
4.042463064193726,0.12781548500061035,-0.03774470090866089,0.14915603399276733,-0.7822672009725604,-1.1320811843893297,-0.7902513157966586,-0.6421436667442322,0.7048894166946411,-0.30130141973495483,0.3091534674167633,1.3739784955978394,0.35479676723480225
4.06325626373291,0.16847527027130127,-0.09519195556640625,0.14163532853126526,-0.7864029674275457,-1.0957472813799556,-0.7774056519272209,-0.6281768679618835,0.7078168988227844,-0.32309281826019287,0.2531120479106903,1.2940667867660522,0.337937593460083
4.083150148391724,0.13709551095962524,-0.08303976058959961,0.12817442417144775,-0.7897697069441943,-1.0662875112408883,-0.7697362019806178,-0.6162979006767273,0.7101911902427673,-0.34030210971832275,0.08457132428884506,1.1368964910507202,0.2585831582546234
4.103223085403442,0.09528565406799316,-0.05674469470977783,0.08132314682006836,-0.7945000497825768,-1.0410514430520619,-0.7642303757842932,-0.6046088933944702,0.7135134339332581,-0.35404348373413086,0.004333155695348978,0.9961661100387573,0.3281828761100769
4.1229541301727295,0.03152889013290405,0.024237990379333496,0.03753092885017395,-0.7990998575648588,-1.0191028461713163,-0.759530033078419,-0.5938916206359863,0.716728687286377,-0.3655032813549042,0.06352108716964722,0.8756519556045532,0.2459336370229721
4.14478611946106,-0.01887655258178711,0.05248105525970459,-0.0019589662551879883,-0.8023011909553676,-0.9974863334496911,-0.7532317234167173,-0.5839220881462097,0.7189574241638184,-0.3770083487033844,0.10726287961006165,0.8591662049293518,0.2565165162086487
4.160428047180176,-0.03754746913909912,0.03466010093688965,-0.01611742377281189,-0.8048271452222657,-0.9760687137772465,-0.7471177640776766,-0.5742079615592957,0.720710813999176,-0.3884083330631256,0.14346465468406677,0.8368217349052429,0.2045462429523468
4.179936170578003,-0.042159974575042725,-0.016006052494049072,-0.03589385747909546,-0.8076588826071623,-0.9533452151402827,-0.7393013045209208,-0.5635682940483093,0.7226709723472595,-0.40017181634902954,0.08263631165027618,0.8735098838806152,0.3207116425037384
4.202969074249268,-0.05829828977584839,-0.0682528018951416,-0.05373269319534302,-0.8127730897499127,-0.9329851896574991,-0.7354178273005983,-0.5523280501365662,0.7261964082717896,-0.40935635566711426,-0.15879344940185547,0.8791281580924988,0.2549230456352234
4.222908973693848,-0.024617791175842285,-0.14763939380645752,-0.062356412410736084,-0.8206111638994181,-0.9169609887007538,-0.7371352173647315,-0.5411630272865295,0.731562614440918,-0.4146791398525238,-0.40094462037086487,0.8376900553703308,0.29351112246513367
4.243239164352417,0.033987998962402344,-0.2142336368560791,-0.05324608087539673,-0.830360468840954,-0.9052060802732913,-0.7425283011071754,-0.5306159257888794,0.7381746172904968,-0.41658735275268555,-0.4547998011112213,0.7349538207054138,0.2540053427219391
4.262689113616943,0.05770421028137207,-0.2299078106880188,-0.06972160935401917,-0.8390471198241627,-0.8957994352873782,-0.7480510295025299,-0.5216478109359741,0.7440067529678345,-0.41753727197647095,-0.3666328489780426,0.6118096709251404,0.18165548145771027
4.282855033874512,0.051968276500701904,-0.22269922494888306,-0.07989698648452759,-0.8450867831543281,-0.8874765478822436,-0.7523322168355814,-0.514660656452179,0.7480286955833435,-0.4190196394920349,-0.22798776626586914,0.5466955304145813,0.12775945663452148
4.3024351596832275,0.03789883852005005,-0.1788453459739685,-0.0885658860206604,-0.8488653073370521,-0.8784505275689727,-0.7539746339523022,-0.5086784362792969,0.750531017780304,-0.421840637922287,-0.10921189188957214,0.5072956085205078,0.10470887273550034
4.322368144989014,0.023771345615386963,-0.17464393377304077,-0.07516208291053772,-0.852327635138493,-0.8680363185559044,-0.7537206664847472,-0.502271831035614,0.7528145909309387,-0.4254330098628998,-0.12006248533725739,0.5156393647193909,0.1605483889579773
4.340977191925049,0.015484541654586792,-0.1400114893913269,-0.07677781581878662,-0.8559591796997276,-0.8580766645174116,-0.7537721570235307,-0.49593815207481384,0.7552000284194946,-0.4286237955093384,-0.08415370434522629,0.4559438228607178,0.11428830027580261
4.362504005432129,-0.00012028217315673828,-0.09969192743301392,-0.11267203092575073,-0.8577912326892371,-0.8491320815294593,-0.7527972143177482,-0.4910450279712677,0.7563996315002441,-0.43212780356407166,0.0206762682646513,0.38518425822257996,0.04971422627568245
4.381277084350586,-0.03466165065765381,-0.08724850416183472,-0.12380066514015198,-0.8559387293668076,-0.8388823250126752,-0.7492911069958959,-0.48763155937194824,0.7551866173744202,-0.4380737245082855,0.2774689197540283,0.39045339822769165,-0.011392783373594284
4.401236057281494,-0.039992570877075195,-0.08999723196029663,-0.09551572799682617,-0.8510212735791471,-0.8242110977766846,-0.7417595592708831,-0.4838723838329315,0.7519540190696716,-0.447697252035141,0.3714172840118408,0.509227454662323,-0.03367580473423004
4.422116279602051,-0.027354836463928223,-0.10526514053344727,-0.08440932631492615,-0.8452900078458759,-0.8091439834012317,-0.7357659879179305,-0.48018309473991394,0.7481635808944702,-0.45790326595306396,0.31583839654922485,0.5229008197784424,-0.09640640765428543
4.442314147949219,0.011485785245895386,-0.1170203685760498,-0.09939694404602051,-0.8407800785564403,-0.7970768406117977,-0.7323414296841049,-0.4770315885543823,0.7451635599136353,-0.4660175144672394,0.16323651373386383,0.435577392578125,-0.08712217956781387
4.46195125579834,0.0309467613697052,-0.13667887449264526,-0.11255025863647461,-0.8380007480176397,-0.7895470237942639,-0.7324068808390701,-0.47497764229774475,0.7433072328567505,-0.4710526764392853,0.019769130274653435,0.3309493362903595,-0.10116402804851532
4.481029033660889,0.04264840483665466,-0.15065902471542358,-0.10796773433685303,-0.8375264903343613,-0.7857494249905931,-0.7353452427241781,-0.4734346866607666,0.7429898977279663,-0.4731022119522095,-0.11786174029111862,0.25359463691711426,-0.07716512680053711
4.5019371509552,0.05205485224723816,-0.11391985416412354,-0.13609671592712402,-0.8385133096736651,-0.7845704120484623,-0.7395639067995714,-0.4723583459854126,0.743649959564209,-0.47314098477363586,-0.07181475311517715,0.15436089038848877,0.013167314231395721
4.521745204925537,0.03538563847541809,-0.06075334548950195,-0.18955403566360474,-0.8426006473441627,-0.7809666259883821,-0.7388401441166894,-0.46850651502609253,0.7463764548301697,-0.47267743945121765,-0.2760956287384033,0.155414879322052,0.14418227970600128
4.541807174682617,-0.015354275703430176,0.032184064388275146,-0.22834685444831848,-0.8435927780383065,-0.7811569634529337,-0.742714279673842,-0.4680747985839844,0.747036337852478,-0.4720621407032013,0.0894482210278511,0.12205123901367188,-0.11892350018024445
4.560834169387817,-0.02212432026863098,0.06833136081695557,-0.2646007537841797,-0.8404321855068373,-0.7744641252446368,-0.7386100554586889,-0.46655380725860596,0.7449315190315247,-0.4768696427345276,0.3163990080356598,0.24131949245929718,0.015850001946091652
4.582187175750732,-0.05080229043960571,0.06321710348129272,-0.27607202529907227,-0.8323754854999292,-0.7640982870114706,-0.7313510196558226,-0.46572309732437134,0.739532470703125,-0.48599767684936523,0.6064320206642151,0.2569951117038727,-0.20090724527835846
4.601781129837036,-0.024762004613876343,0.01129847764968872,-0.24515396356582642,-0.8209659610323088,-0.7496837903160881,-0.7203127560709948,-0.4643891155719757,0.7318044900894165,-0.49880358576774597,0.6249037384986877,0.35792404413223267,-0.004930852446705103
4.62155818939209,0.011674195528030396,-0.04571568965911865,-0.16988122463226318,-0.8153513427263677,-0.7364427459346287,-0.7123084940882997,-0.46049633622169495,0.7279665470123291,-0.5079447031021118,0.13212093710899353,0.38314273953437805,-0.018887445330619812
4.641642093658447,-0.03144681453704834,-0.08311384916305542,-0.2299710512161255,-0.8137708803345147,-0.7296979509486564,-0.712670903924426,-0.4578263461589813,0.7268820405006409,-0.511896014213562,0.09676419198513031,0.3231143057346344,-0.029571514576673508
4.661960124969482,-0.046073198318481445,0.007721424102783203,-0.25771385431289673,-0.8114855092487493,-0.7200438557703716,-0.7077202552097215,-0.45395737886428833,0.7253106236457825,-0.5175394415855408,0.2478928416967392,0.2389577031135559,0.09174180775880814
4.681873083114624,-0.01741206645965576,0.12329870462417603,-0.19529008865356445,-0.8091507439869736,-0.7136276234255572,-0.7017436340745291,-0.4517348110675812,0.7237013578414917,-0.5217204093933105,0.17738154530525208,-0.06168103590607643,0.1054195910692215
4.701364994049072,-0.03655022382736206,0.2439013123512268,-0.18653523921966553,-0.8084917735662032,-0.7099017224145007,-0.6927788987304448,-0.4500984847545624,0.7232464551925659,-0.5237614512443542,0.3285618722438812,-0.14881531894207,0.30242377519607544
4.721173286437988,-0.1315024197101593,0.31317973136901855,-0.12709683179855347,-0.8052221451451156,-0.6988158689081346,-0.6771300734545683,-0.44578346610069275,0.7209845781326294,-0.5305264592170715,0.6006590127944946,0.11831367015838623,0.2865779995918274
4.7414891719818115,-0.1398926079273224,0.21904778480529785,-0.032313764095306396,-0.796672902998961,-0.6785276960224648,-0.6574927646479659,-0.4387817978858948,0.7150341272354126,-0.5442395210266113,0.8173756003379822,0.4403764009475708,0.26216381788253784
4.7613160610198975,-0.04824444651603699,0.08152508735656738,0.12975060939788818,-0.7892080042359936,-0.6579805201640501,-0.6406803458166401,-0.43075957894325256,0.7097955942153931,-0.5573476552963257,0.441505491733551,0.4042421877384186,0.1838039755821228
4.781020164489746,0.034444212913513184,-0.025836646556854248,0.21444964408874512,-0.7858788412740358,-0.6458278418080516,-0.6315924965764618,-0.42537447810173035,0.7074465751647949,-0.5644252300262451,0.2158828228712082,0.14463724195957184,0.1353807896375656
4.801053047180176,0.08305135369300842,0.025116026401519775,0.24323034286499023,-0.784902808163879,-0.641333032543787,-0.6256462238163782,-0.4232461750507355,0.7067564129829407,-0.5668845772743225,0.11901695281267166,-0.11649901419878006,0.15754882991313934
4.821752071380615,0.06249815225601196,0.08692401647567749,0.24720388650894165,-0.7854496767698173,-0.6403688612567274,-0.620111696729745,-0.4224683344364166,0.7071431875228882,-0.5669823288917542,0.036930739879608154,-0.15662379562854767,0.2086251676082611
4.841236114501953,0.0331902801990509,0.09952956438064575,0.26706254482269287,-0.7881051531671682,-0.6390178645859039,-0.6147417891418522,-0.42058056592941284,0.7090182900428772,-0.5660433173179626,-0.04043596610426903,-0.10464759171009064,0.23648692667484283
4.8609840869903564,0.053173601627349854,0.11361652612686157,0.26172947883605957,-0.7905488054107463,-0.637570974317112,-0.6095621229992226,-0.4187285304069519,0.7107394337654114,-0.5652573108673096,0.09949864447116852,-0.1520853340625763,0.2242162674665451
4.880638122558594,0.08483844995498657,0.07746469974517822,0.22867095470428467,-0.7913787797877064,-0.6355787217931762,-0.600560878625079,-0.417251318693161,0.7113230228424072,-0.5656155943870544,0.12884166836738586,-0.2781403958797455,0.3357578217983246
4.900688171386719,0.09626379609107971,0.03717321157455444,0.2591913938522339,-0.7958947787047502,-0.6355794623945387,-0.5918626304574515,-0.41534048318862915,0.7144899368286133,-0.5630244612693787,-0.16302943229675293,-0.3506646454334259,0.40989941358566284
4.919997215270996,0.10040271282196045,0.04573887586593628,0.3042513132095337,-0.8056627314719084,-0.6399134958948011,-0.5880274953281016,-0.4135894775390625,0.7212898135185242,-0.5555941462516785,-0.4051652252674103,-0.35146722197532654,0.36899054050445557
4.939990043640137,0.10130956768989563,0.05990821123123169,0.29740166664123535,-0.8150138938349977,-0.6459892502031138,-0.5872148671041815,-0.41287893056869507,0.7277351021766663,-0.5476610660552979,-0.2848008871078491,-0.29598018527030945,0.22101664543151855
4.960515022277832,0.08074742555618286,0.02372884750366211,0.22642534971237183,-0.8185143294123878,-0.6509794790542669,-0.5866343087021298,-0.41406047344207764,0.7301314473152161,-0.5435640215873718,0.056965406984090805,-0.2593752145767212,0.01064213365316391
4.981482982635498,0.06219357252120972,-0.03283107280731201,0.16801947355270386,-0.8142080505334606,-0.6546856130742703,-0.5850931205861626,-0.41798287630081177,0.7271822094917297,-0.5445148944854736,0.24881522357463837,-0.2193911224603653,-0.16810563206672668
5.00085711479187,0.11288008093833923,-0.09069424867630005,0.18496841192245483,-0.8103286370399554,-0.6609359926006386,-0.5873083022969872,-0.4231066405773163,0.7245137095451355,-0.5441145896911621,-0.11281143128871918,-0.261829674243927,-0.1792815774679184
5.019992113113403,0.16023388504981995,-0.08505737781524658,0.1759534478187561,-0.8141791625643054,-0.6761133273550494,-0.5985040258502566,-0.429566890001297,0.7271623611450195,-0.5354505181312561,-0.6273288130760193,-0.4199988842010498,-0.19350458681583405
5.039450168609619,0.13652384281158447,0.008360445499420166,0.11326277256011963,-0.823085163744479,-0.6977018699398158,-0.616191909086872,-0.436847448348999,0.7332471013069153,-0.5210692286491394,-0.7745237350463867,-0.446199506521225,-0.19114987552165985
5.059993267059326,0.08292204141616821,0.10934615135192871,0.06458258628845215,-0.8314666603394784,-0.7185396474466981,-0.6342475486147044,-0.44354841113090515,0.7389203906059265,-0.5072095394134521,-0.6684769988059998,-0.2724255919456482,-0.18787658214569092
5.080179214477539,0.05350896716117859,0.12816011905670166,0.03680086135864258,-0.8368726467281771,-0.7340845894592034,-0.6510960354907117,-0.44869646430015564,0.7425521016120911,-0.4972805976867676,-0.46559393405914307,-0.040035221725702286,-0.328194260597229
5.100123167037964,0.07196637988090515,0.03451591730117798,0.007343769073486328,-0.8374438372384095,-0.7439618764873298,-0.6664895614311492,-0.4532989263534546,0.74293452501297,-0.4925122559070587,-0.3017764687538147,0.14574751257896423,-0.3562036156654358
5.120249271392822,0.15666010975837708,-0.053334832191467285,0.01500004529953003,-0.8393010271596829,-0.7522445694032294,-0.6810672095821473,-0.4564191401004791,0.7441763877868652,-0.4877326488494873,-0.5405241250991821,0.11734223365783691,-0.26526790857315063
5.140480041503906,0.23267602920532227,-0.06732898950576782,0.011519640684127808,-0.844550138059112,-0.7652936560842624,-0.7013616007776006,-0.4600321054458618,0.747672438621521,-0.4789116382598877,-0.7438281774520874,0.09241887181997299,-0.36963558197021484
5.161555290222168,0.2903064787387848,-0.046712636947631836,-0.02870410680770874,-0.8486702550182934,-0.7808060857976235,-0.724567672723158,-0.46523335576057434,0.7504021525382996,-0.46952587366104126,-0.5805290341377258,0.08403639495372772,-0.4398829936981201
5.179979085922241,0.35381466150283813,-0.007586777210235596,-0.07702070474624634,-0.8478591080893914,-0.7943391563203718,-0.7438223673413928,-0.4719788432121277,0.749865710735321,-0.46361348032951355,-0.26034846901893616,-0.013366326689720154,-0.531375527381897
5.199995994567871,0.40126144886016846,-0.004957675933837891,-0.07546085119247437,-0.8409141590363243,-0.8088066313284553,-0.7614525591060851,-0.4823925495147705,0.7452529668807983,-0.4603210389614105,-0.09906954318284988,-0.10412924736738205,-0.8483378291130066
5.220458030700684,0.38284388184547424,-0.05400669574737549,-0.08666330575942993,-0.8250012462544063,-0.8238021630018353,-0.7784206473503017,-0.4978800117969513,0.7345486283302307,-0.46103569865226746,0.337058961391449,-0.12436838448047638,-1.0014384984970093
5.240538120269775,0.3927454948425293,-0.10279488563537598,-0.0741834044456482,-0.8065952594640096,-0.8340614826405159,-0.7886999359208089,-0.5125118494033813,0.7219353914260864,-0.46490970253944397,0.3481906056404114,-0.2334354817867279,-0.9122132062911987
5.260388135910034,0.39949721097946167,-0.062096595764160156,-0.06445169448852539,-0.7877445930868517,-0.8504980668030608,-0.7992878207445393,-0.5302193760871887,0.7087640166282654,-0.4653182327747345,0.38129302859306335,-0.6708920001983643,-0.9181344509124756
5.28002405166626,0.3315942883491516,0.17776864767074585,-0.1960000991821289,-0.7675337513793948,-0.8707755015519547,-0.8048851607647796,-0.5503901839256287,0.6943625807762146,-0.4636068642139435,0.7932624816894531,-0.82676100730896,-0.9024187326431274
5.2999701499938965,0.13098299503326416,0.2713993787765503,-0.17011815309524536,-0.7414149181745514,-0.8760944073528542,-0.7958047040640437,-0.5665910243988037,0.6753321290016174,-0.47212427854537964,1.1401255130767822,-0.2647574543952942,-0.6204216480255127
5.319997072219849,0.11331534385681152,0.1895485520362854,-0.02555173635482788,-0.7250508758101717,-0.8745586003899506,-0.7921130343440262,-0.5742682218551636,0.663173496723175,-0.480017751455307,0.06768950819969177,0.01871233806014061,-0.5881296396255493
5.340050220489502,0.24993908405303955,0.05745089054107666,-0.02440127730369568,-0.719359910011164,-0.8870705489520805,-0.807767364512256,-0.5831453204154968,0.6589033007621765,-0.47517144680023193,-0.4627451002597809,-0.26908954977989197,-0.47792673110961914
5.3600311279296875,0.3511234521865845,0.003722965717315674,-0.05843740701675415,-0.7195651698088146,-0.905230607679701,-0.8225334637957306,-0.591571569442749,0.6590576767921448,-0.46442028880119324,-0.3696039915084839,-0.569771409034729,-0.3254808187484741
5.379998207092285,0.33056676387786865,-0.010817527770996094,-0.03813207149505615,-0.7135740052187803,-0.9276794557818544,-0.835283436020017,-0.6049962639808655,0.6545400023460388,-0.4533841013908386,0.033448655158281326,-0.81894451379776,-0.7857208847999573
5.400006055831909,0.293124794960022,-0.0038558244705200195,-0.01756209135055542,-0.6936376521580858,-0.9502510925157136,-0.8433907014821787,-0.625568151473999,0.639338493347168,-0.44711384177207947,0.5429593324661255,-0.8848910331726074,-1.1421493291854858
5.420926094055176,0.2845286726951599,-0.20639395713806152,0.1177336573600769,-0.6684686448734015,-0.9708722284047712,-0.8508085054149173,-0.647733747959137,0.619784951210022,-0.4430663287639618,0.3245033919811249,-0.6923772096633911,-1.2074625492095947
5.441179275512695,0.3452639579772949,-0.5049924850463867,0.214411199092865,-0.6485571681838785,-0.9933639516071672,-0.8663384537484177,-0.6677433252334595,0.6040371656417847,-0.4350380003452301,-0.24393197894096375,-0.6668152213096619,-1.1544855833053589
5.459973096847534,0.4360266923904419,-0.5761798620223999,0.278347373008728,-0.6344321995324109,-1.0227364976363962,-0.8900630425101995,-0.6874459385871887,0.5927202701568604,-0.41964372992515564,-0.501132607460022,-0.8996524214744568,-1.0615930557250977
5.480194091796875,0.42366325855255127,-0.404496431350708,0.21073058247566223,-0.619088120858446,-1.054733443000282,-0.9099413193619246,-0.7083465456962585,0.5802927613258362,-0.40187740325927734,-0.05146343633532524,-1.0873123407363892,-1.1465343236923218
5.500115156173706,0.2910757064819336,-0.3048098683357239,0.13248640298843384,-0.5941620160285862,-1.082264648319466,-0.9208845853134728,-0.7316885590553284,0.5598145723342896,-0.38889506459236145,0.418458491563797,-1.012548565864563,-1.4628502130508423
5.520040988922119,0.2705097794532776,-0.3342350721359253,0.11184310913085938,-0.5627146420109972,-1.10437849226187,-0.9252953239144757,-0.7554647326469421,0.5334842205047607,-0.3803520202636719,0.668828547000885,-1.0189964771270752,-1.466101050376892
5.540135145187378,0.35442298650741577,-0.35667407512664795,0.1635715663433075,-0.5312977608596653,-1.1267540835848353,-0.9249683382455852,-0.7785412669181824,0.5066526532173157,-0.3703739643096924,0.7509291172027588,-1.2346934080123901,-1.3616583347320557
5.56004524230957,0.3172851800918579,-0.3190808594226837,0.1910167932510376,-0.50001116719137,-1.1479574022175398,-0.9195518858295905,-0.8002870082855225,0.4794353246688843,-0.360114723443985,1.0066391229629517,-1.1111162900924683,-1.3234654664993286
5.580055236816406,0.23008161783218384,-0.26456668972969055,0.1797357201576233,-0.46422845533839413,-1.163295886028054,-0.909789691195887,-0.8209478259086609,0.4477330446243286,-0.3543725311756134,1.2286982536315918,-0.8844283223152161,-1.6839935779571533
5.599356174468994,0.15790361166000366,-0.2069145143032074,0.11428388953208923,-0.4194544313893318,-1.1744365333702926,-0.8987138381726569,-0.8425045013427734,0.40726223587989807,-0.35259559750556946,1.4645140171051025,-0.7206528186798096,-2.0171303749084473
5.620058059692383,0.10440385341644287,-0.2054319679737091,0.015354692935943604,-0.36997300469068983,-1.181819878650417,-0.8850287277112476,-0.8626894354820251,0.36159026622772217,-0.35358095169067383,1.4620927572250366,-0.5744805932044983,-2.047189474105835
5.639999151229858,0.13169217109680176,-0.1789557933807373,0.06028512120246887,-0.32449790464743733,-1.1944542173129518,-0.8797198828539804,-0.8814785480499268,0.3188329339027405,-0.3483404517173767,0.8056227564811707,-0.9264534711837769,-1.9991886615753174
5.660003185272217,0.12929439544677734,-0.12871327996253967,0.14585605263710022,-0.2830989630243985,-1.2154252035479183,-0.880407058088843,-0.9001989960670471,0.27933257818222046,-0.33408841490745544,0.6689315438270569,-1.1091872453689575,-1.9423621892929077
5.680001258850098,-0.0780983567237854,-0.0480644553899765,0.18414467573165894,-0.23941663884467915,-1.236287590377457,-0.8800072047574408,-0.9176292419433594,0.23713594675064087,-0.31894078850746155,0.8427451848983765,-0.9822536110877991,-2.196485757827759
5.7000041007995605,-0.24197697639465332,0.05747291445732117,0.15465006232261658,-0.18898061137360128,-1.2551344813671863,-0.8784598515878417,-0.9336671233177185,0.1878577470779419,-0.3049186170101166,0.872467041015625,-0.9917260408401489,-2.4834022521972656
5.720001220703125,-0.24643248319625854,-0.016964182257652283,0.15659737586975098,-0.137252344615446,-1.279126766433078,-0.8795489072223551,-0.9487580060958862,0.13682182133197784,-0.2848474383354187,0.5684797763824463,-1.4304249286651611,-2.4912381172180176
5.739989280700684,-0.3722756505012512,-0.08369162678718567,0.2404867708683014,-0.08648477773135702,-1.312405005656518,-0.8856379470190369,-0.9631889462471008,0.08637700229883194,-0.2545706033706665,0.19850730895996094,-1.756761074066162,-2.6590516567230225
5.76000714302063,-0.8208976984024048,0.001107867807149887,0.23345722258090973,-0.03236013727802263,-1.3421298937497257,-0.8983422849606774,-0.9734596014022827,0.03235448896884918,-0.22656019032001495,-0.19309097528457642,-1.1376508474349976,-2.802743434906006
5.780023097991943,-0.8815717697143555,-0.07877873629331589,0.29546305537223816,0.015353503532643165,-1.3614290828691935,-0.9235438327434714,-0.9780473113059998,-0.015352900139987469,-0.2078164964914322,-1.2230068445205688,-0.816082775592804,-2.3959193229675293
5.800033092498779,-0.6499621868133545,0.0910884365439415,0.4090568423271179,0.05252325876608382,-1.3744446318217993,-0.9529488443439614,-0.9794324040412903,-0.052499111741781235,-0.19482341408729553,-0.6233876347541809,-0.5722993016242981,-1.8463345766067505
5.819998264312744,-0.5834790468215942,0.45880964398384094,0.3204103708267212,0.08498016278607487,-1.3842101497364463,-0.9568899422416375,-0.9790972471237183,-0.08487791568040848,-0.1848359853029251,0.8322253823280334,-0.4714667797088623,-1.3785109519958496
5.84000825881958,-0.5251460671424866,0.4748636782169342,0.11775042116641998,0.11173865521495593,-1.3969860152465725,-0.9344580999748587,-0.9787907004356384,-0.11150628328323364,-0.1718580275774002,1.4495090246200562,-0.5322877764701843,-0.8094724416732788
5.860005140304565,-0.3910676836967468,0.22464153170585632,0.2807842493057251,0.12759076213242482,-1.4102155528776317,-0.9059311779968179,-0.9791104793548584,-0.12724485993385315,-0.15859182178974152,1.5053966045379639,-0.2616346478462219,-0.2808862030506134
5.8800482749938965,-0.40048444271087646,0.12629149854183197,0.4707372784614563,0.13608016494862896,-1.4150120144584624,-0.8739059147883137,-0.9787574410438538,-0.1356605738401413,-0.15372061729431152,1.8988667726516724,0.17991800606250763,-0.07303207367658615
5.900002956390381,-0.44947779178619385,0.13464921712875366,0.37070584297180176,0.14109854844544212,-1.4148187434067552,-0.8338969944786292,-0.9780429601669312,-0.1406308263540268,-0.1538020819425583,1.9134644269943237,0.3516107499599457,0.16073481738567352
5.920001983642578,-0.4511657953262329,0.021302178502082825,0.3706817030906677,0.14016904873808256,-1.414318069854893,-0.8004883158081475,-0.9780943989753723,-0.13971050083637238,-0.15431202948093414,1.3268940448760986,0.05422692000865936,0.45773857831954956
5.940090179443359,-0.41029059886932373,-0.06703323125839233,0.384871244430542,0.13135766399335347,-1.4208319713820843,-0.779112171607616,-0.9802581071853638,-0.1309802234172821,-0.14811578392982483,0.689673900604248,-0.4036042094230652,0.7323339581489563
5.9600300788879395,-0.4957308769226074,-0.05429845303297043,0.420602023601532,0.11582133750744208,-1.4306606916517,-0.7671662999466938,-0.9835629463195801,-0.1155625656247139,-0.1387416124343872,0.19643554091453552,-0.363115519285202,0.9591761231422424
5.980010986328125,-0.6087890863418579,-0.06503622233867645,0.40278637409210205,0.09394606605101428,-1.4372904711901153,-0.7657263115093179,-0.9867309331893921,-0.09380793571472168,-0.13252264261245728,-0.3071078360080719,-0.3039228022098541,1.2483307123184204
6.00000524520874,-0.6407332420349121,-0.0019172951579093933,0.31900668144226074,0.06508437943901939,-1.4426358743674794,-0.7693355778190356,-0.9896988868713379,-0.06503844261169434,-0.12753930687904358,-0.33927327394485474,-0.26461052894592285,1.5674384832382202
6.020019054412842,-0.6820781826972961,0.14983247220516205,0.2244081050157547,0.030116734238168692,-1.4471682108986015,-0.7695814244811887,-0.9919176697731018,-0.03011218085885048,-0.12325751036405563,-0.08711668103933334,-0.21699188649654388,1.9251582622528076
6.040101051330566,-0.724044144153595,0.14057470858097076,0.1527860462665558,-0.012226944020318278,-1.4513326024077706,-0.763837894672396,-0.992798388004303,0.012226639315485954,-0.11917085200548172,0.1013142317533493,-0.14253762364387512,2.336531639099121
6.060009002685547,-0.7727155685424805,0.03555727377533913,0.1389852613210678,-0.06229170333036917,-1.4527011154561558,-0.7565087844752222,-0.9911090135574341,0.06225142627954483,-0.11759240180253983,0.01436267327517271,0.02273663878440857,2.6537692546844482
6.080008029937744,-0.7816253304481506,-0.027138948440551758,0.11874765157699585,-0.1163906728433739,-1.4511698167058042,-0.7503688548007941,-0.9861359596252441,0.11612806469202042,-0.11853396892547607,-0.025455085560679436,0.0579521507024765,2.77473783493042
6.100017070770264,-0.7484235167503357,-0.01485268771648407,0.06406450271606445,-0.17109687851218486,-1.4508802068277376,-0.7423174291352627,-0.9783221483230591,0.17026332020759583,-0.11788218468427658,0.13007766008377075,-0.1519596129655838,2.751725673675537
6.119940280914307,-0.7306415438652039,-0.06614671647548676,0.08149611949920654,-0.2251014954479508,-1.4535016100354325,-0.7347244430575897,-0.9680737257003784,0.2232052981853485,-0.11407355219125748,-0.08015307039022446,-0.17120575904846191,2.742205858230591
6.140140056610107,-0.723696231842041,-0.16473349928855896,0.15539145469665527,-0.28075772739304716,-1.455490443598836,-0.7326937852961503,-0.954465389251709,0.27708378434181213,-0.11054582893848419,-0.28982996940612793,-0.12920619547367096,2.794862985610962
6.160015106201172,-0.7110797166824341,-0.1623220443725586,0.0938112735748291,-0.3353669653398444,-1.459879618736385,-0.7353783502376364,-0.9384869933128357,0.32911571860313416,-0.10452286899089813,-0.6244899034500122,-0.17429201304912567,2.5969674587249756
6.180017948150635,-0.6429436802864075,-0.15374234318733215,0.05092877894639969,-0.38747089580572064,-1.4671516586595983,-0.7444147051432393,-0.9208990931510925,0.3778479993343353,-0.09578952938318253,-0.7272830605506897,-0.24522040784358978,2.514936685562134
6.200010061264038,-0.5392332673072815,-0.05029621720314026,-0.003704369068145752,-0.43585240372464445,-1.4764413621063426,-0.7519641611799757,-0.9024782776832581,0.4221832752227783,-0.08540690690279007,-0.29274728894233704,-0.3811791241168976,2.224482774734497
6.220055103302002,-0.5067086219787598,0.028962254524230957,-0.04163069278001785,-0.4771424246044611,-1.481877901830804,-0.7481075415976078,-0.8848016262054443,0.45924264192581177,-0.07888317108154297,0.20619668066501617,-0.39594921469688416,1.879923939704895
6.2400221824646,-0.5048518180847168,-0.030464619398117065,-0.02913302183151245,-0.5111776755501409,-1.4817552246778563,-0.7357725383685245,-0.8687139749526978,0.4892047047615051,-0.0775563195347786,0.5566670894622803,-0.11820441484451294,1.7176862955093384
6.260011196136475,-0.3881755471229553,-0.07158166170120239,-0.01790284365415573,-0.5442884680921038,-1.4738526483430576,-0.7170344508646755,-0.8514790534973145,0.5178095102310181,-0.0828050747513771,0.6795074939727783,-0.07733572274446487,1.7309627532958984
6.2800092697143555,-0.2678758502006531,-0.17119812965393066,0.002722330391407013,-0.5813566060936741,-1.4736665176259134,-0.7062821581847973,-0.8317793607711792,0.5491581559181213,-0.08104559779167175,-0.11492185294628143,-0.3550686240196228,1.9948681592941284
6.3000359535217285,-0.2493031620979309,-0.25683295726776123,-0.11655218154191971,-0.615864236233341,-1.4681280449279004,-0.6920541305624922,-0.8119763731956482,0.5776641964912415,-0.083658367395401,0.33431944251060486,-0.1242794319987297,1.6018378734588623
6.320009231567383,-0.3094133138656616,-0.16365677118301392,-0.027386188507080078,-0.6475662238522156,-1.4635625963012262,-0.6860116328849886,-0.7929732799530029,0.6032471060752869,-0.08536092191934586,-0.022191369906067848,0.20729200541973114,1.6573947668075562
6.340015172958374,-0.16133350133895874,-0.34160149097442627,0.0035570859909057617,-0.6817400406212428,-1.457478199181768,-0.6846856436793706,-0.7714974284172058,0.6301450729370117,-0.08780078589916229,-0.17173221707344055,0.2799445688724518,1.7089684009552002
6.360049247741699,-0.11322343349456787,-0.25626152753829956,-0.051350176334381104,-0.7147738005451676,-1.449992571712557,-0.6817638167549336,-0.7497375011444092,0.6554465889930725,-0.09101428091526031,0.11507828533649445,0.30352553725242615,1.6093729734420776
6.380015134811401,-0.1377202868461609,-0.15748625993728638,-0.03926922380924225,-0.7438476725820895,-1.430694642630982,-0.6650214416568627,-0.7286586761474609,0.6771243214607239,-0.10275953263044357,0.7080135941505432,0.48314398527145386,1.3954237699508667
6.400012969970703,-0.10337138175964355,-0.1776685118675232,0.007222875952720642,-0.7659221705638944,-1.4018898971079357,-0.6380497970223413,-0.7104868292808533,0.6932019591331482,-0.12116020172834396,0.8399661183357239,0.5373279452323914,1.159363865852356
6.420022964477539,-0.01413661241531372,-0.36832261085510254,0.05516679584980011,-0.7867895245928533,-1.3749243373684474,-0.6149130209238449,-0.692620038986206,0.7080899477005005,-0.13742688298225403,0.3159306049346924,0.510680615901947,1.198685646057129
6.440049171447754,0.0032596588134765625,-0.4154984951019287,0.04424715042114258,-0.8092306123234819,-1.3618250583858538,-0.6099050485209178,-0.6750432848930359,0.7237564921379089,-0.1431545466184616,-0.3635678291320801,0.492442786693573,1.0371285676956177
6.460021018981934,-0.02388453483581543,-0.39498674869537354,0.013845518231391907,-0.8298817700819259,-1.3582234007834906,-0.6204918370124647,-0.6597703695297241,0.7378515601158142,-0.14240071177482605,-0.7034859657287598,0.6297941207885742,0.8471393585205078
6.480024099349976,0.06348496675491333,-0.4034408926963806,-0.003646254539489746,-0.8484289053227017,-1.3547403003614351,-0.6337769657971098,-0.6457909941673279,0.7502425909042358,-0.14173941314220428,-0.6158788204193115,0.7163357138633728,0.7939532995223999
6.500054121017456,0.11979705095291138,-0.3623826503753662,-0.018163278698921204,-0.8638474037407889,-1.3485733592998483,-0.6458077140882729,-0.633545458316803,0.7603471279144287,-0.14315257966518402,-0.4561605751514435,0.8063821792602539,0.5516536235809326
6.520007133483887,0.1369604468345642,-0.34225571155548096,-0.07452350854873657,-0.8746272062791473,-1.3370120181076384,-0.6522275359693248,-0.6238380670547485,0.7673044800758362,-0.14855998754501343,-0.2447304129600525,0.8584423065185547,0.3786810338497162
6.540014266967773,0.12900680303573608,-0.30233967304229736,-0.07844226062297821,-0.8802869541309433,-1.3235619525997147,-0.6584345334489733,-0.6175628304481506,0.7709217071533203,-0.15587164461612701,-0.2424590289592743,0.9838143587112427,0.14157988131046295
6.560039043426514,0.14160430431365967,-0.29901665449142456,-0.11436986923217773,-0.8825954941685593,-1.3052572797434676,-0.662508864966098,-0.6128873825073242,0.7723900079727173,-0.166681706905365,-0.11459735780954361,1.1287833452224731,0.032065581530332565
6.580014228820801,0.18977099657058716,-0.3543248176574707,-0.16332632303237915,-0.8837897982016364,-1.2905303113691566,-0.6714947570154427,-0.6094794273376465,0.7731480002403259,-0.17543399333953857,-0.4749358892440796,0.9892012476921082,-0.026707012206315994
6.600021123886108,0.135495126247406,-0.4512138366699219,-0.3046186566352844,-0.8890444908429787,-1.2891674439513205,-0.6936988981967029,-0.6053285598754883,0.7764700055122375,-0.1751329004764557,-1.0569937229156494,1.2637827396392822,-0.07674964517354965
6.620053291320801,-0.056187570095062256,-0.5141544342041016,-0.3175128698348999,-0.8932659335285653,-1.2951483916942528,-0.7393725395051892,-0.6032058596611023,0.7791232466697693,-0.17061573266983032,-1.692705750465393,1.7857996225357056,-0.2519543170928955
6.640022277832031,-0.08831113576889038,-0.3698083758354187,-0.33629661798477173,-0.8965375256811786,-1.2917300392981088,-0.7887605517490536,-0.6001654863357544,0.7811698913574219,-0.17197363078594208,-1.3239814043045044,2.4096994400024414,-0.28830331563949585
6.660020112991333,-0.06837081909179688,-0.18215978145599365,-0.24808621406555176,-0.8949081775074236,-1.2670799705587028,-0.8261059417271119,-0.5969582796096802,0.7801516652107239,-0.18709444999694824,-0.9179430603981018,3.0068421363830566,-0.5289013981819153
6.679985046386719,0.024060726165771484,-0.191059410572052,-0.10265213251113892,-0.8902203663007837,-1.2277267448702054,-0.8565166868053459,-0.5925728678703308,0.7772104144096375,-0.21166366338729858,-0.8101232051849365,3.2187817096710205,-0.5134193897247314
6.700005054473877,0.1782631278038025,-0.1910475492477417,0.03070664405822754,-0.8869586728431214,-1.1883541694510225,-0.8860027565094228,-0.5861307382583618,0.7751539349555969,-0.23576946556568146,-0.8130261898040771,2.935903549194336,-0.4132745563983917
6.720026969909668,0.27487993240356445,-0.1054810881614685,0.1642073392868042,-0.8858560523468288,-1.153467630384898,-0.9119085430842477,-0.5783315896987915,0.7744568586349487,-0.2564162313938141,-0.5764570236206055,2.5410165786743164,-0.2949264943599701
6.740015029907227,0.29891228675842285,0.0003750324249267578,0.2596908509731293,-0.8847863128107831,-1.116675250814958,-0.9270234867462592,-0.5692524313926697,0.7737796306610107,-0.27787938714027405,-0.31686750054359436,2.373945474624634,-0.21465809643268585
6.7600321769714355,0.35044896602630615,-0.04374152421951294,0.3223482072353363,-0.8840932080760696,-1.0799160164643287,-0.9364766459940355,-0.5591282844543457,0.7733404040336609,-0.2988649308681488,-0.19451618194580078,2.0092296600341797,-0.08760350197553635
6.780063152313232,0.4918094277381897,-0.05805313587188721,0.3628464341163635,-0.8854404143972836,-1.048921317749012,-0.9413909320057262,-0.5486943125724792,0.7741938233375549,-0.3155289590358734,-0.1380423605442047,1.4687812328338623,0.07659007608890533
6.8000171184539795,0.5157886147499084,-0.0407676100730896,0.33136284351348877,-0.888778291844299,-1.024503459101434,-0.9423143743710675,-0.538615882396698,0.7763022184371948,-0.32748714089393616,-0.08058968186378479,1.0905439853668213,0.20144771039485931
6.82003927230835,0.5169973373413086,-0.0570300817489624,0.32322362065315247,-0.8941888094496099,-1.0045623976124092,-0.9404054058169882,-0.5284262895584106,0.7797014117240906,-0.33590367436408997,-0.1585986614227295,0.6782404184341431,0.3196604549884796
6.84004020690918,0.4210176467895508,-0.2772102952003479,0.2823715806007385,-0.9195895569559698,-0.9986440302984843,-0.9579345254502548,-0.5096102952957153,0.7953528761863708,-0.3281937539577484,-2.4989712238311768,1.271363615989685,1.4148550033569336
6.860053062438965,0.4312037229537964,-0.06570166349411011,-0.1773359775543213,-0.9648665870013444,-1.0129182684430396,-0.9945456373152499,-0.48317527770996094,0.8219729661941528,-0.301500141620636,-0.7089635133743286,-0.007362673990428448,0.9102085828781128
6.8800201416015625,0.669592022895813,0.6892303824424744,0.1216345727443695,-0.9596824243649709,-0.9747206375078834,-0.941923241672315,-0.4748290777206421,0.8190093636512756,-0.3221198320388794,2.8591396808624268,-0.010102711617946625,0.4716211259365082
6.9000630378723145,0.2588682770729065,0.014516651630401611,0.31831276416778564,-0.9433581825555678,-0.8996723645862161,-0.8642401661085177,-0.45975038409233093,0.8095341324806213,-0.36508098244667053,1.0232257843017578,1.0110691785812378,1.2535923719406128
6.92002010345459,0.4504522979259491,-0.43291163444519043,0.014345794916152954,-0.9650130947707557,-0.8701950303915857,-0.8437930507380844,-0.43528515100479126,0.8220563530921936,-0.36708325147628784,-0.42314860224723816,0.022609516978263855,1.1112940311431885
6.940062046051025,0.5945547819137573,0.1690356731414795,-0.34993821382522583,-0.9807838666285992,-0.8543028636870099,-0.8086815182573646,-0.4195671081542969,0.8309337496757507,-0.36539384722709656,1.0407869815826416,-0.9895931482315063,1.3142012357711792
6.960021018981934,0.015310674905776978,0.255754292011261,-0.3693017363548279,-0.9832514218205544,-0.8143453971002834,-0.7448408989295711,-0.4031434655189514,0.8323041200637817,-0.3804541528224945,1.189678430557251,-0.27224040031433105,1.2059625387191772
6.979978084564209,-0.12065616250038147,0.41634291410446167,-0.21257618069648743,-0.983985765554405,-0.7695957620168413,-0.6883282427051133,-0.3852948844432831,0.8327109217643738,-0.39766862988471985,1.0666862726211548,-0.1943584829568863,1.1352161169052124
6.999977111816406,0.046798884868621826,0.4341917634010315,-0.19191622734069824,-0.9865054334882079,-0.7282402027390695,-0.6284732379165038,-0.36712679266929626,0.8341034650802612,-0.41169098019599915,0.9309778809547424,-0.5987740159034729,1.4493794441223145
7.020120143890381,-0.02200290560722351,0.26822710037231445,-0.13104671239852905,-0.9944554304701703,-0.6928509058165364,-0.5705379197913092,-0.3480839133262634,0.8384622931480408,-0.41930732131004333,0.5238946676254272,-0.6482141613960266,1.4168615341186523
7.0400261878967285,-0.04908141493797302,0.06322872638702393,-0.01990664005279541,-1.0048075692309937,-0.6592510348694466,-0.517161919942575,-0.3284669518470764,0.8440588116645813,-0.423880010843277,0.5625160932540894,-0.49777767062187195,1.5428760051727295
7.060116291046143,0.0938011109828949,-0.03582650423049927,0.06929835677146912,-1.0142012200025274,-0.617710577809048,-0.4546860860924531,-0.30597472190856934,0.8490588068962097,-0.4306722581386566,0.6208605170249939,-0.7025797963142395,1.6105042695999146
7.080002069473267,0.1731690764427185,-0.15225142240524292,0.15465015172958374,-1.0242185265370318,-0.5817994149127302,-0.3935573990363138,-0.28562650084495544,0.8543082475662231,-0.4342522621154785,0.34085237979888916,-0.9119485020637512,1.6292246580123901
7.10002326965332,0.2595510482788086,-0.18130135536193848,0.2321034073829651,-1.0364910552700337,-0.5507349065375605,-0.33252361056034074,-0.26649394631385803,0.8606226444244385,-0.4339466691017151,0.40974974632263184,-1.2549957036972046,1.6416943073272705
7.120023250579834,0.27123206853866577,-0.047013819217681885,0.2709292471408844,-1.041889034332638,-0.5180578557197106,-0.2633971183885002,-0.2498699128627777,0.8633589744567871,-0.438379168510437,0.8791279196739197,-1.4125635623931885,1.651267409324646
7.140042066574097,0.15666116774082184,0.044227421283721924,0.26302778720855713,-1.040421738801071,-0.4838854397117111,-0.1908236881040131,-0.23533566296100616,0.8626176714897156,-0.4477812647819519,0.9100691080093384,-1.4113606214523315,1.4950335025787354
7.159204959869385,0.12768451869487762,0.06468319892883301,0.31322407722473145,-1.038717040320675,-0.45589225618205775,-0.12386111676914853,-0.22335726022720337,0.8617540597915649,-0.45551225543022156,0.8339616656303406,-1.639504075050354,1.5072025060653687
7.180023193359375,0.12057207524776459,0.14939624071121216,0.2924865782260895,-1.036562978299162,-0.4337604690980868,-0.05674720809223792,-0.21400178968906403,0.8606592416763306,-0.4620269238948822,0.8381966352462769,-1.8571064472198486,1.4381428956985474
7.2000322341918945,0.01099531352519989,0.1964142918586731,0.28291386365890503,-1.0324605139887444,-0.4157834478620369,0.006766288955421305,-0.20708617568016052,0.8585631251335144,-0.46902525424957275,0.8790388107299805,-1.8036731481552124,1.3282102346420288
7.220022201538086,-0.07061721384525299,0.22933804988861084,0.24765777587890625,-1.026163697185759,-0.4011050298687976,0.0657606960497801,-0.20228639245033264,0.8553177118301392,-0.47698214650154114,0.8087380528450012,-1.7394827604293823,1.2521430253982544
7.240025997161865,-0.07129213213920593,0.14747369289398193,0.24517285823822021,-1.0232275576594534,-0.3919401570602879,0.11604601275373008,-0.1988648921251297,0.8537927865982056,-0.4811347723007202,0.5199471116065979,-1.7060438394546509,1.0858445167541504
7.260024070739746,-0.013033777475357056,0.043805837631225586,0.21154054999351501,-1.02357862304462,-0.38846871580364517,0.1612446405509423,-0.19707989692687988,0.8539754748344421,-0.48154473304748535,0.3569985330104828,-1.8506797552108765,1.08803391456604
7.28011417388916,-0.01679868996143341,-0.017313361167907715,0.1779710054397583,-1.0262093338199134,-0.3909226972572885,0.20246697738630032,-0.19740435481071472,0.8553413152694702,-0.478981077671051,0.21264676749706268,-1.926813006401062,1.027453064918518
7.300023078918457,-0.0483793169260025,-0.019401729106903076,0.185357928276062,-1.0299870613693631,-0.393781157803522,0.24255333406765495,-0.19753149151802063,0.8572923541069031,-0.4754274785518646,0.2824377715587616,-1.7898974418640137,1.061830997467041
7.3200249671936035,-0.06221301853656769,0.018324434757232666,0.1314816176891327,-1.0307456329546227,-0.39412669631007213,0.28301192978614664,-0.19744594395160675,0.8576826453208923,-0.4747585356235504,0.42221108078956604,-1.7072323560714722,0.8639830350875854
7.340063095092773,-0.02962784469127655,-0.04895561933517456,0.1366797387599945,-1.0302491726591618,-0.395983209852779,0.3198473081093051,-0.1984912008047104,0.8574272394180298,-0.47478389739990234,0.30736860632896423,-1.663390040397644,0.8825958967208862
7.360023021697998,0.02234099805355072,-0.10468161106109619,0.11354720592498779,-1.033223280541053,-0.40110323775037876,0.3537746735285319,-0.19992291927337646,0.8589539527893066,-0.47141149640083313,0.10810543596744537,-1.7651070356369019,0.8345049619674683
7.380105972290039,-0.011041149497032166,-0.03388148546218872,0.020868897438049316,-1.0374114883733498,-0.41101524197958966,0.38306158736988144,-0.20314665138721466,0.8610909581184387,-0.46610504388809204,0.14969119429588318,-1.7218676805496216,0.6933590769767761
7.400028228759766,-0.07788938283920288,0.0324825644493103,-0.07224729657173157,-1.0381250513878402,-0.4215322590044522,0.40809659638684753,-0.20778582990169525,0.8614535927772522,-0.4633818566799164,0.29035601019859314,-1.501289963722229,0.4903753101825714
7.420026063919067,-0.05727162957191467,0.025907397270202637,-0.12655603885650635,-1.034856156618386,-0.4324566779946046,0.4288556815719665,-0.21401451528072357,0.8597888946533203,-0.4636385440826416,0.4268719553947449,-1.3612394332885742,0.3930490016937256
7.440025091171265,-0.014140129089355469,-0.050356507301330566,-0.14662933349609375,-1.0309259680534737,-0.4381844362823537,0.4520999779961897,-0.21809880435466766,0.8577753305435181,-0.4654616713523865,0.39066845178604126,-1.229866623878479,0.48509469628334045
7.460057258605957,-0.020144641399383545,-0.0679357647895813,-0.16863131523132324,-1.0293569295272404,-0.4451630077509046,0.47076393481835793,-0.2219209522008896,0.8569677472114563,-0.4651423990726471,0.17556984722614288,-1.0585137605667114,0.296985387802124
7.480054140090942,-0.03416639566421509,-0.0740358829498291,-0.15739566087722778,-1.0291727787530836,-0.45435324696199775,0.48175064088574376,-0.22625550627708435,0.8568728566169739,-0.46322500705718994,0.10103559494018555,-0.7772623300552368,0.2403804361820221
7.500027179718018,-0.01821674406528473,-0.06500691175460815,-0.07204800844192505,-1.0290330534611623,-0.45662125172954465,0.493619182675836,-0.2273583710193634,0.8568007946014404,-0.4628182351589203,0.21100778877735138,-0.5002923011779785,0.2820054590702057
7.520069122314453,-0.047318801283836365,0.005365490913391113,-0.07235950231552124,-1.0239373876554791,-0.4537398526794412,0.5070914250960961,-0.22793465852737427,0.8541620969772339,-0.4673895835876465,0.4205548167228699,-0.2542101740837097,-0.004682281985878944
7.540022134780884,-0.13224747776985168,-0.041273653507232666,-0.048112303018569946,-1.0170959170495586,-0.4511134886598736,0.5092338963003341,-0.22924864292144775,0.8505845069885254,-0.4732346534729004,0.34341752529144287,0.18282076716423035,0.00023126776795834303
7.560026168823242,-0.040182262659072876,0.001587986946105957,-0.13179200887680054,-1.0115214064329885,-0.4438831131252124,0.5153081177985037,-0.22785380482673645,0.8476400375366211,-0.4791545867919922,0.33297932147979736,-0.0023239729925990105,-0.08938005566596985
7.579823970794678,-0.050523847341537476,0.027561664581298828,-0.0930832028388977,-1.0024355387778683,-0.4407500273632145,0.518337071322101,-0.22962768375873566,0.8427844047546387,-0.48681172728538513,0.534177839756012,0.1306430548429489,-0.11375565081834793
7.599384069442749,-0.09709678590297699,0.06116819381713867,-0.05205601453781128,-0.9899856177179845,-0.432176781546397,0.5213973888257358,-0.22982293367385864,0.8360180854797363,-0.49825215339660645,0.655866801738739,0.4488699436187744,-0.2519231140613556
7.620028018951416,-0.04816846549510956,0.027004241943359375,-0.04485917091369629,-0.9756251231747886,-0.42208688287972557,0.5223063194511551,-0.22967898845672607,0.8280525207519531,-0.5114457011222839,0.711310088634491,0.44930729269981384,-0.2872789800167084
7.640062093734741,-0.016313612461090088,0.022191345691680908,-0.05688387155532837,-0.9612016988646797,-0.4153065188111244,0.5206199920635307,-0.23100098967552185,0.8198801875114441,-0.5238654613494873,0.5549324154853821,0.37644776701927185,-0.4223679006099701
7.660083055496216,-0.07542949914932251,0.06677860021591187,-0.08208918571472168,-0.947083550718469,-0.4155986827395986,0.5119792318247398,-0.23580417037010193,0.8117156028747559,-0.5343352556228638,0.5620174407958984,0.30063751339912415,-0.5997602939605713
7.679798126220703,-0.14769624173641205,0.15873348712921143,-0.13257986307144165,-0.9296753739457815,-0.4192380783863982,0.49991029594591885,-0.24346297979354858,0.8014258146286011,-0.5462988018989563,0.7827634811401367,0.3277580738067627,-0.7688310146331787
7.700047016143799,-0.19491755962371826,0.2133001685142517,-0.12736046314239502,-0.9063598669663393,-0.4215204252623528,0.4869589112137439,-0.2522871792316437,0.7872644066810608,-0.5626419186592102,1.0216022729873657,0.47639983892440796,-0.9026536345481873
7.720052242279053,-0.15421754121780396,0.134288489818573,-0.08070504665374756,-0.8789021136560383,-0.4190578820455334,0.4760105916530011,-0.259600967168808,0.770038902759552,-0.5827927589416504,1.1485259532928467,0.6184924244880676,-0.8304789066314697
7.740036964416504,-0.08143168687820435,-0.006141722202301025,-0.03220367431640625,-0.8536046757088169,-0.41106971124684083,0.4682401099320678,-0.2626389265060425,0.7536545395851135,-0.6025161147117615,0.9411097764968872,0.768359899520874,-0.6647729873657227
7.760030269622803,-0.04046621918678284,-0.14761388301849365,0.023418068885803223,-0.8348276201531344,-0.40041174853664885,0.46094225253245674,-0.261673241853714,0.7411807775497437,-0.6182056069374084,0.5925214290618896,0.8425488471984863,-0.5100258588790894
7.779990196228027,0.02457129955291748,-0.24470967054367065,0.05753511190414429,-0.8230899423383108,-0.3880462562199806,0.4555766220235016,-0.2572832703590393,0.7332503795623779,-0.6294039487838745,0.371309369802475,0.7741919159889221,-0.31883078813552856
7.80003809928894,0.04286888241767883,-0.25491881370544434,0.13444393873214722,-0.8147805194465297,-0.3764111775662041,0.4500741416583934,-0.2521738111972809,0.7275750637054443,-0.6379991173744202,0.28956106305122375,0.8127437829971313,-0.3629775941371918
7.82003116607666,0.028502553701400757,-0.22440415620803833,0.21196675300598145,-0.8053344770920384,-0.3648261274908924,0.4421127609134246,-0.2472069412469864,0.721062421798706,-0.6472693681716919,0.4139869511127472,0.9398440718650818,-0.5311583280563354
7.839989185333252,0.008396029472351074,-0.17759054899215698,0.25283414125442505,-0.7911032332087504,-0.3540683243910245,0.42991869182317327,-0.2437629997730255,0.711129367351532,-0.6594502329826355,0.6120052337646484,0.9830337762832642,-0.7603977918624878
7.85998010635376,0.0006204843521118164,-0.07309997081756592,0.2516617774963379,-0.7728895470961993,-0.3474813860381915,0.41203851415841997,-0.24378471076488495,0.6982067823410034,-0.6731094717979431,0.6654032468795776,0.9201557636260986,-1.0843430757522583
7.880040168762207,-0.026372596621513367,0.010177373886108398,0.22799569368362427,-0.7514009548975061,-0.34743393596670674,0.38794093100321964,-0.24880456924438477,0.6826631426811218,-0.6870715618133545,0.7789698839187622,0.7408435344696045,-1.2467137575149536
7.900059223175049,-0.06471842527389526,0.1999092698097229,0.15408819913864136,-0.7262747860921378,-0.3516786751954011,0.36408662849288953,-0.2575473487377167,0.6640890836715698,-0.7018939256668091,1.0106340646743774,0.4638992249965668,-1.2946580648422241
7.920000076293945,-0.1801946461200714,0.51060950756073,0.06280064582824707,-0.691516292748606,-0.35719892649768836,0.3405662312195795,-0.26932939887046814,0.6377058625221252,-0.721659779548645,1.6698726415634155,0.6066203117370605,-1.62995183467865
7.940042972564697,-0.309415727853775,0.45923835039138794,0.08294939994812012,-0.6488859603053191,-0.35616972817285325,0.31556553451069236,-0.2778189182281494,0.6042991876602173,-0.7467523813247681,1.3801134824752808,1.0373785495758057,-1.5979955196380615
7.960031986236572,-0.18693318963050842,0.14844751358032227,0.169927716255188,-0.6269281969802872,-0.35105240106424745,0.28860176844589136,-0.2784905731678009,0.5866599082946777,-0.7604427933692932,-0.17237628996372223,0.9944822788238525,-1.1886454820632935
7.980394124984741,-0.0326460599899292,-0.10363972187042236,0.18149596452713013,-0.6396829401642015,-0.35096080749091696,0.2593414130601175,-0.27582576870918274,0.5969411134719849,-0.7533800601959229,-1.7323452234268188,0.7565589547157288,-0.5709215998649597
8.000040054321289,0.02145439386367798,-0.13041925430297852,0.1665346622467041,-0.6783247336993494,-0.35354183763228286,0.23232050835747764,-0.2695777118206024,0.6274895071983337,-0.7304688692092896,-2.494041919708252,0.6630842089653015,-0.20456911623477936
8.020034074783325,0.01902836561203003,-0.05748856067657471,0.15932446718215942,-0.7227256491018392,-0.35832533367898944,0.2049089558374072,-0.26303181052207947,0.6614313721656799,-0.7023693919181824,-2.2535548210144043,0.6453230381011963,-0.2407619208097458
8.040032148361206,0.05123499035835266,0.023259341716766357,0.14647316932678223,-0.7531702552840078,-0.361307293628546,0.18085453859640066,-0.2578849196434021,0.6839549541473389,-0.6824228763580322,-1.1231271028518677,0.6929929256439209,-0.3837595283985138
8.060091018676758,0.0759369432926178,0.08600366115570068,0.10825318098068237,-0.757949622031133,-0.3609432243764181,0.16070507076674356,-0.25647908449172974,0.6874338388442993,-0.6794506311416626,0.042774420231580734,0.7203688621520996,-0.8567302823066711
8.07968521118164,0.09189504384994507,-0.07388901710510254,0.10663902759552002,-0.7468870686714493,-0.3637196566005297,0.13666565620536641,-0.261054128408432,0.6793577671051025,-0.68580162525177,0.2284218668937683,0.6255555748939514,-1.1000514030456543
8.10004997253418,0.16432446241378784,-0.24487197399139404,0.10958027839660645,-0.7385502731638857,-0.3717311387968645,0.11049260039742122,-0.2685878872871399,0.6732166409492493,-0.6889411807060242,-0.17330317199230194,0.30921047925949097,-0.9751691818237305
8.120043277740479,0.19598016142845154,-0.28163063526153564,0.11471879482269287,-0.7401200470749417,-0.3865634345075043,0.0837521320106684,-0.27837780117988586,0.6743765473365784,-0.6839020848274231,-0.7108733057975769,0.06879148632287979,-0.840288519859314
8.14005422592163,0.1295202076435089,-0.248218834400177,0.07601553201675415,-0.751093133153007,-0.4058524835664074,0.053788757348856985,-0.28857800364494324,0.6824381947517395,-0.6715660691261292,-1.131091833114624,0.028664480894804,-0.7439138889312744
8.159983158111572,0.10244408249855042,-0.1322193145751953,-0.03880363702774048,-0.7676689655352338,-0.4270659843333955,0.024063688161276072,-0.29803141951560974,0.694459855556488,-0.6549066305160522,-1.1641929149627686,-0.11851618438959122,-0.5895093679428101
8.18006706237793,0.064840167760849,0.07596588134765625,-0.19822478294372559,-0.7791498370895621,-0.44828848145447375,-0.002483436510559622,-0.30838584899902344,0.7026747465133667,-0.6412069201469421,-0.6225652694702148,-0.09871602058410645,-0.7056442499160767
8.20003604888916,-0.02034655213356018,0.1860334277153015,-0.23730123043060303,-0.7769993653342085,-0.4652261023576618,-0.027449341791904933,-0.31987881660461426,0.7011430859565735,-0.6372409462928772,-0.09890688210725784,0.21721433103084564,-0.966927707195282
8.220034122467041,0.0060498714447021484,0.06737649440765381,-0.2505449056625366,-0.7701804811415379,-0.47456848067862933,-0.04942370997733894,-0.327995240688324,0.6962648034095764,-0.6384626030921936,-0.03739212080836296,0.2641970217227936,-0.6788490414619446
8.240044116973877,0.13557320833206177,-0.002583622932434082,-0.26091712713241577,-0.7678427119110794,-0.4824236951028273,-0.06583521015304214,-0.3337545096874237,0.6945849061012268,-0.6373066306114197,-0.2674039304256439,0.09901534020900726,-0.49946755170822144
8.260079145431519,0.14547061920166016,-0.04888945817947388,-0.30761396884918213,-0.7692159250018032,-0.4904156895423199,-0.07855070701795347,-0.3383876383304596,0.6955721378326416,-0.6337770223617554,-0.2554541528224945,0.018116232007741928,-0.20852796733379364
8.280040264129639,0.13262218236923218,-0.03752356767654419,-0.31074100732803345,-0.7730486254545095,-0.4939573267429388,-0.08421303830251724,-0.339363694190979,0.6983206272125244,-0.630222737789154,-0.26044678688049316,0.022828606888651848,-0.010844393633306026
8.300065040588379,0.13869169354438782,-0.02147907018661499,-0.3403896689414978,-0.7769465730075472,-0.4945290460237155,-0.08455171191353542,-0.33842936158180237,0.7011054158210754,-0.6276277899742126,-0.06455454975366592,-0.053936656564474106,0.160440132021904
