timestamp,acceleration_x,acceleration_y,acceleration_z,attitude_pitch,attitude_roll,attitude_yaw,gravity_x,gravity_y,gravity_z,rotation_x,rotation_y,rotation_z
0.0,0.17159098386764526,0.2719417214393616,-0.009974591434001923,-0.20191585422452638,-1.637362642998541,0.08099278465645664,-0.9775146245956421,0.20054663717746735,0.06516582518815994,1.5097142457962036,-0.6085173487663269,-0.5262922048568726
0.01885390281677246,0.1107599139213562,0.292167991399765,-0.013342618942260742,-0.19356601541930313,-1.6425151643236922,0.1131095111675715,-0.9788019061088562,0.19235952198505402,0.07031913846731186,1.5928254127502441,-0.5202724933624268,-0.5095337629318237
0.03885078430175781,0.06478136777877808,0.3080689311027527,0.0005735158920288086,-0.1867431550387462,-1.6445537890822366,0.14643030151660674,-0.9799425601959229,0.18565966188907623,0.07240942865610123,1.6025809049606323,-0.3006637990474701,-0.4046112596988678
0.058400869369506836,0.06632792949676514,0.26725679636001587,0.015270233154296875,-0.18246924437676096,-1.6432632910995502,0.17677900959960935,-0.9808176755905151,0.18145836889743805,0.07120156288146973,1.2828171253204346,-0.1526007354259491,-0.251020610332489
0.07899999618530273,0.0637161135673523,0.1991577297449112,0.04086564481258392,-0.180513561037936,-1.6417999824859635,0.19760131204044426,-0.9812727570533752,0.17953480780124664,0.0697912722826004,0.7627106308937073,-0.08496354520320892,-0.08599817007780075
0.09927892684936523,0.017019987106323242,0.1486472189426422,0.054971449077129364,-0.1820688653508944,-1.6397914892744636,0.20846728903243594,-0.9811311960220337,0.181064635515213,0.06780092418193817,0.3594757318496704,0.10686741024255753,0.16055384278297424
0.12048768997192383,-0.019915282726287842,0.12295794486999512,0.06577193737030029,-0.18780595531536967,-1.6347938356707963,0.21229658070704321,-0.9804051518440247,0.1867038756608963,0.06282928586006165,0.05603058636188507,0.30948176980018616,0.3679521977901459
0.13932371139526367,-0.024358510971069336,0.10911953449249268,0.04233347252011299,-0.1958563562329937,-1.628879165100935,0.2116817452238885,-0.9792271256446838,0.19460658729076385,0.056940339505672455,0.004573039710521698,0.26688718795776367,0.4156588315963745
0.1590728759765625,-0.054987967014312744,0.12689439952373505,0.021347403526306152,-0.20473300296814434,-1.6240572163265978,0.213727087217389,-0.9777268767356873,0.20330575108528137,0.05212390050292015,0.264420747756958,0.20181432366371155,0.46564188599586487
0.1800708770751953,-0.08117663860321045,0.10439446568489075,0.02984463796019554,-0.21538207287741962,-1.6174867490858778,0.22218101778600705,-0.9758301377296448,0.21372069418430328,0.04559505730867386,0.5973950624465942,0.2896900475025177,0.5455944538116455
0.19903278350830078,-0.05188632011413574,0.03888751566410065,0.05044054612517357,-0.22697220927933387,-1.608160531739917,0.23606683715126944,-0.973672091960907,0.22502842545509338,0.03639742359519005,0.83266282081604,0.3188203275203705,0.530083954334259
0.2185196876525879,-0.0031227469444274902,-0.029252484440803528,0.047428373247385025,-0.23838246320128129,-1.5984642524313468,0.25499131514920137,-0.9713494181632996,0.23613114655017853,0.02688208408653736,1.0646634101867676,0.19804063439369202,0.533806324005127
0.24077081680297852,-0.018921971321105957,-0.060230836272239685,0.026511430740356445,-0.2479126358099733,-1.5889071599784905,0.28189307401748986,-0.969267725944519,0.2453809529542923,0.017556166276335716,1.6104143857955933,0.14864370226860046,0.3299154043197632
0.2588376998901367,-0.030333340167999268,-0.07978755235671997,0.018796682357788086,-0.25406659645884394,-1.5767105597108244,0.31852681433572216,-0.967881441116333,0.2513420879840851,0.005724343005567789,1.8732013702392578,0.1252376288175583,0.2514761984348297
0.2788200378417969,-0.010952889919281006,-0.1383228600025177,0.042877376079559326,-0.25744442525595423,-1.5652106205254417,0.3588808213843744,-0.9670286774635315,0.2546100318431854,-0.00540159409865737,2.0149543285369873,0.04282362014055252,0.08951275795698166
0.2988908290863037,0.05245703458786011,-0.1659020185470581,0.0986449122428894,-0.25836652060097165,-1.5549533953109527,0.3974334654703013,-0.9666875004768372,0.2555016279220581,-0.015316445380449295,1.6325634717941284,-0.019901013001799583,0.041157107800245285
0.3179748058319092,0.05985528230667114,-0.2075791358947754,0.11529570817947388,-0.25881395821185993,-1.5493276743560274,0.4228120937288099,-0.9664714336395264,0.2559341788291931,-0.02075202763080597,0.7757476568222046,-0.04677816852927208,0.052474744617938995
0.33893489837646484,0.01408994197845459,-0.1805887222290039,0.1022491455078125,-0.2599688812327528,-1.5473156285200909,0.4305082070574963,-0.9661315083503723,0.257050484418869,-0.022689612582325935,-0.01818259432911873,0.06257886439561844,0.09101039171218872
0.358353853225708,-0.010640144348144531,-0.10765501856803894,0.10980653762817383,-0.2629418731570275,-1.5457750604688365,0.42398326601458264,-0.965327262878418,0.25992244482040405,-0.024158751592040062,-0.5589244961738586,0.2749623954296112,0.17279024422168732
0.3788738250732422,0.002754390239715576,-0.05525466799736023,0.1172342300415039,-0.26654476463690857,-1.5420039805277792,0.40987825011821855,-0.9642870426177979,0.26339980959892273,-0.027771761640906334,-0.7930301427841187,0.44101646542549133,0.13732755184173584
0.398892879486084,0.016155719757080078,-0.014524787664413452,0.1191893219947815,-0.26915123506132077,-1.5386082706671917,0.3917265691001482,-0.9634976983070374,0.26591333746910095,-0.03102383203804493,-0.9577997922897339,0.36013180017471313,0.058734238147735596
0.41887474060058594,-0.06401616334915161,0.03962975740432739,0.11141449213027954,-0.2697199731238667,-1.5370593336860947,0.37200978609794516,-0.9632971286773682,0.2664615511894226,-0.03251108527183533,-0.8701657056808472,0.36745381355285645,-0.06079405918717384
0.4388768672943115,-0.15162551403045654,0.09484735131263733,0.10926532745361328,-0.26953414520038455,-1.5307063561317449,0.35807413025867274,-0.9631207585334778,0.26628243923187256,-0.03863218054175377,-0.5046350955963135,0.659484326839447,0.03982611745595932
0.4588909149169922,-0.11187046766281128,0.1338593065738678,0.10609221458435059,-0.27178766714105307,-1.5177248630050906,0.34852496621460466,-0.961936354637146,0.2684539258480072,-0.05109935626387596,-0.4389590919017792,0.8659422397613525,0.08482912927865982
0.4788837432861328,0.05106610059738159,0.061691462993621826,0.09971362352371216,-0.2737142263562296,-1.5028348714841036,0.3407521802313037,-0.9605510234832764,0.2703092396259308,-0.06538113206624985,-0.32834744453430176,0.807571291923523,0.12481379508972168
0.49887800216674805,0.15360558032989502,0.04577335715293884,0.05460560321807861,-0.2800309918290414,-1.491587322114183,0.33362030331058234,-0.9580337405204773,0.27638542652130127,-0.076044000685215,-0.40837010741233826,0.4987516701221466,0.4258580505847931
0.5188789367675781,0.11808228492736816,0.09432786703109741,0.013275809586048126,-0.28948985752770084,-1.4853058887832669,0.32731362095737243,-0.9548894762992859,0.2854633331298828,-0.0818333774805069,-0.213770791888237,0.3480934500694275,0.4238305985927582
0.5389080047607422,0.06849771738052368,0.12193313241004944,-0.02343689650297165,-0.29733015122875567,-1.4794309949351172,0.3269783181801262,-0.9521341323852539,0.2929685413837433,-0.08723492175340652,0.1148528978228569,0.2471553534269333,0.36767199635505676
0.5588827133178711,0.06411874294281006,0.06794139742851257,0.019941575825214386,-0.3044941378208271,-1.4737509724393096,0.3327733111766306,-0.9495099782943726,0.29981061816215515,-0.09243589639663696,0.34628236293792725,0.17235107719898224,0.41207757592201233
0.5788748264312744,0.03533977270126343,0.013382554054260254,0.083835668861866,-0.3134248586930871,-1.4671959196381343,0.3412167662164153,-0.9461826682090759,0.30831843614578247,-0.09837712347507477,0.311911940574646,0.2640098035335541,0.5590412616729736
0.5988759994506836,-0.0619734525680542,0.048906415700912476,0.04908043146133423,-0.32496211769418926,-1.4583073143697662,0.3467727410303834,-0.9416734576225281,0.31927287578582764,-0.10637698322534561,0.0872916504740715,0.4388469457626343,0.6270601749420166
0.618884801864624,-0.11611396074295044,0.07241472601890564,-0.01001441478729248,-0.3371336770278521,-1.4464652130467464,0.3488602021085528,-0.9364221096038818,0.330783486366272,-0.11703004688024521,0.0381864458322525,0.6898802518844604,0.6227785348892212
0.6387157440185547,-0.012927114963531494,0.003894597291946411,-0.008489668369293213,-0.3537647979002967,-1.4306350111465418,0.35032811472859776,-0.9288759231567383,0.3464319109916687,-0.13105177879333496,-0.31040555238723755,0.8226644396781921,1.0309873819351196
0.658909797668457,0.04427701234817505,-0.043540120124816895,0.002824947237968445,-0.37576116808687204,-1.4174135583158547,0.34289976531237226,-0.9193077087402344,0.3669807016849518,-0.14212225377559662,-0.5965763926506042,0.7266595959663391,1.0533491373062134
0.6781959533691406,-0.02316516637802124,0.06277894973754883,0.01184903085231781,-0.40309665976361736,-1.4111610841477689,0.33000620099714717,-0.9081552028656006,0.39226868748664856,-0.1462177336215973,-0.9546857476234436,0.4344017803668976,1.449009656906128
0.6988768577575684,-0.2595157027244568,0.19559752941131592,-0.027954980731010437,-0.4319863491978237,-1.4055007001964215,0.3161871896165745,-0.895757794380188,0.4186755120754242,-0.14942824840545654,-0.709784746170044,0.7723197937011719,1.1502991914749146
0.7188749313354492,-0.25982242822647095,0.1496158242225647,0.046673670411109924,-0.4570423683615022,-1.3898429492743558,0.30636802779902605,-0.8827099800109863,0.4412959814071655,-0.1614958941936493,-0.6270527243614197,1.2126877307891846,1.2514039278030396
0.7389569282531738,-0.07657778263092041,-0.07169175148010254,0.07663869857788086,-0.48648319792458466,-1.3686799863141574,0.294811751685852,-0.8659882545471191,0.46751999855041504,-0.17745335400104523,-1.0547858476638794,1.3920550346374512,1.3498767614364624
0.7588798999786377,0.027529895305633545,-0.16665738821029663,0.03081721067428589,-0.5171805888993317,-1.352915232818446,0.2719927591360428,-0.8486664295196533,0.49443143606185913,-0.18789102137088776,-1.451866626739502,1.2467727661132812,1.1858782768249512
0.7789030075073242,0.06264293193817139,-0.14007174968719482,-0.04898492991924286,-0.5440490303166742,-1.3458646590808965,0.24534670065637432,-0.8340662717819214,0.517604649066925,-0.19083724915981293,-1.155562400817871,0.8698163628578186,0.9889213442802429
0.7988739013671875,0.04072368144989014,-0.05526256561279297,-0.11900120973587036,-0.5675254785289962,-1.3397630099402182,0.2307754427599109,-0.8208293914794922,0.5375471115112305,-0.193086639046669,-0.655805766582489,0.4973554313182831,0.9415826797485352
0.8188738822937012,-0.019216954708099365,0.08173006772994995,-0.1541217416524887,-0.584886416605056,-1.332456723472889,0.22793918954524758,-0.8102051019668579,0.5521047115325928,-0.19684547185897827,-0.01984459161758423,0.4178773760795593,0.7567538022994995
0.8388757705688477,0.029886364936828613,0.03617727756500244,-0.07217830419540405,-0.5985157205511614,-1.3211535998228054,0.23506008149165344,-0.8005620837211609,0.5634168386459351,-0.20411242544651031,0.21989645063877106,0.38119450211524963,0.752082884311676
0.8590049743652344,0.109646737575531,-0.02739626169204712,-0.036821410059928894,-0.6121423980928141,-1.3092503564520424,0.24219148351371,-0.7905855178833008,0.5746221542358398,-0.21162202954292297,0.09012250602245331,0.3381101191043854,0.6294894814491272
0.8789267539978027,0.16262733936309814,0.0027680397033691406,-0.04086105525493622,-0.6242598924379795,-1.3014888853383275,0.24889820358133521,-0.7821494340896606,0.5844969153404236,-0.21588315069675446,0.061378851532936096,0.06258862465620041,0.7295238971710205
0.8988308906555176,0.11750644445419312,0.003998935222625732,-0.06445102393627167,-0.6366392628455879,-1.2965393487786196,0.2556162127798141,-0.7740463614463806,0.5944964289665222,-0.21777532994747162,0.1897253692150116,0.03883446753025055,0.6338685154914856
0.9188778400421143,0.12292307615280151,0.019149303436279297,-0.07651810348033905,-0.6473103009147257,-1.2939436134243407,0.2638264789401374,-0.7673323154449463,0.6030430197715759,-0.21803738176822662,0.2954934537410736,-0.2503965198993683,0.5216947197914124
0.9388768672943115,0.16878128051757812,0.058889687061309814,-0.08210520446300507,-0.6540333194002196,-1.2890674375825342,0.2828467112880132,-0.7623482346534729,0.6083923578262329,-0.22064423561096191,0.9597998261451721,-0.45607104897499084,0.5845324993133545
0.9589288234710693,0.07339984178543091,0.13745015859603882,-0.09071540832519531,-0.6592631372820701,-1.2783011000633855,0.3154892019431863,-0.7568716406822205,0.6125345826148987,-0.22791844606399536,1.355432391166687,-0.43991291522979736,0.6101369261741638
0.978895902633667,0.03751480579376221,0.09014153480529785,-0.10892724990844727,-0.6628667874101725,-1.2663253738803428,0.3520730569278745,-0.7519772052764893,0.6153790950775146,-0.2363027036190033,1.220015525817871,-0.6200069189071655,0.6127469539642334
0.9988918304443359,0.06034243106842041,0.0031212568283081055,-0.07431593537330627,-0.6689590174465057,-1.2606883624956378,0.38256974200876886,-0.7470489740371704,0.6201696991920471,-0.23938927054405212,0.8980660438537598,-0.6527423858642578,0.7115175127983093
1.0188779830932617,0.009023070335388184,0.03466928005218506,-0.06771320104598999,-0.6785552759045133,-1.2571366604961163,0.4067726392370381,-0.740498960018158,0.6276689767837524,-0.24019375443458557,0.6489051580429077,-0.5244423151016235,0.7173570394515991
1.038874864578247,0.02215886116027832,0.024287700653076172,-0.10227589309215546,-0.687908154214522,-1.2552821466849513,0.42728076674484317,-0.7344391942024231,0.634922444820404,-0.23973439633846283,0.6151756048202515,-0.6046128273010254,0.6915940046310425
1.0589218139648438,0.029080450534820557,0.008331656455993652,-0.08565616607666016,-0.696942135982415,-1.2523402606418774,0.4505525168778752,-0.7282534837722778,0.6418759226799011,-0.24008826911449432,0.8164072632789612,-0.5533304810523987,0.7321848273277283
1.0788729190826416,-0.007614552974700928,-0.005899786949157715,-0.07733219861984253,-0.7047016398197697,-1.2441631930699084,0.47928092986654397,-0.7215267419815063,0.6478065848350525,-0.24442967772483826,1.05283784866333,-0.47048336267471313,0.7128450274467468
1.0989139080047607,-0.0056591033935546875,-4.398822784423828e-05,-0.06744006276130676,-0.7116571294545404,-1.2296514391501998,0.5136889840646958,-0.7136402130126953,0.6530895829200745,-0.2533605098724365,1.1716787815093994,-0.35893988609313965,0.7723494172096252
1.1189727783203125,-0.016033709049224854,0.0032088160514831543,-0.05264046788215637,-0.7182613729680571,-1.2127004755082627,0.5502565691982032,-0.7051882147789001,0.6580765843391418,-0.2639029324054718,1.2087655067443848,-0.2906372547149658,0.8153073191642761
1.138895034790039,-0.04069697856903076,0.0006120204925537109,-0.042626917362213135,-0.726420720331837,-1.193162391441796,0.5861004183172556,-0.6948835253715515,0.6641981601715088,-0.27564069628715515,0.9562122821807861,-0.17448782920837402,0.8712372183799744
1.1589107513427734,0.010358572006225586,-0.044581592082977295,-0.010509312152862549,-0.7363399379049708,-1.1772048913910516,0.6153903943799334,-0.6842783093452454,0.6715805530548096,-0.284153014421463,0.704463005065918,-0.16184784471988678,0.8920212388038635
1.1788749694824219,-0.0017693638801574707,-0.04720306396484375,-0.008294552564620972,-0.7475132736274727,-1.1614524049775796,0.6414928928875989,-0.6727911829948425,0.6798171401023865,-0.2918913960456848,0.7267982959747314,-0.033860769122838974,0.910309910774231
1.1988739967346191,0.008070588111877441,0.025532841682434082,-0.07712426781654358,-0.7565223770119764,-1.1382860943608655,0.6755648519634655,-0.660261869430542,0.686396598815918,-0.3048183023929596,1.2194180488586426,-0.030557386577129364,0.906143069267273
1.218918800354004,0.03511607646942139,0.03475213050842285,-0.08040651679039001,-0.7606175613640674,-1.1062767742132704,0.723271453303368,-0.6476496458053589,0.6893689632415771,-0.32453104853630066,1.650342345237732,-0.07013053447008133,0.9626073837280273
1.238900899887085,0.027622461318969727,-0.0006676316261291504,-0.04455605149269104,-0.7624997848017295,-1.0725493472354881,0.775719824522247,-0.6351970434188843,0.6907312273979187,-0.3455652594566345,1.5278441905975342,-0.13755707442760468,0.9725022315979004
1.2589998245239258,0.023722529411315918,-0.07483077049255371,0.03250700235366821,-0.7669692263938351,-1.0456101506901132,0.8177796883188663,-0.6229810118675232,0.693956196308136,-0.3609980344772339,0.8709957003593445,-0.08536142110824585,0.9029015302658081
1.2788457870483398,0.04393702745437622,-0.11468005180358887,0.017655372619628906,-0.7764765865288685,-1.028777993063882,0.8437201629931316,-0.611136794090271,0.7007701992988586,-0.3680122196674347,0.29843711853027344,-0.05408623814582825,0.8675001263618469
1.2993028163909912,0.028868257999420166,-0.056656837463378906,-0.033902913331985474,-0.788880895773852,-1.0184372139578033,0.8594929052494086,-0.5998521447181702,0.7095651626586914,-0.3697223663330078,0.060419049113988876,-0.046600621193647385,0.7731593251228333
1.3188958168029785,0.024633824825286865,-0.05613124370574951,-0.07477763295173645,-0.8003497834295801,-1.0108874817489215,0.8726707418756801,-0.5901092886924744,0.7175997495651245,-0.3698938190937042,0.1747359335422516,-0.13920539617538452,0.710138738155365
1.3388400077819824,0.0067231059074401855,-0.03131502866744995,-0.07274258136749268,-0.8086594648355273,-1.0019487947313366,0.8898915001854489,-0.581735372543335,0.7233622074127197,-0.3719289004802704,0.3784128427505493,-0.20927982032299042,0.6207582354545593
1.3588438034057617,-0.014228582382202148,-0.05642515420913696,-0.028399527072906494,-0.8136807142114912,-0.9925703231018602,0.9089580091829008,-0.5751727819442749,0.7268201112747192,-0.37537840008735657,0.4083859324455261,-0.22554878890514374,0.5059297680854797
1.378856897354126,-0.0724557638168335,-0.04682415723800659,-0.012699097394943237,-0.816835967181454,-0.9864837689058291,0.9233229249332061,-0.570961594581604,0.7289835810661316,-0.37760525941848755,0.22119766473770142,-0.22704344987869263,0.29687225818634033
1.3988800048828125,-0.10500109195709229,-0.01899796724319458,-0.03488117456436157,-0.8188752932619402,-0.9855710495301186,0.9305073932560711,-0.5693764090538025,0.7303780913352966,-0.3773043155670166,0.10411818325519562,-0.1882839798927307,0.17258788645267487
1.4188768863677979,-0.0999460220336914,0.031960368156433105,-0.08481746912002563,-0.8206953444458507,-0.9855296579447322,0.9350087774756952,-0.5682516694068909,0.7316200137138367,-0.37659284472465515,0.060035403817892075,-0.14472904801368713,0.17150983214378357
1.4388747215270996,-0.05193907022476196,0.018885314464569092,-0.07062894105911255,-0.823764345885774,-0.9833386968450439,0.9403025163282739,-0.5655536651611328,0.7337087392807007,-0.376590758562088,0.05718347802758217,-0.024699587374925613,0.29065415263175964
1.4588758945465088,-0.004444420337677002,-0.04532575607299805,-0.02094823122024536,-0.8293536966282314,-0.977893962105739,0.9468094120168716,-0.5600850582122803,0.7374950647354126,-0.3773670196533203,-0.011672230437397957,0.07478360086679459,0.40919557213783264
1.478874683380127,0.029203295707702637,-0.1173715591430664,0.01672184467315674,-0.8370588430675697,-0.9712417621484399,0.9532179109513392,-0.5528544783592224,0.7426767945289612,-0.3778667151927948,-0.04388946294784546,0.10047546774148941,0.45589756965637207
1.4989278316497803,0.017906010150909424,-0.13771957159042358,0.04193645715713501,-0.8444612507130552,-0.9641154550686996,0.9604773959575976,-0.5456160306930542,0.7476134300231934,-0.3786519765853882,0.02370602637529373,0.05497713387012482,0.41565391421318054
1.518873691558838,-0.0073128342628479,-0.1354200839996338,0.04403501749038696,-0.8492831521162008,-0.958014277142872,0.968443188604079,-0.5403404235839844,0.7508071064949036,-0.37989604473114014,0.13789670169353485,-0.05904131382703781,0.28281089663505554
1.5388789176940918,-0.061448633670806885,-0.10075461864471436,0.04702448844909668,-0.8490328892271177,-0.9534947287119689,0.9777240129246062,-0.5387711524963379,0.7506417632102966,-0.38244301080703735,0.42504748702049255,-0.1587561070919037,0.06159686669707298
1.5588760375976562,-0.13493990898132324,-0.06188821792602539,0.06493687629699707,-0.8422656375817369,-0.945580848947104,0.9921989909114898,-0.5398343205451965,0.7461534142494202,-0.38965895771980286,0.6927791833877563,-0.1347031444311142,-0.06890793889760971
1.5788869857788086,-0.1335713267326355,-0.02488797903060913,0.09851175546646118,-0.8318103938540258,-0.9381134987199763,1.0061884813666373,-0.5431712865829468,0.7391519546508789,-0.39827048778533936,0.6427969336509705,-0.14288632571697235,-0.19888806343078613
1.598874807357788,-0.14435619115829468,0.006886541843414307,0.11591434478759766,-0.8227622481192071,-0.9340351085695794,1.0146939499350256,-0.5468975305557251,0.7330275177955627,-0.40444260835647583,0.3374590277671814,-0.08090932667255402,-0.19070377945899963
1.6188750267028809,-0.13719886541366577,0.07952690124511719,0.08574092388153076,-0.8170468439089372,-0.9348187602144388,1.0159834293587389,-0.550575852394104,0.7291279435157776,-0.40649574995040894,0.12045678496360779,-0.09712691605091095,-0.21123257279396057
1.6389598846435547,-0.16017305850982666,0.1270279884338379,0.07472041249275208,-0.8125530269431979,-0.9371753936801859,1.0147661721645895,-0.5541671514511108,0.7260451316833496,-0.40713292360305786,0.08154229819774628,-0.0522470586001873,-0.17087601125240326
1.6589179039001465,-0.10669994354248047,0.08203959465026855,0.07913941144943237,-0.8101455210312617,-0.9383050350201169,1.0149449839650357,-0.5560351014137268,0.724387526512146,-0.40753889083862305,0.08215205371379852,-0.08864971995353699,-0.05265318602323532
1.678919792175293,-0.0647459626197815,0.09275013208389282,0.10626214742660522,-0.8079142046745919,-0.9384976084257095,1.0172473718909554,-0.5574160218238831,0.7228474617004395,-0.4083860218524933,0.16610842943191528,-0.10671962052583694,-0.019058868288993835
1.6989259719848633,-0.020753145217895508,0.01525115966796875,0.14747345447540283,-0.8056419378506832,-0.9370965027732748,1.0222419063964694,-0.558165431022644,0.7212754487991333,-0.4101381301879883,0.23844529688358307,-0.1077837347984314,0.03386715054512024
1.718871831893921,-0.002642393112182617,-0.0005565285682678223,0.15703284740447998,-0.8034188473923115,-0.934958533765237,1.0282539856612143,-0.5585759282112122,0.7197338342666626,-0.41228169202804565,0.21772339940071106,-0.14532533288002014,0.04691198095679283
1.738844871520996,0.035451650619506836,-0.010040998458862305,0.1573193073272705,-0.8019819993599147,-0.9344796487179542,1.034089582659887,-0.5592096447944641,0.7187355756759644,-0.4131632447242737,0.20501890778541565,-0.21377693116664886,0.08570267260074615
1.7588410377502441,0.05721867084503174,0.0036537647247314453,0.14714613556861877,-0.8016417806641967,-0.9356855156044979,1.0404101464789086,-0.5599042177200317,0.718498945236206,-0.41263362765312195,0.2328462451696396,-0.31680911779403687,0.13543887436389923
1.7780389785766602,0.060281455516815186,0.028565943241119385,0.14527356624603271,-0.8019568301882948,-0.9391955929282767,1.0460431586146837,-0.561166524887085,0.7187180519104004,-0.4105321764945984,0.10306416451931,-0.40607452392578125,0.12054023146629333
1.7989099025726318,0.07345634698867798,0.0300978422164917,0.14533385634422302,-0.8043211418869773,-0.9458363404814568,1.049181290812585,-0.562500536441803,0.7203599810600281,-0.4058011770248413,-0.055047132074832916,-0.4791563153266907,0.19964471459388733
1.8191699981689453,0.06296861171722412,0.10793554782867432,0.11682862043380737,-0.8080646506370832,-0.9546194484637068,1.0512029765596747,-0.5638384222984314,0.7229514122009277,-0.39928388595581055,-0.017320886254310608,-0.5489953756332397,0.20090843737125397
1.8380279541015625,0.09116107225418091,0.14466220140457153,0.126994788646698,-0.81136292098515,-0.9632370177614481,1.0549142011951207,-0.565297544002533,0.7252262234687805,-0.39304691553115845,0.009376876056194305,-0.582614541053772,0.20889253914356232
1.8588767051696777,0.12816274166107178,0.13727718591690063,0.12236058712005615,-0.8153378824149525,-0.9727108250542323,1.058114567167384,-0.5666089057922363,0.7279573082923889,-0.3860476016998291,-0.06229185312986374,-0.6046699285507202,0.25757497549057007
1.8789558410644531,0.1932479739189148,0.1485937237739563,0.11086171865463257,-0.8203667291921484,-0.9837750788230413,1.0607378353799304,-0.5677902102470398,0.731395959854126,-0.37772250175476074,-0.020763982087373734,-0.6884461641311646,0.26336297392845154
1.8985998630523682,0.23550236225128174,0.18223589658737183,0.07955950498580933,-0.8240036693820395,-0.9932341260149421,1.0674357318418464,-0.569105327129364,0.733871340751648,-0.370880126953125,0.23613134026527405,-0.766994833946228,0.2795979380607605
1.9189558029174805,0.28182411193847656,0.19540858268737793,0.04282248020172119,-0.8238176420618945,-0.9985722853193812,1.0825934259456271,-0.5711917877197266,0.7337449789047241,-0.36791080236434937,0.6352072954177856,-0.8771085143089294,0.28513485193252563
1.9388759136199951,0.2981765866279602,0.14818519353866577,0.03679537773132324,-0.8213691349677024,-1.0000549939243515,1.1053154811408532,-0.5732467770576477,0.7320792078971863,-0.3680330216884613,0.724183201789856,-0.9436191916465759,0.3296682834625244
1.9588978290557861,0.31959056854248047,0.10157310962677002,0.07586562633514404,-0.8196408272318487,-1.0046513684869534,1.1253904822061684,-0.5759993195533752,0.730900764465332,-0.3660723865032196,0.5136499404907227,-0.9778391718864441,0.2498166859149933
1.978907823562622,0.31914693117141724,0.12252175807952881,0.059249937534332275,-0.819330323483725,-1.0149171028336719,1.1382564066124552,-0.579919695854187,0.7306888103485107,-0.36025989055633545,0.2814851403236389,-1.0013853311538696,0.18544749915599823
1.9988789558410645,0.3136388659477234,0.1303580403327942,0.03433847427368164,-0.8197202499494979,-1.0265035887238507,1.1493604508625008,-0.5838109850883484,0.7309549450874329,-0.3533690571784973,0.4093785881996155,-0.9586322903633118,0.28403136134147644
2.018984794616699,0.28459686040878296,0.14194858074188232,0.03301215171813965,-0.8216093015789144,-1.0311593408701851,1.1681246255241875,-0.5842642188072205,0.73224276304245,-0.3499370515346527,0.5384067893028259,-0.9007776379585266,0.5049463510513306
2.0384340286254883,0.29259997606277466,0.09547275304794312,0.07840412855148315,-0.8246128952779569,-1.0356082907387745,1.186802554154537,-0.5839208364486694,0.7342850565910339,-0.3462109863758087,0.38291049003601074,-0.915606677532196,0.38727647066116333
2.058928966522217,0.30993664264678955,0.043025314807891846,0.1084851622581482,-0.8267550614459905,-1.0436559925566924,1.199921053724786,-0.5853272676467896,0.7357375621795654,-0.34070849418640137,0.32248327136039734,-0.8488113284111023,0.2360779196023941
2.07887601852417,0.3111191987991333,0.056425631046295166,0.11127448081970215,-0.8251523430567564,-1.0529745052636024,1.2091494060615111,-0.5895005464553833,0.7346511483192444,-0.3358226418495178,0.2761119306087494,-0.7694267630577087,-0.09540379047393799
2.0988729000091553,0.3320332169532776,-0.1011507511138916,0.07818514108657837,-0.8212230952276979,-1.0690626366778082,1.2086972376009637,-0.5973530411720276,0.7319797277450562,-0.32768145203590393,-0.19531093537807465,-0.8109437227249146,-0.22694653272628784
2.118889808654785,0.3405454158782959,-0.2227344512939453,0.10414737462997437,-0.8200169772948022,-1.0976280707307935,1.1925303393076747,-0.6072537899017334,0.7311574220657349,-0.31088849902153015,-0.7243940234184265,-0.8669003248214722,-0.377345472574234
2.138896942138672,0.29625850915908813,-0.15701144933700562,0.12982839345932007,-0.8179342328119534,-1.1344062745917585,1.164850531160926,-0.6196532845497131,0.7297349572181702,-0.28899261355400085,-0.7210375070571899,-0.7544453144073486,-0.6597733497619629
2.1588759422302246,0.29211491346359253,-0.10924845933914185,0.09027212858200073,-0.8082274126953106,-1.1642474747142737,1.1441227355136205,-0.634476363658905,0.7230638265609741,-0.2731637954711914,-0.16361123323440552,-0.7559513449668884,-0.7992652654647827
2.1788787841796875,0.3112258315086365,-0.14627206325531006,0.1279839277267456,-0.7908106796145127,-1.186540045404498,1.1368621583242675,-0.6519851088523865,0.7109236121177673,-0.2636343836784363,0.32110583782196045,-0.9420207142829895,-1.0659760236740112
2.198936939239502,0.26443958282470703,-0.13711947202682495,0.11525619029998779,-0.7643690327661938,-1.2044634960501137,1.1370372713631198,-0.673924446105957,0.6920816898345947,-0.25855129957199097,0.5601129531860352,-0.8807547688484192,-1.332207202911377
2.218935012817383,0.30292320251464844,-0.2976628541946411,0.1656624674797058,-0.7350625145822725,-1.2231329265402677,1.1342658529571956,-0.6974086761474609,0.6706335544586182,-0.2527289092540741,0.2437722235918045,-0.8258768916130066,-1.4965072870254517
2.2388739585876465,0.3116989731788635,-0.46448445320129395,0.15826107561588287,-0.7075454553061497,-1.2484498701563456,1.1241058941881432,-0.7208175659179688,0.6499703526496887,-0.24074988067150116,-0.014335457235574722,-1.0781275033950806,-1.3448123931884766
2.258875846862793,0.17400461435317993,-0.2864137291908264,0.07398688793182373,-0.6814105286963233,-1.27834367852763,1.1134361731901605,-0.7437067627906799,0.629889190196991,-0.2239195555448532,0.11074817180633545,-1.176270604133606,-1.428895354270935
2.278903007507324,0.0991736650466919,-0.17926692962646484,0.11598367989063263,-0.6525314655668498,-1.3012552352353355,1.1108259106050973,-0.7658606171607971,0.6071997284889221,-0.211579829454422,0.44723987579345703,-0.9389334321022034,-1.4347853660583496
2.298874855041504,0.052817583084106445,-0.24764323234558105,0.11929118633270264,-0.6202406160763662,-1.3171948781574614,1.1137953661288502,-0.7877113819122314,0.5812309980392456,-0.2041603922843933,0.6270742416381836,-0.9141454100608826,-1.622944951057434
2.318875789642334,0.02044457197189331,-0.19446134567260742,0.04233570396900177,-0.5837611563973676,-1.3329002824005178,1.1215920368544616,-0.810895562171936,0.5511661171913147,-0.19663235545158386,0.9247142672538757,-1.1462167501449585,-1.7808536291122437
2.3388779163360596,-0.028572678565979004,-0.12270647287368774,-0.012691125273704529,-0.5441017583478994,-1.3504552087322754,1.1372535660956833,-0.8349068760871887,0.51764976978302,-0.18700046837329865,1.250062108039856,-1.4809508323669434,-1.8062952756881714
2.358930826187134,-0.0026723146438598633,-0.11324834823608398,-0.026462078094482422,-0.5026137374695944,-1.3718266037782036,1.1595620578364223,-0.8590372800827026,0.48171767592430115,-0.17321425676345825,1.4880735874176025,-1.7574265003204346,-1.7559289932250977
2.3788979053497314,-0.010893642902374268,-0.15498793125152588,0.14769518375396729,-0.46285799943451045,-1.3952492877563751,1.1862343950130632,-0.8810283541679382,0.44650721549987793,-0.15627047419548035,1.8336143493652344,-1.8209441900253296,-1.8084681034088135
2.3988828659057617,-0.14019852876663208,-0.016818314790725708,-0.037824928760528564,-0.4221270692129835,-1.4164945743240427,1.221115053889297,-0.9013816714286804,0.40970173478126526,-0.140199214220047,1.6626574993133545,-1.951521396636963,-1.974821925163269
2.418874740600586,-0.1861104965209961,-0.2326967418193817,0.09937304258346558,-0.37726374327248813,-1.433638065617731,1.2583853932793194,-0.9209451675415039,0.36837801337242126,-0.12711334228515625,2.2892699241638184,-1.2658835649490356,-1.7115117311477661
2.4388747215270996,-0.1758677363395691,-0.15050539374351501,0.22816705703735352,-0.34379181366561073,-1.4424211610745836,1.296905781812682,-0.9337361454963684,0.3370594382286072,-0.12053138762712479,1.8525058031082153,-0.9044240117073059,-1.3442224264144897
2.4589200019836426,-0.16843777894973755,-0.05306875705718994,0.1861555576324463,-0.31204512056824835,-1.4443615905354126,1.3337779255898141,-0.9441110491752625,0.3070056438446045,-0.12000858783721924,2.0924220085144043,-0.6117355823516846,-1.2818849086761475
2.4788758754730225,-0.20398789644241333,0.05464673042297363,0.1015167236328125,-0.283183855438376,-1.4436058789658655,1.3795684404888584,-0.9524146914482117,0.2794141173362732,-0.12179553508758545,2.5470333099365234,-0.6808794140815735,-1.0249027013778687
2.498878002166748,-0.22473692893981934,-0.03939777612686157,0.2184056043624878,-0.25900461163105054,-1.4459034624413576,1.4251756798700403,-0.9591162204742432,0.256118506193161,-0.12041350454092026,2.023869514465332,-0.6861492395401001,-0.841725766658783
2.5188798904418945,-0.22822999954223633,-0.14148254692554474,0.23822373151779175,-0.23926375970356992,-1.4487828292245286,1.459660944412285,-0.9642900824546814,0.2369874268770218,-0.11824376881122589,1.6515709161758423,-0.4556578993797302,-0.7017524242401123
2.5383098125457764,-0.1568284034729004,-0.07140453159809113,0.1784968376159668,-0.22310757044772075,-1.4496307271128577,1.4915368048540603,-0.9680647253990173,0.22126123309135437,-0.11787354201078415,1.6974822282791138,-0.4150209128856659,-0.5513614416122437
2.558919906616211,-0.18293702602386475,-0.034983471035957336,0.17113137245178223,-0.20730261725171406,-1.4508469936539494,1.5249149805107074,-0.9715582132339478,0.20582102239131927,-0.11709990352392197,1.710547924041748,-0.33845892548561096,-0.6180420517921448
2.5788769721984863,-0.2991035580635071,-0.05274035036563873,0.2345704287290573,-0.1920568669960055,-1.4462765593344664,1.5536964897795773,-0.97401362657547,0.19087834656238556,-0.12191470712423325,1.2068274021148682,0.2752687633037567,-0.5190550088882446
2.598874807357788,-0.26604652404785156,-0.21930968761444092,0.2384020835161209,-0.18252563059744478,-1.4325397557213275,1.5681272898152299,-0.9740047454833984,0.18151383101940155,-0.13552717864513397,0.35446682572364807,0.7263955473899841,-0.2617565393447876
2.6188769340515137,-0.15196985006332397,-0.20521892607212067,0.08573080599308014,-0.17822222545355001,-1.4192281974867422,1.5696136065789523,-0.972877562046051,0.1772802323102951,-0.1485968679189682,-0.10686928033828735,0.4893914461135864,-0.19773095846176147
2.6388750076293945,-0.09630066156387329,-0.09466372430324554,0.00820469856262207,-0.17370689198673925,-1.4140948078240507,1.567259432305052,-0.9728826880455017,0.1728346347808838,-0.1537124216556549,0.030485769733786583,0.06226123496890068,-0.24159595370292664
2.658883810043335,-0.16855716705322266,-0.08003832399845123,-0.008755430579185486,-0.1697192793839244,-1.4145410167444554,1.5702384603581698,-0.9736242294311523,0.16890567541122437,-0.15338431298732758,0.2703787684440613,-0.08209247887134552,-0.13306893408298492
2.6788768768310547,-0.2051900029182434,-0.0824078768491745,0.04496745765209198,-0.16778892954322272,-1.4142671920742937,1.577496530131295,-0.9739025235176086,0.16700273752212524,-0.15370148420333862,0.5588059425354004,0.012805000878870487,0.1385846883058548
2.6989006996154785,-0.1935461163520813,-0.05433094501495361,-0.04069654643535614,-0.17052810007702437,-1.411309615939749,1.5933281374193788,-0.9729883074760437,0.16970281302928925,-0.1565079391002655,0.9058254957199097,-0.030608607456088066,0.257312536239624
2.718904972076416,-0.17081665992736816,-0.013150319457054138,-0.053098082542419434,-0.17170784200383732,-1.4091392203719468,1.6139929642540345,-0.9724481105804443,0.17086532711982727,-0.1585870087146759,0.998015820980072,-0.07236821204423904,0.2162938416004181
2.7388687133789062,-0.2106781005859375,-0.14125287532806396,-0.08119183778762817,-0.17398989904955262,-1.4067529977621516,1.6301693166952445,-0.9716797471046448,0.1731133759021759,-0.16084294021129608,0.46305200457572937,0.06259617209434509,0.27204418182373047
2.758875846862793,-0.21988970041275024,-0.1727372109889984,-0.056752145290374756,-0.17969965013432745,-1.4031138722811516,1.6351911626585147,-0.9700974822044373,0.17873406410217285,-0.1642102748155594,-0.04055182635784149,0.22131940722465515,0.3466571271419525
2.7788777351379395,-0.27867698669433594,-0.1499144285917282,0.009940743446350098,-0.18684270041280276,-1.3972988545750655,1.6322757493746531,-0.9678440093994141,0.18575747311115265,-0.16962388157844543,-0.2871907353401184,0.4445132613182068,0.3202285170555115
2.798914909362793,-0.3358480930328369,-0.16906611621379852,0.08200705051422119,-0.19403958044565003,-1.3865632341563356,1.626894964265161,-0.9646279811859131,0.19282422959804535,-0.17975474894046783,-0.2749462127685547,0.6915733218193054,0.2987711429595947
2.818875789642334,-0.28293782472610474,-0.16740602254867554,0.11794926226139069,-0.20004885600326394,-1.374249030696138,1.6246853077376249,-0.961187481880188,0.19871720671653748,-0.19138967990875244,-0.06658191978931427,0.5511336326599121,0.2234521210193634
2.8388757705688477,-0.23623383045196533,-0.19831553101539612,0.11782574653625488,-0.20382878554387956,-1.3673872531861864,1.6257236004196454,-0.9591091871261597,0.20242032408714294,-0.19782745838165283,-0.10391733795404434,0.024857046082615852,0.1519647091627121
2.858901023864746,-0.32940858602523804,-0.3219148516654968,0.24367213249206543,-0.20882056242330166,-1.372258048769409,1.6148050795216395,-0.9590588808059692,0.20730623602867126,-0.19295179843902588,-1.0976579189300537,-0.17018699645996094,0.21015453338623047
2.878901958465576,-0.44139164686203003,-0.41581520438194275,0.3723377585411072,-0.22243949595075008,-1.3775867637351085,1.5858591468100116,-0.9572137594223022,0.2206096649169922,-0.18727904558181763,-1.8023347854614258,0.3408105671405792,0.5533297657966614
2.8988757133483887,-0.4495226740837097,-0.2737849950790405,0.37502288818359375,-0.2396811538633713,-1.3711538886997825,1.5572928550414307,-0.9521191716194153,0.23739290237426758,-0.192649707198143,-1.1481443643569946,1.0514934062957764,0.5737795829772949
2.9188756942749023,-0.42557090520858765,-0.159499853849411,0.14578446745872498,-0.2572846019535554,-1.3490339923587158,1.5446134381929904,-0.9434019923210144,0.25445547699928284,-0.2127094268798828,-0.6325764656066895,1.0913598537445068,0.5730848908424377
2.938875913619995,-0.35279250144958496,-0.5019227266311646,0.024048686027526855,-0.2702296592096067,-1.3431614663884266,1.541862652000388,-0.9388487339019775,0.266952782869339,-0.217484250664711,-0.18705615401268005,-0.31880906224250793,0.9742161631584167
2.9580159187316895,-0.2894213795661926,-0.3555496633052826,0.5151413679122925,-0.2966492051634965,-1.3525276883882034,1.5339710356721206,-0.9336315989494324,0.2923174202442169,-0.20708152651786804,-0.998002827167511,-0.2797660529613495,1.238147258758545
2.9789059162139893,-0.7345525622367859,-0.09578204154968262,0.2292843461036682,-0.32213463811404935,-1.3507775993119164,1.5240511600171005,-0.9256952404975891,0.31659212708473206,-0.20702163875102997,-0.4111802875995636,0.8545365929603577,1.2002263069152832
2.9988749027252197,-0.7527965307235718,-0.10345962643623352,0.1012163758277893,-0.34953205801400705,-1.3336346220189559,1.5211866656117448,-0.9132343530654907,0.34245818853378296,-0.22073835134506226,-0.729004979133606,0.801474928855896,1.4550122022628784
3.01887583732605,-0.5063067078590393,-0.14627701044082642,0.2687692642211914,-0.38685741062568535,-1.3271781891243377,1.506899188443364,-0.8987531065940857,0.37727993726730347,-0.22338950634002686,-1.2821446657180786,0.4120427668094635,1.8230661153793335
3.0381078720092773,-0.6624149680137634,0.13683292269706726,0.15111717581748962,-0.4264688271726916,-1.3250841082433504,1.4963985539031097,-0.883086621761322,0.4136584997177124,-0.22146005928516388,-0.44211432337760925,0.2746046483516693,1.7347859144210815
3.0591158866882324,-0.6299517154693604,0.1824001669883728,0.17587685585021973,-0.45735625445798617,-1.3162335067288624,1.5042413168209756,-0.8683087825775146,0.44157761335372925,-0.22594083845615387,0.07096841931343079,0.2779195010662079,1.483271598815918
3.078969955444336,-0.49374908208847046,0.035374224185943604,0.23125261068344116,-0.48560881830054775,-1.3094728441055319,1.5126437439075309,-0.8543648719787598,0.46674686670303345,-0.2284906506538391,-0.18319648504257202,0.15736031532287598,1.5400867462158203
3.099370002746582,-0.4692174196243286,0.1646997034549713,0.12378421425819397,-0.5146929047682204,-1.3061488277896323,1.5186240895265346,-0.8401391506195068,0.49226754903793335,-0.22768117487430573,0.18686997890472412,-0.16668939590454102,1.3763363361358643
3.119175910949707,-0.3765453100204468,0.21271133422851562,0.09178411960601807,-0.539152376751511,-1.3031320615584459,1.5332569695403997,-0.8275867104530334,0.5134087800979614,-0.22696161270141602,0.36881881952285767,-0.4148191213607788,1.298558235168457
3.1391477584838867,-0.2448367476463318,0.14889919757843018,0.17954577505588531,-0.5622515538305298,-1.3063275925286209,1.5458527301670917,-0.8166407942771912,0.5330924987792969,-0.22115632891654968,0.07295642048120499,-0.5301932096481323,1.2128347158432007
3.159010887145996,-0.22802573442459106,0.18979424238204956,0.08372148871421814,-0.5837325233385355,-1.3136606484342892,1.5573004843446332,-0.8069780468940735,0.5511422157287598,-0.21220038831233978,0.21419687569141388,-0.7109598517417908,1.1347663402557373
3.178912878036499,-0.18615728616714478,0.1459483504295349,0.05762949585914612,-0.6035675826411326,-1.322868017171694,1.5670326357060012,-0.7981415390968323,0.5675833225250244,-0.20203860104084015,0.193135604262352,-0.8816008567810059,0.9986894726753235
3.1990108489990234,-0.08192604780197144,0.12459975481033325,0.04169270396232605,-0.6220359674399858,-1.3373408654222014,1.5757247916562036,-0.7906476259231567,0.5826910138130188,-0.18800906836986542,0.07333805412054062,-1.0739225149154663,0.9802141785621643
3.218961715698242,-0.07633990049362183,0.14835190773010254,0.017883241176605225,-0.6409290404735648,-1.3547849940463486,1.5819538909252162,-0.7829129695892334,0.5979403853416443,-0.17179851233959198,0.0111925657838583,-1.03205144405365,0.9457175135612488
3.2389678955078125,-0.023240745067596436,0.09405475854873657,-0.050211504101753235,-0.6591853929661241,-1.3721524142786885,1.5863633601923564,-0.7749465703964233,0.6124731302261353,-0.1559956669807434,-0.14933070540428162,-0.9852224588394165,0.9361447691917419
3.2588987350463867,0.10508084297180176,0.022145628929138184,-0.047571003437042236,-0.6786289409636155,-1.3937023947539182,1.58300973886964,-0.7662593722343445,0.6277263164520264,-0.1371365338563919,-0.40236741304397583,-0.9631210565567017,0.941470742225647
3.2789230346679688,0.10559231042861938,0.06526952981948853,-0.09300249814987183,-0.6975099401844301,-1.4175588856030308,1.5746542478611107,-0.7574629783630371,0.6423112154006958,-0.11698882281780243,-0.5862124562263489,-0.8355943560600281,0.8162778615951538
3.3072779178619385,0.23652392625808716,0.04518336057662964,-0.16565299034118652,-0.7301209378441929,-1.462769290488177,1.5478257294087534,-0.7407505512237549,0.6669597625732422,-0.08033382147550583,-0.566997230052948,-0.6079546809196472,0.6722124218940735
3.3264899253845215,0.32266509532928467,-0.04564559459686279,-0.18446123600006104,-0.7447483971848471,-1.4851241801963093,1.5332968918789651,-0.7325618863105774,0.6777868270874023,-0.06291414797306061,-0.7519689798355103,-0.6243352890014648,0.6680445075035095
3.3462538719177246,0.32256847620010376,-0.10031795501708984,-0.206404447555542,-0.7587858996450538,-1.5124957489798843,1.5105522897615165,-0.7244392037391663,0.6880409121513367,-0.04228314012289047,-0.880423903465271,-0.5791818499565125,0.6349318027496338
3.3588647842407227,0.32256847620010376,-0.10031795501708984,-0.206404447555542,-0.7587858996450538,-1.5124957489798843,1.5105522897615165,-0.7244392037391663,0.6880409121513367,-0.04228314012289047,-0.880423903465271,-0.5791818499565125,0.6349318027496338
3.384711742401123,0.34943342208862305,-0.026173770427703857,-0.3257373571395874,-0.7870261480063753,-1.5561095458960492,1.4742741936526111,-0.7058785557746887,0.7082570195198059,-0.010367829352617264,-0.5023886561393738,-0.28686222434043884,0.6786041259765625
3.4077320098876953,0.3595060706138611,-0.06334298849105835,-0.2957022190093994,-0.8008020034391063,-1.5689584070374896,1.4608546531036029,-0.6961301565170288,0.7179146409034729,-0.0012794327922165394,-0.4785930812358856,0.008832985535264015,0.6955567598342896
3.4270987510681152,0.3828538656234741,-0.09612733125686646,-0.3477092981338501,-0.8143014327578545,-1.5762982176213687,1.4480402367016358,-0.6863664388656616,0.7272462844848633,0.003776351222768426,-0.3653292953968048,0.13312067091464996,0.659048318862915
3.4468936920166016,0.48899292945861816,-0.14474427700042725,-0.30223405361175537,-0.826342178716868,-1.5793588905288418,1.4378580656594615,-0.6775456070899963,0.7354578375816345,0.00580166932195425,-0.2765262722969055,0.2723664343357086,0.5315899848937988
3.466862916946411,0.5638638734817505,-0.20818042755126953,-0.32374274730682373,-0.8357894564968238,-1.575843550593002,1.4362893589714378,-0.6705837845802307,0.7418261170387268,0.003384615061804652,0.08531814068555832,0.24360598623752594,0.3981485366821289
3.486914873123169,0.6120395064353943,-0.305059552192688,-0.22250622510910034,-0.8412915762026556,-1.5679844228188962,1.4414804871725773,-0.6664980053901672,0.7455045580863953,-0.0018741333624348044,0.2871837019920349,0.20611907541751862,0.21794180572032928
3.506584882736206,0.6239575743675232,-0.3645227551460266,-0.15651249885559082,-0.8443182565345136,-1.5555932817994151,1.4502749709616576,-0.6641643643379211,0.7475184202194214,-0.010098098777234554,0.4324903190135956,0.2819514274597168,0.1101292073726654
3.526648998260498,0.6899654865264893,-0.37819480895996094,-0.12146878242492676,-0.8467799343870775,-1.5372636431202658,1.47184956495575,-0.6620265245437622,0.749151349067688,-0.022207850590348244,0.8674630522727966,-0.09232017397880554,0.042164988815784454
3.538092851638794,0.6899654865264893,-0.37819480895996094,-0.12146878242492676,-0.8467799343870775,-1.5372636431202658,1.47184956495575,-0.6620265245437622,0.749151349067688,-0.022207850590348244,0.8674630522727966,-0.09232017397880554,0.042164988815784454
3.5668258666992188,0.44458484649658203,-0.4706542491912842,0.03625029698014259,-0.831464734659774,-1.5171744076159923,1.5316885592189837,-0.6728256940841675,0.7389190793037415,-0.03611282259225845,0.7801743149757385,-0.9936428070068359,-0.6707398891448975
3.5865938663482666,0.3404940366744995,-0.4416685700416565,0.19343996047973633,-0.81713758975731,-1.5243267497540303,1.5471284412629365,-0.6835725903511047,0.7291900515556335,-0.031788215041160583,-0.28852587938308716,-0.06346145272254944,-0.15119552612304688
3.606781005859375,-0.8919597864151001,-0.3011590242385864,-1.0855382680892944,-0.8117249929395718,-1.5284123616292624,1.5246895429874059,-0.6876299381256104,0.7254754900932312,-0.029161948710680008,0.5760986804962158,0.695203959941864,-1.189686894416809
3.6265878677368164,0.09176468849182129,0.15080630779266357,-0.43201082944869995,-0.787165078123081,-1.527121114585983,1.5330169082498581,-0.7051831483840942,0.7083550691604614,-0.030818620696663857,-0.3644234836101532,-1.1918118000030518,-1.456150770187378
3.6462817192077637,0.30342936515808105,-0.372342050075531,0.2772939205169678,-0.7676838092129816,-1.5703780165952312,1.5127468118905056,-0.7195212841033936,0.6944705843925476,-0.00030098308343440294,-0.9752537608146667,-1.464510440826416,-0.22597837448120117
3.6664299964904785,-0.3832634687423706,0.10578560829162598,0.014285920187830925,-0.7672261668368269,-1.6070046927425365,1.4997052571982212,-0.7193670272827148,0.6941412091255188,0.026058493182063103,0.35096466541290283,-1.1111317873001099,-0.10360655188560486
3.686196804046631,-1.0551352500915527,0.5040173530578613,-0.281899094581604,-0.7573837845019493,-1.5998957961128182,1.5315230654631247,-0.7263282537460327,0.6870227456092834,0.02114173397421837,1.5837774276733398,-0.2964813709259033,-0.9614129662513733
3.706077814102173,-1.1280796527862549,-0.05363541841506958,-0.2701411843299866,-0.7408253146843405,-1.5656883796148282,1.5730417518019915,-0.7379023432731628,0.6748971343040466,-0.0037691988982260227,1.1851731538772583,1.0183205604553223,-0.447571337223053
3.7261056900024414,-0.9548393487930298,-0.37101495265960693,-0.1283116340637207,-0.7423313459927686,-1.533557522086571,1.5751863626028846,-0.7363836765289307,0.6760076880455017,-0.027434730902314186,-1.1559287309646606,1.9111535549163818,0.43577834963798523
3.7460339069366455,-0.8412105441093445,-0.38588041067123413,-0.0998726487159729,-0.7551045752955441,-1.5174482803396299,1.530390269511733,-0.7271640300750732,0.685364842414856,-0.03882962465286255,-1.851933240890503,2.7105793952941895,0.7746095657348633
3.765986919403076,-0.7375396490097046,-0.09691262245178223,-0.16017591953277588,-0.7734352616985679,-1.4890987248227605,1.4895381716603677,-0.7131286263465881,0.6985973119735718,-0.058390866965055466,-1.0758042335510254,2.907188892364502,0.7178629636764526
3.7858998775482178,-0.6213457584381104,-0.16914254426956177,-0.061414897441864014,-0.7845781422474638,-1.4391258948274297,1.474392641761567,-0.7015606760978699,0.7065266966819763,-0.09291236102581024,-0.21955759823322296,3.1483657360076904,0.34721580147743225
3.8057727813720703,-0.411895215511322,-0.4346327781677246,0.08593960106372833,-0.7904637666380633,-1.3800083578645357,1.466967205815121,-0.6907505393028259,0.7106795907020569,-0.1334095448255539,-0.5009706020355225,3.300412893295288,0.09905251115560532
3.826021909713745,-0.16637510061264038,-0.6051819324493408,0.09825479984283447,-0.7925505779212304,-1.3273283104059086,1.447256586501193,-0.6813268661499023,0.7121461629867554,-0.16923855245113373,-0.9337930679321289,3.305819511413574,-0.1619415134191513
3.8456740379333496,0.09626328945159912,-0.5195636749267578,0.08173555135726929,-0.791701583686123,-1.2865906985654183,1.415420179517242,-0.6744492650032043,0.7115498781204224,-0.19701556861400604,-1.1194710731506348,3.085430383682251,-0.512680172920227
3.8656907081604004,0.30885493755340576,-0.47144389152526855,0.062276676297187805,-0.7838802182682432,-1.2517511302835163,1.3799346376367925,-0.672441303730011,0.7060326337814331,-0.22212758660316467,-1.0334124565124512,2.934006690979004,-0.9569919109344482
3.8847968578338623,0.479084849357605,-0.3795267343521118,0.05703660845756531,-0.7655622198171685,-1.2204882047210996,1.346271957219205,-0.6772050261497498,0.6929424405097961,-0.24743562936782837,-0.773220419883728,2.5781402587890625,-1.5461708307266235
3.9056010246276855,0.5725634098052979,-0.36828482151031494,0.06728225946426392,-0.7373539709569242,-1.1934823676475945,1.318785225573819,-0.6881791949272156,0.6723315715789795,-0.27272647619247437,-0.12025474011898041,2.022855758666992,-1.6302067041397095
3.9237537384033203,0.5308524966239929,-0.20705348253250122,0.07411685585975647,-0.7063012794543174,-1.1705388411179158,1.298695733074454,-0.7006369829177856,0.6490243673324585,-0.29643723368644714,-0.11994969844818115,1.6562024354934692,-1.9093894958496094
3.944605827331543,0.45041877031326294,-0.20854997634887695,0.08343663811683655,-0.6714140566752534,-1.1553695675990003,1.2737043818026588,-0.7163488864898682,0.6220937371253967,-0.31598037481307983,-0.32599514722824097,1.5013643503189087,-1.983296513557434
3.9652037620544434,0.39423811435699463,-0.14223241806030273,0.05625566840171814,-0.6378813903253197,-1.1433868992466045,1.2437865291987582,-0.7310910820960999,0.5954947471618652,-0.3330041468143463,-0.37627989053726196,1.4650605916976929,-2.063214063644409
3.985245704650879,0.36201828718185425,0.04765009880065918,0.004919528961181641,-0.6022535819812063,-1.1317324635361448,1.2172456474527122,-0.7458989024162292,0.5665010213851929,-0.3503020405769348,-0.023284291848540306,1.2757526636123657,-2.0939085483551025
4.0040788650512695,0.3225974440574646,0.14341133832931519,0.08992326259613037,-0.5632014072362025,-1.1149153005871713,1.1994579338901152,-0.7591971755027771,0.5338958501815796,-0.37225648760795593,0.28273701667785645,1.4216228723526,-2.0939369201660156
4.0243330001831055,0.32200080156326294,0.05029913783073425,0.16164278984069824,-0.5228519328801362,-1.0940409504191702,1.184175927628723,-0.7697852849960327,0.4993530809879303,-0.3975892663002014,0.31255924701690674,1.3965156078338623,-2.0544795989990234
4.044312953948975,0.33241426944732666,0.010891586542129517,0.18626326322555542,-0.485772611332506,-1.079953694443842,1.1653869410254,-0.7799088358879089,0.46689173579216003,-0.4168386459350586,0.023677118122577667,0.8845582604408264,-2.0466361045837402
4.065186977386475,0.2290499210357666,0.10811302065849304,0.12738418579101562,-0.4483367798044089,-1.0760786331532992,1.1463104392311259,-0.7931216359138489,0.433467298746109,-0.4278600811958313,0.2802708148956299,0.40398964285850525,-2.0687806606292725
4.084950923919678,0.12512069940567017,0.20085322856903076,0.23920056223869324,-0.40706743693610103,-1.0752965845255926,1.132725981090823,-0.8078446984291077,0.3959181010723114,-0.4366186261177063,0.5454658269882202,0.2947162985801697,-2.1453449726104736
4.1038899421691895,0.12686634063720703,0.14261716604232788,0.34492599964141846,-0.36492517027019145,-1.0752878209150656,1.1203689435167752,-0.8217974305152893,0.3568793833255768,-0.44416898488998413,0.36103421449661255,0.11373694241046906,-2.091632604598999
4.125000953674316,0.16600066423416138,0.1588422954082489,0.35368993878364563,-0.3276079371123428,-1.0845029593393198,1.1017808843693961,-0.8370516896247864,0.3217791020870209,-0.4424959421157837,-0.1393733024597168,-0.429214745759964,-2.037628173828125
4.14519190788269,0.12842833995819092,0.2422623336315155,0.3235244154930115,-0.2941895543021894,-1.1052927960914005,1.077397954018691,-0.8552045226097107,0.28996431827545166,-0.42958810925483704,-0.3320971429347992,-0.8895364999771118,-2.0222134590148926
4.163977861404419,0.009588241577148438,0.3504350185394287,0.3185391128063202,-0.2593031849444865,-1.1313091460691058,1.054501342053393,-0.8747158050537109,0.25640708208084106,-0.4112513065338135,0.007937450893223286,-1.010512351989746,-2.0582664012908936
4.184696912765503,-0.01176464557647705,0.4133313000202179,0.33916622400283813,-0.22070412481267018,-1.1529224481186138,1.0435480525076497,-0.8917846083641052,0.21891672909259796,-0.3959745168685913,0.6357957720756531,-0.918552815914154,-1.9069428443908691
4.204651832580566,0.006775319576263428,0.39111876487731934,0.27043256163597107,-0.18050815307230683,-1.1725170077435112,1.0440764033169716,-0.9067539572715759,0.17952948808670044,-0.38153162598609924,0.9641456007957458,-1.1245872974395752,-1.7977428436279297
4.2246270179748535,-0.1370307207107544,0.3420521020889282,0.07937389612197876,-0.1394172375728727,-1.1952712075371568,1.0500854700209863,-0.9212884306907654,0.13896602392196655,-0.3632024824619293,1.1227978467941284,-1.1641738414764404,-1.8050380945205688
4.244458913803101,-0.30404001474380493,0.30753010511398315,-0.03394883871078491,-0.09881971570235334,-1.2148547051696246,1.0596937350881468,-0.9327459335327148,0.0986589565873146,-0.34677305817604065,1.135470986366272,-0.9172438979148865,-1.6088415384292603
4.26627779006958,-0.4191848039627075,0.21705733239650726,0.01101452112197876,-0.06585778719662995,-1.2298747438423594,1.0637446183444224,-0.9404038786888123,0.0658101886510849,-0.3336309492588043,0.2776179909706116,-0.5803768038749695,-1.3376390933990479
4.28394889831543,-0.42070960998535156,0.16611777245998383,0.1618507206439972,-0.045018128569932724,-1.2358989995610594,1.0501345129248272,-0.9434871673583984,0.04500292241573334,-0.32833918929100037,-0.7271700501441956,0.05827643349766731,-1.0891268253326416
4.304531812667847,-0.3065165877342224,0.254151314496994,0.03731656074523926,-0.03404807880218266,-1.232612414976318,1.0287831573224981,-0.9428120851516724,0.034041501581668854,-0.3315821588039398,-0.7947860956192017,0.2465721219778061,-0.678891658782959
4.324570894241333,-0.180691659450531,0.36965903639793396,-0.05490756034851074,-0.02682863394162581,-1.228836141178623,1.0134917338276295,-0.9417601823806763,0.02682541497051716,-0.3352137506008148,-0.41824114322662354,0.12664227187633514,-0.5083081722259521
4.343407869338989,-0.1137649416923523,0.27506014704704285,0.03148716688156128,-0.022366123348250132,-1.228260111788809,1.0034009528084007,-0.941670298576355,0.022364258766174316,-0.33579304814338684,-0.4159794747829437,-0.005221137311309576,-0.25435400009155273
4.364511966705322,-0.22554737329483032,0.14653629064559937,0.008140802383422852,-0.023952527035546085,-1.2269670227527352,0.994541343875765,-0.9412007331848145,0.023950235918164253,-0.3369980454444885,-0.5292156934738159,0.20236721634864807,0.10595660656690598
4.382088899612427,-0.23291754722595215,0.08535595238208771,0.05403515696525574,-0.032875134516158755,-1.219199437386342,0.9839572947206043,-0.9383166432380676,0.032869212329387665,-0.3442113399505615,-0.7386823296546936,0.5821916460990906,0.31464746594429016
4.404314994812012,-0.08185112476348877,0.02740003913640976,-0.010697782039642334,-0.043903195197528756,-1.207342452021345,0.9732820814092757,-0.933773934841156,0.04388909414410591,-0.3551620543003082,-0.6153112649917603,0.5713716745376587,0.3422161340713501
4.41914176940918,0.04051917791366577,0.025390293449163437,-0.04654267430305481,-0.05300374829074726,-1.1997107935296962,0.9673040752343534,-0.9306255578994751,0.05297893285751343,-0.36211806535720825,-0.27475208044052124,0.1980355679988861,0.28778713941574097
4.44397497177124,-0.036756694316864014,-0.03516106680035591,-0.020060807466506958,-0.060084362276719504,-1.1992510320375753,0.9646855933826073,-0.9300860166549683,0.060048215091228485,-0.3624005615711212,-0.3399098813533783,-0.09516593813896179,0.26717886328697205
4.46397590637207,-0.18445062637329102,-0.15035900473594666,0.06576326489448547,-0.06908466767555523,-1.1999340471222597,0.9576484536331062,-0.9297919273376465,0.06902972608804703,-0.36155471205711365,-0.5758785605430603,0.1648011952638626,0.3584437966346741
4.4838478565216064,-0.09040719270706177,-0.08197231590747833,0.0836527943611145,-0.07978343430327661,-1.1959348450909546,0.9497287981118103,-0.9275982975959778,0.07969881594181061,-0.36497893929481506,-0.4805142879486084,0.18169443309307098,0.2803289294242859
4.5026538372039795,0.05694836378097534,-0.08058752119541168,0.05039191246032715,-0.08513067903473616,-1.1962675829117222,0.9465043272318391,-0.9273098111152649,0.08502788841724396,-0.3645091652870178,0.018487710505723953,-0.1874372810125351,0.1230439841747284
4.522945880889893,0.05874818563461304,-0.12184610217809677,0.0746411681175232,-0.08560424549405984,-1.200917464258703,0.951680641350683,-0.9289569854736328,0.08549973368644714,-0.36017873883247375,0.3305462598800659,-0.272167444229126,0.10514430701732635
4.543823719024658,-0.06454390287399292,-0.15149946510791779,0.14813852310180664,-0.08622241554806852,-1.2044143563322163,0.9564095552425177,-0.9301613569259644,0.08611562103033066,-0.3569090962409973,-0.0186559297144413,-0.05269056558609009,0.14467312395572662
4.563793897628784,-0.11838752031326294,-0.19218949973583221,0.19949045777320862,-0.09156367190577365,-1.2013182324954856,0.9542634800161987,-0.9286095499992371,0.09143578261137009,-0.3596160113811493,-0.3605441451072693,0.3714304566383362,0.24587436020374298
4.5853047370910645,-0.06865030527114868,-0.092686228454113,0.09819906949996948,-0.09700401163411297,-1.1938288048892656,0.9495831878451053,-0.9254140853881836,0.09685195237398148,-0.36637210845947266,-0.1748039424419403,0.33967092633247375,0.06047981604933739
4.603507995605469,0.020457446575164795,-0.050263628363609314,0.019548475742340088,-0.09729211888095922,-1.1918125390391536,0.949726629867144,-0.9246476292610168,0.09713870286941528,-0.36822691559791565,0.29071658849716187,-0.14120151102542877,-0.0006186377140693367
4.6236488819122314,-0.03154987096786499,-0.10705875605344772,0.0825204849243164,-0.0930174891117597,-1.1976931631070689,0.9585968006388172,-0.9271751642227173,0.09288341552019119,-0.36293110251426697,0.5409220457077026,-0.46671515703201294,-0.1171213686466217
4.643424987792969,-0.19951391220092773,-0.27706849575042725,0.23268276453018188,-0.08815682981172993,-1.2010052160519114,0.9694114549833484,-0.9287821054458618,0.08804268389940262,-0.36001718044281006,0.5078766345977783,0.17108483612537384,0.17851999402046204
4.663386821746826,-0.3064225912094116,-0.30366820096969604,0.20075640082359314,-0.0928795073810282,-1.1899563841958076,0.9765911452006292,-0.9243513345718384,0.09274602681398392,-0.3700982630252838,0.013609504327178001,0.7136537432670593,0.4623192846775055
4.683344841003418,-0.16352510452270508,-0.38782742619514465,0.18292737007141113,-0.1055680169863666,-1.1805474749282168,0.9806232357750552,-0.9196658134460449,0.10537204146385193,-0.3783006966114044,-0.1085948646068573,0.17041166126728058,0.8387930393218994
4.703183889389038,-0.27632564306259155,-0.34135550260543823,0.3390539288520813,-0.11747399130728735,-1.1791690491997915,0.9785339130061751,-0.9179189205169678,0.11720398813486099,-0.37906235456466675,-0.24942456185817719,0.21545487642288208,0.04587102308869362
4.723089694976807,-0.45422476530075073,-0.5261527895927429,0.3152913749217987,-0.1155363304309791,-1.170627025454244,0.978860998940122,-0.9148548245429993,0.11527945846319199,-0.38697701692581177,0.19373731315135956,0.3859178423881531,-0.07609637081623077
4.743197917938232,-0.4550456404685974,-0.5207706093788147,0.26874110102653503,-0.11188530128398463,-1.1708320393470861,0.983044586935162,-0.9153156876564026,0.11165200918912888,-0.3869507312774658,0.30300015211105347,-0.40666478872299194,-0.10653465241193771
4.763072967529297,-0.4456802010536194,-0.2876666784286499,0.2891004681587219,-0.11337946984634978,-1.1802412327155745,0.9839237196332451,-0.9187607765197754,0.11313670873641968,-0.3782574534416199,-0.40963274240493774,-0.47711697220802307,0.3429524004459381
4.783057689666748,-0.6782395839691162,0.09082254767417908,0.12680187821388245,-0.13004856679250312,-1.1847787574722322,0.978487514753881,-0.9185928702354431,0.12968230247497559,-0.3733227252960205,-0.6520137786865234,0.14885161817073822,1.0663719177246094
4.802812814712524,-0.7552717924118042,0.28150707483291626,0.010372519493103027,-0.1601866772716183,-1.1793633677639337,0.9804184196980991,-0.9125291705131531,0.15950249135494232,-0.3766290843486786,-0.1515956073999405,0.38602474331855774,1.800416350364685
4.822826862335205,-0.7771417498588562,0.4051976799964905,-0.11258077621459961,-0.1961244431715375,-1.1684773001908904,0.9962237006696995,-0.9025152921676636,0.19486954808235168,-0.38404685258865356,0.24478204548358917,0.2701624929904938,2.0129337310791016
4.841789722442627,-0.7752873301506042,0.2542433738708496,0.01040494441986084,-0.23262072936651815,-1.1570445893554218,1.0215377561329397,-0.890957236289978,0.23052845895290375,-0.3912184238433838,0.39057108759880066,0.43418365716934204,2.3771793842315674
4.862689018249512,-0.749930739402771,0.1856076717376709,0.028914988040924072,-0.2735087569737464,-1.1441860191400326,1.0455407822267933,-0.8765342831611633,0.27011141180992126,-0.3984064757823944,0.021264441311359406,0.328533411026001,2.3068182468414307
4.882631778717041,-0.6460818648338318,0.15486541390419006,0.07946997880935669,-0.3174501934873134,-1.1308048006636369,1.061455374154537,-0.8595486879348755,0.3121451735496521,-0.40464988350868225,-0.46576979756355286,0.4621937870979309,2.2466604709625244
4.902637958526611,-0.5286802649497986,0.1699642539024353,-0.1303926408290863,-0.35787452271938197,-1.1224654017719475,1.0720470746263366,-0.8440766930580139,0.350284218788147,-0.4059993624687195,-0.1389620155096054,-0.14186295866966248,1.8745946884155273
4.921545028686523,-0.2332019805908203,0.22630923986434937,-0.12755411863327026,-0.39038897224327396,-1.1233884945492882,1.0896625544580043,-0.833738386631012,0.3805481493473053,-0.4000793993473053,0.0748152956366539,-0.5382475852966309,1.7823729515075684
4.942455768585205,-0.22446775436401367,0.07913771271705627,-0.11480540037155151,-0.4223181599563006,-1.1280533589653547,1.1058521196431352,-0.8241925239562988,0.4098760485649109,-0.39077916741371155,-0.1906667798757553,-0.45878979563713074,1.7656749486923218
4.962308883666992,-0.24580204486846924,0.07350823283195496,-0.1528014838695526,-0.4550164094484855,-1.13316442733875,1.1106714539285865,-0.8136004209518433,0.4394770562648773,-0.38067612051963806,-0.7640427947044373,-0.2806371748447418,1.377564787864685
4.9814229011535645,-0.14447247982025146,0.10618418455123901,-0.21165961027145386,-0.48766994859938473,-1.1420045706604398,1.1032739732552246,-0.8034493327140808,0.46856874227523804,-0.3673044443130493,-1.1644765138626099,-0.27921849489212036,1.2789807319641113
5.001276969909668,-0.10738402605056763,0.1800585687160492,-0.21421921253204346,-0.517858857241126,-1.1513767473251437,1.0919746581440462,-0.7935712337493896,0.49502086639404297,-0.3538348078727722,-0.843536376953125,-0.09300629049539566,1.0882195234298706
5.022132873535156,0.01039808988571167,0.21951770782470703,-0.2180657684803009,-0.5411972472331257,-1.154560935236047,1.0882846471993675,-0.7839118242263794,0.5151625275611877,-0.34653976559638977,-0.47465863823890686,-0.1581133008003235,0.8890711665153503
5.042062759399414,0.16098523139953613,0.032839834690093994,-0.04121464490890503,-0.5612250360165169,-1.1610538601461604,1.0825014949948637,-0.7765248417854309,0.5322237014770508,-0.33726418018341064,-0.8529631495475769,-0.14480842649936676,0.7960445284843445
5.062150001525879,0.26866739988327026,-0.00430607795715332,-0.02637583017349243,-0.5846389591126592,-1.1742062297188027,1.0667282419337643,-0.7691861987113953,0.5518983602523804,-0.32211947441101074,-1.2080844640731812,-0.3613901734352112,0.8236810564994812
5.081153869628906,0.27140915393829346,0.07130283117294312,-0.08151403069496155,-0.6091189544074356,-1.192697039943132,1.0488604276866818,-0.7622233629226685,0.5721451044082642,-0.30276307463645935,-1.0174617767333984,-0.4946136474609375,0.8939964175224304
5.102162837982178,0.23732399940490723,0.08231818675994873,-0.05010667443275452,-0.6315116316586673,-1.2100259527826882,1.035321637992418,-0.7551767826080322,0.5903655290603638,-0.2849150598049164,-0.8752298355102539,-0.38288968801498413,0.7910374999046326
5.121936798095703,0.2901853919029236,-0.027106165885925293,-0.024302363395690918,-0.652512136382619,-1.2258858573383626,1.0201670278462627,-0.7477659583091736,0.6071843504905701,-0.26865097880363464,-1.0391666889190674,-0.3600010573863983,0.7530568838119507
5.142125844955444,0.37064361572265625,-0.12301212549209595,0.010847926139831543,-0.6733877616620345,-1.2472665170629056,0.9978402293083264,-0.741157591342926,0.6236377954483032,-0.24851863086223602,-1.2783650159835815,-0.38655543327331543,0.6519755125045776
5.161980867385864,0.417602002620697,-0.08287513256072998,-0.038223788142204285,-0.691924679249883,-1.2715258661978108,0.9743245130048294,-0.7357934713363647,0.638020396232605,-0.22701957821846008,-0.9518952369689941,-0.5954174995422363,0.5660172700881958
5.181656837463379,0.3773695230484009,-0.07155239582061768,-0.05860975384712219,-0.7068190059880388,-1.2918489392935242,0.9601387731666635,-0.7310377955436707,0.6494181156158447,-0.20938020944595337,-0.599932074546814,-0.4317116439342499,0.559357762336731
5.201964855194092,0.3216453194618225,-0.10100871324539185,-0.18362842500209808,-0.7188898244732865,-1.3042245070309657,0.9489893031115111,-0.7259573936462402,0.6585496068000793,-0.198237806558609,-0.47567155957221985,-0.20440241694450378,0.3967028558254242
5.22156286239624,0.43140751123428345,-0.1906711459159851,-0.24961572885513306,-0.7293420800216915,-1.3161489319654467,0.9408273223229442,-0.7215686440467834,0.6663792133331299,-0.18782305717468262,-0.5132223963737488,-0.41588929295539856,0.4405192732810974
5.2415337562561035,0.45064055919647217,-0.2536778450012207,-0.2580259442329407,-0.7393369941060541,-1.3353196807114265,0.9257862101128189,-0.7185239195823669,0.673798143863678,-0.1723938137292862,-0.6981145143508911,-0.5343683958053589,0.2688436806201935
5.260664939880371,0.42751866579055786,-0.2779408097267151,-0.21604235470294952,-0.7479011828140487,-1.3577979019301347,0.9099079423228339,-0.7165507078170776,0.6801015734672546,-0.15497493743896484,-0.6762292981147766,-0.5341972708702087,0.32655221223831177
5.280439853668213,0.3387718200683594,-0.2762085795402527,-0.11921213567256927,-0.7580114686191568,-1.3748440543954912,0.8924469230218183,-0.7123069167137146,0.6874787211418152,-0.14139249920845032,-0.7032175064086914,0.06558618694543839,0.4239763915538788
5.30125880241394,0.2587844133377075,-0.21212983131408691,-0.22505491971969604,-0.7671394035841862,-1.3783879708171245,0.878679945013311,-0.70661461353302,0.6940787434577942,-0.13766154646873474,-0.41713520884513855,0.3842598497867584,0.16992755234241486
5.3214287757873535,0.37096673250198364,-0.2493579387664795,-0.19713662564754486,-0.7692351789499283,-1.3759227126747713,0.8756225843712093,-0.7048442363739014,0.6955859661102295,-0.13912110030651093,0.03339380770921707,0.12191764265298843,0.07881703972816467
5.341271877288818,0.3818528652191162,-0.4036518335342407,-0.1144033670425415,-0.769740967051694,-1.373637744768842,0.877618496952901,-0.7041795253753662,0.6959492564201355,-0.14066235721111298,0.09436336904764175,-0.10035733133554459,-0.047028087079524994
5.36126184463501,0.3318936228752136,-0.38572508096694946,-0.060435712337493896,-0.7663499431389045,-1.3764106303324048,0.879679824173328,-0.7068783640861511,0.6935101747512817,-0.1391642838716507,0.14154501259326935,-0.28434261679649353,-0.1496746689081192
5.3819358348846436,0.2371823787689209,-0.34899723529815674,-0.16901838779449463,-0.7622703591348513,-1.3770085862577088,0.8864314837108446,-0.7097318768501282,0.690565288066864,-0.13928526639938354,0.3175256848335266,-0.4080515205860138,-0.22068394720554352
5.399718761444092,0.0606347918510437,-0.1640041470527649,-0.20790934562683105,-0.7545831648091276,-1.3799420989084086,0.8939098904783117,-0.7153283953666687,0.6849850416183472,-0.1382056027650833,0.3662552237510681,-0.3181856870651245,-0.4024766981601715
5.421294689178467,-0.007051825523376465,-0.2068115472793579,-0.1360298991203308,-0.7439842543624898,-1.3786969408586223,0.8998794747732178,-0.722241997718811,0.6772248148918152,-0.14047443866729736,0.18550971150398254,0.003453577170148492,-0.5690016150474548
5.441227912902832,0.11031103134155273,-0.23389428853988647,-0.08493699133396149,-0.7309737748932194,-1.3803886952294726,0.9003583878724837,-0.7310691475868225,0.6675949692726135,-0.1409081518650055,0.17105898261070251,-0.21552714705467224,-0.6128130555152893
5.4609808921813965,0.0468558669090271,-0.2090274691581726,-0.021570906043052673,-0.7187097549987382,-1.3837549114513796,0.9016465088213337,-0.7395285964012146,0.6584141254425049,-0.13995841145515442,0.16321778297424316,-0.21010752022266388,-0.6579508185386658
5.480000972747803,-0.01770573854446411,-0.21008700132369995,0.05376136302947998,-0.7035527748548495,-1.3889777943168335,0.9017717590183025,-0.7499791979789734,0.6469309329986572,-0.13788285851478577,0.08011402934789658,-0.2704872488975525,-0.8155551552772522
5.499773025512695,0.04010123014450073,-0.209611713886261,0.1281501054763794,-0.6859512919625576,-1.3970195557842844,0.9007838314786497,-0.7621623873710632,0.6334094405174255,-0.13379564881324768,0.1924097239971161,-0.53889000415802,-0.9321958422660828
5.520879745483398,-0.26576846837997437,-0.23691874742507935,-0.17632007598876953,-0.690328649455268,-1.3881970619994177,0.8859204894756915,-0.7582183480262756,0.6367906332015991,-0.14000967144966125,-1.8435909748077393,1.9174898862838745,1.827233076095581
5.540851831436157,-0.49996596574783325,0.6071353554725647,-0.4769629240036011,-0.6947116049796045,-1.4040827544649412,0.8614997337832828,-0.7575871348381042,0.6401638984680176,-0.1274833232164383,0.09905944019556046,-0.8525848984718323,-1.7572627067565918
5.560729026794434,0.1274036169052124,0.36502939462661743,0.24684281647205353,-0.6762742217967369,-1.4030232527631044,0.865437748888652,-0.7689593434333801,0.6258916258811951,-0.13023491203784943,0.7123060822486877,0.38583609461784363,0.07698417454957962
5.580476760864258,0.16999590396881104,-0.019450783729553223,0.1718350499868393,-0.6797479820652659,-1.3942184541245768,0.8754394166097318,-0.7656381130218506,0.6285970211029053,-0.13661761581897736,-0.10431074351072311,-0.17385932803153992,0.053003400564193726
5.600345849990845,-0.10261207818984985,0.022171735763549805,-0.031662940979003906,-0.679242285386548,-1.39543554678936,0.8784048362374642,-0.7661165595054626,0.6282036900520325,-0.13574106991291046,0.4287513196468353,0.14454501867294312,0.057870328426361084
5.6223838329315186,-0.3301563262939453,-0.30216115713119507,-0.05074571073055267,-0.6773899544536794,-1.3820928551540699,0.8856012750212882,-0.7653788924217224,0.6267613768577576,-0.1461687684059143,-0.05849318578839302,0.552892804145813,-0.1976969987154007
5.642798900604248,0.05213385820388794,-0.22183072566986084,0.024034082889556885,-0.6750319265721915,-1.3809261905593713,0.8746435996931277,-0.7666571736335754,0.6249222159385681,-0.14734014868736267,-0.6112109422683716,0.26297685503959656,-0.09450216591358185
5.661108016967773,0.012641429901123047,-0.074848473072052,-0.001902163028717041,-0.6764276916236447,-1.3861829854841972,0.8585987288119383,-0.7665629386901855,0.626011312007904,-0.14314770698547363,-0.5900630354881287,0.2748624384403229,-0.07232958823442459
5.678860902786255,-0.08139914274215698,-0.008538126945495605,0.0020144134759902954,-0.6758853889805687,-1.38758363456495,0.8458096777081189,-0.767096221446991,0.6255882978439331,-0.14213567972183228,-0.40416374802589417,0.3779524266719818,-0.13953976333141327
5.698829889297485,-0.04270648956298828,-0.02981966733932495,0.046405136585235596,-0.674784900174102,-1.385815046610168,0.8359189825193043,-0.767520010471344,0.6247293949127197,-0.14361870288848877,-0.3601525127887726,0.3905680775642395,-0.09549569338560104
5.71881890296936,-0.02029472589492798,-0.04999649524688721,0.10079045593738556,-0.6741071043026391,-1.3842829765427107,0.8257444419948504,-0.7677149176597595,0.6241999864578247,-0.14487290382385254,-0.3971511125564575,0.4047214686870575,-0.10495389997959137
5.738825798034668,0.005074918270111084,-0.05461156368255615,0.05410921573638916,-0.6741160306850518,-1.3824985392114486,0.8172281566873073,-0.7674497961997986,0.6242069602012634,-0.14624157547950745,-0.29959365725517273,0.28965896368026733,-0.016992324963212013
5.760167837142944,-0.04205775260925293,0.004614353179931641,0.04359976947307587,-0.6746742426983738,-1.3831841858381508,0.8086178142978578,-0.7672075629234314,0.6246429681777954,-0.14565035700798035,-0.34701216220855713,0.18952296674251556,-0.06919597834348679
5.781584739685059,-0.11887925863265991,0.05009382963180542,0.05465137958526611,-0.6739407912911286,-1.385495708447142,0.7991993579719999,-0.7679920792579651,0.6240700483322144,-0.1439608931541443,-0.3835212290287018,0.19910350441932678,-0.13352414965629578
5.799707889556885,-0.1424068808555603,0.05394601821899414,0.10283035039901733,-0.6722925507775777,-1.3886883960084144,0.7884432199713577,-0.7694584131240845,0.6227812767028809,-0.1416943073272705,-0.46559712290763855,0.17312471568584442,-0.19361408054828644
5.820718765258789,-0.1452418565750122,0.037306249141693115,0.1349605917930603,-0.6703341743640552,-1.3931171996287526,0.7749145934034984,-0.7712773680686951,0.6212478876113892,-0.13850043714046478,-0.5397999882698059,0.1913737803697586,-0.1424000859260559
5.840183734893799,-0.16918712854385376,0.02758920192718506,0.1671355813741684,-0.6712656793383459,-1.3981571143078464,0.7604140459697404,-0.7713953256607056,0.6219775676727295,-0.13451209664344788,-0.5915625095367432,0.21857476234436035,0.041574981063604355
5.859780788421631,-0.23847085237503052,0.07374101877212524,0.0998304933309555,-0.6747859071127573,-1.4017305122936885,0.7476375081503813,-0.769707977771759,0.6247301697731018,-0.13138550519943237,-0.4645022451877594,0.22418372333049774,0.11623965948820114
5.879670858383179,-0.24465543031692505,0.11869418621063232,0.030511096119880676,-0.6771319829148083,-1.4030755959403194,0.7368832740361261,-0.7684365510940552,0.6265603303909302,-0.13010498881340027,-0.4157746434211731,0.3278062641620636,-0.030032861977815628
5.899781703948975,-0.16854941844940186,0.06639957427978516,-0.04445146024227142,-0.6766460915402462,-1.4056767847529388,0.7260273603314061,-0.7690725922584534,0.6261816024780273,-0.12815573811531067,-0.40790030360221863,0.08877629041671753,-0.06750836223363876
5.919513702392578,-0.13092708587646484,0.03034043312072754,-0.0878528356552124,-0.6780986636015759,-1.4111873956000147,0.7161173776972651,-0.7688684463500977,0.6273134350776672,-0.12377108633518219,-0.3850184679031372,-0.00014639500295743346,0.09016134589910507
5.939652919769287,-0.1414845585823059,0.07431137561798096,-0.06427937746047974,-0.6806154022399434,-1.4183149109833602,0.7054183490222583,-0.7681681513786316,0.6292714476585388,-0.11804768443107605,-0.4147021770477295,-0.07044852524995804,-0.029594795778393745
5.959620952606201,-0.09365403652191162,0.07686012983322144,-0.09347235411405563,-0.680673488527445,-1.424784227923707,0.6987760958989733,-0.7688795328140259,0.6293165683746338,-0.11307039111852646,-0.1624109297990799,-0.11944925785064697,0.059200432151556015
5.979435920715332,-0.0459362268447876,0.1225961446762085,-0.09901558607816696,-0.6830839297488702,-1.4308223316354063,0.6942336387394321,-0.7680438756942749,0.6311880350112915,-0.10821382701396942,-0.20838519930839539,-0.2591193616390228,0.04197517782449722
5.998894691467285,-0.02819192409515381,0.12324565649032593,-0.07486963272094727,-0.6816769023804544,-1.4377979167262902,0.6916178406103425,-0.7696596384048462,0.6300960779190063,-0.10297136753797531,0.08972086012363434,-0.21366719901561737,-0.12640441954135895
6.018877029418945,0.051627933979034424,0.09002363681793213,-0.017502479255199432,-0.6804834653000782,-1.4397765942767287,0.6952003801592233,-0.7706067562103271,0.6291688680648804,-0.10154641419649124,0.1757218986749649,-0.2146652638912201,-0.02453511394560337
6.039556980133057,0.08336788415908813,0.041111528873443604,-0.010669529438018799,-0.6778655476471668,-1.4393671133014874,0.7009172403096391,-0.7721953988075256,0.6271318793296814,-0.10207746177911758,0.30040955543518066,-0.07954259216785431,-0.1289019137620926
6.059208869934082,0.1356711983680725,0.11382114887237549,-0.01979433000087738,-0.6747331912688304,-1.4351644602470757,0.7082015932174646,-0.7737021446228027,0.624688982963562,-0.10558691620826721,0.32375940680503845,0.07943489402532578,-0.05194195732474327
6.078877925872803,0.15993624925613403,0.20381253957748413,-0.08630762994289398,-0.6749349489822885,-1.4294202199243438,0.7136759479075729,-0.772957980632782,0.6248465180397034,-0.11001171171665192,0.13872073590755463,0.08430448174476624,0.0269672442227602
6.098875999450684,0.12679988145828247,0.20423239469528198,-0.10420459508895874,-0.6731477350076799,-1.4246519756391203,0.717614319789626,-0.7735284566879272,0.6234501600265503,-0.11385857313871384,0.15435479581356049,0.16768983006477356,-0.12218569219112396
6.118957996368408,0.12472599744796753,0.1298074722290039,-0.06522595137357712,-0.6708762920712077,-1.4185449396815795,0.72002989932402,-0.77421635389328,0.6216726303100586,-0.11879484355449677,0.07883302122354507,0.29738348722457886,-0.059215668588876724
6.139171838760376,0.16500020027160645,0.08237361907958984,-0.04169332981109619,-0.6704989775959925,-1.4111737784054337,0.720715300139024,-0.7735512256622314,0.6213769912719727,-0.12453571707010269,0.011373208835721016,0.36408892273902893,-0.017642952501773834
6.158992767333984,0.19609731435775757,0.04572749137878418,-0.0514683723449707,-0.6698299961851011,-1.4029458995183122,0.7231566747428539,-0.7729101181030273,0.6208527088165283,-0.13096553087234497,0.1459185779094696,0.3135759234428406,0.03060581162571907
6.178996801376343,0.1885385513305664,0.003107607364654541,-0.011469841003417969,-0.6699494839925468,-1.3956923687632359,0.7257575077247365,-0.7718667984008789,0.6209464073181152,-0.13655546307563782,0.06391879171133041,0.27081167697906494,-0.06219310313463211
6.19886589050293,0.1692219376564026,-0.054977357387542725,-0.002333596348762512,-0.6672982313014267,-1.389771247018145,0.7255009781362957,-0.7726613879203796,0.6188660264015198,-0.14141924679279327,-0.07880344986915588,0.33099910616874695,-0.15171721577644348
6.219117879867554,0.21358156204223633,-0.07672595977783203,0.03168754279613495,-0.6657318797493823,-1.3867489873158179,0.7199574754750202,-0.7731825113296509,0.6176348924636841,-0.14393101632595062,-0.30201977491378784,0.31912338733673096,-0.10831449180841446
6.238951683044434,0.23093831539154053,-0.04523813724517822,0.018553972244262695,-0.6634718078084993,-1.3858710976773037,0.7118282691820459,-0.7744259238243103,0.615855872631073,-0.14486601948738098,-0.21480506658554077,0.2388422191143036,-0.26107558608055115
6.2591729164123535,0.23548007011413574,-0.02059757709503174,-0.0075234174728393555,-0.6569645646697345,-1.3815780024949658,0.7100928165583105,-0.7777164578437805,0.6107160449028015,-0.14893998205661774,0.2189420461654663,0.3279632031917572,-0.3509032428264618
6.279163837432861,0.3014569878578186,-0.08291387557983398,-0.030328869819641113,-0.6524432709500428,-1.372370815721936,0.7156069395558322,-0.7790113687515259,0.6071296334266663,-0.15663687884807587,0.17240706086158752,0.19253003597259521,-0.06028962880373001
6.29883885383606,0.3061606287956238,-0.013957381248474121,-0.074374258518219,-0.6496975651554059,-1.370084448923053,0.7186319043800964,-0.7802817821502686,0.6049456000328064,-0.1587493121623993,0.17643408477306366,-0.17306146025657654,-0.1374187171459198
6.31899881362915,0.23663800954818726,0.09085869789123535,-0.0006543844938278198,-0.6468983021575095,-1.3744688393731965,0.7209924299477045,-0.7826278805732727,0.6027143001556396,-0.15565642714500427,0.0954076498746872,-0.3180745542049408,-0.15989729762077332
6.33886194229126,0.14880985021591187,0.02240586280822754,0.07720482349395752,-0.6433869380664733,-1.37865586449052,0.7212570179013962,-0.7853455543518066,0.5999086499214172,-0.1527814269065857,-0.06691882759332657,-0.1450188010931015,-0.12922628223896027
6.358876705169678,0.17394334077835083,0.013025760650634766,0.11421453952789307,-0.6430004278667834,-1.3849731529620244,0.7170836002770532,-0.7865227460861206,0.5995993614196777,-0.14785996079444885,-0.21862511336803436,-0.2975549101829529,-0.015367569401860237
6.37949800491333,0.068401038646698,0.06939035654067993,0.12209290266036987,-0.6428305979701883,-1.397971951702521,0.7125608487684928,-0.7884786128997803,0.5994634628295898,-0.13764142990112305,-0.13419446349143982,-0.7090508341789246,-0.07410651445388794
6.398866891860962,-0.18570810556411743,0.05256885290145874,0.22162412106990814,-0.6398298477993046,-1.412250062055611,0.707906499421354,-0.7921363115310669,0.5970589518547058,-0.126653254032135,-0.18403030931949615,-0.3566020727157593,-0.31853803992271423
6.418877840042114,-0.2204722762107849,-0.03490334749221802,0.2829993963241577,-0.6324616302585665,-1.420922968248494,0.7001004658282446,-0.7975331544876099,0.5911320447921753,-0.1204320415854454,-0.33304646611213684,-0.11084849387407303,-0.4641307592391968
6.438877820968628,-0.08740502595901489,-0.000673830509185791,0.25060176849365234,-0.6239510268577722,-1.4294200626165343,0.6916770694805232,-0.8034794330596924,0.5842462778091431,-0.11435581743717194,-0.14733213186264038,-0.31512123346328735,-0.4979831576347351
6.458914756774902,-0.09777790307998657,0.10019993782043457,0.151189386844635,-0.6127179375776102,-1.438969561089155,0.6916111392474753,-0.8109898567199707,0.5750930905342102,-0.10753381252288818,0.3141777217388153,-0.6011834740638733,-0.6283108592033386
6.4789719581604,-0.13298100233078003,0.10746324062347412,0.054555535316467285,-0.5978178940244678,-1.4466571333775657,0.7024224466144198,-0.82020503282547,0.5628401637077332,-0.10234586894512177,0.7027739882469177,-0.7925029993057251,-0.7427833080291748
6.498960018157959,-0.09005337953567505,0.04890257120132446,-0.0021256208419799805,-0.5801792888886745,-1.4558479431163667,0.7179855595805014,-0.830845057964325,0.5481739044189453,-0.0959271714091301,0.8036515116691589,-1.0180137157440186,-0.8368274569511414
6.5189337730407715,-0.12323564291000366,0.01498401165008545,-0.05022937059402466,-0.5621300398587254,-1.4686891984301627,0.734581197909526,-0.8417149186134338,0.5329896807670593,-0.08624503016471863,0.7702847123146057,-1.1189037561416626,-0.8293823599815369
6.5390119552612305,-0.15716761350631714,-0.012578904628753662,-0.052510738372802734,-0.5435432645028616,-1.4817582385994434,0.7496984133655913,-0.8524911999702454,0.5171718597412109,-0.07610540837049484,0.7030805349349976,-0.9605811238288879,-0.9037743210792542
6.559056758880615,-0.1301824450492859,-0.005662322044372559,-0.12102186679840088,-0.5246577890855617,-1.4929565973725376,0.7637659955663427,-0.8628748059272766,0.5009168386459351,-0.0673019215464592,0.6679167151451111,-0.9473241567611694,-0.8800681233406067
6.578951835632324,-0.14540326595306396,0.06225299835205078,-0.16647247970104218,-0.5068731714876629,-1.5047043586900266,0.778553078693964,-0.8723578453063965,0.48544594645500183,-0.05773994326591492,0.7890775799751282,-0.9309768676757812,-0.8252430558204651
6.598928928375244,-0.1598970890045166,0.05376172065734863,-0.14103609323501587,-0.49011648070414493,-1.5119767479727424,0.7982140799059422,-0.8807523250579834,0.47072866559028625,-0.05186530575156212,0.9994266033172607,-0.7121567130088806,-0.7342014312744141
6.618945837020874,-0.12077206373214722,0.02042067050933838,-0.095065176486969,-0.47550765013080104,-1.5144759736620934,0.8182978620010104,-0.8876508474349976,0.4577898383140564,-0.05004573240876198,0.8275163173675537,-0.4796958565711975,-0.637304425239563
6.638865947723389,-0.0875633955001831,-0.013655930757522583,-0.09131264686584473,-0.4627158198928521,-1.5144658633009058,0.8334197035543942,-0.8934242129325867,0.44637998938560486,-0.050380297005176544,0.628316342830658,-0.22951266169548035,-0.5697927474975586
6.658929824829102,-0.06389081478118896,-0.007535696029663086,-0.09935605525970459,-0.4521356489705979,-1.5122973234805008,0.8454693488725427,-0.8979774713516235,0.43688759207725525,-0.05259079113602638,0.5262433886528015,-0.04549727588891983,-0.4436255991458893
6.678979873657227,-0.05521315336227417,-0.017528563737869263,-0.06558060646057129,-0.4428755548646829,-1.5066604101947128,0.8541597476033782,-0.9016655683517456,0.42853936553001404,-0.057908568531274796,0.3720061480998993,0.21176159381866455,-0.439659982919693
6.698879718780518,-0.013300299644470215,-0.009935766458511353,-0.06750643253326416,-0.43435402864353423,-1.497157886914052,0.8615474634231356,-0.9046837091445923,0.42082449793815613,-0.06674017757177353,0.3556816577911377,0.39773616194725037,-0.3466245234012604
6.718936920166016,0.01560133695602417,-0.017280936241149902,-0.03140474110841751,-0.42812882949788034,-1.4863322590690522,0.8675692024838018,-0.9065011739730835,0.41516923904418945,-0.07674937695264816,0.16976022720336914,0.49648386240005493,-0.2569926083087921
6.738858699798584,0.013350844383239746,-0.04212081432342529,0.022792041301727295,-0.4221474957896718,-1.4743701064469477,0.8666799324464429,-0.9079736471176147,0.40972036123275757,-0.08782483637332916,-0.15976357460021973,0.7477675676345825,-0.35564494132995605
6.7588276863098145,0.05643117427825928,-0.0833594799041748,0.07011954486370087,-0.41591060754328263,-1.4611949876566552,0.858283270386029,-0.9092602729797363,0.40402308106422424,-0.10005711019039154,-0.5703874230384827,0.8755685091018677,-0.3110754191875458
6.777987003326416,0.09238386154174805,-0.11488184332847595,0.09305275231599808,-0.41314063556317593,-1.4516367416954148,0.8403133200566248,-0.909369945526123,0.40148770809173584,-0.10887593775987625,-1.0146416425704956,0.8326880931854248,-0.17550794780254364
6.79878568649292,0.08450889587402344,-0.10984247922897339,0.08326835930347443,-0.4124033301293032,-1.4437245477729912,0.8149851046074928,-0.9087733626365662,0.4008123278617859,-0.11610504239797592,-1.2304831743240356,0.948337197303772,-0.1890372484922409
6.818902969360352,0.11124128103256226,-0.07868441939353943,0.07018041610717773,-0.41190422402782656,-1.4359380297476,0.7864055053939145,-0.9080400466918945,0.4003550112247467,-0.1232045367360115,-1.376301884651184,0.9402472376823425,-0.22145415842533112
6.83881688117981,0.1232636570930481,-0.059169262647628784,0.07774549722671509,-0.41082302467701104,-1.4308138215466009,0.7555293677232717,-0.9078248143196106,0.39936399459838867,-0.12791620194911957,-1.428823471069336,0.8396257758140564,-0.28929567337036133
6.858814716339111,0.08345556259155273,-0.059000879526138306,0.1027899980545044,-0.40776205336619825,-1.4267138940223265,0.7224388113451538,-0.9084983468055725,0.3965558707714081,-0.13181205093860626,-1.5672073364257812,0.8945748209953308,-0.44944143295288086
6.878814697265625,0.06408369541168213,-0.07019215822219849,0.11435507237911224,-0.40282129578848913,-1.4225126177562761,0.6857031549245592,-0.909863293170929,0.39201536774635315,-0.13591554760932922,-1.6830464601516724,0.9618603587150574,-0.5239430069923401
6.898836851119995,0.05318564176559448,-0.06325769424438477,0.10173140466213226,-0.39683362668392064,-1.418394038863922,0.6482938632302049,-0.9115995168685913,0.38649997115135193,-0.14001555740833282,-1.5872247219085693,0.8964809775352478,-0.597026526927948
6.918885707855225,0.004187047481536865,-0.04357454180717468,0.09578627347946167,-0.3886092342068103,-1.4127354363118554,0.6153762618281857,-0.9139008522033691,0.37890172004699707,-0.14566707611083984,-1.3222265243530273,0.9555025696754456,-0.6793729066848755
6.938900947570801,-0.02660435438156128,-0.07563048601150513,0.12137533724308014,-0.37855245386404424,-1.4044457966418793,0.5851685722749144,-0.9163735508918762,0.3695757985115051,-0.15386109054088593,-1.3213156461715698,1.0131642818450928,-0.7707979679107666
6.958854913711548,-0.03282642364501953,-0.12459492683410645,0.13053494691848755,-0.3681451353785802,-1.395864282672586,0.5520011781848234,-0.9187574982643127,0.35988548398017883,-0.16237984597682953,-1.5686891078948975,1.057777762413025,-0.7728225588798523
6.978844881057739,-0.04917645454406738,-0.11181700229644775,0.12358666956424713,-0.35984339103631635,-1.390217145603713,0.5108555761981849,-0.9207332134246826,0.35212767124176025,-0.1680963784456253,-2.191335439682007,0.9667330980300903,-0.6611147522926331
6.998845815658569,-0.060093700885772705,-0.13231518864631653,0.09913040697574615,-0.3572421828613223,-1.3894639676820868,0.4579086054691671,-0.9215041995048523,0.34969186782836914,-0.16895443201065063,-2.612786293029785,0.986653745174408,-0.5240607857704163
7.018919944763184,-0.06814420223236084,-0.10348296165466309,0.07925625145435333,-0.3582758067851461,-1.390527256494685,0.3981151377142859,-0.9213271737098694,0.3506600558757782,-0.16790959239006042,-2.906803846359253,1.0122004747390747,-0.3793012201786041
7.038884878158569,-0.07192116975784302,-0.059397101402282715,0.058029770851135254,-0.36226727216778687,-1.3913658759934389,0.3352133806150101,-0.9200832843780518,0.3543952703475952,-0.16688579320907593,-2.9411873817443848,1.1586294174194336,-0.2971784472465515
7.058098793029785,-0.047480106353759766,-0.03738084435462952,0.04153253138065338,-0.36679350867811406,-1.3897091325197763,0.27269709376233514,-0.9182180762290955,0.35862407088279724,-0.16811925172805786,-2.883131980895996,1.2556122541427612,-0.3066006600856781
7.078881740570068,0.0022429227828979492,-0.03345969319343567,0.009102582931518555,-0.3710146247427599,-1.3868015449840547,0.21261930029584594,-0.916229248046875,0.3625611960887909,-0.17050990462303162,-2.703331470489502,1.1831141710281372,-0.2890288531780243
7.098904848098755,0.03659766912460327,-0.05263999104499817,-0.02578870952129364,-0.37547186559067014,-1.384768296182092,0.15729677538180728,-0.9142832159996033,0.3667115569114685,-0.17207182943820953,-2.463829755783081,1.049310326576233,-0.21719132363796234
7.118912696838379,0.04453188180923462,-0.051066309213638306,-0.0447993278503418,-0.3802963499308341,-1.383318438719369,0.10621815196289182,-0.9122840166091919,0.3711956739425659,-0.17306548357009888,-2.306994676589966,0.977096676826477,-0.19521470367908478
7.138916015625,0.05242890119552612,-0.03340190649032593,-0.06394694745540619,-0.3843642097619808,-1.381933126898261,0.059089815008481573,-0.9105527400970459,0.37496981024742126,-0.1740441769361496,-2.0561420917510986,0.9078202843666077,-0.22096936404705048
7.158881902694702,0.06382447481155396,0.001607358455657959,-0.050198912620544434,-0.38630121409296325,-1.3800720414186323,0.01764906932398386,-0.909512460231781,0.37676477432250977,-0.17560048401355743,-1.752047061920166,0.8321171402931213,-0.32823631167411804
7.1788787841796875,0.09442156553268433,-0.0028535127639770508,-0.016869843006134033,-0.38477544742579217,-1.378024003451045,-0.019019475068721273,-0.9097139835357666,0.3753510117530823,-0.17757275700569153,-1.6134495735168457,0.7402172684669495,-0.46268919110298157
7.198919773101807,0.1265663504600525,-0.021071046590805054,0.012790337204933167,-0.38146706231717886,-1.3782035646697741,-0.05523849052804561,-0.9109596610069275,0.372282475233078,-0.17764610052108765,-1.6529425382614136,0.6054025292396545,-0.49102553725242615
7.218877792358398,0.12805205583572388,-0.01417684555053711,0.012122437357902527,-0.3775931341328273,-1.3806242325004652,-0.09152729177617291,-0.9127964973449707,0.36868423223495483,-0.17571178078651428,-1.564055323600769,0.49268630146980286,-0.5424280166625977
7.238900899887085,0.11677289009094238,0.02125975489616394,0.004042148590087891,-0.3717007947601811,-1.38359644489539,-0.12488552087241694,-0.9154332876205444,0.3632006049156189,-0.17339926958084106,-1.4562519788742065,0.4459465742111206,-0.6213669180870056
7.258880853652954,0.13639163970947266,0.03511771559715271,0.029671594500541687,-0.3661026956162564,-1.388466960641151,-0.16199385491577098,-0.9182522296905518,0.3579791188240051,-0.16930463910102844,-1.8708614110946655,0.3981795907020569,-0.6020715832710266
7.278887748718262,0.11661392450332642,0.033053040504455566,-0.006447911262512207,-0.36001931235880674,-1.396614397184109,-0.20407618423690602,-0.921728789806366,0.3522922992706299,-0.16219209134578705,-1.846641182899475,0.3030131161212921,-0.6403985619544983
7.29887580871582,0.12088102102279663,0.11713215708732605,-0.002832844853401184,-0.3547874657615316,-1.4061212773065461,-0.24395231822853056,-0.9250347018241882,0.3473910689353943,-0.15372219681739807,-1.7640461921691895,0.14845027029514313,-0.555059015750885
7.318918704986572,0.10571730136871338,0.14100965857505798,-0.020451009273529053,-0.3475910496260462,-1.4167765249217925,-0.27993049219803806,-0.9290663599967957,0.34063389897346497,-0.1442369520664215,-1.458328366279602,0.06122899055480957,-0.7168768048286438
7.338886737823486,0.12351012229919434,0.1523515284061432,-0.01333799958229065,-0.33652340231167177,-1.4270938059057703,-0.311731767324882,-0.9341790080070496,0.330207496881485,-0.1351756453514099,-1.3379522562026978,-0.020882654935121536,-0.7448084950447083
7.358877897262573,0.15981346368789673,0.16105565428733826,-0.050894610583782196,-0.3275907289154098,-1.4384936250034321,-0.3410964361122826,-0.9385457634925842,0.3217628300189972,-0.12490175664424896,-1.3140132427215576,-0.1803438663482666,-0.5646108388900757
7.378850936889648,0.10717242956161499,0.2250957190990448,-0.10953908413648605,-0.31872526426844544,-1.4519953633076241,-0.3679627312217128,-0.9429420828819275,0.31335628032684326,-0.11255244165658951,-1.0982849597930908,-0.28371915221214294,-0.6389344930648804
7.398914813995361,0.06524616479873657,0.2827368974685669,-0.187879741191864,-0.30912248312545276,-1.4653609361970406,-0.3934131942626677,-0.9473111033439636,0.30422282218933105,-0.10025187581777573,-1.336397409439087,-0.31331151723861694,-0.5756924748420715
7.418852806091309,0.03162175416946411,0.2291678786277771,-0.2747986912727356,-0.302700922342643,-1.483166630648014,-0.4300636228089656,-0.9508723020553589,0.29809942841529846,-0.08353859186172485,-2.194725275039673,-0.40317827463150024,-0.3749983310699463
7.438880920410156,-0.09443634748458862,0.2021561861038208,-0.3622637391090393,-0.30372792617821714,-1.510864388621857,-0.48867524071565077,-0.9525148272514343,0.299079567193985,-0.05715450644493103,-3.3966867923736572,-0.648127019405365,0.14271758496761322
7.458876848220825,-0.2262384295463562,0.298723042011261,-0.4054117202758789,-0.31518852679969933,-1.5411819415333778,-0.5544584187163524,-0.9503212571144104,0.30999571084976196,-0.028151409700512886,-2.441419839859009,-0.1994725465774536,0.4846934676170349
7.478888034820557,-0.20484262704849243,0.5804203748703003,-0.30213648080825806,-0.3153920793323434,-1.5461053405902327,-0.5859204115054892,-0.9503851532936096,0.31018924713134766,-0.023470716550946236,-0.4407520592212677,0.568098247051239,-0.49625036120414734
7.498875856399536,0.022278189659118652,0.6313809752464294,-0.2743145823478699,-0.30550864581199794,-1.5376788025134362,-0.5754975864314945,-0.9531711935997009,0.3007782995700836,-0.03157821670174599,1.3641778230667114,-0.08969234675168991,-0.3002537488937378
7.518877983093262,0.0348469614982605,0.3939462900161743,-0.24294620752334595,-0.30052895612233227,-1.5288938612491376,-0.5318987397043481,-0.9543416500091553,0.29602548480033875,-0.04001268744468689,2.735121965408325,-0.2941960394382477,-0.1960594654083252
7.538881778717041,-0.05481165647506714,0.21000581979751587,-0.17848259210586548,-0.29116077842358284,-1.5158294415746252,-0.46615125005457436,-0.9564646482467651,0.2870643436908722,-0.052626896649599075,3.551842451095581,-0.3348671495914459,-0.3956681191921234
7.558092832565308,-0.08733254671096802,0.14508309960365295,-0.17172950506210327,-0.2803109535564804,-1.499830749158639,-0.3872746430513985,-0.9585508108139038,0.2766544818878174,-0.06813853234052658,3.985671281814575,-0.2544099986553192,-0.2554996907711029
7.578921794891357,-0.08862119913101196,0.07213863730430603,-0.0721733570098877,-0.2702502169639894,-1.4839190523713988,-0.3083158558171616,-0.9600696563720703,0.2669725716114044,-0.08361871540546417,3.609421968460083,-0.380025714635849,-0.17112252116203308
7.598879814147949,-0.010259509086608887,-0.03747722506523132,-0.01764756441116333,-0.2649464811122558,-1.4710179177464437,-0.2402913149030165,-0.9603064060211182,0.26185762882232666,-0.09613709151744843,2.8971407413482666,-0.1261618435382843,0.2686493396759033
7.61887788772583,0.07674354314804077,-0.08469411730766296,0.04040493071079254,-0.2695249593411223,-1.4589761840347615,-0.19078616432709544,-0.957877516746521,0.2662735879421234,-0.10755867511034012,1.7911931276321411,-0.040036022663116455,0.6073980927467346
7.638871908187866,0.11110895872116089,-0.09354615211486816,0.06588548421859741,-0.27927594141394674,-1.4515737829003232,-0.16290521658181184,-0.9544317722320557,0.2756597101688385,-0.11433200538158417,0.8261784911155701,0.03744439035654068,0.6615853309631348
7.658915996551514,0.10576289892196655,-0.11652871966362,0.09009439498186111,-0.2941053089504786,-1.445240907603117,-0.15140580474808082,-0.9495282173156738,0.28988370299339294,-0.11984884738922119,0.08675011992454529,0.23184430599212646,0.9540466070175171
7.6788787841796875,0.06122946739196777,-0.14747270941734314,0.13635091483592987,-0.31570034071102643,-1.4398403740563366,-0.15384151286936348,-0.9424399733543396,0.3104822635650635,-0.12412851303815842,-0.5714185237884521,0.372519850730896,1.1284693479537964
7.698876857757568,0.014784693717956543,-0.11274278163909912,0.2051519751548767,-0.3401342546880606,-1.4361124513212669,-0.16831252853733816,-0.9341725707054138,0.33361366391181946,-0.12658432126045227,-1.0721591711044312,0.4652014970779419,1.0724111795425415
7.7189106941223145,-0.06784582138061523,-0.06629493832588196,0.21605420112609863,-0.3624965722593714,-1.4335229967846628,-0.19085421432013072,-0.9262186288833618,0.3546096682548523,-0.1279498189687729,-1.2942074537277222,0.5509511232376099,0.8263249397277832
7.738893985748291,-0.15527117252349854,-0.050849348306655884,0.1918151080608368,-0.37917545752815096,-1.4307754127931473,-0.21582985146532715,-0.9198783040046692,0.37015461921691895,-0.12965060770511627,-1.2275551557540894,0.6322887539863586,0.5334755182266235
7.758879899978638,-0.175209641456604,-0.03328406810760498,0.1958344578742981,-0.39130812898466244,-1.4255706588038093,-0.23893335897923046,-0.9146799445152283,0.3813979923725128,-0.13377679884433746,-1.0572515726089478,0.7650967836380005,0.38211607933044434
7.7788777351379395,-0.09234917163848877,-0.04006728529930115,0.20729893445968628,-0.4009763359378683,-1.4178996332710663,-0.2590927701029573,-0.9099397659301758,0.3903174102306366,-0.14022114872932434,-0.9565461874008179,0.7381919026374817,0.3147200047969818
7.7989208698272705,0.014901340007781982,-0.0797501802444458,0.2247476428747177,-0.41043668887924356,-1.4122771141024486,-0.2786197897455564,-0.9054502844810486,0.3990097939968109,-0.14474570751190186,-0.9908950328826904,0.5844876766204834,0.3544791638851166
7.818906784057617,0.06319373846054077,-0.11071893572807312,0.18712443113327026,-0.4215225659434561,-1.4111988137676328,-0.2988618209097717,-0.9008708596229553,0.40915021300315857,-0.14501003921031952,-0.989249050617218,0.33695298433303833,0.4480520784854889
7.83887791633606,0.06425803899765015,-0.10510978102684021,0.13282984495162964,-0.43390517550454455,-1.4140897515581983,-0.31612170013934937,-0.8962131142616272,0.42041727900505066,-0.1416034996509552,-0.7330930829048157,0.09065559506416321,0.5125588774681091
7.858879804611206,0.03763610124588013,-0.09401106834411621,0.11858034133911133,-0.4451456519091419,-1.4190332386737985,-0.32593698832860935,-0.8921741843223572,0.43058934807777405,-0.13644827902317047,-0.31831827759742737,-0.14056973159313202,0.4435655176639557
7.878876686096191,-0.008876442909240723,-0.12723979353904724,0.13596314191818237,-0.4528128737407387,-1.4228229573321562,-0.3282667871031885,-0.8893933296203613,0.4374966621398926,-0.13257557153701782,-0.04454168304800987,-0.1035124659538269,0.2803661823272705
7.898876905441284,-0.014638900756835938,-0.203031986951828,0.16968423128128052,-0.45718051742574567,-1.4240694793394082,-0.32838640507783795,-0.8876591920852661,0.44141992926597595,-0.13118621706962585,-0.05842243880033493,-0.030061149969697,0.1733764261007309
7.918898820877075,0.01521521806716919,-0.25424349308013916,0.18673855066299438,-0.46007683353236023,-1.4263765926070748,-0.33083049471239095,-0.8866904973983765,0.4440169632434845,-0.12895338237285614,-0.18457257747650146,-0.11839989572763443,0.06076251342892647
7.938877820968628,0.005016028881072998,-0.21897923946380615,0.14042574167251587,-0.4595987220023349,-1.4325186795810887,-0.33596129433483024,-0.8876760005950928,0.4435884952545166,-0.12353411316871643,-0.2328409105539322,-0.26982298493385315,-0.19090284407138824
7.958878993988037,-0.03362846374511719,-0.15651178359985352,0.08795087039470673,-0.4532774183789124,-1.4414953229896932,-0.34107223219158633,-0.8915120959281921,0.43791434168815613,-0.11592014878988266,-0.11935268342494965,-0.4024313688278198,-0.4919827878475189
7.978892803192139,-0.06150519847869873,-0.14971008896827698,0.10392218828201294,-0.4417213543624146,-1.4503167443772562,-0.34377795029634906,-0.8974640369415283,0.4274962246417999,-0.10865230858325958,-0.007051245309412479,-0.3347199559211731,-0.6685307621955872
7.998888969421387,-0.06530797481536865,-0.16717594861984253,0.14555859565734863,-0.4282546963355413,-1.4574441432216703,-0.3474435837508285,-0.9038540720939636,0.415283739566803,-0.10289490222930908,-0.23589034378528595,-0.24308322370052338,-0.6967928409576416
8.018878936767578,-0.06243705749511719,-0.16244173049926758,0.16610121726989746,-0.41533880469128,-1.466317287966821,-0.3590466835556506,-0.9099903702735901,0.403499960899353,-0.09542237967252731,-0.6826849579811096,-0.14648300409317017,-0.7125267386436462
8.038877964019775,-0.06224513053894043,-0.12857097387313843,0.12396574020385742,-0.4026206089943476,-1.476150434962221,-0.37891140156148484,-0.9159196019172668,0.3918307423591614,-0.08694780617952347,-0.9745874404907227,-0.08208120614290237,-0.7205939292907715
8.0588858127594,-0.030686497688293457,-0.06293722987174988,0.06455248594284058,-0.3905216842533035,-1.4877412788505164,-0.40251464612309884,-0.9215230941772461,0.3806708753108978,-0.07671362161636353,-1.0521708726882935,-0.16685938835144043,-0.7000865936279297
8.078879833221436,-0.012768447399139404,-0.003984540700912476,0.011602222919464111,-0.37705204089825123,-1.5001123681052912,-0.42454299591503525,-0.9274324178695679,0.3681811988353729,-0.06566398590803146,-0.8482972979545593,-0.24034816026687622,-0.8127180337905884
8.098883867263794,0.011318445205688477,0.03560939431190491,-0.01580148935317993,-0.36100533261095297,-1.511728764039571,-0.4412989035311186,-0.9339107275009155,0.35321494936943054,-0.05522807314991951,-0.6270789504051208,-0.3172236680984497,-0.8836615085601807
8.118898868560791,0.012115776538848877,0.04316931962966919,-0.04337507486343384,-0.34348908429983144,-1.5229175243947315,-0.45380355586249504,-0.9405063986778259,0.33677440881729126,-0.04506475850939751,-0.4639923572540283,-0.3630153238773346,-0.9269763827323914
8.13890790939331,-0.011204242706298828,0.06691676378250122,-0.06391072273254395,-0.32537542449147994,-1.5328703957684895,-0.4635614631171171,-0.9468494057655334,0.31966453790664673,-0.03592737391591072,-0.38547638058662415,-0.28861451148986816,-0.9271621704101562
8.158914804458618,-0.014135301113128662,0.07727184891700745,-0.08051121234893799,-0.30786305830050414,-1.540808385520657,-0.472801641368849,-0.9525549411773682,0.3030228614807129,-0.02857372723519802,-0.5910444259643555,-0.16753920912742615,-0.8285868167877197
8.178902864456177,-0.03705275058746338,0.06323453783988953,-0.11703372001647949,-0.29173115510954334,-1.5480583293155996,-0.49124212944355916,-0.9574999809265137,0.28761065006256104,-0.0217753853648901,-0.9623976945877075,-0.036345236003398895,-0.8052117228507996
8.198719024658203,-0.10478734970092773,0.0984145998954773,-0.1491754651069641,-0.27844517693644655,-1.5547092671377356,-0.5154125233198613,-0.9613596796989441,0.27486103773117065,-0.015466785058379173,-1.4644619226455688,0.0871543362736702,-0.548450767993927
8.21886682510376,-0.28228652477264404,0.07123762369155884,-0.11938607692718506,-0.26724385583705473,-1.5587898533168543,-0.553000670058192,-0.9644330143928528,0.2640741467475891,-0.011579995974898338,-2.004844903945923,0.458046019077301,-0.6227991580963135
8.238869905471802,-0.3778500556945801,0.10646772384643555,-0.06256425380706787,-0.25847646386915446,-1.5573679603171966,-0.5992240675825332,-0.9666934609413147,0.255607932806015,-0.012981894426047802,-2.5411157608032227,0.8986504673957825,-0.3085527718067169
8.258849859237671,-0.2882367968559265,0.1614760458469391,-0.02529686503112316,-0.2549580533629242,-1.5510506693933466,-0.6540874614617885,-0.967485249042511,0.2522048056125641,-0.019106116145849228,-2.7060587406158447,1.1103949546813965,-0.1392400562763214
8.27887773513794,-0.08668637275695801,0.22092866897583008,-0.042955219745635986,-0.25471699298107725,-1.542980697117713,-0.7080408238303657,-0.967360258102417,0.2519715428352356,-0.026914676651358604,-2.490758180618286,1.0210974216461182,0.009473361074924469
8.298886775970459,0.051313161849975586,0.18949586153030396,-0.09102147817611694,-0.2581555424690243,-1.5359618970379985,-0.7543462161205433,-0.9662759304046631,0.2552976608276367,-0.03367329016327858,-1.9876890182495117,0.8807939887046814,0.20441851019859314
8.318879842758179,0.13471919298171997,0.11786258220672607,-0.08018803596496582,-0.2653045429141919,-1.5275561010637815,-0.7899738724305235,-0.9641106128692627,0.2622031569480896,-0.04171435907483101,-1.516890287399292,0.9056639075279236,0.36768990755081177
8.338919878005981,0.19824999570846558,0.02798229455947876,-0.04379570111632347,-0.27493720224085766,-1.5164561433619264,-0.8180442012430564,-0.9610216617584229,0.2714864909648895,-0.05227355286478996,-1.2989773750305176,0.9657447338104248,0.46478766202926636
