timestamp,acceleration_x,acceleration_y,acceleration_z,attitude_pitch,attitude_roll,attitude_yaw,gravity_x,gravity_y,gravity_z,rotation_x,rotation_y,rotation_z
0.0,0.2160678505897522,0.03027045726776123,-0.23632997274398804,-0.6677294942425703,-0.7743002800519561,-0.3566069706205173,-0.549045205116272,0.6192046999931335,-0.5613689422607422,0.3663899302482605,-0.8093274831771851,0.2608625888824463
0.028580904006958008,0.2003445029258728,-0.00582277774810791,-0.19647789001464844,-0.6695847547532898,-0.791991850885975,-0.33194251981885214,-0.5580716133117676,0.6206604838371277,-0.5507602095603943,0.19533705711364746,-0.8528741002082825,0.5208467841148376
0.0469050407409668,0.19525790214538574,-0.004699826240539551,-0.19605636596679688,-0.6753272642630522,-0.8009807561895186,-0.31827541101189355,-0.5604312419891357,0.6251527667045593,-0.5432319045066833,0.19862931966781616,-0.8998920321464539,0.6358469724655151
0.07146692276000977,0.16344279050827026,-0.00556415319442749,-0.20294028520584106,-0.6813955807704224,-0.8077834857409496,-0.3007741892181931,-0.5613614916801453,0.6298775672912598,-0.5367752313613892,0.39608219265937805,-0.8949988484382629,0.7412970662117004
0.079193115234375,0.16344279050827026,-0.00556415319442749,-0.20294028520584106,-0.6813955807704224,-0.8077834857409496,-0.3007741892181931,-0.5613614916801453,0.6298775672912598,-0.5367752313613892,0.39608219265937805,-0.8949988484382629,0.7412970662117004
0.11022090911865234,0.08476591110229492,-3.7610530853271484e-05,-0.1454821228981018,-0.6897104431975928,-0.8100523699394,-0.2502912149871162,-0.5587649345397949,0.6363138556480408,-0.5318707227706909,0.633499801158905,-0.8236377239227295,0.8789424300193787
0.13088178634643555,0.06108778715133667,6.431341171264648e-05,-0.12275272607803345,-0.6942947287775648,-0.807753717568005,-0.22208313319960035,-0.5554267764091492,0.6398435831069946,-0.5311321020126343,0.614613950252533,-0.7575076818466187,0.9606807827949524
0.1500399112701416,0.051203250885009766,0.006602168083190918,-0.06802177429199219,-0.7005561718964249,-0.8038249766019685,-0.19298263329778303,-0.5504403114318848,0.6446429491043091,-0.530519425868988,0.5779800415039062,-0.7497826814651489,1.031180739402771
0.1695089340209961,0.03763413429260254,0.013787984848022461,-0.05241560935974121,-0.7069821168496904,-0.7996390908492897,-0.16242550250944907,-0.5452330112457275,0.6495421528816223,-0.5299208164215088,0.6762080788612366,-0.8059886693954468,1.0474263429641724
0.18979406356811523,-0.005006372928619385,0.058902084827423096,-0.046197712421417236,-0.7112927607210563,-0.7946069251731839,-0.12920581061327574,-0.5405563712120056,0.6528136134147644,-0.5306912064552307,0.8302013874053955,-0.8672983646392822,1.0122523307800293
0.20996689796447754,-0.048296451568603516,0.08233088254928589,-0.021720051765441895,-0.7123723762369346,-0.7892088753795928,-0.09383322231998194,-0.5371832847595215,0.6536310315132141,-0.5331047177314758,1.0023764371871948,-0.899368166923523,0.9680060744285583
0.23107481002807617,-0.05778878927230835,0.0910501480102539,0.015818476676940918,-0.7112353754638604,-0.7824083377211389,-0.05685991287049103,-0.5340691208839417,0.6527701616287231,-0.5372722744941711,1.030832052230835,-0.8348720669746399,0.9314618110656738
0.24652695655822754,-0.03887665271759033,0.06907826662063599,0.09035801887512207,-0.7107711700541604,-0.7748125328006635,-0.021734251059446538,-0.5301846861839294,0.6524183750152588,-0.5415298342704773,0.838930606842041,-0.6946715712547302,0.9428169131278992
0.26770877838134766,0.0076406002044677734,0.021375834941864014,0.18286937475204468,-0.7140822791021758,-0.7677101518613451,0.008726180026852595,-0.5248219966888428,0.6549241542816162,-0.5437244176864624,0.5302643179893494,-0.6098495721817017,0.9368659853935242
0.29225778579711914,0.0548664927482605,-0.006778717041015625,0.22838187217712402,-0.7205851048503961,-0.7639227266437874,0.03398625696833759,-0.5198017954826355,0.6598244309425354,-0.5426213145256042,0.37398016452789307,-0.6895316243171692,0.8783149123191833
0.30612802505493164,0.059332430362701416,0.02841341495513916,0.19789069890975952,-0.7255232379560401,-0.762731828053154,0.058097077472079386,-0.5168977379798889,0.6635270118713379,-0.5408777594566345,0.5675711631774902,-0.7838296294212341,0.7670286297798157
0.3278059959411621,-0.010208189487457275,0.09195303916931152,0.15548372268676758,-0.725194206436432,-0.7610045586050034,0.08439050145828904,-0.51611328125,0.6632807850837708,-0.5419278144836426,0.7783660888671875,-0.7800285220146179,0.633297324180603
0.3506789207458496,-0.07443320751190186,0.11942589282989502,0.15597587823867798,-0.7220287917529851,-0.7598603212629903,0.10906392079004394,-0.5169364213943481,0.660908579826355,-0.5440372824668884,0.6991268992424011,-0.7381744384765625,0.5016477704048157
0.3624739646911621,-0.08516764640808105,0.11662417650222778,0.189863383769989,-0.7204768618349339,-0.7600912442288205,0.12943884546757636,-0.517768144607544,0.6597431302070618,-0.5446606874465942,0.44799184799194336,-0.636974573135376,0.5181687474250793
0.3829329013824463,-0.07631111145019531,0.11460226774215698,0.19686448574066162,-0.7231705931594573,-0.7613498195558163,0.14561109300868064,-0.5172252655029297,0.6617650389671326,-0.5427201390266418,0.2231125384569168,-0.5746639966964722,0.5405210852622986
0.40267276763916016,-0.06555390357971191,0.10180461406707764,0.17392611503601074,-0.7278349996915359,-0.7628730682123819,0.16012624005743814,-0.5159128308296204,0.6652547717094421,-0.5396944880485535,0.22864137589931488,-0.5433319807052612,0.5759338140487671
0.42469310760498047,-0.05179476737976074,0.08024060726165771,0.14690977334976196,-0.731729294202045,-0.7627111383097018,0.17660732244832544,-0.5140315890312195,0.6681572794914246,-0.5379009246826172,0.33524414896965027,-0.5519911050796509,0.560310959815979
0.44515275955200195,-0.03642427921295166,0.03253018856048584,0.16310954093933105,-0.7339413138771573,-0.7627771718818334,0.19379811020435897,-0.5130447149276733,0.6698014140129089,-0.5367972254753113,0.370907187461853,-0.6158577799797058,0.5171386003494263
0.46660709381103516,-0.007911980152130127,-0.014250397682189941,0.17753666639328003,-0.735500274976174,-0.765453680891841,0.2097550866953616,-0.5137554407119751,0.6709581613540649,-0.534668505191803,0.348814457654953,-0.7383499145507812,0.44715195894241333
0.48482394218444824,-0.008682548999786377,-0.01408308744430542,0.15609413385391235,-0.7359126162751223,-0.7713535110279275,0.22493045811088996,-0.5167080760002136,0.6712638735771179,-0.5314297676086426,0.44112080335617065,-0.8666097521781921,0.39796748757362366
0.5068068504333496,-0.03207588195800781,0.05203580856323242,0.09686708450317383,-0.7334416204456624,-0.7762129435464592,0.24333445174558355,-0.5204448699951172,0.6694303154945374,-0.530094563961029,0.6829984188079834,-0.8284995555877686,0.43067407608032227
0.5267739295959473,-0.05417293310165405,0.08220511674880981,0.07396477460861206,-0.7291738578494718,-0.7758685715686481,0.2662671308952171,-0.5222583413124084,0.6662538051605225,-0.5323082208633423,0.7893315553665161,-0.6699018478393555,0.47977951169013977
0.5459918975830078,-0.057973623275756836,0.038329362869262695,0.09206384420394897,-0.7250368377390639,-0.772296298311474,0.289663334247859,-0.5222724080085754,0.6631630063056946,-0.5361403822898865,0.719894528388977,-0.5324755907058716,0.47895684838294983
0.5669848918914795,-0.07129818201065063,-0.005005478858947754,0.10484254360198975,-0.7212916978228069,-0.7680904254362715,0.3103027362519914,-0.5217347145080566,0.6603552103042603,-0.5401147603988647,0.6379783749580383,-0.4333035945892334,0.3473396599292755
0.5843558311462402,-0.10091692209243774,-0.014386951923370361,0.09501606225967407,-0.7165230409577994,-0.7664294390264338,0.3253639207516685,-0.5230149626731873,0.6567667126655579,-0.5432429313659668,0.46666473150253296,-0.3979474902153015,0.1462896466255188
0.6062819957733154,-0.1454959511756897,0.019336223602294922,0.06944447755813599,-0.7121792371782688,-0.768757988417352,0.3329631810379506,-0.5262570381164551,0.6534848809242249,-0.5440690517425537,0.24034474790096283,-0.33438020944595337,-0.02225426770746708
0.6254498958587646,-0.15107709169387817,0.05809885263442993,0.026285171508789062,-0.7102385964603334,-0.7742468900740047,0.33385248680269114,-0.5301210880279541,0.6520146727561951,-0.5420779585838318,-0.05102594569325447,-0.2777820825576782,-0.036126647144556046
0.6462578773498535,-0.09738975763320923,0.0826537013053894,-0.007634997367858887,-0.7122885982475994,-0.7804063079245764,0.33175875756701206,-0.5325083136558533,0.6535676717758179,-0.5378514528274536,-0.17541763186454773,-0.1977243572473526,0.08360521495342255
0.6651887893676758,-0.04668194055557251,0.08290374279022217,-0.019684672355651855,-0.7171496504079486,-0.7836904170283131,0.3311733549952368,-0.5320228934288025,0.6572390794754028,-0.5338431596755981,-0.19180430471897125,-0.10105755925178528,0.2337096631526947
0.6851539611816406,0.00814276933670044,0.0031961798667907715,-0.005937159061431885,-0.7239871145966492,-0.7846023365028945,0.33277287717111953,-0.5293219089508057,0.6623769402503967,-0.5301650762557983,-0.1948348432779312,-0.11719125509262085,0.3128427267074585
0.70619797706604,0.06190288066864014,-0.10148489475250244,0.01946890354156494,-0.7305724524720054,-0.7859045702191297,0.33558190267194804,-0.5269144773483276,0.6672961115837097,-0.5263810753822327,-0.11137966811656952,-0.2073560357093811,0.2818790376186371
0.7251877784729004,0.055491507053375244,-0.1502346396446228,0.03070765733718872,-0.7342223563909548,-0.7890206214967554,0.33838115977037625,-0.526820182800293,0.6700100898742676,-0.523017168045044,-0.014982085675001144,-0.29261332750320435,0.111639603972435
0.7461409568786621,0.01400148868560791,-0.1374143362045288,0.03511369228363037,-0.7350203010083994,-0.7950763679739783,0.3376945542031271,-0.5295959711074829,0.6706022024154663,-0.5194427967071533,-0.11227400600910187,-0.23306290805339813,-0.08716970682144165
0.7648930549621582,-0.049671828746795654,-0.10001146793365479,0.04164963960647583,-0.7359826709829139,-0.8032343524620401,0.3304780831981942,-0.5333511829376221,0.6713157892227173,-0.5146567225456238,-0.3449242413043976,-0.08656010776758194,-0.20352093875408173
0.7852177619934082,-0.0711820125579834,-0.027485668659210205,0.03721785545349121,-0.7393838480841113,-0.8124440496077436,0.317099874144003,-0.5364077091217041,0.6738327741622925,-0.5081498026847839,-0.5696778893470764,0.05088420957326889,-0.22496731579303741
0.804966926574707,-0.07070708274841309,0.04902726411819458,-5.984306335449219e-05,-0.743908505147777,-0.819937831809282,0.3030720456290275,-0.5379660129547119,0.6771690845489502,-0.5020305514335632,-0.4604300856590271,0.13609462976455688,-0.14616653323173523
0.8247838020324707,-0.07213002443313599,0.09190487861633301,-0.04252290725708008,-0.7472101667077524,-0.8230546307813277,0.2940069020618344,-0.537885844707489,0.6795948147773743,-0.49882838129997253,-0.25019586086273193,0.16119936108589172,-0.08122380077838898
0.8463168144226074,-0.0760543942451477,0.06080186367034912,-0.033505380153656006,-0.7485289635749648,-0.8231131598047562,0.28960006721997517,-0.5372573733329773,0.6805616617202759,-0.49818703532218933,-0.10754913091659546,0.13090652227401733,-0.03980157524347305
0.8654818534851074,-0.053762197494506836,0.01602071523666382,0.005517035722732544,-0.7494826897222012,-0.8229337353530222,0.28697643639315323,-0.5366919040679932,0.6812601685523987,-0.49784180521965027,-0.11660376936197281,0.0606057234108448,-0.026944980025291443
0.8854570388793945,-0.03493553400039673,-0.0375593900680542,0.029803186655044556,-0.7508263900886132,-0.8247412945862279,0.2836733066460553,-0.5369181036949158,0.6822431683540344,-0.4962490499019623,-0.14280903339385986,-0.014573534019291401,-0.04239286109805107
0.9046387672424316,-0.021566033363342285,-0.060041964054107666,0.030957520008087158,-0.7517121901974245,-0.8280486451265726,0.28027723927218134,-0.5381110906600952,0.6828905344009399,-0.4940617084503174,-0.08570067584514618,-0.08432038873434067,-0.06778094172477722
0.9234910011291504,-0.017853140830993652,-0.06156206130981445,0.02215886116027832,-0.750952578449281,-0.8317998318755463,0.27789078012882057,-0.5403438806533813,0.6823354363441467,-0.4923889636993408,0.007892855443060398,-0.1209973618388176,-0.10513397306203842
0.944303035736084,-0.010267674922943115,-0.06144136190414429,0.018967539072036743,-0.7487649140150741,-0.835484328457535,0.27648565433648004,-0.5432601571083069,0.6807345151901245,-0.49139484763145447,0.05357203260064125,-0.14632943272590637,-0.12946784496307373
0.963392972946167,6.014108657836914e-05,-0.060524582862854004,0.01641058921813965,-0.7459341302843613,-0.8399341839706702,0.27462492214265294,-0.5468741059303284,0.6786581873893738,-0.49025699496269226,0.03203827142715454,-0.16315403580665588,-0.1611233502626419
0.9842019081115723,0.005467355251312256,-0.043384432792663574,0.008573532104492188,-0.7429819071195056,-0.8451564514583091,0.27178415186999766,-0.5509233474731445,0.6764869689941406,-0.4887218773365021,0.004041925072669983,-0.15990978479385376,-0.18524423241615295
1.0031979084014893,0.006497204303741455,-0.03392612934112549,0.0008552670478820801,-0.7402945163865248,-0.8508274071753459,0.26775732846638034,-0.5550506711006165,0.674505352973938,-0.4867866337299347,-0.05015034228563309,-0.13470491766929626,-0.18899674713611603
1.0279488563537598,0.019762933254241943,-0.0319707989692688,0.0011385083198547363,-0.7382266750207291,-0.8567838775668355,0.2629725863495641,-0.5589933395385742,0.6729773283004761,-0.48438429832458496,-0.08875163644552231,-0.1403132677078247,-0.19696225225925446
1.041693925857544,0.024861931800842285,-0.023697972297668457,2.7686357498168945e-05,-0.7361622217926839,-0.8637745945396327,0.25725730850670164,-0.563420832157135,0.6714488863945007,-0.4813660979270935,-0.09999436140060425,-0.18244536221027374,-0.23822121322155
1.0601859092712402,0.03393334150314331,-0.012368381023406982,-0.01452338695526123,-0.7333757133583301,-0.8721768700809793,0.2510661526363312,-0.5688759684562683,0.669381320476532,-0.4778166711330414,-0.07879415899515152,-0.2501276433467865,-0.2647479772567749
1.0808110237121582,0.04576772451400757,0.004029452800750732,-0.03785553574562073,-0.7299376921513133,-0.8814706525245698,0.24524898938138195,-0.5750645399093628,0.6668232083320618,-0.4739699959754944,-0.045028429478406906,-0.28981921076774597,-0.2640652656555176
1.1033778190612793,0.06061148643493652,0.026792526245117188,-0.04990184307098389,-0.7264051379880283,-0.8906005427476763,0.24039164105988864,-0.581195592880249,0.6641865372657776,-0.47017866373062134,-0.013316093012690544,-0.2972196042537689,-0.23345762491226196
1.124201774597168,0.08205801248550415,0.025528550148010254,-0.04247274994850159,-0.7231203317122272,-0.8990765045566756,0.2367436708584214,-0.5868644714355469,0.6617273688316345,-0.46659091114997864,-0.002141882199794054,-0.3165610134601593,-0.19464591145515442
1.1445269584655762,0.10991895198822021,0.0055806636810302734,-0.03199130296707153,-0.7200981225642611,-0.9076182546044296,0.23372039621725463,-0.5924018621444702,0.6594584584236145,-0.46279019117355347,0.011811604723334312,-0.33758124709129333,-0.1877071112394333
1.1666560173034668,0.12458837032318115,-0.026849806308746338,-0.016647309064865112,-0.7169231003026255,-0.9169275776513677,0.23028560499643458,-0.5983431935310364,0.6570683121681213,-0.4585265517234802,-0.028897900134325027,-0.37288692593574524,-0.22560209035873413
1.1847400665283203,0.14993226528167725,-0.06000924110412598,0.014140099287033081,-0.713732113842457,-0.9287693621578812,0.22467258366125198,-0.6054070591926575,0.6546595096588135,-0.4526623785495758,-0.11098802089691162,-0.45444783568382263,-0.2921743094921112
1.2045397758483887,0.17852246761322021,-0.08648580312728882,0.038818538188934326,-0.7100072421394397,-0.943565323506499,0.21680901312644474,-0.614008367061615,0.6518392562866211,-0.44508373737335205,-0.13613851368427277,-0.5040715932846069,-0.3490702509880066
1.2244877815246582,0.2005435824394226,-0.11617308855056763,0.06912797689437866,-0.7055606662968383,-0.9597568505469058,0.20826352940852472,-0.6235019564628601,0.6484607458114624,-0.4367426931858063,-0.125691220164299,-0.5891139507293701,-0.40626922249794006
1.244602918624878,0.20936983823776245,-0.1579127311706543,0.09048765897750854,-0.6994520007728027,-0.978877615119614,0.19837312632557616,-0.6350138187408447,0.6437984704971313,-0.4269440174102783,-0.16831019520759583,-0.6625099182128906,-0.5217304825782776
1.263516902923584,0.18936622142791748,-0.17225921154022217,0.09700053930282593,-0.6914269631051716,-1.0011303231410444,0.1858564097208868,-0.6486863493919373,0.6376370787620544,-0.41548192501068115,-0.17185813188552856,-0.7851399183273315,-0.6904268860816956
1.2847158908843994,0.17990106344223022,-0.12303990125656128,0.052841782569885254,-0.6803134113805536,-1.025781180864045,0.17379297716821743,-0.6647490859031677,0.6290366649627686,-0.40301570296287537,0.011949502862989902,-0.9060852527618408,-0.7142077684402466
1.3059821128845215,0.13507527112960815,-0.005301356315612793,-0.029397934675216675,-0.6681031931278768,-1.047005603522881,0.16813704449640207,-0.6797530055046082,0.6194981336593628,-0.39262956380844116,0.18615347146987915,-0.8298746347427368,-0.5742976069450378
1.3241519927978516,0.027273237705230713,0.1401357650756836,-0.05529910326004028,-0.6567174693315811,-1.063326719476469,0.16584933057806184,-0.6921902894973755,0.6105203628540039,-0.38488638401031494,0.16839230060577393,-0.6790822148323059,-0.513701856136322
1.3423218727111816,0.033616840839385986,0.13849276304244995,-0.02750563621520996,-0.6486445603060457,-1.0778960324191211,0.1614854403383248,-0.7020434141159058,0.6041067838668823,-0.37708109617233276,-0.07168318331241608,-0.5479274392127991,-0.3609101176261902
1.3640108108520508,0.07751744985580444,0.09738302230834961,0.01779976487159729,-0.6447664276710275,-1.0921736726424038,0.15475991730416228,-0.7094296813011169,0.6010117530822754,-0.3680956959724426,-0.24799038469791412,-0.4969223439693451,-0.24230651557445526
1.3839068412780762,0.11940020322799683,0.07769215106964111,0.0024274587631225586,-0.643935433864956,-1.1081542782090485,0.14485500004136873,-0.7156679034233093,0.6003473997116089,-0.3569348454475403,-0.4091579020023346,-0.5065866708755493,-0.18619422614574432
1.402918815612793,0.14618611335754395,0.01448911428451538,-0.01824331283569336,-0.6446048228163649,-1.1260563249453237,0.1334096729043366,-0.7215798497200012,0.6008825898170471,-0.34389346837997437,-0.40748438239097595,-0.6097119450569153,-0.15975292026996613
1.4231789112091064,0.18837600946426392,0.005956828594207764,-0.034715861082077026,-0.6442263602145111,-1.1445362121718075,0.12497635853400832,-0.7280182838439941,0.6005800366401672,-0.3305947482585907,-0.1468845158815384,-0.7328974008560181,-0.179589182138443
1.443129062652588,0.21217232942581177,-0.006638288497924805,-0.027683228254318237,-0.6403091008548129,-1.160916369217616,0.12385769329181934,-0.7354877591133118,0.5974433422088623,-0.3195609748363495,0.17315955460071564,-0.8479458093643188,-0.2124750018119812
1.4637298583984375,0.2558540105819702,-0.05591726303100586,-0.010448753833770752,-0.6339980023958641,-1.1771437722079892,0.1268693642452609,-0.7440437078475952,0.5923705101013184,-0.30902448296546936,0.2683625817298889,-0.9556989073753357,-0.2929031550884247
1.4836719036102295,0.2873825430870056,-0.10785531997680664,0.022372722625732422,-0.6256300022976768,-1.1954589993739773,0.12907229193990197,-0.7541642189025879,0.5856080651283264,-0.29715293645858765,0.2148263156414032,-0.9809392690658569,-0.4168073534965515
1.5035889148712158,0.3126986622810364,-0.14889317750930786,0.0317094624042511,-0.615716066184234,-1.2150450514782953,0.12861881044768433,-0.7652439475059509,0.5775432586669922,-0.2843339741230011,0.08916536718606949,-0.9546599388122559,-0.49245861172676086
1.5234928131103516,0.36092233657836914,-0.19812756776809692,0.06664150953292847,-0.6068025392119435,-1.2355657563407303,0.1245898691747491,-0.7757478356361389,0.5702437162399292,-0.2702547609806061,-0.07257673144340515,-0.8599655032157898,-0.4608812928199768
1.5438449382781982,0.3756124973297119,-0.20691752433776855,0.03620952367782593,-0.598487388667177,-1.256224047361207,0.11710646462334506,-0.7856467366218567,0.5633934140205383,-0.25563088059425354,-0.25713449716567993,-0.7648815512657166,-0.5388720035552979
1.5636589527130127,0.3287007808685303,-0.16901171207427979,0.011313974857330322,-0.5895533942030147,-1.2766202750044293,0.105142834385479,-0.7954823970794678,0.5559898614883423,-0.24100445210933685,-0.4606766402721405,-0.6210877299308777,-0.6073595881462097
1.583333969116211,0.32209157943725586,-0.19557243585586548,0.024302735924720764,-0.580725086466799,-1.2987722410440408,0.08550743595349536,-0.8053221106529236,0.5486302971839905,-0.22463533282279968,-0.8665763139724731,-0.5173417329788208,-0.7018032073974609
1.603342056274414,0.356178879737854,-0.21479851007461548,0.08991476893424988,-0.5719352079662371,-1.32444417765169,0.05541238013641574,-0.8154683709144592,0.541260302066803,-0.2050575315952301,-1.363820195198059,-0.4244641959667206,-0.8134483695030212
1.6233000755310059,0.37466782331466675,-0.31911641359329224,0.15799851715564728,-0.5610411964292334,-1.356588399889606,0.012498278431942018,-0.8273502588272095,0.5320680737495422,-0.17998634278774261,-1.9210619926452637,-0.5380685329437256,-1.1292483806610107
1.6433300971984863,0.35698020458221436,-0.4155409336090088,0.10432237386703491,-0.542002237765173,-1.397372015154663,-0.040142978283313376,-0.8438271880149841,0.5158522725105286,-0.14782512187957764,-1.9960975646972656,-0.7926919460296631,-1.6004694700241089
1.6632418632507324,0.26794636249542236,-0.3149550259113312,-0.09146749973297119,-0.5126544811275128,-1.4379873757314592,-0.08607815412756732,-0.8637716174125671,0.49049219489097595,-0.11539585888385773,-1.4532603025436401,-0.9030346870422363,-1.881662368774414
1.6833209991455078,0.15207916498184204,-0.05382680892944336,-0.11911492794752121,-0.4767760610173891,-1.4698013220260526,-0.11822928058980182,-0.883951723575592,0.45891717076301575,-0.08957948535680771,-1.0049985647201538,-0.7267481684684753,-2.004718780517578
1.702989101409912,0.13163071870803833,0.03278997540473938,-0.015966542065143585,-0.4388655363550316,-1.4931189525263258,-0.14302057466860177,-0.9025048613548279,0.42491278052330017,-0.07024554908275604,-0.8963004350662231,-0.5445780754089355,-1.9466450214385986
1.7231168746948242,0.14439862966537476,-0.036615729331970215,0.016822390258312225,-0.404124296610235,-1.5115906100068115,-0.1653499348136497,-0.9178363084793091,0.39321374893188477,-0.054404739290475845,-0.9503269791603088,-0.3529989719390869,-1.6804466247558594
1.7421660423278809,0.1134037971496582,-0.09360015392303467,0.02413928136229515,-0.3765443488275439,-1.5254775817581407,-0.18682000627305553,-0.9289862513542175,0.36770913004875183,-0.042129337787628174,-0.8729842901229858,-0.21880212426185608,-1.1792385578155518
1.7628040313720703,0.039384543895721436,0.01126435399055481,-0.04509222134947777,-0.35638523206447187,-1.5338634051133728,-0.20347512775999477,-0.9365249872207642,0.34888890385627747,-0.03460433706641197,-0.5751631855964661,-0.07879335433244705,-0.9885917901992798
1.7817199230194092,-0.05681222677230835,0.16599926352500916,-0.06662362813949585,-0.3367755295149708,-1.5392533707870126,-0.21301329513238093,-0.9433556795120239,0.33044546842575073,-0.029766099527478218,-0.2555851340293884,-0.08139819651842117,-0.9558385610580444
1.8017230033874512,-0.15988129377365112,0.16911962628364563,-0.012025771662592888,-0.3201791153765822,-1.540587387060705,-0.21787313309599607,-0.9487460255622864,0.31473657488822937,-0.028669333085417747,-0.188895121216774,0.1620972901582718,-0.7040055990219116
1.8224589824676514,-0.1860600709915161,0.05856087803840637,0.06495010852813721,-0.30919634882682623,-1.5364530918002752,-0.2233988702964491,-0.9520168900489807,0.3042931854724884,-0.03270820155739784,-0.297307550907135,0.41360267996788025,-0.375461608171463
1.8427479267120361,-0.1301364302635193,0.03547939658164978,0.09226053953170776,-0.3058929058559398,-1.52947831439277,-0.22811235535911678,-0.9527645707130432,0.3011447489261627,-0.0393887534737587,-0.060671452432870865,0.3662308156490326,-0.032616131007671356
1.8624458312988281,-0.22916549444198608,0.12658965587615967,-0.005210753530263901,-0.305444892013035,-1.5220830104102823,-0.22388269603535557,-0.9525818824768066,0.3007175028324127,-0.04644016548991203,0.4572416841983795,0.24226421117782593,-0.0006399701815098524
1.8823437690734863,-0.3822968602180481,0.18717047572135925,0.003763806074857712,-0.30494530069729403,-1.51462334495969,-0.21289011333278246,-0.9523587822914124,0.30024099349975586,-0.05355317145586014,0.4907110035419464,0.25197941064834595,0.0009636880131438375
1.9021999835968018,-0.36692577600479126,0.02656453847885132,0.19073039293289185,-0.3050808299464445,-1.504923691130378,-0.20854565989818138,-0.9517540335655212,0.3003702759742737,-0.06278538703918457,-0.1264376938343048,0.546062171459198,0.039611492305994034
1.9221887588500977,-0.2722765803337097,-0.15066078305244446,0.2538917660713196,-0.3079719490867656,-1.4951781795951886,-0.2167341365327094,-0.9502270221710205,0.30312663316726685,-0.0719916820526123,-0.6981791853904724,0.5992125868797302,0.29862716794013977
1.9422659873962402,-0.22887438535690308,-0.15601155161857605,0.19229477643966675,-0.3184080856410394,-1.4891491599082574,-0.23212588520674202,-0.9465712308883667,0.3130550682544708,-0.07745705544948578,-0.7839925289154053,0.43082088232040405,0.49551284313201904
1.9621148109436035,-0.28665047883987427,-0.10944560170173645,0.1563488245010376,-0.3265849483375193,-1.486593362627632,-0.2458003216508849,-0.9437878131866455,0.32081034779548645,-0.07965808361768723,-0.520828127861023,0.3127249479293823,0.23399364948272705
1.9819908142089844,-0.36966371536254883,-0.03657308220863342,0.1392861008644104,-0.33071578132505647,-1.4811500718873976,-0.2503266887046491,-0.942012369632721,0.3247201144695282,-0.08467482775449753,0.011852843686938286,0.36202967166900635,0.15848343074321747
2.0012078285217285,-0.3148859739303589,-0.05598944425582886,0.14066433906555176,-0.33317664642763467,-1.4734137804201162,-0.24850482533505017,-0.9405309557914734,0.32704663276672363,-0.09188193082809448,0.02824990078806877,0.38550427556037903,0.1126566231250763
2.020953893661499,-0.24052691459655762,-0.13122546672821045,0.13747209310531616,-0.334640977338605,-1.4681557237058909,-0.25425230326926235,-0.9395573735237122,0.32843008637428284,-0.09677682816982269,-0.6125620603561401,0.32623010873794556,-0.04432862624526024
2.042262077331543,-0.2212902307510376,-0.1359020173549652,0.11021564900875092,-0.33413192379284967,-1.467496458313412,-0.27346885304377616,-0.9396596550941467,0.3279492259025574,-0.09741346538066864,-1.0088897943496704,0.35870152711868286,-0.19664554297924042
2.0618700981140137,-0.258057177066803,-0.026960909366607666,0.007324934005737305,-0.33084573687649654,-1.4654085875142044,-0.2882946528152442,-0.9405207633972168,0.32484301924705505,-0.09948795288801193,-0.2532888650894165,0.3327392339706421,-0.2672133445739746
2.082176923751831,-0.3160446882247925,0.16972637176513672,-0.05983036011457443,-0.32583084495348086,-1.4600823919293135,-0.2846597503219166,-0.9415847063064575,0.3200960159301758,-0.10467458516359329,0.5337990522384644,0.06591624766588211,-0.1453218162059784
2.101840019226074,-0.3670087456703186,0.09689697623252869,-0.03299146890640259,-0.32389790094434345,-1.4563333732603314,-0.2725986466458986,-0.9417986869812012,0.3182641863822937,-0.10827433317899704,0.4739534556865692,-0.06432165205478668,0.08089516311883926
2.1209468841552734,-0.4322962164878845,-0.011031180620193481,0.07392483949661255,-0.32533367986957135,-1.454950687167543,-0.267496218346683,-0.9411932229995728,0.31962499022483826,-0.10952351242303848,0.07707813382148743,0.07557082921266556,0.08425546437501907
2.141840934753418,-0.5135847330093384,0.019926518201828003,0.06129032373428345,-0.3266408450060379,-1.4506976115565062,-0.26413971598609787,-0.9403032064437866,0.3208633065223694,-0.11347531527280807,0.2890246510505676,0.2395555078983307,0.114167220890522
2.163726806640625,-0.4662039279937744,0.03140905499458313,0.011905856430530548,-0.3290661901019435,-1.4442689951776368,-0.25548212118210006,-0.9387795925140381,0.32315945625305176,-0.11941922456026077,0.3788062036037445,0.04965507611632347,0.17904669046401978
2.181243896484375,-0.40214288234710693,-0.011857569217681885,0.01391589641571045,-0.3310262611092963,-1.4440903584783105,-0.24900243783216167,-0.9381281733512878,0.32501375675201416,-0.11950666457414627,0.21674156188964844,-0.16922757029533386,0.13470904529094696
2.2011609077453613,-0.4338803291320801,-0.011695384979248047,0.03501725196838379,-0.3346971484314455,-1.4453795962969598,-0.2470587764068593,-0.9370914101600647,0.32848313450813293,-0.11814704537391663,-0.09299582242965698,0.007394792046397924,0.26416653394699097
2.2212789058685303,-0.47927433252334595,-0.03534138202667236,0.06166069209575653,-0.3440448277835861,-1.4417255738703818,-0.25081108555475545,-0.9335676431655884,0.337297648191452,-0.12116989493370056,-0.38305777311325073,0.4877510070800781,0.6650843024253845
2.2415390014648438,-0.508773922920227,-0.00015375018119812012,0.03204600512981415,-0.35974624845178504,-1.4324839790573725,-0.2618122540531265,-0.9270477890968323,0.3520367443561554,-0.12904609739780426,-0.782703161239624,0.707230806350708,0.662997305393219
2.261441946029663,-0.5420416593551636,0.16456347703933716,-0.06147730350494385,-0.37223235487911405,-1.4259609802159914,-0.2744230291807312,-0.9217645525932312,0.36369580030441284,-0.13444550335407257,-0.46373435854911804,0.4073293209075928,0.41406452655792236
2.281531810760498,-0.48516106605529785,0.21430432796478271,-0.08913679420948029,-0.3805046859304537,-1.4193798572420355,-0.27482681599459163,-0.9178542494773865,0.37138912081718445,-0.14005018770694733,0.2443322241306305,0.3020026385784149,0.4406709372997284
2.3030920028686523,-0.484530508518219,0.10345518589019775,-0.1049957424402237,-0.3867181965591912,-1.412331981971849,-0.26874513694687596,-0.9145480394363403,0.3771510124206543,-0.14614862203598022,0.10221149027347565,0.1453033834695816,0.21509750187397003
2.320435047149658,-0.46291571855545044,0.10132300853729248,-0.08728857338428497,-0.390077102166824,-1.4105505199978037,-0.26996683532563237,-0.9130305051803589,0.3802597224712372,-0.14757464826107025,-0.25541043281555176,0.08777005970478058,0.16365782916545868
2.341348886489868,-0.4433314800262451,0.0810987651348114,-0.11653321981430054,-0.3952202934616681,-1.4116724965642904,-0.2784853653441959,-0.9112523198127747,0.3850115239620209,-0.146238312125206,-0.5686032772064209,0.12120435386896133,0.21289929747581482
2.3610949516296387,-0.4260804057121277,0.10884696245193481,-0.1433933824300766,-0.4012541630896074,-1.4143076640867158,-0.29007616615559734,-0.90932297706604,0.3905732035636902,-0.14347180724143982,-0.5194573402404785,0.05310049653053284,0.21505214273929596
2.3812270164489746,-0.37085288763046265,0.1867595911026001,-0.17144471406936646,-0.40682877324086303,-1.4171326675958555,-0.29720691198377475,-0.9075590372085571,0.3956989347934723,-0.14056697487831116,-0.19476251304149628,-0.06091608852148056,0.24148871004581451
2.4008288383483887,-0.36482781171798706,0.1650843322277069,-0.20313125848770142,-0.41199365412129174,-1.4188847029752438,-0.29695532465923447,-0.9057716131210327,0.40043696761131287,-0.13866554200649261,0.07075531780719757,-0.12065371870994568,0.2732461988925934
2.420659065246582,-0.31209880113601685,0.14658910036087036,-0.14123404026031494,-0.41674621964455,-1.4215097189884431,-0.29490054516263325,-0.9042403101921082,0.4047873020172119,-0.1360028237104416,0.08855821937322617,-0.20490913093090057,0.2504103481769562
2.441082000732422,-0.26862192153930664,0.11027148365974426,-0.1044699102640152,-0.42267980403963035,-1.4233207757493356,-0.288708927981766,-0.9020935893058777,0.4102058708667755,-0.1340096890926361,0.4075947701931,-0.24463187158107758,0.42450523376464844
2.460719108581543,-0.2324514389038086,0.11878249049186707,-0.13250690698623657,-0.4305444551904338,-1.4241711441537244,-0.27650217445519615,-0.8989878296852112,0.4173656404018402,-0.13276706635951996,0.5581033825874329,-0.34340032935142517,0.49000129103660583
2.4806628227233887,-0.21967953443527222,0.08108940720558167,-0.10288788378238678,-0.4382697245481503,-1.4253081763045665,-0.26176100574412,-0.8959212303161621,0.4243733584880829,-0.13127344846725464,0.6523804664611816,-0.38007479906082153,0.4473458528518677
2.5000767707824707,-0.2134157419204712,0.07939720153808594,-0.0920414924621582,-0.44486710725744516,-1.4252292746591835,-0.24379446214594502,-0.8931211829185486,0.43033793568611145,-0.1309351623058319,0.8500544428825378,-0.37831535935401917,0.45897626876831055
2.5200090408325195,-0.17386412620544434,0.05710017681121826,-0.06457723677158356,-0.4511185142284574,-1.423675941455793,-0.22359875057994266,-0.8902382254600525,0.4359724223613739,-0.13192537426948547,0.8444331884384155,-0.33963674306869507,0.42829594016075134
2.5409440994262695,-0.16298818588256836,0.02005714178085327,-0.011420786380767822,-0.4573784948334442,-1.421697629566093,-0.2045734577371905,-0.8872590661048889,0.441597580909729,-0.1332782506942749,0.7015120983123779,-0.31934329867362976,0.44230273365974426
2.5613088607788086,-0.1280466914176941,-0.0035234391689300537,0.030260100960731506,-0.46419909330672227,-1.4222131794903121,-0.1912400405732513,-0.8843281269073486,0.44770678877830505,-0.13237181305885315,0.44180378317832947,-0.3141527771949768,0.4101633131504059
2.5802760124206543,-0.11917787790298462,-0.039984315633773804,0.010628998279571533,-0.47135351448043705,-1.4229446915428703,-0.1799365156592402,-0.8812341690063477,0.4540926218032837,-0.13124968111515045,0.4631894826889038,-0.2836500108242035,0.4359637498855591
2.6015079021453857,-0.0812113881111145,-0.013795524835586548,-0.00392518937587738,-0.477918682447082,-1.4220908383580055,-0.1671637270374587,-0.878154456615448,0.4599320590496063,-0.13155753910541534,0.6183850169181824,-0.21194200217723846,0.3974888324737549
2.620436906814575,-0.04840570688247681,-0.03349536657333374,0.0014380216598510742,-0.4837538437627073,-1.4174934374669084,-0.14948973319021602,-0.8748731017112732,0.4651055634021759,-0.1351812481880188,0.8076438903808594,-0.16656360030174255,0.4165562689304352
2.64029598236084,-0.023156702518463135,-0.036626577377319336,0.016960978507995605,-0.48940217463639324,-1.4128955020016936,-0.1321280589189305,-0.8716340065002441,0.4700983166694641,-0.13878709077835083,0.5969663262367249,-0.1635749191045761,0.38092851638793945
2.6599807739257812,-0.03166085481643677,-0.10566136240959167,0.04552650451660156,-0.49513790786059014,-1.4085565861544405,-0.11797689990127737,-0.8683483600616455,0.47515299916267395,-0.1421298384666443,0.6073147058486938,-0.08117910474538803,0.40115466713905334
2.680111885070801,0.00019615888595581055,-0.05258065462112427,-0.02165120840072632,-0.5011009132635479,-1.4010841556320197,-0.10039465784518255,-0.8644540309906006,0.48039138317108154,-0.1481332927942276,0.8177316784858704,-0.0005530570633709431,0.4403865933418274
2.6999189853668213,0.028598785400390625,-0.0579647421836853,-0.004649221897125244,-0.5075294637566401,-1.390168508559285,-0.080631659254278,-0.8597298264503479,0.4860196113586426,-0.1570023149251938,0.7285088896751404,0.1374167948961258,0.49083057045936584
2.7200570106506348,0.07437276840209961,-0.09991142153739929,0.0373314768075943,-0.515368796533399,-1.3789184429113348,-0.06472104162924763,-0.8541426062583923,0.4928557872772217,-0.16593247652053833,0.4900270998477936,0.19102570414543152,0.5380069017410278
2.740035057067871,0.09140604734420776,-0.08080768585205078,0.055323198437690735,-0.5251466633444157,-1.3691747697055017,-0.05316784043879596,-0.847723126411438,0.5013399124145508,-0.17327357828617096,0.3251582682132721,0.21077090501785278,0.6202205419540405
2.7599399089813232,0.06534147262573242,-0.05038827657699585,0.07422997057437897,-0.5368155764748486,-1.3592396916059315,-0.04217474188689957,-0.8401827216148376,0.5114020705223083,-0.1804463267326355,0.3995200991630554,0.2118726521730423,0.7358547449111938
2.781693935394287,0.10001027584075928,-0.029462814331054688,0.0435774028301239,-0.5505557556968204,-1.3478172798777426,-0.027159418136131593,-0.831135094165802,0.5231609344482422,-0.18845950067043304,0.5120465755462646,0.15712863206863403,0.8880515098571777
2.799942970275879,0.15148496627807617,-0.028990626335144043,0.06682205200195312,-0.5664988330561556,-1.3367552919957326,-0.012108842437489997,-0.8207812905311584,0.5366811156272888,-0.19568246603012085,0.3933946490287781,0.1738930493593216,0.9527241587638855
2.8199329376220703,0.14520186185836792,-0.0647507905960083,0.10824769735336304,-0.5835287272597152,-1.324281002025223,0.001974802908653704,-0.8092949390411377,0.5509721636772156,-0.20364557206630707,0.3558615744113922,0.29847368597984314,0.9863942861557007
2.8399338722229004,0.17484360933303833,-0.0603979229927063,0.09217888116836548,-0.6008290970088725,-1.310937183540306,0.01602143334095342,-0.7971733212471008,0.5653265714645386,-0.2119450569152832,0.3544633090496063,0.27410176396369934,0.9724128246307373
2.8599328994750977,0.13904613256454468,-0.04970598220825195,0.06960529088973999,-0.616607163842182,-1.2971993814014064,0.030464593554717777,-0.7855000495910645,0.5782704949378967,-0.2204383760690689,0.415568470954895,0.24477618932724,0.8762472867965698
2.8800199031829834,0.19979244470596313,-0.06250518560409546,0.0559079647064209,-0.6306640344046325,-1.282417732784903,0.048201135874850164,-0.7742859125137329,0.5896812081336975,-0.22969025373458862,0.5741690397262573,0.21726857125759125,0.8847600817680359
2.899934768676758,0.2212204933166504,-0.07220208644866943,0.0788816511631012,-0.6438299445026564,-1.2654271425800978,0.06800825939105944,-0.7628006339073181,0.6002630591392517,-0.24045690894126892,0.5039422512054443,0.3309604227542877,0.8341367244720459
2.9199328422546387,0.23675578832626343,-0.1081533432006836,0.1000508964061737,-0.6569269804454869,-1.2480722233491934,0.0838189233903042,-0.7509921789169312,0.6106863021850586,-0.25114333629608154,0.3094957768917084,0.445932000875473,0.8249419331550598
2.9399638175964355,0.2763715982437134,-0.13511788845062256,0.09022387862205505,-0.6714637524154933,-1.2321181310854912,0.09407026789760463,-0.7384381890296936,0.6221326589584351,-0.2601151168346405,0.019970837980508804,0.5136023163795471,0.7824373841285706
2.9599339962005615,0.26230740547180176,-0.10407805442810059,0.04663535952568054,-0.6856701011591085,-1.2168698498417956,0.1009811327572749,-0.7260220050811768,0.6331918239593506,-0.2682539224624634,0.033275071531534195,0.5829745531082153,0.773855447769165
2.979930877685547,0.2827591896057129,-0.08226490020751953,0.031854331493377686,-0.6997977774474895,-1.1997124535527788,0.10881515134632223,-0.7129045128822327,0.6440629959106445,-0.2773987054824829,-0.019331548362970352,0.6427557468414307,0.7392827272415161
2.99995493888855,0.28636085987091064,-0.1220511794090271,0.04571211338043213,-0.7129246426091534,-1.1823225053088104,0.11423333372524369,-0.7000877261161804,0.6540489196777344,-0.28652629256248474,-0.06721250712871552,0.6519103050231934,0.6815964579582214
3.0199339389801025,0.3063902258872986,-0.14973700046539307,0.03610926866531372,-0.726467225934919,-1.1654290660277067,0.1194091513050996,-0.6869444847106934,0.6642329692840576,-0.29479146003723145,-0.07268362492322922,0.6898215413093567,0.6844705939292908
3.0399351119995117,0.26637911796569824,-0.13333910703659058,0.021388709545135498,-0.7391404459209364,-1.1478513668513033,0.12512794467033775,-0.6739261746406555,0.6736528873443604,-0.3033405542373657,-0.051957763731479645,0.714671790599823,0.6718927621841431
3.059968948364258,0.24168747663497925,-0.1159103512763977,0.01689186692237854,-0.7518038519837108,-1.1269661190641949,0.1331444840347365,-0.6596866846084595,0.6829575300216675,-0.31365999579429626,0.047232139855623245,0.8392317295074463,0.722429096698761
3.0799880027770996,0.2368239164352417,-0.14871442317962646,0.03605622053146362,-0.7637326625980719,-1.1026186933327817,0.14304975865115968,-0.6445387601852417,0.6916221976280212,-0.32592740654945374,0.07519760727882385,0.9178141355514526,0.6478375196456909
3.1000139713287354,0.20655184984207153,-0.18164044618606567,0.04027789831161499,-0.7732585779270975,-1.0778638360813633,0.1512404709636339,-0.6304410099983215,0.6984708905220032,-0.3386482298374176,-0.0170583538711071,1.0137577056884766,0.4419947862625122
3.1199679374694824,0.13251835107803345,-0.20365256071090698,0.10225442051887512,-0.7804390970168137,-1.0552311192521262,0.15112575837631503,-0.6182360649108887,0.703591525554657,-0.35034701228141785,-0.3672601580619812,1.2720776796340942,0.18234334886074066
3.1399829387664795,0.11409509181976318,-0.2308017611503601,0.22950085997581482,-0.7887026627333822,-1.0365450467853121,0.13746432849288137,-0.6065573692321777,0.7094395756721497,-0.35886484384536743,-0.924177885055542,1.5445969104766846,0.06749659776687622
3.160146951675415,0.14963805675506592,-0.24431180953979492,0.29601046442985535,-0.801876109982136,-1.0252712927478094,0.10922279435565259,-0.5944318175315857,0.718661904335022,-0.36079925298690796,-1.39628005027771,1.5474770069122314,0.0436880886554718
3.1800038814544678,0.17702901363372803,-0.21409809589385986,0.21922600269317627,-0.8168910007754212,-1.021160682913874,0.07471989633662177,-0.5836758017539978,0.7290212512016296,-0.3575621247291565,-1.335296392440796,1.3461816310882568,-0.007727321702986956
3.1999709606170654,0.21078592538833618,-0.1361297369003296,0.10936886072158813,-0.8280876764963573,-1.0186103824664399,0.04642680691489512,-0.5757761597633362,0.7366394400596619,-0.35474541783332825,-0.8770220279693604,0.9745787978172302,-0.03828679770231247
3.219942092895508,0.26436203718185425,-0.09868752956390381,0.032229214906692505,-0.8347494634171153,-1.0184291136408667,0.026068537605468407,-0.5715214610099792,0.7411283254623413,-0.35226696729660034,-0.8762162327766418,0.7881148457527161,-0.2611638605594635
3.239931106567383,0.16833049058914185,-0.17202043533325195,-0.08994966745376587,-0.8405398250133587,-1.0378534693341934,-0.023723691745064588,-0.5745499730110168,0.745003342628479,-0.33891382813453674,-1.7805825471878052,0.47965890169143677,-0.3417343497276306
3.2599339485168457,0.3616207242012024,-0.13185131549835205,-0.7681424021720886,-0.8574322563575316,-1.0457633373342445,-0.046217266225291084,-0.5662410855293274,0.7561647891998291,-0.3280031681060791,-0.5422657132148743,0.4112159311771393,0.08725739270448685
3.2799720764160156,0.07842153310775757,0.34330612421035767,-0.13192492723464966,-0.8586708617693615,-1.0365380767352679,-0.047516278973451204,-0.5623845458030701,0.7569746971130371,-0.33273565769195557,0.3782428205013275,0.7973137497901917,0.35459381341934204
3.3000099658966064,-7.170438766479492e-05,0.19407153129577637,-0.17373621463775635,-0.861858090321717,-1.0017929407215607,-0.023881480375161773,-0.54845130443573,0.7590535283088684,-0.35076937079429626,0.7319246530532837,0.7776902914047241,0.633529543876648
3.3199357986450195,0.042425692081451416,0.016012489795684814,-0.13763558864593506,-0.8639765992401245,-0.9691285210183762,0.001995897416452141,-0.5353761315345764,0.7604310512542725,-0.36758285760879517,0.35404133796691895,0.6763163805007935,0.303385466337204
3.339935779571533,-0.0049536824226379395,-0.0034880638122558594,0.08845114707946777,-0.8627085335043768,-0.9544814815295237,0.01096081089153179,-0.5307214260101318,0.7596069574356079,-0.3759419322013855,0.4349380135536194,0.20028966665267944,0.2158331423997879
3.359933853149414,-0.015355885028839111,-0.03096592426300049,0.09236800670623779,-0.8647940805558832,-0.9378750999207517,0.029356213184826074,-0.5231268405914307,0.760961651802063,-0.3837650418281555,0.43603426218032837,0.01786074973642826,0.4942343235015869
3.379991054534912,-0.01315373182296753,0.020264863967895508,0.11748269200325012,-0.8652771546941673,-0.9236407122412317,0.049864828582227114,-0.5173180103302002,0.7612749934196472,-0.39095062017440796,0.6065638065338135,-0.11841258406639099,0.4017898142337799
3.401110887527466,-0.04090660810470581,-0.003545820713043213,0.09568431973457336,-0.8636423271261079,-0.9084124324983647,0.07357447479062533,-0.5122854709625244,0.7602139115333557,-0.3995477557182312,0.6584218144416809,-0.17067702114582062,0.3577196002006531
3.4199399948120117,-0.05145454406738281,-0.013722121715545654,0.11072531342506409,-0.8606392374042034,-0.896249293973152,0.09436292731364179,-0.5091686248779297,0.7582594752311707,-0.4071730077266693,0.6289434432983398,-0.21900096535682678,0.28264325857162476
3.439937114715576,-0.04433560371398926,-0.001203775405883789,0.1030682921409607,-0.8579425984012068,-0.886484041761105,0.11339741753311608,-0.5067508816719055,0.7564986348152161,-0.4134167730808258,0.5139287114143372,-0.2628975212574005,0.2650028169155121
3.45993709564209,-0.030987918376922607,-0.009801983833312988,0.07428261637687683,-0.8558333884940621,-0.8803873875449825,0.1294613438528389,-0.5054500102996826,0.7551175355911255,-0.41751375794410706,0.4495023488998413,-0.3383042812347412,0.23208598792552948
3.4792017936706543,-0.03261643648147583,-0.01920074224472046,0.07917249202728271,-0.8530439325055904,-0.875664128960571,0.1451315401213492,-0.5050880312919617,0.7532858848571777,-0.42124396562576294,0.535382866859436,-0.36390331387519836,0.2249080091714859
3.4999380111694336,-0.02488887310028076,-0.009122133255004883,0.07805097103118896,-0.8491660912286809,-0.8689352511672199,0.16492469328813827,-0.5044689774513245,0.7507297992706299,-0.4265158176422119,0.672666609287262,-0.47001853585243225,0.30752307176589966
3.5199389457702637,-0.04172348976135254,-0.0005534887313842773,-0.011733382940292358,-0.8449135851274504,-0.8644698560620306,0.18467760040250591,-0.50498366355896,0.7479137778282166,-0.43083247542381287,0.602520763874054,-0.5645308494567871,0.20877006649971008
3.5399858951568604,-0.05904042720794678,-0.0074340105056762695,-0.03724879026412964,-0.8395261350403582,-0.8627012868956281,0.20183618058889116,-0.507274329662323,0.7443267703056335,-0.4343392848968506,0.651393711566925,-0.4922800064086914,0.13363096117973328
3.559936046600342,-0.06588029861450195,0.02992725372314453,-0.008631706237792969,-0.8326179186082374,-0.8587555257030477,0.21929609952279983,-0.509437084197998,0.7396956086158752,-0.43968671560287476,0.7149486541748047,-0.387616366147995,0.10076774656772614
3.5799498558044434,-0.059639155864715576,-0.0040596723556518555,-0.0024743974208831787,-0.8246792035850502,-0.8517563808950742,0.23738769170661564,-0.5107495784759521,0.7343300580978394,-0.44709527492523193,0.7106038331985474,-0.25520405173301697,0.08888310939073563
3.5999579429626465,-0.04934585094451904,-0.01977849006652832,-0.04246962070465088,-0.8164913749038429,-0.8448556799670563,0.25254257417384574,-0.5121318101882935,0.7287476658821106,-0.45458537340164185,0.5895661115646362,-0.1681460589170456,0.003099259454756975
3.619935989379883,-0.03359198570251465,-0.0406070351600647,-0.039779484272003174,-0.8087027577130246,-0.8388922357670787,0.2643127770038225,-0.5136187076568604,0.723392128944397,-0.46141064167022705,0.5441209673881531,-0.09582382440567017,-0.031744979321956635
3.639941930770874,-0.010646343231201172,-0.019176185131072998,-0.016753435134887695,-0.8010537109148691,-0.8325495908464158,0.2749530486075616,-0.5147595405578613,0.7180898189544678,-0.4683692157268524,0.5246332883834839,-0.03619156777858734,-0.0584925040602684
3.659933090209961,-0.028549611568450928,-0.013759315013885498,-0.012489348649978638,-0.7938015610930629,-0.8259811283299975,0.2842335677945684,-0.5154871940612793,0.713023841381073,-0.4752577543258667,0.46025457978248596,0.02037184312939644,-0.04261206090450287
3.679934024810791,-0.03540831804275513,-0.024656593799591064,-0.0012551546096801758,-0.788119768666266,-0.8200261548437983,0.29150895686568207,-0.5156018137931824,0.7090286016464233,-0.48107510805130005,0.2907443046569824,0.05434330180287361,-0.017613094300031662
3.6999688148498535,-0.02436971664428711,-0.03654515743255615,0.030979394912719727,-0.7851409772046087,-0.8159987264742652,0.2954287271651937,-0.5151963233947754,0.7069249153137207,-0.4845926761627197,0.12623906135559082,0.0654788687825203,-0.014059257693588734
3.719679832458496,0.003902614116668701,-0.041437745094299316,0.04089820384979248,-0.7839688675882229,-0.8143748418567609,0.2965335359736711,-0.5150110125541687,0.7060953974723816,-0.4859970211982727,0.03745560720562935,0.01879960112273693,-0.01572413556277752
3.7399587631225586,0.020283043384552002,-0.0346684455871582,0.0416739284992218,-0.7832873653309397,-0.8144871696396416,0.2966205900058024,-0.5154154300689697,0.7056126594543457,-0.4862692356109619,0.00844052154570818,-0.04862808436155319,-0.024620043113827705
3.7602200508117676,0.005443215370178223,-0.01670593023300171,0.036835670471191406,-0.7832402878373602,-0.816367700842334,0.295735146476935,-0.5163532495498657,0.7055792808532715,-0.48532193899154663,-0.05748977139592171,-0.07521220296621323,-0.016974342986941338
3.7799887657165527,0.0005747079849243164,-0.01815563440322876,0.03456830978393555,-0.784641084064665,-0.8196532261453173,0.29348940391306105,-0.5172221064567566,0.7065712213516235,-0.48294782638549805,-0.1502329707145691,-0.09322892874479294,0.012477937154471874
3.79996395111084,0.0073795318603515625,-0.012170612812042236,0.018002748489379883,-0.7871404048069054,-0.8242146297851571,0.2898660914509736,-0.5181217789649963,0.708337664604187,-0.4793826937675476,-0.19267551600933075,-0.0912834033370018,0.013189299963414669
3.8198800086975098,-0.0036644339561462402,-0.003243863582611084,0.0016600191593170166,-0.7899323732419896,-0.8288382066028919,0.28548890124787185,-0.5188727974891663,0.7103056907653809,-0.47564372420310974,-0.21884945034980774,-0.03816505894064903,-0.021891631186008453
3.8398728370666504,-0.02048206329345703,0.0006797313690185547,-0.01929950714111328,-0.792490681023954,-0.8329883369619641,0.2794925357579706,-0.519495964050293,0.7121041417121887,-0.47226235270500183,-0.2592341899871826,0.058127302676439285,-0.06549258530139923
3.859874963760376,-0.010617733001708984,0.0018841028213500977,-0.028528869152069092,-0.7946681381987303,-0.8360288571370025,0.2725640540177313,-0.5197778344154358,0.7136311531066895,-0.4696400761604309,-0.23412103950977325,0.1328871101140976,-0.08619774878025055
3.8799309730529785,0.0012041330337524414,0.004531681537628174,-0.031111478805541992,-0.7960954708660558,-0.8375701602770246,0.26618766202441957,-0.5197436213493347,0.7146303057670593,-0.468156099319458,-0.19065290689468384,0.1611565798521042,-0.09923933446407318
3.899888038635254,0.005982398986816406,0.00727766752243042,-0.010927259922027588,-0.7968164527867363,-0.8385570479315926,0.26037057291673443,-0.5198221206665039,0.7151344418525696,-0.46729838848114014,-0.17214953899383545,0.1550992876291275,-0.10691826045513153
3.919963836669922,0.007585704326629639,0.006264388561248779,0.010571181774139404,-0.797327564571393,-0.839468793675355,0.25515544540234547,-0.5199758410453796,0.7154916524887085,-0.4665800929069519,-0.16237154603004456,0.12159770727157593,-0.07557500898838043
3.939908027648926,0.021273493766784668,0.016002655029296875,0.018968135118484497,-0.7982189006548822,-0.8404895853454952,0.2509464944649594,-0.5199764370918274,0.7161140441894531,-0.4656233489513397,-0.16105002164840698,0.05724632740020752,-0.03456839546561241
3.9599709510803223,0.030055642127990723,0.01854848861694336,0.02316063642501831,-0.7996663081587823,-0.842072443384622,0.24772999677497726,-0.519939124584198,0.7171235680580139,-0.4641090929508209,-0.1439838409423828,-0.018032625317573547,-0.00946363341063261
3.9799108505249023,0.02695596218109131,0.01353144645690918,0.0149097740650177,-0.8014587165412307,-0.8444391763563409,0.2454412624944972,-0.5200742483139038,0.7183716297149658,-0.4620227515697479,-0.11336549371480942,-0.07459515333175659,0.03081510215997696
3.9999449253082275,0.02288997173309326,0.01604825258255005,0.007824957370758057,-0.8035461080315653,-0.8469936969791052,0.24425266233877882,-0.5201281309127808,0.7198221683502197,-0.45969873666763306,-0.09163712710142136,-0.09683262556791306,0.06367190927267075
4.0199339389801025,0.010947167873382568,0.0070574283599853516,0.0019901394844055176,-0.8060821786117137,-0.8492288497785835,0.24375460066208882,-0.5197820663452148,0.7215802669525146,-0.45732763409614563,-0.08523181825876236,-0.10161371529102325,0.07203354686498642
4.039973974227905,0.004222095012664795,-0.0019266605377197266,-0.011806368827819824,-0.8090795024605957,-0.8517705454514314,0.24314270632468912,-0.5193130373954773,0.723652184009552,-0.4545784592628479,-0.11427129805088043,-0.11859066039323807,0.07798230648040771
4.059541940689087,0.004513740539550781,-0.012795448303222656,-0.011832058429718018,-0.8123194165446129,-0.8548715682095145,0.24219109549881915,-0.5189485549926758,0.7258844375610352,-0.4514247477054596,-0.0950700119137764,-0.139027401804924,0.06647215783596039
4.079935073852539,-0.007483124732971191,-0.009706616401672363,-0.019147157669067383,-0.814375301788232,-0.8580833931575673,0.24101435671464275,-0.5192655324935913,0.7272970080375671,-0.44877883791923523,-0.12282028794288635,-0.08318988233804703,0.02997339516878128
4.09998083114624,-0.018630623817443848,0.016057193279266357,-0.014859378337860107,-0.8157000633279017,-0.8601027603019386,0.23950639145941077,-0.5194400548934937,0.7282055616378784,-0.447100430727005,-0.06368870288133621,-0.02684476040303707,-0.03376161307096481
4.119935035705566,-0.021865487098693848,-0.000415802001953125,-0.006643831729888916,-0.8151119305379849,-0.8615957945459667,0.2375255468924338,-0.5204319357872009,0.7278023362159729,-0.4466031789779663,-0.015114858746528625,-0.0014316339511424303,-0.10291914641857147
4.139971971511841,-0.0077568888664245605,0.008307874202728271,-0.0035149753093719482,-0.8132510588413058,-0.862698450969118,0.23561809398730474,-0.5219519138336182,0.7265249490737915,-0.4469091594219208,0.023326020687818527,0.013843370601534843,-0.10621669888496399
4.159930944442749,0.008676648139953613,0.020701587200164795,-0.03140482306480408,-0.8103855056014272,-0.8618647061502884,0.23619996553005437,-0.5231572389602661,0.7245529294013977,-0.44869765639305115,0.16092392802238464,0.0024859649129211903,-0.07348036020994186
4.179947853088379,0.015427470207214355,0.0356980562210083,-0.0341949462890625,-0.8067659317055742,-0.8590298984683735,0.240194526383507,-0.5238656401634216,0.7220535278320312,-0.4518890380859375,0.29052096605300903,-0.0018149515381082892,-0.019807159900665283
4.1999359130859375,0.01805800199508667,0.03312116861343384,-0.015656352043151855,-0.8026037202604769,-0.8546552605729184,0.24680821402198225,-0.524146318435669,0.7191677093505859,-0.45614537596702576,0.33196499943733215,-0.019322305917739868,0.006749268621206284
4.219974040985107,0.015453577041625977,0.005041539669036865,0.0058359503746032715,-0.7984670587089651,-0.8499558936635092,0.2544292349310374,-0.5242274403572083,0.7162872552871704,-0.46056312322616577,0.339129239320755,-0.046353213489055634,0.027358468621969223
4.239945888519287,0.011800885200500488,-0.005282342433929443,0.03061056137084961,-0.7950963560682837,-0.8459351675798109,0.26160898658707415,-0.524175763130188,0.7139310836791992,-0.4642653167247772,0.25224465131759644,-0.07415856420993805,0.022346453741192818
4.2599639892578125,-0.0020082592964172363,-0.017676889896392822,0.04668700695037842,-0.7929910957847958,-0.8439481084932254,0.26640084504582534,-0.5243741869926453,0.7124553322792053,-0.46630367636680603,0.14645826816558838,-0.09744773805141449,-0.011377888731658459
4.279969930648804,-0.009565353393554688,-0.020705223083496094,0.053939104080200195,-0.7918060161956273,-0.8447464285779247,0.26820691889799714,-0.5253772735595703,0.7116232514381409,-0.4664451479911804,0.04142656549811363,-0.13190148770809174,-0.03855862095952034
4.299999952316284,-0.015462815761566162,-0.008838653564453125,0.0508025586605072,-0.7911179437095485,-0.8481038786327912,0.26720677232578904,-0.5273075103759766,0.7111396789550781,-0.4650023281574249,-0.0381622388958931,-0.14347399771213531,-0.08084358274936676
4.3199379444122314,-0.018551886081695557,0.013800084590911865,0.034287095069885254,-0.7906481677620106,-0.8532070901570179,0.264113290449607,-0.5299252867698669,0.7108093500137329,-0.46252498030662537,-0.06030145660042763,-0.13695883750915527,-0.10933699458837509
4.339935779571533,-0.016183853149414062,0.02578270435333252,0.007156312465667725,-0.7896011303872198,-0.858776647413641,0.26050455716877946,-0.5330562591552734,0.7100724577903748,-0.46005240082740784,-0.03539424389600754,-0.13145993649959564,-0.1325291395187378
4.359936952590942,-0.014148712158203125,0.023109078407287598,0.005704164505004883,-0.7880684318202923,-0.8642722268437829,0.2566550782700557,-0.5364036560058594,0.7089924216270447,-0.4578220248222351,-0.04366356134414673,-0.10749895125627518,-0.1368122100830078
4.379934787750244,-0.00036662817001342773,0.005788922309875488,0.0009684860706329346,-0.7867730568615018,-0.8696974379581808,0.25256668511939223,-0.5395808815956116,0.7080783247947693,-0.45549723505973816,-0.04554162174463272,-0.09388726949691772,-0.1446504294872284
4.399970054626465,0.009812116622924805,0.0077787041664123535,0.0006556510925292969,-0.7854254989269387,-0.8745396555977175,0.24903243716482273,-0.5425117611885071,0.7071260809898376,-0.453490674495697,-0.008909267373383045,-0.09782359004020691,-0.12282542884349823
4.419935941696167,0.016961991786956787,0.006628870964050293,-0.0022139549255371094,-0.7837298357595325,-0.8777480146786584,0.24739355099107882,-0.5448855757713318,0.7059261202812195,-0.4525132179260254,0.048467911779880524,-0.10269922018051147,-0.09157561510801315
4.439938068389893,0.00016605854034423828,0.020098447799682617,0.006952613592147827,-0.7817552833061209,-0.8801091386797851,0.2464795872916736,-0.5470257997512817,0.7045261859893799,-0.45211246609687805,0.024445801973342896,-0.047796379774808884,-0.14980308711528778
4.459956884384155,-0.027827858924865723,0.009401321411132812,0.025964558124542236,-0.7780649902510687,-0.8831175087874717,0.24107789999631568,-0.5503886938095093,0.701902449131012,-0.45211195945739746,-0.07290797680616379,0.0745052918791771,-0.3612339198589325
4.479938983917236,-0.02312403917312622,0.007485151290893555,0.03360795974731445,-0.7751038628433694,-0.8867998079605028,0.23353052185451953,-0.5536582469940186,0.6997902989387512,-0.45139357447624207,-0.14691081643104553,0.09746848791837692,-0.2362815886735916
4.499939918518066,-0.046883344650268555,0.006669104099273682,0.02881932258605957,-0.7729589954745989,-0.8893252301543958,0.22587582927691555,-0.5559609532356262,0.6982564926147461,-0.4509384334087372,-0.1328085958957672,0.17902034521102905,-0.3269672989845276
4.5200159549713135,-0.08850342035293579,-0.013160943984985352,0.03886169195175171,-0.7698214548435485,-0.8907790197364274,0.2168101498173239,-0.5583166480064392,0.6960070729255676,-0.4515050947666168,-0.1929548680782318,0.3072851002216339,-0.3339117169380188
4.539939880371094,-0.11127138137817383,-0.06120038032531738,0.06786423921585083,-0.7671328212365921,-0.8922855441511128,0.20459322705855593,-0.5604510307312012,0.6940739750862122,-0.45183634757995605,-0.30294227600097656,0.3955187499523163,-0.44935259222984314
4.559391975402832,-0.12487947940826416,-0.133100688457489,0.0947965681552887,-0.7642130767791482,-0.8949484904088876,0.18777679874882747,-0.5632308721542358,0.691969096660614,-0.4516080319881439,-0.4616539478302002,0.4946803152561188,-0.5430256128311157
4.579936981201172,-0.11277836561203003,-0.17157191038131714,0.11123302578926086,-0.7611159832518036,-0.8986850759801562,0.1671149865383581,-0.5665886998176575,0.6897299289703369,-0.4508325457572937,-0.48945489525794983,0.5595753192901611,-0.6397017240524292
4.599942922592163,-0.12885749340057373,-0.1668345332145691,0.08036255836486816,-0.7559975980598107,-0.9010356789681808,0.1460160603203101,-0.5704070329666138,0.6860148310661316,-0.4516851603984833,-0.3911021053791046,0.6537659168243408,-0.7106012105941772
4.619980812072754,-0.1621512770652771,-0.12158900499343872,0.0363694429397583,-0.7492199351644953,-0.9012382319350585,0.12511738161042238,-0.5741310715675354,0.6810677647590637,-0.454444944858551,-0.4184451401233673,0.7592977285385132,-0.7727263569831848
4.639945983886719,-0.20788151025772095,-0.08357363939285278,-0.015422254800796509,-0.7422535501410396,-0.900775515583031,0.10124511350038481,-0.5776256322860718,0.6759503483772278,-0.45764589309692383,-0.5241326093673706,0.9250749349594116,-0.8668763637542725
4.659948825836182,-0.23820656538009644,-0.028875231742858887,-0.06082269549369812,-0.7354478475915075,-0.8986969329949573,0.07400678369812665,-0.5802596211433411,0.6709192991256714,-0.4616992175579071,-0.6465901732444763,1.1243505477905273,-0.9107193350791931
4.679972887039185,-0.23565804958343506,0.015540540218353271,-0.07136803865432739,-0.7306261045692408,-0.8948092810269426,0.04339705191996912,-0.5809770822525024,0.6673360466957092,-0.46597012877464294,-0.8371641635894775,1.3042055368423462,-0.8835048675537109
4.6999430656433105,-0.19187164306640625,0.0311509370803833,-0.08899489045143127,-0.7288237207965313,-0.8896976671979167,0.010194102125964704,-0.5795211791992188,0.6659926176071167,-0.46969038248062134,-0.9671093225479126,1.417017936706543,-0.8111501336097717
4.719937801361084,-0.10689288377761841,0.028644442558288574,-0.0922187864780426,-0.729238356937251,-0.8834891174353717,-0.023254079760283174,-0.5763804316520691,0.6663019061088562,-0.4731040298938751,-0.9774095416069031,1.4285885095596313,-0.736949622631073
4.739936828613281,0.004388868808746338,-0.011626243591308594,-0.07671213150024414,-0.730347601292088,-0.876366534385587,-0.054254630131133685,-0.5724278688430786,0.6671286225318909,-0.4767240881919861,-0.8582763671875,1.3385953903198242,-0.6499851942062378
4.759934902191162,0.1089320182800293,-0.0517004132270813,-0.06560331583023071,-0.7306815165874102,-0.8688939124248913,-0.08054443836690768,-0.5686793923377991,0.6673773527145386,-0.4808443784713745,-0.6668331027030945,1.1736888885498047,-0.5835936069488525
4.779962062835693,0.1590682864189148,-0.09011977910995483,-0.0550190806388855,-0.7299002360471606,-0.8615889472899315,-0.10239658809816479,-0.5655472278594971,0.6667953133583069,-0.4853251576423645,-0.5413495302200317,1.028764247894287,-0.5313142538070679
4.799938917160034,0.18441545963287354,-0.11298203468322754,-0.04707026481628418,-0.7289239802177425,-0.85566581614866,-0.12196156280096689,-0.563153862953186,0.6660674214363098,-0.48909303545951843,-0.5076765418052673,0.8616682291030884,-0.4985707104206085
4.819936990737915,0.21927374601364136,-0.09865349531173706,-0.0577368438243866,-0.7282687587129149,-0.8522702601649536,-0.13989382464662398,-0.5618182420730591,0.6655785441398621,-0.49128958582878113,-0.4601336717605591,0.6764430999755859,-0.4261574447154999
4.839936971664429,0.23215585947036743,-0.07988542318344116,-0.07646441459655762,-0.7281873231006899,-0.8512015715142787,-0.15559944719236143,-0.5613337159156799,0.6655178070068359,-0.491925448179245,-0.4173937439918518,0.48105281591415405,-0.3508947491645813
4.859937906265259,0.24125629663467407,-0.05339920520782471,-0.09375309944152832,-0.7286208728142177,-0.8524944057263611,-0.16872682825821966,-0.5617519617080688,0.665841281414032,-0.4910094141960144,-0.347682923078537,0.2608315646648407,-0.2535095512866974
4.879940986633301,0.24798429012298584,-0.021796345710754395,-0.10765540599822998,-0.729989387187495,-0.8554216403526466,-0.1782189805064405,-0.5624984502792358,0.6668617129325867,-0.48876482248306274,-0.2789980471134186,0.08149360865354538,-0.10724366456270218
4.899938106536865,0.24462395906448364,0.007047593593597412,-0.12707793712615967,-0.732524848946968,-0.8591700975477169,-0.1836409147255388,-0.5630443692207336,0.6687489748001099,-0.48554712533950806,-0.18270035088062286,-0.08624248206615448,0.04274899140000343
4.919936895370483,0.25215160846710205,0.02630084753036499,-0.1434919238090515,-0.7363326184212796,-0.8627402870392175,-0.18357025756982986,-0.5628358125686646,0.671575129032135,-0.4818742275238037,-0.06332506239414215,-0.2808418869972229,0.24628007411956787
4.939946889877319,0.26735812425613403,0.035342395305633545,-0.14513930678367615,-0.7416474768828272,-0.8663684326297736,-0.17741862944836964,-0.5618526935577393,0.6755036115646362,-0.4775107800960541,0.06784825026988983,-0.5065882802009583,0.4512946307659149
4.959938049316406,0.2577977776527405,0.04677093029022217,-0.13235223293304443,-0.7480820515376462,-0.8707279185952564,-0.16483939878119971,-0.5605931878089905,0.6802341938018799,-0.4722467064857483,0.23130707442760468,-0.7862896919250488,0.6344814300537109
4.9799699783325195,0.22290420532226562,0.07004302740097046,-0.12506794929504395,-0.7547818172572475,-0.8759614963332972,-0.14535524912493095,-0.5595436096191406,0.6851297616958618,-0.4663779139518738,0.4392332136631012,-1.0713764429092407,0.7937107682228088
4.999937057495117,0.17862719297409058,0.09858214855194092,-0.13169190287590027,-0.7606983895186935,-0.8810098542265423,-0.118106970133829,-0.5587540864944458,0.6894274950027466,-0.46095937490463257,0.708780825138092,-1.3000119924545288,0.9249809980392456
5.019932985305786,0.12577754259109497,0.1388535499572754,-0.1346231997013092,-0.7652960144975169,-0.8844772443148461,-0.08185963927278504,-0.5578911900520325,0.6927505135536194,-0.4570057690143585,1.1081725358963013,-1.6079307794570923,1.1728227138519287
5.0399627685546875,0.056896090507507324,0.14975160360336304,-0.18538910150527954,-0.7681517123434035,-0.8808436532239335,-0.029866124635095765,-0.5546988248825073,0.6948071718215942,-0.45776882767677307,1.5021560192108154,-1.5059638023376465,1.2795300483703613
5.059298038482666,0.013470292091369629,0.15797853469848633,-0.14491960406303406,-0.767066865263274,-0.8743746898716672,0.020165015566398815,-0.5523039102554321,0.694026529788971,-0.46183082461357117,1.330730676651001,-1.3853676319122314,0.9870120882987976
5.079998016357422,0.05314791202545166,0.10620146989822388,-0.015336334705352783,-0.7668817262512132,-0.8723573560666249,0.059914670377531246,-0.5514694452285767,0.6938931941986084,-0.46302664279937744,0.832624077796936,-1.1928184032440186,0.8442315459251404
5.099939823150635,0.02007603645324707,0.15796244144439697,0.05311572551727295,-0.7704434783688883,-0.8750359553493395,0.08777928894873607,-0.5508072376251221,0.6964535713195801,-0.45996078848838806,0.5033861398696899,-1.0646209716796875,0.7760862112045288
5.119936943054199,0.03452193737030029,0.20200175046920776,0.08802103996276855,-0.7791953286717364,-0.8786142666020644,0.11471858834007222,-0.5477360486984253,0.7027071118354797,-0.4540793299674988,0.49754369258880615,-1.1246740818023682,1.102592945098877
5.13992977142334,0.12086701393127441,0.15659856796264648,0.09526968002319336,-0.7885799225511,-0.8795647533501361,0.14687289951430454,-0.5430624485015869,0.7093530297279358,-0.44933459162712097,0.6941114068031311,-1.2912678718566895,1.0768489837646484
5.159936904907227,0.1836339831352234,0.09996426105499268,0.13261836767196655,-0.7942590168359912,-0.8784208089439212,0.18710340681972548,-0.5394384860992432,0.7133445143699646,-0.4473766088485718,1.1257717609405518,-1.4747893810272217,1.1569559574127197
5.179576873779297,0.19193387031555176,0.10835480690002441,0.145658940076828,-0.795328935395972,-0.8746891615165883,0.23641184396048315,-0.5371792316436768,0.7140939235687256,-0.44889676570892334,1.4216957092285156,-1.6656839847564697,1.1385473012924194
5.1999359130859375,0.16696810722351074,0.12914615869522095,0.15491408109664917,-0.794553769771988,-0.872891442398935,0.2875915257365461,-0.536795437335968,0.7135510444641113,-0.4502173960208893,1.346639633178711,-1.8103781938552856,1.1016969680786133
5.219935894012451,0.12722140550613403,0.17474734783172607,0.14231064915657043,-0.7951960167599077,-0.8752407138681993,0.33545940213064823,-0.5374996662139893,0.7140008807182312,-0.44866132736206055,1.1883161067962646,-1.8338569402694702,1.1150305271148682
5.240060806274414,0.08485180139541626,0.2478596568107605,0.10375982522964478,-0.797760390597276,-0.8789487589084397,0.38099395070389747,-0.5377479791641235,0.7157939672470093,-0.4454956650733948,1.1338989734649658,-1.7920488119125366,1.1412748098373413
5.259947776794434,0.07536059617996216,0.2789499759674072,0.06766289472579956,-0.8016897910329074,-0.8797127931583071,0.4283911594256023,-0.5359166860580444,0.718532383441925,-0.4432884752750397,1.1687487363815308,-1.6981266736984253,1.2658801078796387
5.2800469398498535,0.07623779773712158,0.25370901823043823,0.07078301906585693,-0.8064887909750171,-0.8758480273868463,0.47911123202089356,-0.5315448045730591,0.721861720085144,-0.44314318895339966,1.2149258852005005,-1.5735514163970947,1.3518033027648926
5.299899101257324,0.07173752784729004,0.19001871347427368,0.09735292196273804,-0.8120171845879892,-0.8688633751644116,0.5305057936640358,-0.525381326675415,0.7256765365600586,-0.44426143169403076,1.140476942062378,-1.4581249952316284,1.3577120304107666
5.320170879364014,0.07469916343688965,0.11711537837982178,0.12198704481124878,-0.8185329851320259,-0.8609956160464687,0.5798699346170954,-0.5182721614837646,0.730144202709198,-0.4452902376651764,1.025396704673767,-1.3529438972473145,1.33363938331604
5.339716911315918,0.048349082469940186,0.07038885354995728,0.12968063354492188,-0.82544258384037,-0.8525002223996763,0.6269280711726515,-0.51065993309021,0.7348480224609375,-0.446346253156662,0.9515367150306702,-1.252362847328186,1.2892218828201294
5.35988187789917,0.005675554275512695,0.04848754405975342,0.13334015011787415,-0.83143117210732,-0.8429211442076137,0.6723454202410274,-0.5030663013458252,0.7388964891433716,-0.44828149676322937,0.9783124923706055,-1.1434977054595947,1.1971172094345093
5.379928112030029,-0.03163552284240723,0.03823983669281006,0.125360906124115,-0.8349615864020213,-0.8301509683934241,0.7184100172131008,-0.4953725337982178,0.7412707209587097,-0.4529060423374176,1.084957242012024,-0.9932308197021484,1.1406159400939941
5.3999738693237305,-0.09298130869865417,0.0448683500289917,0.08870875835418701,-0.8357939981399082,-0.8145852643506841,0.7637480581245131,-0.4878140389919281,0.7418292164802551,-0.460138201713562,1.0593982934951782,-0.8123639225959778,0.9802627563476562
5.419931888580322,-0.16884803771972656,0.03915613889694214,0.10515284538269043,-0.8351422328449267,-0.7999506812631982,0.802647073233768,-0.48137474060058594,0.7413919568061829,-0.46756431460380554,0.8692073822021484,-0.6049269437789917,0.7799400687217712
5.439973831176758,-0.22895851731300354,0.0055065155029296875,0.12895822525024414,-0.8343527783389021,-0.7872547399543459,0.8326324615397502,-0.47581446170806885,0.7408619523048401,-0.47405096888542175,0.6279425024986267,-0.3475336730480194,0.5764191746711731
5.459918022155762,-0.27102896571159363,-0.025550425052642822,0.14576876163482666,-0.8339291258753896,-0.7762256335549379,0.852983114399576,-0.47077706456184387,0.7405773401260376,-0.4794937074184418,0.3666064441204071,-0.05960794538259506,0.36491629481315613
5.479947090148926,-0.2706744074821472,-0.06448107957839966,0.16459286212921143,-0.8342097817268505,-0.7670600810801926,0.8643168085124331,-0.46621832251548767,0.7407659292221069,-0.48363882303237915,0.14558911323547363,0.12750859558582306,0.21188339591026306
5.4999659061431885,-0.2416011095046997,-0.09502613544464111,0.15759068727493286,-0.835091629094871,-0.7591341051703544,0.8689502758862209,-0.4619206488132477,0.7413579821586609,-0.4868448078632355,0.0315140038728714,0.3216407895088196,0.07992465049028397
5.519937038421631,-0.2480190098285675,-0.11740809679031372,0.16311034560203552,-0.8352466922864015,-0.7483611511560204,0.870671879212887,-0.4565708339214325,0.7414620518684387,-0.49170830845832825,0.03438907116651535,0.6468546986579895,0.028871556743979454
5.5399839878082275,-0.2535833418369293,-0.13246440887451172,0.17236840724945068,-0.8341724728151526,-0.7309218929440123,0.8720370814546652,-0.4484582841396332,0.7407408356666565,-0.5001881718635559,0.11242251098155975,1.0140395164489746,-0.03646744042634964
5.559007883071899,-0.2568342685699463,-0.15370714664459229,0.13612675666809082,-0.8308207277855306,-0.7083674967354604,0.8715440840276317,-0.4386765956878662,0.7384850382804871,-0.5120574831962585,0.09046602994203568,1.254915714263916,-0.24153150618076324
5.579957008361816,-0.22811844944953918,-0.16913223266601562,0.08288073539733887,-0.825988383812923,-0.6882958845964559,0.8630637334682439,-0.4305729568004608,0.7352181077003479,-0.5235087275505066,-0.09974037110805511,1.3702058792114258,-0.5220500230789185
5.599959850311279,-0.2350623905658722,-0.21133089065551758,0.07582980394363403,-0.8206357268419323,-0.6735330704162441,0.844143006312474,-0.4252464473247528,0.7315793633460999,-0.5328762531280518,-0.29345911741256714,1.5095460414886475,-0.8070225715637207
5.619944095611572,-0.27250030636787415,-0.19099664688110352,0.09727561473846436,-0.8150429999756469,-0.6634304463118985,0.8142829812027791,-0.42235445976257324,0.727755069732666,-0.5403603315353394,-0.5678716897964478,1.6969486474990845,-1.1523972749710083
5.639934062957764,-0.34146928787231445,-0.0877159833908081,0.11942446231842041,-0.8111441308767688,-0.6596324278628769,0.7702669852572552,-0.42203474044799805,0.7250756025314331,-0.5441985130310059,-0.9987956285476685,1.8924798965454102,-1.4729697704315186
5.65993595123291,-0.3718099594116211,-0.02504873275756836,0.11633151769638062,-0.8104141718425543,-0.6615485519012371,0.7131734422988297,-0.4234018325805664,0.7245726585388184,-0.5438064336776733,-1.2924126386642456,2.0697622299194336,-1.6515690088272095
5.679977893829346,-0.3604743480682373,0.032762110233306885,0.12152314186096191,-0.8105096263179523,-0.6637864327401984,0.6511482941934511,-0.4245750904083252,0.7246384620666504,-0.5428030490875244,-1.3352820873260498,2.198988914489746,-1.7281100749969482
5.699979782104492,-0.3314393162727356,0.0741162896156311,0.1632508635520935,-0.8096865172853217,-0.6660850854323841,0.5872635037982609,-0.426190048456192,0.7240709662437439,-0.5422943830490112,-1.3263577222824097,2.196683406829834,-1.7854520082473755
5.719937801361084,-0.27818045020103455,0.07535064220428467,0.18528735637664795,-0.808804447593803,-0.6692520711004568,0.5234163167945323,-0.42830148339271545,0.7234623432159424,-0.5414426922798157,-1.3302783966064453,2.112905740737915,-1.7245285511016846
5.739936828613281,-0.20133614540100098,0.06020563840866089,0.18501460552215576,-0.8082860531307857,-0.6723491402560605,0.4625629884122338,-0.4302098751068115,0.7231043577194214,-0.5404070019721985,-1.2270153760910034,1.9845576286315918,-1.6015512943267822
5.7599358558654785,-0.1248253881931305,0.0379558801651001,0.16979652643203735,-0.8061271359871417,-0.6743384985002242,0.407453496379596,-0.432257741689682,0.7216114401817322,-0.5407681465148926,-0.9874683022499084,1.8049652576446533,-1.5337845087051392
5.779942989349365,-0.07877036929130554,0.011151432991027832,0.155531644821167,-0.8003403123438164,-0.6770020938435158,0.3568929774077989,-0.43630534410476685,0.7175931334495544,-0.542860746383667,-0.7445424199104309,1.5821603536605835,-1.5819166898727417
5.799945831298828,-0.04629763960838318,0.02320009469985962,0.11408728361129761,-0.7897366116073135,-0.6812734043794518,0.3098762442810851,-0.44338738918304443,0.7101678848266602,-0.5468721985816956,-0.5223874449729919,1.3642849922180176,-1.6474741697311401
5.819978952407837,-0.010692000389099121,0.09991168975830078,0.043954432010650635,-0.7761025886703671,-0.6876910073382925,0.2648254654073823,-0.45299211144447327,0.7005033493041992,-0.5514464378356934,-0.47822222113609314,1.1928231716156006,-1.6832139492034912
5.839715957641602,0.07016700506210327,0.13476580381393433,0.008442819118499756,-0.763285676573918,-0.6961963923096621,0.22063188922362223,-0.4633859694004059,0.691299319267273,-0.5544174313545227,-0.5487012267112732,1.0440881252288818,-1.5622971057891846
5.859935760498047,0.17532411217689514,0.1472817063331604,-0.047543108463287354,-0.75298364344196,-0.704479906555042,0.18069209090610394,-0.47255006432533264,0.6838188171386719,-0.5559571981430054,-0.49374455213546753,0.8736986517906189,-1.3206384181976318
5.8799779415130615,0.25816404819488525,0.1476079225540161,-0.14783072471618652,-0.7425908573941399,-0.708892915272151,0.15112162063552168,-0.47959959506988525,0.6761988997459412,-0.5592310428619385,-0.08991867303848267,0.7081590294837952,-0.9927948117256165
5.899945974349976,0.3106893002986908,0.131056547164917,-0.2199419140815735,-0.7290197780034483,-0.7056816388849301,0.13698599153913252,-0.4837086796760559,0.6661388874053955,-0.5677014589309692,0.41719019412994385,0.5790978074073792,-0.7075068950653076
5.919939041137695,0.32581159472465515,0.10233020782470703,-0.21664774417877197,-0.7122579942122101,-0.6963941010935516,0.1344808378136312,-0.48551011085510254,0.6535444855690002,-0.5806544423103333,0.6860862970352173,0.5250760316848755,-0.5269864201545715
5.939990043640137,0.34647807478904724,0.061154961585998535,-0.16767078638076782,-0.6963288391981719,-0.6853697985023806,0.13555256031065877,-0.48560774326324463,0.6414055228233337,-0.5939564108848572,0.5432416796684265,0.49599936604499817,-0.436841756105423
5.9599480628967285,0.38755515217781067,-0.007290542125701904,-0.0958395004272461,-0.6848608708101559,-0.6770511823033255,0.13405645331949967,-0.48522669076919556,0.6325652599334717,-0.6036691069602966,0.25854840874671936,0.41804808378219604,-0.3693770468235016
5.979963779449463,0.44118940830230713,-0.016647517681121826,-0.07372391223907471,-0.6792041949021735,-0.6731214977452471,0.129255930947827,-0.4850737154483795,0.6281740069389343,-0.6083592176437378,-0.02735060453414917,0.2801187336444855,-0.27588897943496704
5.999937057495117,0.4859401285648346,-0.006760299205780029,-0.08386099338531494,-0.6778524121156615,-0.6721726646421837,0.12409978534864032,-0.485024631023407,0.6271216869354248,-0.6094831228256226,-0.06397776305675507,0.13244298100471497,-0.10310949385166168
6.0199360847473145,0.5243085026741028,0.039225101470947266,-0.09059113264083862,-0.67809345666657,-0.670513123580999,0.12468520012731991,-0.48391857743263245,0.6273093819618225,-0.6101687550544739,0.07542712986469269,0.001479822676628828,0.15946049988269806
6.039959907531738,0.524631679058075,0.07006382942199707,-0.08232724666595459,-0.6796805464233411,-0.6668817024193001,0.1325877717621232,-0.48108312487602234,0.6285445690155029,-0.6111389398574829,0.1667441427707672,-0.1368948370218277,0.4253620207309723
6.059571981430054,0.5292553901672363,0.0632091760635376,-0.05156970024108887,-0.6841268012842951,-0.661995111372691,0.14690520094395867,-0.4763684570789337,0.6319965720176697,-0.6112720966339111,0.1584937572479248,-0.289194792509079,0.7352862358093262
6.079945087432861,0.5134631991386414,0.07230067253112793,-0.042461276054382324,-0.6928445482336045,-0.6565803176689099,0.1668722233997785,-0.46967047452926636,0.6387284398078918,-0.6094551682472229,0.10355331003665924,-0.4408528506755829,1.0235518217086792
6.099945068359375,0.4657818078994751,0.0703425407409668,-0.031147360801696777,-0.7047894456810532,-0.6500102419465231,0.19330218863506549,-0.4610058069229126,0.6478734612464905,-0.6064106225967407,0.19682539999485016,-0.61385577917099,1.305111289024353
6.120059013366699,0.403767853975296,0.09596055746078491,-0.03372597694396973,-0.7167713539756976,-0.6424532807401456,0.2272476678342146,-0.4517262578010559,0.6569539308547974,-0.603618323802948,0.4106091260910034,-0.8670745491981506,1.4492144584655762
6.1399688720703125,0.29515162110328674,0.14020121097564697,-0.045371294021606445,-0.7250720429797727,-0.6363271800464265,0.2670554408052368,-0.44476404786109924,0.6631893515586853,-0.6019675731658936,0.7207233905792236,-1.1615217924118042,1.4422569274902344
6.159937858581543,0.16645821928977966,0.239548921585083,-0.12369298934936523,-0.7284235393222502,-0.6330686438794664,0.310281636250204,-0.44148263335227966,0.6656940579414368,-0.601618230342865,0.897236168384552,-1.3282420635223389,1.3836432695388794
6.179980993270874,-0.018712162971496582,0.42661052942276,-0.18709909915924072,-0.7302598204473798,-0.6281266959400542,0.3548098751841788,-0.4377850294113159,0.6670632362365723,-0.602802574634552,0.8551276326179504,-1.1231353282928467,1.428903579711914
6.19993782043457,-0.12409466505050659,0.536685585975647,-0.1397770643234253,-0.7373510259103707,-0.6188728341222579,0.3976619448556549,-0.4294331669807434,0.6723293662071228,-0.6029596924781799,0.3609134256839752,-0.8342931270599365,1.589614987373352
6.219956874847412,-0.1237233579158783,0.44913214445114136,-0.062480807304382324,-0.7561655958009602,-0.6075416085715707,0.43541188782606,-0.4152781069278717,0.6861370801925659,-0.5972939729690552,-0.25711286067962646,-0.6147814393043518,1.7828702926635742
6.239935874938965,-0.04958224296569824,0.24800074100494385,0.054177045822143555,-0.7842352376614602,-0.5940861949010021,0.47167275424087596,-0.39626431465148926,0.7062839865684509,-0.5866324305534363,-0.48822271823883057,-0.6311708092689514,1.9313246011734009
6.259984970092773,0.02188757061958313,0.08673310279846191,0.13412559032440186,-0.8105307567579039,-0.5793566266015322,0.5131286796023512,-0.37728002667427063,0.7246530055999756,-0.5766609907150269,-0.00485170166939497,-0.8977198004722595,1.921190619468689
6.279942035675049,6.726384162902832e-05,0.01577615737915039,0.13389891386032104,-0.8237589690456888,-0.5607923775574118,0.5666913011014414,-0.36138013005256653,0.7337051033973694,-0.5753966569900513,0.8754804134368896,-1.1529518365859985,1.8734409809112549
6.29996395111084,-0.05792263150215149,0.023928344249725342,0.13472533226013184,-0.8225411524587615,-0.5382649809485338,0.6307415335053194,-0.3487851619720459,0.7328770756721497,-0.5841577053070068,1.3903192281723022,-1.2853940725326538,1.7767713069915771
6.31999397277832,-0.10897114872932434,0.052109360694885254,0.18830925226211548,-0.8156173835950777,-0.5175339196347132,0.6942294127439428,-0.33910319209098816,0.728148877620697,-0.5956578850746155,1.329075574874878,-1.251814842224121,1.6313960552215576
6.339968919754028,-0.17534798383712769,0.05178731679916382,0.21564173698425293,-0.8107568546707364,-0.5002987234066885,0.7497894297639691,-0.3304808735847473,0.7248088121414185,-0.6045119166374207,0.9516340494155884,-1.064697265625,1.4573062658309937
6.360061883926392,-0.19973993301391602,0.05087858438491821,0.224437415599823,-0.8103041213241832,-0.48657790184208766,0.7952660885699897,-0.3223090171813965,0.7244968414306641,-0.6092793345451355,0.5848485827445984,-0.87847501039505,1.2990999221801758
6.380067825317383,-0.1593749225139618,0.04342538118362427,0.20559579133987427,-0.8132851866604778,-0.47532199385460394,0.8336180140037168,-0.3144409656524658,0.7265483736991882,-0.6109454035758972,0.4208047389984131,-0.7921831011772156,1.194287657737732
6.400231838226318,-0.11648702621459961,0.01143425703048706,0.18126606941223145,-0.8163897307165203,-0.46493658511068414,0.8693048083702587,-0.3070664405822754,0.7286780476570129,-0.6121589541435242,0.44385385513305664,-0.7871027588844299,1.1266309022903442
6.419950008392334,-0.08308956027030945,-0.010450005531311035,0.17728281021118164,-0.8169961082312993,-0.45510159524968924,0.9043692344443479,-0.30083683133125305,0.7290931940078735,-0.6147522926330566,0.5767748355865479,-0.8001946806907654,1.0580946207046509
6.439974784851074,-0.07868337631225586,-0.01899665594100952,0.18855810165405273,-0.8147051310801775,-0.4455093971250023,0.9393283111891347,-0.29564523696899414,0.7275233268737793,-0.6191152930259705,0.6740812063217163,-0.7932677865028381,1.0201494693756104
6.460050106048584,-0.06927025318145752,-0.039076149463653564,0.18807333707809448,-0.810155120589314,-0.43507682562655314,0.975124675995834,-0.2905624806880951,0.7243941426277161,-0.6251612305641174,0.8017566800117493,-0.7749049663543701,1.004339337348938
6.4801530838012695,-0.07626274228096008,-0.015439331531524658,0.13903343677520752,-0.8024601507724185,-0.4244814597359776,1.0113152690966307,-0.2862097918987274,0.7190679311752319,-0.6332655549049377,0.9315081238746643,-0.7762418389320374,0.943442702293396
6.500097990036011,-0.1265145242214203,0.016869068145751953,0.08465278148651123,-0.7926866691724579,-0.4155039222172063,1.045021199095596,-0.2833365201950073,0.7122417092323303,-0.6422089338302612,0.8784955143928528,-0.7290009260177612,0.8015699982643127
6.520019054412842,-0.20464783906936646,0.031108498573303223,0.06428122520446777,-0.7842189934461227,-0.4098706032281964,1.0713513924466627,-0.28210750222206116,0.7062724828720093,-0.6493030786514282,0.6224231123924255,-0.5584110617637634,0.5721649527549744
6.540060043334961,-0.2238636314868927,-8.71419906616211e-05,0.11630117893218994,-0.7801415506147479,-0.40649385241418434,1.0884446004043897,-0.2810496985912323,0.7033800482749939,-0.6528917551040649,0.2310076206922531,-0.3083232343196869,0.3782390356063843
6.560061931610107,-0.22764471173286438,-0.04702705144882202,0.161565363407135,-0.782166855852238,-0.4054439197995502,1.095372168964882,-0.2798015773296356,0.7048181891441345,-0.6518760323524475,-0.249923437833786,-0.08407396078109741,0.13486531376838684
6.588257789611816,-0.29006388783454895,-0.10712116956710815,0.21817398071289062,-0.804998613787935,-0.4218172252163199,1.0698951318640006,-0.28377339243888855,0.7208296656608582,-0.6323585510253906,-0.9538140296936035,0.14982615411281586,-0.4445667266845703
6.608280897140503,-0.2752946615219116,-0.09082543849945068,0.1889021396636963,-0.8168062548654867,-0.43636743253312876,1.0446847529813892,-0.2893263101577759,0.7289632558822632,-0.620405375957489,-0.7978888750076294,0.22594568133354187,-0.6348212361335754
6.628431797027588,-0.26627111434936523,-0.0519675612449646,0.16589564085006714,-0.8228308298842145,-0.45090709306808874,1.0176577021473496,-0.2963967025279999,0.7330741286277771,-0.6121693849563599,-0.5505747199058533,0.2968842089176178,-0.7816393971443176
6.646030902862549,-0.2692224979400635,-0.04495549201965332,0.16947036981582642,-0.8236939552894649,-0.4656466162021644,0.9884677046447974,-0.30510303378105164,0.7336609363555908,-0.6071686744689941,-0.4354076385498047,0.3756742775440216,-0.9650023579597473
6.667101860046387,-0.2676246166229248,-0.05029129981994629,0.19981533288955688,-0.821085833530211,-0.48108127226374436,0.9556432284070111,-0.3153221309185028,0.7318861484527588,-0.6040816307067871,-0.34431207180023193,0.49054768681526184,-1.1488195657730103
6.6868720054626465,-0.26646697521209717,-0.02206575870513916,0.19051557779312134,-0.8147303411515927,-0.49698462241189606,0.9191001495629287,-0.32709988951683044,0.7275406122207642,-0.6030673980712891,-0.2713225483894348,0.5909801125526428,-1.3772995471954346
6.708056926727295,-0.2904159128665924,0.02484762668609619,0.17669612169265747,-0.8047410598482213,-0.5135970495304216,0.8780288133795149,-0.34062659740448,0.7206511497497559,-0.6038506627082825,-0.26378318667411804,0.7262938618659973,-1.5903550386428833
6.726974964141846,-0.3061673641204834,0.07271438837051392,0.17531007528305054,-0.7944951576076118,-0.5322276739028278,0.8302379221832308,-0.3555452525615692,0.7135099768638611,-0.6037310361862183,-0.5487151741981506,0.8378508687019348,-1.8195866346359253
6.7476348876953125,-0.3206246495246887,0.11739093065261841,0.1531488299369812,-0.7872281483197491,-0.5554633859472287,0.7727387258019499,-0.37220069766044617,0.7083995938301086,-0.5996972918510437,-0.9262527227401733,0.9302915930747986,-2.0124096870422363
6.7676520347595215,-0.32773032784461975,0.17953813076019287,0.10558873414993286,-0.7830237784279459,-0.5814338649553552,0.7078477024680665,-0.38928014039993286,0.7054258584976196,-0.5923135280609131,-1.1633336544036865,1.082183599472046,-2.060936689376831
6.78745698928833,-0.3084358274936676,0.2299979329109192,0.05520343780517578,-0.7810036124262492,-0.6038981236654558,0.6420753095384908,-0.40329509973526,0.7039925456047058,-0.584591805934906,-1.2575048208236694,1.3319497108459473,-1.9059339761734009
6.806657791137695,-0.20090720057487488,0.18403440713882446,0.05816984176635742,-0.7808589623275535,-0.6179079639659125,0.580875570870352,-0.411504328250885,0.703889787197113,-0.5789675116539001,-1.2219281196594238,1.5649032592773438,-1.6753230094909668
6.828185081481934,-0.07378557324409485,0.04603391885757446,0.10839766263961792,-0.7807945182940882,-0.6254208692050527,0.5250517154680135,-0.41586893796920776,0.7038440108299255,-0.5758963823318481,-1.0761549472808838,1.5797549486160278,-1.5946394205093384
6.84751296043396,-0.030681341886520386,-0.0780521035194397,0.129039466381073,-0.7777511091316829,-0.633310700051427,0.47148944849089375,-0.4216654598712921,0.7016788721084595,-0.5743213891983032,-0.9267511367797852,1.3895968198776245,-1.686031460762024
6.867693901062012,-0.037221282720565796,-0.07110726833343506,0.10279273986816406,-0.7701098849984411,-0.6453963217299261,0.4179931039220231,-0.4317881166934967,0.6962141394615173,-0.5734500885009766,-0.7559399008750916,1.140694499015808,-1.8566701412200928
6.887722015380859,-0.03385433554649353,0.004102051258087158,0.0698462724685669,-0.7582125057495537,-0.6628786378795662,0.36330402243111243,-0.44681280851364136,0.6876246929168701,-0.5723028779029846,-0.7347407341003418,0.9124656915664673,-1.9923123121261597
6.90739107131958,0.010939270257949829,0.10234451293945312,0.008783340454101562,-0.746146268406404,-0.6851424881117362,0.3065219406280266,-0.4646593928337097,0.6788139939308167,-0.5685977339744568,-0.9440851807594299,0.7584269642829895,-1.9785075187683105
6.927525997161865,0.08488905429840088,0.16962438821792603,-0.057153403759002686,-0.73794321181299,-0.7095046760775834,0.24916049889417421,-0.4819837808609009,0.6727676391601562,-0.5613157749176025,-1.1046923398971558,0.6944859027862549,-1.7742682695388794
6.9470720291137695,0.1746039092540741,0.22244662046432495,-0.12804627418518066,-0.7325373828349504,-0.7299398395547041,0.19836509616954554,-0.4957709312438965,0.6687582731246948,-0.5540521144866943,-0.9244211316108704,0.6767162680625916,-1.4143952131271362
6.967022895812988,0.2764125466346741,0.22846275568008423,-0.19509297609329224,-0.7266569951277062,-0.7413909990086717,0.1614303204581949,-0.5047298073768616,0.6643747687339783,-0.5512296557426453,-0.47259244322776794,0.649526834487915,-1.029800295829773
6.987308979034424,0.35833120346069336,0.16709399223327637,-0.20801758766174316,-0.7183348179729186,-0.7430704702251162,0.13990077121854694,-0.5093779563903809,0.6581318378448486,-0.5544335842132568,-0.03138798475265503,0.613174557685852,-0.7591745853424072
7.006982803344727,0.38258445262908936,0.0731155276298523,-0.15413141250610352,-0.7074620479677537,-0.7396723195637697,0.12747542960163905,-0.5122841596603394,0.6499069929122925,-0.5614141821861267,0.14556950330734253,0.5324780344963074,-0.681833803653717
7.027247905731201,0.41256970167160034,-0.005410373210906982,-0.09877502918243408,-0.6965163492103372,-0.7374364803829079,0.11670919239291037,-0.5157801508903503,0.6415493488311768,-0.5677899122238159,0.09282048046588898,0.38036978244781494,-0.6738177537918091
7.045948028564453,0.42978930473327637,-0.028391599655151367,-0.09994417428970337,-0.6863961298585916,-0.7381598397915814,0.10551374984376066,-0.5205333232879639,0.6337535977363586,-0.5721901655197144,0.10834955424070358,0.2757071852684021,-0.625174880027771
7.066813945770264,0.4409749507904053,0.017836272716522217,-0.13306021690368652,-0.67642400714883,-0.7385316932856345,0.09764958956260651,-0.5249745845794678,0.6260083913803101,-0.5766412615776062,0.23428401350975037,0.180211141705513,-0.4997015595436096
7.086916923522949,0.4527788758277893,0.05807453393936157,-0.14763134717941284,-0.6661725286487346,-0.7377512972295672,0.09518799622070502,-0.528813362121582,0.6179813742637634,-0.5817692279815674,0.3786914050579071,0.054067667573690414,-0.3202441334724426
7.105912923812866,0.452157199382782,0.08955097198486328,-0.17346298694610596,-0.65787642949302,-0.7364090112413252,0.09784131961753927,-0.5314571261405945,0.6114378571510315,-0.5862568020820618,0.3559781014919281,-0.07728450000286102,-0.08739349246025085
7.128551006317139,0.42834579944610596,0.11805754899978638,-0.21204739809036255,-0.6541560509736355,-0.735516898942269,0.10382968451910843,-0.5324565768241882,0.6084897518157959,-0.5884133577346802,0.23044055700302124,-0.20063413679599762,0.1997414231300354
7.1468119621276855,0.40528857707977295,0.14956820011138916,-0.24229919910430908,-0.6564253832177444,-0.7350683900132623,0.11330233436684867,-0.531265139579773,0.6102890372276306,-0.5876263380050659,0.12318999320268631,-0.33316200971603394,0.5080633759498596
7.166479110717773,0.3756936192512512,0.16258203983306885,-0.2593861222267151,-0.6636519257443472,-0.734473403135195,0.12771729052960298,-0.527945876121521,0.6159977316856384,-0.5846537947654724,0.13192428648471832,-0.5048642158508301,0.8119935393333435
7.186600923538208,0.3483735918998718,0.13925057649612427,-0.250560998916626,-0.672965173924897,-0.7331603538162217,0.14944423266708862,-0.5233156085014343,0.6233074069023132,-0.5810582041740417,0.33863815665245056,-0.7222304344177246,1.074481725692749
7.206408977508545,0.33181631565093994,0.10408627986907959,-0.21901535987854004,-0.6814534749440401,-0.7307088116369935,0.1801285488279081,-0.5183397531509399,0.6299225687980652,-0.578378438949585,0.6348626017570496,-0.9452233910560608,1.275876522064209
7.226463794708252,0.3245842456817627,0.034667015075683594,-0.12959879636764526,-0.6888721008716662,-0.7261625537032855,0.21966206967134563,-0.5125877857208252,0.6356669068336487,-0.5772187113761902,0.8406306505203247,-1.1197140216827393,1.5067006349563599
7.24537992477417,0.3182525634765625,3.057718276977539e-05,-0.030987441539764404,-0.6969226205762231,-0.720583210320722,0.26585569997437725,-0.5059662461280823,0.6418609023094177,-0.5762055516242981,0.9007600545883179,-1.2908780574798584,1.6806389093399048
7.266514778137207,0.29603689908981323,0.05914789438247681,0.012336194515228271,-0.7058044896083822,-0.7172502105870792,0.3150771369419512,-0.5002757906913757,0.648646354675293,-0.573569655418396,0.9290254712104797,-1.5765907764434814,1.747536540031433
7.286221027374268,0.2481720745563507,0.11271005868911743,-0.026240885257720947,-0.7149372134763509,-0.7178049097840243,0.36742953582892823,-0.4966766834259033,0.6555700302124023,-0.568805992603302,1.0273444652557373,-1.895717740058899,1.8442769050598145
7.307773113250732,0.17647796869277954,0.20061177015304565,-0.06614023447036743,-0.722423397664735,-0.7193969056874204,0.4256803866987674,-0.49433380365371704,0.6612046360969543,-0.5643070936203003,1.3028002977371216,-2.0808029174804688,1.9767342805862427
7.325334072113037,0.12167957425117493,0.3018304705619812,-0.07281821966171265,-0.7285322260392637,-0.7174346241314434,0.4920036313485592,-0.4905608296394348,0.6657751798629761,-0.5622220635414124,1.5004488229751587,-2.125218391418457,2.161628007888794
7.346028804779053,0.060054928064346313,0.3216369152069092,-0.02779918909072876,-0.7339433595908555,-0.7110723258130502,0.5645307661107177,-0.4846155047416687,0.6698029041290283,-0.5625938773155212,1.6167898178100586,-2.085676908493042,2.2658371925354004
7.36509895324707,0.011771559715270996,0.3052876591682434,0.038855016231536865,-0.738091086124053,-0.7010101305352991,0.6402782551160628,-0.477134108543396,0.6728770136833191,-0.5653136372566223,1.712345838546753,-1.9997507333755493,2.27055025100708
7.385807037353516,-0.007452487945556641,0.2655336856842041,0.11746019124984741,-0.7400383409864247,-0.6883838684732829,0.7165706381954591,-0.46912527084350586,0.6743162274360657,-0.5702800154685974,1.743322491645813,-1.8834766149520874,2.193401336669922
7.405910968780518,-0.0033659934997558594,0.21571511030197144,0.19572776556015015,-0.7402638169445677,-0.6743380702208256,0.7907776674855506,-0.46097421646118164,0.6744827032089233,-0.5766938924789429,1.6834170818328857,-1.729425072669983,2.0880825519561768
7.425965785980225,0.007780939340591431,0.1790950894355774,0.26874977350234985,-0.740138319883782,-0.6602382441783635,0.8606460297537656,-0.45284926891326904,0.6743900775909424,-0.5832028388977051,1.525660753250122,-1.5917088985443115,1.9715347290039062
7.445693016052246,0.017872482538223267,0.16060340404510498,0.30216628313064575,-0.7401976296375689,-0.6473238458033054,0.9255388717473295,-0.44525593519210815,0.6744338274002075,-0.5889704823493958,1.3993542194366455,-1.5276732444763184,1.8392672538757324
7.4647979736328125,-0.012258857488632202,0.19278383255004883,0.28590601682662964,-0.7389795912149267,-0.6368291163584948,0.9856567707465712,-0.4395386278629303,0.6735340356826782,-0.5942708849906921,1.3954768180847168,-1.47065007686615,1.6513501405715942
7.485898971557617,-0.09692472219467163,0.2719920873641968,0.24591666460037231,-0.7345502122614007,-0.6266470416500175,1.0424141712751507,-0.435210257768631,0.6702533960342407,-0.601125955581665,1.4225149154663086,-1.334315299987793,1.4923062324523926
7.505527019500732,-0.14260825514793396,0.3200361132621765,0.21379834413528442,-0.7309453202333185,-0.6182071513634805,1.0927318651185127,-0.43151894211769104,0.6675737500190735,-0.6067426800727844,1.022926926612854,-1.2054604291915894,1.373265266418457
7.525187969207764,-0.15271034836769104,0.31918609142303467,0.30629581212997437,-0.7326417332799496,-0.6113228711378627,1.136879937047438,-0.4266812205314636,0.6688358783721924,-0.6087707877159119,0.7741664052009583,-1.066498041152954,1.4144670963287354
7.545772075653076,-0.18850022554397583,0.36993372440338135,0.34660935401916504,-0.7366554852684908,-0.6023869680901519,1.1800741499291367,-0.41969984769821167,0.6718143224716187,-0.610342264175415,0.7345874309539795,-0.944074809551239,1.4670474529266357
7.565500974655151,-0.1796213984489441,0.29866188764572144,0.3586120009422302,-0.7421461840276097,-0.5918039143406114,1.2237208058055393,-0.4111531376838684,0.6758712530136108,-0.6116790175437927,0.616409182548523,-0.969126284122467,1.5067387819290161
7.585336923599243,-0.15078839659690857,0.16159677505493164,0.40180689096450806,-0.7492435897776311,-0.5835068252144126,1.2659958151574455,-0.40341079235076904,0.6810851097106934,-0.6110506057739258,0.5358533263206482,-1.0944151878356934,1.4618189334869385
7.606770992279053,-0.16013476252555847,0.059042394161224365,0.40500640869140625,-0.7561850005039954,-0.5793356982109945,1.3053507997477438,-0.39826062321662903,0.6861512064933777,-0.608756959438324,0.45191022753715515,-1.1646925210952759,1.3038904666900635
7.625735759735107,-0.2153477668762207,-0.005476951599121094,0.38671356439590454,-0.7624613372111003,-0.579022644219501,1.3391585879349484,-0.3957056999206543,0.6907034516334534,-0.605265200138092,0.3562612235546112,-1.140573501586914,1.11631441116333
7.646856784820557,-0.20109614729881287,-0.047989845275878906,0.34717464447021484,-0.7694081478488889,-0.581427710588861,1.3677130950907113,-0.39451542496681213,0.6957102417945862,-0.6002873778343201,0.18393340706825256,-1.076080322265625,0.9942963719367981
7.664896011352539,-0.21424132585525513,-0.10140180587768555,0.2844328284263611,-0.7777778253434982,-0.5859964893088548,1.3905834731460271,-0.3940197825431824,0.7016978859901428,-0.5936064124107361,0.025206731632351875,-0.9797329306602478,0.8241991400718689
7.685017108917236,-0.2588302195072174,-0.13656079769134521,0.2193896770477295,-0.7862551929391931,-0.5929688103561855,1.4064830016524545,-0.3948105275630951,0.7077125310897827,-0.585890531539917,-0.08933712542057037,-0.8346573114395142,0.5803996324539185
7.704993963241577,-0.2716881334781647,-0.17512619495391846,0.16654038429260254,-0.7937655426277305,-0.6020430627181647,1.4149635394371642,-0.3970893323421478,0.7129985690116882,-0.5778868198394775,-0.19553028047084808,-0.6874597668647766,0.3398873209953308
7.725099086761475,-0.2394791841506958,-0.20967739820480347,0.11708879470825195,-0.8003235578316029,-0.6135711262706591,1.4163529995525819,-0.4010237455368042,0.7175814509391785,-0.5694355964660645,-0.2932862341403961,-0.5662002563476562,0.11365880072116852
7.745124816894531,-0.22324207425117493,-0.22384673357009888,0.07595503330230713,-0.8059176769211148,-0.627820006993126,1.4102342747950756,-0.40673232078552246,0.7214663624763489,-0.5604062676429749,-0.40045443177223206,-0.41136136651039124,-0.140361487865448
7.76285195350647,-0.22420841455459595,-0.21879327297210693,0.031149744987487793,-0.8099547693726928,-0.6442704274573662,1.3963391989551222,-0.41414305567741394,0.7242559790611267,-0.5513066053390503,-0.4807760417461395,-0.2270515263080597,-0.3725249767303467
7.784789085388184,-0.205538809299469,-0.18882417678833008,-0.013444125652313232,-0.8125460566960687,-0.6602838255142695,1.3772710553581096,-0.4217652678489685,0.7260403037071228,-0.5431201457977295,-0.5170660614967346,0.007398609071969986,-0.5224247574806213
7.804439067840576,-0.19573888182640076,-0.15889954566955566,-0.05311274528503418,-0.8128537183157445,-0.6742780524301633,1.3544508097477423,-0.42918482422828674,0.7262518405914307,-0.5369904041290283,-0.48685622215270996,0.2532011866569519,-0.7008482813835144
7.8236308097839355,-0.19720494747161865,-0.1402294635772705,-0.07123547792434692,-0.8102699350401456,-0.6859867803406509,1.3277645229364499,-0.43662986159324646,0.724473237991333,-0.5333786606788635,-0.4836777448654175,0.5065580606460571,-0.9011808633804321
7.844418048858643,-0.21718502044677734,-0.10635507106781006,-0.05509084463119507,-0.8050380681415896,-0.6976403684794952,1.294654916023504,-0.4452447295188904,0.7208570241928101,-0.5311517715454102,-0.5697106122970581,0.7155230045318604,-1.20437753200531
7.864710807800293,-0.25367897748947144,-0.03717362880706787,-0.048609793186187744,-0.7970819762948717,-0.7109009514706051,1.2536653544670637,-0.4559767544269562,0.7153200507164001,-0.52953040599823,-0.6975181102752686,0.8879858255386353,-1.4919369220733643
7.886798858642578,-0.3095853626728058,0.08741497993469238,-0.057306885719299316,-0.7876281426319324,-0.7270329089807027,1.2041411223650655,-0.4689333140850067,0.7086818814277649,-0.5271351933479309,-0.8696020245552063,1.0520896911621094,-1.7149592638015747
7.904705047607422,-0.2958424389362335,0.19361573457717896,-0.07845848798751831,-0.779508274703877,-0.7413087379993738,1.150782297759722,-0.4802806079387665,0.7029297351837158,-0.5246146321296692,-1.087037444114685,1.2844188213348389,-1.6060843467712402
7.924777030944824,-0.14902150630950928,0.1768277883529663,-0.045693278312683105,-0.7772627415629774,-0.7511123767167327,1.0977664118550132,-0.4864765405654907,0.701330840587616,-0.5210333466529846,-1.2948821783065796,1.458261251449585,-1.3063194751739502
7.944237947463989,-0.015067130327224731,0.09081429243087769,0.016802489757537842,-0.7808648091002922,-0.7563870348978285,1.0481532904546784,-0.4874810576438904,0.7038939595222473,-0.5166193246841431,-1.3623814582824707,1.4793400764465332,-1.0671861171722412
7.964056015014648,0.05735141038894653,-0.02522188425064087,0.05637258291244507,-0.7849234488433923,-0.7594393801598935,1.0031039811876716,-0.48708465695381165,0.7067710161209106,-0.5130528807640076,-1.0872820615768433,1.3847527503967285,-0.9872719049453735
7.983179092407227,0.11023133993148804,-0.12508583068847656,0.05728769302368164,-0.7839465110520017,-0.7591837679307499,0.9665471381388029,-0.4874286353588104,0.7060795426368713,-0.5136780738830566,-0.6026664972305298,1.2420965433120728,-0.9716463685035706
8.003068923950195,0.11614248156547546,-0.13624215126037598,0.06207728385925293,-0.7757301445293107,-0.7539453165430695,0.9395197944796669,-0.48868584632873535,0.700237512588501,-0.5204360485076904,-0.18546971678733826,1.2021510601043701,-1.0016231536865234
8.024271011352539,0.06028342247009277,-0.10058540105819702,0.09212702512741089,-0.7627573092193846,-0.7473473375889833,0.9149326772647813,-0.4913747012615204,0.690917432308197,-0.5302678346633911,-0.10895069688558578,1.182133674621582,-1.197470784187317
8.043834924697876,-0.04068654775619507,-0.05436581373214722,0.08258503675460815,-0.7476677983833501,-0.743159844025913,0.8850075251462415,-0.49614816904067993,0.6799304485321045,-0.5399367213249207,-0.29611268639564514,1.3289003372192383,-1.4392693042755127
8.063837051391602,-0.15788692235946655,0.05070328712463379,0.06207185983657837,-0.7334893969448474,-0.7404839293307544,0.8459411001976495,-0.5011553764343262,0.6694657802581787,-0.5483236312866211,-0.6307036876678467,1.591118335723877,-1.629473090171814
8.083869934082031,-0.19576728343963623,0.1603909730911255,0.028658270835876465,-0.7236019254564454,-0.7374379454422408,0.7986407336184405,-0.5039092302322388,0.6620883345603943,-0.5547202825546265,-1.0227482318878174,1.8775733709335327,-1.6355806589126587
8.10373306274414,-0.2237035036087036,0.2519151568412781,0.02212846279144287,-0.7198388491798906,-0.7326126671076675,0.7451087496546934,-0.5028895139694214,0.6592634916305542,-0.5589936971664429,-1.3925020694732666,2.127824068069458,-1.6043832302093506
8.122861862182617,-0.16954746842384338,0.247076153755188,0.06057858467102051,-0.7208768335471896,-0.7270307242827604,0.6879537092310105,-0.4993062913417816,0.6600435972213745,-0.5612804293632507,-1.4999748468399048,2.1913740634918213,-1.5209650993347168
8.143948078155518,-0.028702110052108765,0.18263614177703857,0.08168959617614746,-0.7231569465272579,-0.7201349540177444,0.6332654431025178,-0.49443021416664124,0.6617547869682312,-0.56357741355896,-1.3625565767288208,2.101835012435913,-1.427844762802124
8.162724018096924,0.07033899426460266,0.05985152721405029,0.08129602670669556,-0.722644447463827,-0.7141454946194148,0.5829124811491198,-0.49126794934272766,0.6613704562187195,-0.5667848587036133,-1.0758869647979736,1.830362319946289,-1.4642044305801392
8.18253493309021,0.1440902054309845,-0.03829360008239746,0.09847766160964966,-0.7171455068008455,-0.7108479030699892,0.5374941310842463,-0.4917617738246918,0.6572359800338745,-0.5711491703987122,-0.7559312582015991,1.5287474393844604,-1.462554693222046
8.203658103942871,0.16724678874015808,-0.01046144962310791,0.13400697708129883,-0.7085929395419749,-0.7091627945700874,0.4976045078233658,-0.4944410026073456,0.6507660746574402,-0.5762218832969666,-0.6292672157287598,1.2497097253799438,-1.3918284177780151
8.222575902938843,0.1778137981891632,0.015910565853118896,0.13088631629943848,-0.7017537103911559,-0.7122559270243,0.4593261625542533,-0.4991181492805481,0.6455579996109009,-0.5780450701713562,-0.7544211745262146,0.9210850596427917,-1.2451515197753906
8.243244886398315,0.2149941325187683,0.04799187183380127,0.07251948118209839,-0.6985515760425751,-0.7199497889250183,0.42403015207614214,-0.5049110651016235,0.6431092023849487,-0.5757390260696411,-0.7401486039161682,0.6033691167831421,-1.0085248947143555
