timestamp,acceleration_x,acceleration_y,acceleration_z,attitude_pitch,attitude_roll,attitude_yaw,gravity_x,gravity_y,gravity_z,rotation_x,rotation_y,rotation_z
0.0,0.13483446836471558,0.7321552038192749,-0.34710484743118286,0.23747869344510317,-1.4796902937274874,2.0362873614886814,-0.9679035544395447,-0.23525282740592957,-0.08842664211988449,0.3616202771663666,-0.2653430700302124,-0.2952992022037506
0.020023822784423828,0.13092809915542603,0.7633152008056641,-0.35439950227737427,0.24096699598410987,-1.4868691947943522,2.0457754464590474,-0.9676896929740906,-0.23864179849624634,-0.08140664547681808,0.5894699096679688,-0.21508538722991943,0.021691814064979553
0.03940391540527344,0.03978163003921509,0.771759033203125,-0.3708180785179138,0.2383339904597484,-1.493461254675635,2.0600488526721636,-0.9688283801078796,-0.23608404397964478,-0.07507414370775223,0.7532358765602112,-0.11590660363435745,0.3476552665233612
0.05930471420288086,-0.04446786642074585,0.7469534873962402,-0.36768609285354614,0.22908501090718691,-1.4984197978732083,2.076666300752182,-0.9713250398635864,-0.22708652913570404,-0.0704241469502449,0.7787653207778931,0.014023171737790108,0.698210597038269
0.07921504974365234,-0.11198669672012329,0.7052879929542542,-0.34748929738998413,0.21246768019065965,-1.501559423643077,2.093387240384397,-0.9751715660095215,-0.21087272465229034,-0.06762595474720001,0.7366524338722229,-0.005858568474650383,1.070131540298462
0.09999799728393555,-0.25393009185791016,0.7036881446838379,-0.34297823905944824,0.18901883878109135,-1.5049938252710886,2.1106288149768906,-0.9800635576248169,-0.1878952980041504,-0.06458387523889542,0.8239477872848511,0.07086017727851868,1.3726227283477783
0.12001490592956543,-0.5461239814758301,0.697754442691803,-0.28640204668045044,0.1604630598696107,-1.5029429388507696,2.1317556363315893,-0.9848819971084595,-0.15977533161640167,-0.06693033128976822,1.0973361730575562,0.5494017601013184,1.6187139749526978
0.1401209831237793,-0.5183475613594055,0.6466658711433411,-0.2808997631072998,0.12654125853510861,-1.4922539793570249,2.1593709801517824,-0.9889461994171143,-0.12620382010936737,-0.07783427089452744,1.3680448532104492,0.8326252698898315,1.9880645275115967
0.16005682945251465,-0.12184810638427734,0.5284496545791626,-0.28194957971572876,0.08470327045524374,-1.478243949263841,2.191623527537936,-0.9921504259109497,-0.08460202068090439,-0.0920889750123024,1.4587630033493042,0.9015505909919739,2.4526093006134033
0.17917776107788086,0.029368698596954346,0.44809621572494507,-0.22848528623580933,0.034254042185332734,-1.4610763380850242,2.2264612556516954,-0.9934038519859314,-0.03424734249711037,-0.10943575948476791,1.5074092149734497,1.0322805643081665,2.8993027210235596
0.1999959945678711,-0.08307254314422607,0.38235530257225037,-0.14640437066555023,-0.0232406611417903,-1.4396598538729872,2.264327298041215,-0.9911462664604187,0.023238569498062134,-0.13072563707828522,1.5687377452850342,1.1269679069519043,3.2514047622680664
0.22003698348999023,-0.27703022956848145,0.3010581135749817,-0.06506764888763428,-0.08576576355635095,-1.4139444152619207,2.30491561808904,-0.9840935468673706,0.0856606587767601,-0.15563540160655975,1.5418349504470825,1.2095204591751099,3.4899446964263916
0.24011993408203125,-0.4910205006599426,0.1959318220615387,0.002703264355659485,-0.15053762135813054,-1.383403400459721,2.3465361177315796,-0.9713819026947021,0.1499696969985962,-0.18419119715690613,1.4291040897369385,1.353753685951233,3.562628984451294
0.2599959373474121,-0.6671682000160217,0.09542454779148102,0.09295095503330231,-0.2150362613330637,-1.3452855128775916,2.3889260437365394,-0.9522318840026855,0.21338285505771637,-0.21845437586307526,1.3694093227386475,1.5843321084976196,3.504343271255493
0.2794668674468994,-0.6637682914733887,0.020196527242660522,0.1794404685497284,-0.2752743303065973,-1.3010691105529333,2.4345995418088506,-0.9275556206703186,0.27181094884872437,-0.25643616914749146,1.4590569734573364,1.6843199729919434,3.4240496158599854
0.3000049591064453,-0.5604602098464966,-0.044441431760787964,0.2536948323249817,-0.3318236598953988,-1.2517265530525055,2.4843387665656693,-0.897730827331543,0.32576775550842285,-0.2965719699859619,1.4064381122589111,1.7784086465835571,3.3769657611846924
0.32000303268432617,-0.5373563170433044,-0.12744581699371338,0.3244399428367615,-0.38649289850599666,-1.1978833737037349,2.5339985604754656,-0.8625766634941101,0.37694233655929565,-0.3374556303024292,1.0850801467895508,1.8382631540298462,3.3583827018737793
0.3397669792175293,-0.4637039303779602,-0.20938566327095032,0.3777604103088379,-0.441601674469817,-1.1430843811871862,2.5797294534405317,-0.8226273655891418,0.4273880422115326,-0.3749984800815582,0.6362910866737366,1.792441964149475,3.3572821617126465
0.35999584197998047,-0.43181169033050537,-0.2844207286834717,0.4152113199234009,-0.49703207750536044,-1.088820371908074,2.6224422624145114,-0.7788665294647217,0.47681882977485657,-0.4074445068836212,0.4172690808773041,1.6966021060943604,3.299098253250122
0.3794569969177246,-0.4237748384475708,-0.3300418257713318,0.4201008081436157,-0.5487797613018044,-1.033152331203407,2.668238812596244,-0.7327956557273865,0.5216465592384338,-0.43691593408584595,0.5867615342140198,1.5923042297363281,3.1519830226898193
0.4001760482788086,-0.40432703495025635,-0.37529122829437256,0.41569632291793823,-0.590981159694282,-0.9729363332422652,2.7232028968281745,-0.6863560080528259,0.5571760535240173,-0.46740829944610596,1.0662400722503662,1.4547655582427979,2.903883695602417
0.41999292373657227,-0.3491404056549072,-0.4178941249847412,0.44509410858154297,-0.6202511331120715,-0.9089457174535801,2.7877480581155814,-0.6419180035591125,0.5812395215034485,-0.5001019835472107,1.461682677268982,1.2576823234558105,2.594020128250122
0.4399998188018799,-0.2852689027786255,-0.4818483591079712,0.5146639347076416,-0.6381297159094939,-0.8466322917169585,2.854718954951522,-0.6016483306884766,0.5956942439079285,-0.5321351885795593,1.5179765224456787,1.0277519226074219,2.2459635734558105
0.45999884605407715,-0.24141687154769897,-0.5482184290885925,0.5858251452445984,-0.648746183964942,-0.7921667034242496,2.915382698898948,-0.5672532916069031,0.6041877865791321,-0.5596258640289307,1.28836190700531,0.7682216167449951,1.8416738510131836
0.4796638488769531,-0.20909887552261353,-0.5924710631370544,0.6097765564918518,-0.6548716260706186,-0.7501593916619723,2.9641625027977017,-0.5407180190086365,0.6090574264526367,-0.5802354216575623,0.9835788011550903,0.4670839309692383,1.3490443229675293
0.500140905380249,-0.1957072615623474,-0.6122124195098877,0.6070080399513245,-0.6568888179733605,-0.7222213034846255,2.9991055979671137,-0.5234852433204651,0.6106560826301575,-0.5941905975341797,0.7602074146270752,0.1525895744562149,0.7943084836006165
0.5213737487792969,-0.18503177165985107,-0.6240062117576599,0.5995690226554871,-0.6534427149144884,-0.7103901297950064,3.0194049139416244,-0.5177880525588989,0.6079235076904297,-0.6019340753555298,0.5637150406837463,-0.20322632789611816,0.183742955327034
0.5400090217590332,-0.22679686546325684,-0.6348621845245361,0.6058862209320068,-0.6448891040084376,-0.7142725172156785,3.0244649552379275,-0.5235083699226379,0.6011098027229309,-0.6038262844085693,0.3594219386577606,-0.49269551038742065,-0.435709148645401
0.5591719150543213,-0.2556396722793579,-0.6121575832366943,0.5977676510810852,-0.6304376616312459,-0.731945075967437,3.0158774332507354,-0.5398468375205994,0.5894983410835266,-0.6008803844451904,0.264761745929718,-0.7535825967788696,-1.0375348329544067
0.579840898513794,-0.29361212253570557,-0.5684701204299927,0.5257132649421692,-0.6098104497847155,-0.7620954929999091,2.994665026895727,-0.5659917593002319,0.5727120637893677,-0.5930044054985046,0.01899992860853672,-1.057382583618164,-1.6503887176513672
0.6001987457275391,-0.43055468797683716,-0.5516899824142456,0.4864000082015991,-0.5850479515278172,-0.8073944678195806,2.956027875181982,-0.6023280620574951,0.5522393584251404,-0.5763963460922241,-0.5476932525634766,-1.2892097234725952,-2.378873348236084
0.6201348304748535,-0.6272619366645813,-0.4773522615432739,0.5472424030303955,-0.5563651921845206,-0.8666743884085233,2.897596562409174,-0.647228479385376,0.5281031131744385,-0.5497294664382935,-1.1940546035766602,-1.513917088508606,-3.0200276374816895
0.6399960517883301,-0.5265968441963196,-0.4159528613090515,0.4795514941215515,-0.5255007834596063,-0.9390652217729961,2.822211478121633,-0.6981194019317627,0.5016462802886963,-0.5108624696731567,-1.9780761003494263,-1.824717402458191,-3.379431962966919
0.660024881362915,-0.4394904375076294,-0.42743629217147827,0.31944409012794495,-0.49303802060755453,-1.0181113859559294,2.7348358383801226,-0.7497491240501404,0.47330427169799805,-0.4624493718147278,-2.4555652141571045,-1.7914705276489258,-3.579996347427368
0.6798748970031738,-0.4987051486968994,-0.26819753646850586,0.17460525035858154,-0.4536923525841168,-1.0929513843874865,2.646778334322686,-0.7981547117233276,0.43828731775283813,-0.4133441746234894,-2.3732450008392334,-1.696613073348999,-3.716242551803589
0.7000360488891602,-0.4725828170776367,-0.11686894297599792,0.07877394556999207,-0.40559292779225137,-1.1600777816525254,2.5666839646637856,-0.8424502015113831,0.3945636451244354,-0.3668750524520874,-2.1717469692230225,-1.6833871603012085,-3.752946615219116
0.719202995300293,-0.45765089988708496,-0.10920333862304688,0.05442863702774048,-0.35249620477692223,-1.220318542240578,2.4940618936585053,-0.8814604878425598,0.34524160623550415,-0.3222355544567108,-2.158778190612793,-1.6508017778396606,-3.6982898712158203
0.7399859428405762,-0.49284839630126953,-0.0643744170665741,0.04764646291732788,-0.29680127027967557,-1.2742830595615815,2.425797891357681,-0.9145461320877075,0.2924628257751465,-0.2794121205806732,-2.2236366271972656,-1.5659615993499756,-3.6571459770202637
0.7600059509277344,-0.504377543926239,0.029377013444900513,0.01700294017791748,-0.23895815560188768,-1.3218636002905522,2.3602401140589118,-0.9416369795799255,0.23669052124023438,-0.23936918377876282,-2.3163349628448486,-1.4625834226608276,-3.640437126159668
0.7800817489624023,-0.443200945854187,0.11100628972053528,-0.028227075934410095,-0.17865410393240627,-1.3627631605340944,2.297168664571389,-0.9628660082817078,0.17770525813102722,-0.20324862003326416,-2.3218069076538086,-1.317744255065918,-3.646576166152954
0.8002018928527832,-0.3369957208633423,0.20176249742507935,-0.05066172778606415,-0.11581806236331459,-1.3959692462243558,2.238980443875153,-0.9781593680381775,0.11555930972099304,-0.1727725863456726,-2.1002464294433594,-1.1352111101150513,-3.6208465099334717
0.8200428485870361,-0.23844343423843384,0.3054550290107727,-0.0789385586977005,-0.0512263101247608,-1.4210289908209182,2.1898171017404477,-0.9875089526176453,0.05120391026139259,-0.14901238679885864,-1.6984226703643799,-0.9558671116828918,-3.5394785404205322
0.8400087356567383,-0.15853112936019897,0.40374818444252014,-0.09514760971069336,0.013123553723796838,-1.439635419145759,2.1495983601554562,-0.9913255572319031,-0.013123176991939545,-0.13077393174171448,-1.4336673021316528,-0.8251957893371582,-3.3883557319641113
0.8600888252258301,-0.10535883903503418,0.49242761731147766,-0.08588516712188721,0.07492568529204141,-1.453909519375705,2.113677720887718,-0.9903901815414429,-0.07485560327768326,-0.11629365384578705,-1.3962165117263794,-0.7660087943077087,-3.1836583614349365
0.8800020217895508,-0.08811956644058228,0.5635184645652771,-0.10559164732694626,0.13260180741204863,-1.4653691854791855,2.0786671106724013,-0.9857177734375,-0.1322135478258133,-0.10430815070867538,-1.4297558069229126,-0.7207517623901367,-2.9253227710723877
0.9006199836730957,-0.13307732343673706,0.6451560258865356,-0.14795643091201782,0.18507493015077614,-1.4735798243552525,2.0444518797083213,-0.9782814383506775,-0.18402019143104553,-0.09540585428476334,-1.3879560232162476,-0.6255045533180237,-2.635524034500122
0.9199800491333008,-0.16024726629257202,0.7338210344314575,-0.1992199420928955,0.23203718329233483,-1.478647385351295,2.013408281487456,-0.9690712094306946,-0.2299605906009674,-0.08955250680446625,-1.1876734495162964,-0.5197932720184326,-2.323807716369629
0.9400219917297363,-0.13626235723495483,0.8203055262565613,-0.22845935821533203,0.27289898461241213,-1.4810767194478471,1.987189157838736,-0.9591203927993774,-0.2695242762565613,-0.08628354966640472,-0.996559739112854,-0.37126779556274414,-1.9717289209365845
0.9600067138671875,-0.07226431369781494,0.8857169151306152,-0.22746866941452026,0.3063333235092634,-1.4806108801887852,1.9635513769982675,-0.9495711326599121,-0.30156469345092773,-0.08587042987346649,-1.0012714862823486,-0.27492421865463257,-1.5610705614089966
0.9799978733062744,0.009753167629241943,0.9225407242774963,-0.2405286431312561,0.33085734981369647,-1.4780438472207846,1.9386943648244306,-0.9416990876197815,-0.3248539865016937,-0.08759626746177673,-1.1364589929580688,-0.24975167214870453,-1.1043039560317993
1.0001487731933594,0.016100406646728516,0.9559977054595947,-0.26690125465393066,0.34596011522619285,-1.4737900581786518,1.9120484367040362,-0.9363273978233337,-0.33910006284713745,-0.09111561626195908,-1.2019102573394775,-0.2155786007642746,-0.6504700779914856
1.0199999809265137,-0.02398049831390381,0.9785298705101013,-0.2967168092727661,0.35209275684028024,-1.4690472166939612,1.8864858985976485,-0.9337985515594482,-0.3448629379272461,-0.09534242004156113,-1.1049267053604126,-0.17705978453159332,-0.2064495086669922
1.0393269062042236,-0.06246078014373779,0.9910911321640015,-0.2941286563873291,0.3499187725927716,-1.4650356871361903,1.866148037117844,-0.934151828289032,-0.34282150864601135,-0.09916650503873825,-0.7680761218070984,-0.1267625242471695,0.21992896497249603
1.0590476989746094,-0.07117921113967896,1.0241748094558716,-0.29302728176116943,0.34032233248490906,-1.4659680522961374,1.8578081179091184,-0.9374726414680481,-0.33379095792770386,-0.09863520413637161,-0.04989669844508171,-0.2771882712841034,0.6334574222564697
1.0813488960266113,-0.2904003858566284,1.1052930355072021,-0.3191934823989868,0.3251652346610455,-1.4745421815727124,1.8691752447165457,-0.9432117342948914,-0.31946536898612976,-0.09106945991516113,1.0121713876724243,-0.12650978565216064,0.9612017273902893
1.100003719329834,-0.5599175095558167,1.124337911605835,-0.3036074638366699,0.30468959928839484,-1.481843436656271,1.9036106556257768,-0.9501685500144958,-0.29999709129333496,-0.08474387228488922,2.0250654220581055,0.4154583811759949,1.4210816621780396
1.1199607849121094,-0.28991812467575073,0.9945284128189087,-0.309364914894104,0.2734674772137283,-1.4865541709559427,1.9547075831226977,-0.9594258666038513,-0.27007168531417847,-0.08101584017276764,2.4894251823425293,0.548328161239624,2.166679620742798
1.1399378776550293,0.02752673625946045,0.7791295051574707,-0.23764818906784058,0.227216053246666,-1.4882224816533403,2.0093508770169652,-0.970977783203125,-0.2252660095691681,-0.08036009222269058,2.3669214248657227,0.6636447310447693,2.880939245223999
1.1599650382995605,-0.007410824298858643,0.6208829879760742,-0.16979724168777466,0.16739424904530323,-1.4830458380183573,2.059943840217116,-0.9822285771369934,-0.1666135936975479,-0.0864129513502121,2.099374294281006,0.8406091928482056,3.4791996479034424
1.180069923400879,-0.22304844856262207,0.5254738926887512,-0.1298866868019104,0.0974511770507871,-1.4712724544384634,2.107814795001205,-0.9903306365013123,-0.09729700535535812,-0.09888824820518494,2.0159428119659424,0.9633412957191467,3.910377025604248
1.1999907493591309,-0.5122352242469788,0.42342743277549744,-0.0906495451927185,0.02226044283926792,-1.4525384038342757,2.156942542114641,-0.9927697777748108,-0.02225860394537449,-0.11795326322317123,2.0936152935028076,1.2263126373291016,4.075272083282471
1.2200207710266113,-0.7721925377845764,0.3010804057121277,0.030590787529945374,-0.05307045916789484,-1.4241798376497181,2.210752994617892,-0.9878783226013184,0.05304555222392082,-0.14588609337806702,2.2754576206207275,1.4897688627243042,4.080257415771484
1.2399919033050537,-0.8053035736083984,0.19363375008106232,0.11703330278396606,-0.12611252253206892,-1.386508211721524,2.2696270560618856,-0.9752599000930786,0.12577849626541138,-0.1817914992570877,2.266876459121704,1.6867109537124634,4.042175769805908
1.2599928379058838,-0.7492279410362244,0.07201160490512848,0.2122504711151123,-0.19657062607279188,-1.3412911614883702,2.3279419663467307,-0.9550263285636902,0.1953071504831314,-0.22311463952064514,1.900188684463501,1.8757100105285645,4.0247578620910645
1.2800748348236084,-0.6566377282142639,-0.048858195543289185,0.2985849976539612,-0.2661146088883586,-1.2906757003534257,2.3819834636330928,-0.9271941781044006,0.2629848122596741,-0.26673978567123413,1.454026699066162,1.9467804431915283,4.048018932342529
1.299999713897705,-0.579511284828186,-0.13230571150779724,0.36314231157302856,-0.33568794619132447,-1.2365783244523867,2.433406719959028,-0.8919395804405212,0.329418808221817,-0.3097212016582489,1.1631152629852295,1.9285659790039062,4.07948637008667
1.3199987411499023,-0.5564045310020447,-0.205012708902359,0.380526065826416,-0.40395932855527883,-1.1793325204081773,2.486343510011582,-0.8499523997306824,0.3930620551109314,-0.35083237290382385,1.061273217201233,1.8829501867294312,4.066035747528076
1.3400359153747559,-0.5662470459938049,-0.29336264729499817,0.3988066613674164,-0.46841688170869605,-1.1181392170549875,2.5437085188839004,-0.8024206161499023,0.45147424936294556,-0.39024636149406433,1.0744895935058594,1.7986955642700195,3.941802740097046
1.3600208759307861,-0.5333056449890137,-0.366138756275177,0.44242000579833984,-0.5251900597072549,-1.0532429198100086,2.6072203660516116,-0.7519116997718811,0.5013774633407593,-0.4280766546726227,1.247976541519165,1.6591931581497192,3.6838738918304443
1.37907075881958,-0.5111714601516724,-0.4244149923324585,0.49110132455825806,-0.5710722254839792,-0.985224853971034,2.6768768081045287,-0.7011546492576599,0.5405344367027283,-0.4649782180786133,1.4069900512695312,1.5045109987258911,3.351976156234741
1.3999898433685303,-0.4729214310646057,-0.4968613386154175,0.542634129524231,-0.6055365804662721,-0.9168154579460703,2.748758342016346,-0.6525516510009766,0.5692033171653748,-0.5001840591430664,1.4530054330825806,1.3639153242111206,2.9417290687561035
1.4199888706207275,-0.4474135637283325,-0.5365394949913025,0.5960366129875183,-0.6290082659950909,-0.8504456240253243,2.8187805382292392,-0.6077316999435425,0.5883431434631348,-0.5333991646766663,1.471356987953186,1.2018934488296509,2.4843411445617676
1.4399809837341309,-0.410297691822052,-0.5837756395339966,0.638668954372406,-0.6417040940546689,-0.7900439899715095,2.8827494454230025,-0.569072425365448,0.5985614061355591,-0.5638092160224915,1.4023317098617554,1.0432755947113037,1.978254795074463
1.4600598812103271,-0.3576299548149109,-0.6376761794090271,0.6882009506225586,-0.6466548397523539,-0.7393283995316121,2.9361331605043706,-0.5377557873725891,0.6025199890136719,-0.5897358655929565,1.1933629512786865,0.8219664096832275,1.4408576488494873
1.4800148010253906,-0.3093520998954773,-0.6620507836341858,0.7105884552001953,-0.6460510638559875,-0.7021869792854611,2.975319788889584,-0.5157212615013123,0.6020380258560181,-0.6095752120018005,0.9087444543838501,0.5343847870826721,0.8736140131950378
1.500082015991211,-0.3145591616630554,-0.6687276363372803,0.7157156467437744,-0.6430270034316274,-0.680502073728658,2.9979418014337442,-0.5035256147384644,0.5996206402778625,-0.6220266222953796,0.47841590642929077,0.2459089607000351,0.2998007833957672
1.5200209617614746,-0.3153005838394165,-0.6938973665237427,0.7075361013412476,-0.6392860499732608,-0.6757446088920258,3.002439023233436,-0.5019602179527283,0.59662264585495,-0.6261609196662903,0.06538079679012299,-0.04111935570836067,-0.26281100511550903
1.5400300025939941,-0.2899329662322998,-0.6771818995475769,0.6619678735733032,-0.6343617079768176,-0.6875636300885785,2.9903056796708443,-0.51118403673172,0.5926635265350342,-0.6224475502967834,-0.3241501450538635,-0.4212338328361511,-0.8323065638542175
1.5599448680877686,-0.4005747437477112,-0.6396242380142212,0.6298143863677979,-0.6281737455334554,-0.7167399208466096,2.9586051753279254,-0.5315237045288086,0.5876681208610535,-0.6100237369537354,-0.8835414052009583,-0.5983003973960876,-1.5432097911834717
1.5799949169158936,-0.5165101289749146,-0.6050511598587036,0.6811825037002563,-0.6206172629224832,-0.7631946402712161,2.904398240999587,-0.5623320937156677,0.5815374255180359,-0.5878749489784241,-1.549028992652893,-0.9437389373779297,-2.1982078552246094
1.5999889373779297,-0.3595775365829468,-0.5459818840026855,0.6143451929092407,-0.611788819811131,-0.8304502539519899,2.82982030126187,-0.6043355464935303,0.5743327736854553,-0.5521960854530334,-2.165302276611328,-1.4594016075134277,-2.6704516410827637
1.6199889183044434,-0.3100435137748718,-0.43490147590637207,0.4368629455566406,-0.5992846533246945,-0.9127591259134537,2.741557108680354,-0.6533201932907104,0.5640519261360168,-0.5049934387207031,-2.558952808380127,-1.7142431735992432,-2.9394333362579346
1.6400718688964844,-0.3491882085800171,-0.3448868989944458,0.24471837282180786,-0.580222858033824,-0.9994001306006721,2.6485458111784084,-0.7034851908683777,0.5482103228569031,-0.4522988796234131,-2.610356092453003,-1.75710928440094,-3.0875754356384277
1.6600658893585205,-0.3654497265815735,-0.23279637098312378,0.08354747295379639,-0.5509975793639041,-1.0815655808442293,2.561128473400512,-0.7520582675933838,0.5235374569892883,-0.4003961682319641,-2.2350986003875732,-1.7633572816848755,-3.169480562210083
1.6799907684326172,-0.38535165786743164,-0.18251857161521912,0.019704043865203857,-0.5104608417285502,-1.1534572342967013,2.4875816400265442,-0.7976318001747131,0.4885793924331665,-0.3536577820777893,-1.6932369470596313,-1.6808453798294067,-3.26174259185791
1.6999878883361816,-0.4564603567123413,-0.07147535681724548,0.021450400352478027,-0.459806368545066,-1.2121434553377983,2.4300046400573447,-0.8391177654266357,0.44377458095550537,-0.31455641984939575,-1.131474256515503,-1.504253625869751,-3.3700926303863525
1.7199928760528564,-0.4711458086967468,0.018449008464813232,-0.009205490350723267,-0.4015246819158602,-1.2590474031393126,2.386519786412392,-0.8760984539985657,0.3908222019672394,-0.2823288142681122,-0.7190175652503967,-1.3865073919296265,-3.4348926544189453
1.739987850189209,-0.3734111189842224,0.03972846269607544,-0.0541951060295105,-0.33931947456554556,-1.2983699864482892,2.3538778155096716,-0.9082052111625671,0.33284544944763184,-0.2537271976470947,-0.41368815302848816,-1.3701938390731812,-3.402665138244629
1.7599718570709229,-0.2514451742172241,0.10988020896911621,-0.08884751796722412,-0.2762970468764953,-1.3325423511378307,2.3301738984817173,-0.9348952770233154,0.27279502153396606,-0.2270551174879074,-0.20559202134609222,-1.3108489513397217,-3.265501022338867
1.779958724975586,-0.13104897737503052,0.14924003183841705,-0.12032884359359741,-0.21564773538217727,-1.3625221476687575,2.3121593040446977,-0.9557278752326965,0.21398021280765533,-0.20198245346546173,-0.20702937245368958,-1.2311681509017944,-3.0337977409362793
1.8000059127807617,-0.04039245843887329,0.16717006266117096,-0.15043874084949493,-0.15977230366875858,-1.3888104271696922,2.294140862621934,-0.9709603190422058,0.15909340977668762,-0.1786779910326004,-0.49181225895881653,-1.0663859844207764,-2.8065011501312256
1.819990873336792,-0.002176046371459961,0.22090870141983032,-0.11707806587219238,-0.10874275094188493,-1.4119194884331814,2.270362224863332,-0.9815735220909119,0.10852856189012527,-0.15727482736110687,-0.9968940019607544,-0.9350336194038391,-2.6398706436157227
1.8400449752807617,0.003774702548980713,0.29067671298980713,-0.12360328435897827,-0.06155026764881515,-1.4323902773548325,2.2375856415949817,-0.9885618090629578,0.061511412262916565,-0.13770335912704468,-1.523380160331726,-0.8324933052062988,-2.5182745456695557
1.8600249290466309,-0.05633515119552612,0.36005666851997375,-0.1696818470954895,-0.017202484540400655,-1.4492678805875143,2.197382824992212,-0.9924778342247009,0.017201635986566544,-0.12121161073446274,-1.8553969860076904,-0.705596923828125,-2.389892578125
1.880025863647461,-0.10901057720184326,0.4440958797931671,-0.21871371567249298,0.024527426990691947,-1.461854258031301,2.1542636795992185,-0.9937729239463806,-0.02452496811747551,-0.10869402438402176,-1.9192733764648438,-0.5797474384307861,-2.256603956222534
1.8999977111816406,-0.1026773452758789,0.5417277216911316,-0.26336437463760376,0.06441630057110705,-1.4704270681235176,2.112887228813209,-0.9929038882255554,-0.06437176465988159,-0.0999930277466774,-1.7617155313491821,-0.4576752185821533,-2.1423940658569336
1.9200239181518555,-0.045442402362823486,0.6283981800079346,-0.28264832496643066,0.10233159857952641,-1.4757452775353004,2.0761667667654398,-0.9902785420417786,-0.10215309262275696,-0.09441151469945908,-1.5122195482254028,-0.3941558003425598,-1.9873908758163452
1.9399888515472412,0.009779810905456543,0.7208529710769653,-0.3041189908981323,0.13709929940379287,-1.480050220861639,2.0453520642668437,-0.9865407943725586,-0.13667021691799164,-0.08977129310369492,-1.2126442193984985,-0.40641334652900696,-1.7560938596725464
1.9599878787994385,-0.006278932094573975,0.7917377948760986,-0.3409420847892761,0.16722617698358888,-1.484712691365996,2.0216596724500477,-0.9823991656303406,-0.16644786298274994,-0.08477801084518433,-0.8490599989891052,-0.4027746915817261,-1.4485338926315308
1.9800238609313965,-0.07489752769470215,0.8486379981040955,-0.374289333820343,0.191636169804431,-1.4898271395633123,2.0070672667732627,-0.9784777164459229,-0.19046536087989807,-0.07940013706684113,-0.3641052842140198,-0.37551331520080566,-1.0974229574203491
1.9999909400939941,-0.135064959526062,0.9207147359848022,-0.3865184783935547,0.20931883519051675,-1.4960199087481452,2.0036254139434964,-0.9754393100738525,-0.20779365301132202,-0.07307611405849457,0.1560920923948288,-0.3126540184020996,-0.6893922686576843
2.0200328826904297,-0.18719923496246338,0.9549574255943298,-0.377228319644928,0.2186429628075465,-1.5043792734284382,2.010589576902235,-0.9740405082702637,-0.21690508723258972,-0.06478819251060486,0.5838956832885742,-0.4023057520389557,-0.1948418915271759
2.0399880409240723,-0.36764854192733765,0.9989333748817444,-0.36501461267471313,0.2186118022424084,-1.5153192478567583,2.027273246387154,-0.9746977686882019,-0.21687467396259308,-0.05412892624735832,1.0798615217208862,-0.24436141550540924,0.29387229681015015
2.0599989891052246,-0.6214767098426819,1.0163244009017944,-0.35349375009536743,0.20830302369173917,-1.5210181662960243,2.0556935792207396,-0.9771714806556702,-0.20679990947246552,-0.048682015389204025,1.6213701963424683,0.27773186564445496,0.9113876223564148
2.0799899101257324,-0.4336625337600708,0.8968364000320435,-0.33478885889053345,0.1845801630594742,-1.5178513509574076,2.0922915018935346,-0.9816361665725708,-0.18353384733200073,-0.052021320909261703,1.7917110919952393,0.7144362926483154,1.6465948820114136
2.1000189781188965,-0.025186002254486084,0.7192730903625488,-0.28799259662628174,0.14603059062317975,-1.5084301055834772,2.1294547816898786,-0.9874332547187805,-0.14551213383674622,-0.061662446707487106,1.6178467273712158,0.7895787954330444,2.380852699279785
2.120090961456299,0.14786171913146973,0.5517604351043701,-0.25671952962875366,0.09453422589281046,-1.4964733221845732,2.162842098159421,-0.992786705493927,-0.09439348429441452,-0.07392305880784988,1.3939710855484009,0.8426963090896606,2.9348700046539307
2.139988899230957,-0.0716894268989563,0.4692898690700531,-0.21556800603866577,0.0348639575872318,-1.4800631344201842,2.197336575870602,-0.995281457901001,-0.034856896847486496,-0.09055369347333908,1.6211812496185303,0.9925811290740967,3.274226665496826
2.160079002380371,-0.2873430848121643,0.40011319518089294,-0.14973455667495728,-0.02840319571862619,-1.4592840988291715,2.240009084174924,-0.9933881759643555,0.028399376198649406,-0.11123638600111008,1.9858146905899048,1.0978283882141113,3.434634208679199
2.1799988746643066,-0.49304842948913574,0.3074849843978882,-0.006904467940330505,-0.09147679602260098,-1.431358956040126,2.29007963941931,-0.9861538410186768,0.09134926646947861,-0.13840486109256744,2.1585752964019775,1.3956363201141357,3.4320015907287598
2.2000298500061035,-0.566597044467926,0.16767747700214386,0.13314193487167358,-0.15315681599470407,-1.394372561085986,2.3423987818154193,-0.9729538559913635,0.15255874395370483,-0.17345555126667023,1.9516105651855469,1.5636712312698364,3.413853883743286
2.2199859619140625,-0.48394882678985596,0.025536730885505676,0.22199149429798126,-0.21324310932942392,-1.353107901766703,2.3903406372035105,-0.9542836546897888,0.2116306573152542,-0.2110813558101654,1.5175249576568604,1.6768087148666382,3.3988730907440186
2.2402048110961914,-0.41326189041137695,-0.04636242985725403,0.31105947494506836,-0.2723898996240204,-1.308537720339228,2.434373246997692,-0.9301983118057251,0.2690339982509613,-0.2497037798166275,1.26661217212677,1.713938593864441,3.3730287551879883
2.259988784790039,-0.3438388705253601,-0.08349603414535522,0.3586830198764801,-0.3301050601994277,-1.2620030578854944,2.4779889865422677,-0.9012631177902222,0.3241424262523651,-0.28750064969062805,1.1104412078857422,1.6186871528625488,3.3561906814575195
2.2800118923187256,-0.34895408153533936,-0.1607724130153656,0.36090007424354553,-0.3861484571293063,-1.2140987136472263,2.521751072979758,-0.8680564761161804,0.376623272895813,-0.32347017526626587,0.9447910189628601,1.668196201324463,3.288647174835205
2.299996852874756,-0.4058411121368408,-0.23771122097969055,0.4013957679271698,-0.43970113171932435,-1.1633235421768278,2.5654891615748308,-0.830792248249054,0.4256690442562103,-0.35859474539756775,0.7849770784378052,1.6264203786849976,3.179856061935425
2.31998872756958,-0.33796030282974243,-0.29616883397102356,0.44936424493789673,-0.48996174203243975,-1.1125731036657351,2.6087895920154516,-0.7913275361061096,0.4705921411514282,-0.39031264185905457,0.6325232982635498,1.517578363418579,3.004326343536377
2.340019702911377,-0.3003837466239929,-0.34366917610168457,0.4891743063926697,-0.5351731944830703,-1.0628355969675856,2.6518428478965417,-0.7515725493431091,0.5099900364875793,-0.4183887243270874,0.6206380128860474,1.318088173866272,2.7550463676452637
2.3600378036499023,-0.24516552686691284,-0.3811149001121521,0.4835481345653534,-0.5736912574774994,-1.015865032397911,2.69634563181721,-0.7138646245002747,0.5427360534667969,-0.44253239035606384,0.6849506497383118,1.073588252067566,2.4794936180114746
2.3799898624420166,-0.293923020362854,-0.42987489700317383,0.46705108880996704,-0.6049424360923656,-0.9708360481384717,2.7407771629801543,-0.6788858771324158,0.5687147378921509,-0.4644112288951874,0.6988632678985596,0.9685450196266174,2.160888195037842
2.400017738342285,-0.3023848533630371,-0.45472031831741333,0.5034731030464172,-0.6296103710584178,-0.928553680926282,2.7823754155403106,-0.6472154855728149,0.5888298749923706,-0.48414015769958496,0.6170499920845032,0.8535820245742798,1.828505516052246
2.4200358390808105,-0.2502116560935974,-0.49356651306152344,0.5388916730880737,-0.6489823137649906,-0.8916839451197033,2.8182325804348483,-0.6199361681938171,0.604375958442688,-0.500408947467804,0.47204694151878357,0.6985049247741699,1.4653204679489136
2.4399867057800293,-0.21022045612335205,-0.5206735730171204,0.5495904684066772,-0.6637650892664181,-0.8624437674984711,2.8465553422223286,-0.5981902480125427,0.6160869002342224,-0.5124505758285522,0.31560665369033813,0.4980800449848175,1.1013816595077515
2.4599878787994385,-0.21140366792678833,-0.5279977917671204,0.5354194641113281,-0.6747575919082809,-0.8426924689645445,2.8658915190914644,-0.582862138748169,0.6247080564498901,-0.5196266174316406,0.1319779008626938,0.2845665216445923,0.7075240612030029
2.4799890518188477,-0.22867214679718018,-0.5371409058570862,0.512590765953064,-0.681953954330013,-0.8334425068699517,2.875324824235419,-0.5746878981590271,0.6303111910820007,-0.5219596028327942,-0.04860880970954895,0.06575045734643936,0.3163650333881378
2.500016927719116,-0.234930157661438,-0.546255350112915,0.47700268030166626,-0.684971174864452,-0.8337446124632517,2.8759892468052337,-0.5734348297119141,0.6326506733894348,-0.520505428314209,-0.08858917653560638,-0.14939603209495544,-0.05384198576211929
2.5199859142303467,-0.2080521583557129,-0.5257555246353149,0.39744120836257935,-0.6829733658745862,-0.843550289019164,2.869133749647476,-0.5794540047645569,0.6311022639274597,-0.5156967639923096,-0.20907574892044067,-0.3625435531139374,-0.4809514582157135
2.5399889945983887,-0.3794563412666321,-0.5048579573631287,0.412666916847229,-0.6753930326889486,-0.8632599729111056,2.849837515871962,-0.593123733997345,0.6252040863037109,-0.507271409034729,-0.4419933557510376,-0.3796243369579315,-1.1006883382797241
2.56003999710083,-0.558953583240509,-0.4369659423828125,0.508741021156311,-0.6615804123133494,-0.8936193835172589,2.8141919372955835,-0.6149203181266785,0.6143646240234375,-0.49439769983291626,-0.8761777281761169,-0.5078876614570618,-1.7383159399032593
2.5798768997192383,-0.4284186363220215,-0.44087934494018555,0.4647883176803589,-0.644433591376028,-0.9402098595085244,2.7607720499680295,-0.6456933617591858,0.6007457375526428,-0.4713647663593292,-1.434221625328064,-0.9081231951713562,-2.17574405670166
2.5999927520751953,-0.32973992824554443,-0.40692591667175293,0.29591089487075806,-0.6247246572557148,-0.999004645736854,2.695722718574812,-0.6821009516716003,0.5848739743232727,-0.4389314651489258,-1.7243579626083374,-1.07097589969635,-2.3830692768096924
2.6199848651885986,-0.3356754779815674,-0.24776023626327515,0.1106141209602356,-0.6011617069226151,-1.0591188388860109,2.6293977041560077,-0.7190579175949097,0.5656008720397949,-0.40379640460014343,-1.6704038381576538,-1.1091361045837402,-2.421186685562134
2.6400718688964844,-0.3020232319831848,-0.12663394212722778,-0.022311478853225708,-0.5733340235129993,-1.114492066529378,2.5696876567056686,-0.7541443705558777,0.5424359440803528,-0.37017494440078735,-1.439192295074463,-1.1161869764328003,-2.3555777072906494
2.6600148677825928,-0.25375133752822876,-0.10167455673217773,-0.06999501585960388,-0.5430258593446359,-1.1639735477093667,2.517643223863364,-0.7862724661827087,0.516728937625885,-0.33877256512641907,-1.3477270603179932,-1.065201997756958,-2.264383554458618
2.680081844329834,-0.20704197883605957,-0.06327435374259949,-0.0787016749382019,-0.5115842037768932,-1.2093125063541272,2.4693966279303137,-0.8156174421310425,0.48955923318862915,-0.30838319659233093,-1.3063408136367798,-1.040297508239746,-2.233283519744873
2.6991429328918457,-0.14835000038146973,0.046141088008880615,-0.17823702096939087,-0.4770251746420048,-1.2478268098313599,2.429116635267442,-0.8424338102340698,0.4591384828090668,-0.28195273876190186,-0.7417474985122681,-0.8829095959663391,-2.2207396030426025
2.720024824142456,-0.04896038770675659,0.2059701681137085,-0.33721792697906494,-0.43649788207190426,-1.2724389390338655,2.41056033781276,-0.866200864315033,0.42276832461357117,-0.2663891315460205,0.4197334051132202,-0.7556166648864746,-2.1319618225097656
2.7400259971618652,0.1271008849143982,0.33244264125823975,-0.39373162388801575,-0.3928891022401049,-1.284464010862728,2.415583508472122,-0.8861953616142273,0.3828589916229248,-0.260916143655777,1.1482573747634888,-0.6485198140144348,-1.9001814126968384
2.7602720260620117,0.25595563650131226,0.35925373435020447,-0.3421768844127655,-0.3536376922004899,-1.2922754748922003,2.428040567673965,-0.9019670486450195,0.34631267189979553,-0.25792068243026733,0.8989359736442566,-0.5576927065849304,-1.5669218301773071
2.7799909114837646,0.2846236824989319,0.3102431297302246,-0.31233400106430054,-0.32472127544052826,-1.3019004537577759,2.428634237873874,-0.9136826395988464,0.31904464960098267,-0.2517833411693573,-0.1112867221236229,-0.3955402672290802,-1.2232437133789062
2.8002138137817383,0.24890977144241333,0.3519931435585022,-0.34200626611709595,-0.3072206411196305,-1.3135269007184005,2.410833791199601,-0.9218072295188904,0.3024105727672577,-0.24252735078334808,-0.9755405783653259,-0.20266564190387726,-0.9117856025695801
2.8201098442077637,0.21695476770401,0.47209447622299194,-0.3475731611251831,-0.29699234448943757,-1.3225186797432795,2.386398265062548,-0.9269005656242371,0.29264554381370544,-0.23497678339481354,-0.8125292062759399,0.027795353904366493,-0.6814180016517639
2.839984893798828,0.20840096473693848,0.6207565069198608,-0.31752175092697144,-0.28746813378523506,-1.3234991500603814,2.377417143279845,-0.9297908544540405,0.28352516889572144,-0.2347395122051239,0.25083640217781067,0.10972511023283005,-0.4469890594482422
2.8600308895111084,0.25549644231796265,0.6819970011711121,-0.27328866720199585,-0.27794295930054147,-1.3184678769862292,2.3891890927899837,-0.9311710000038147,0.27437812089920044,-0.2400779277086258,0.9832771420478821,0.05170104280114174,-0.1870938092470169
2.889180898666382,0.34949880838394165,0.4752965271472931,-0.14821791648864746,-0.270450556441743,-1.3088661681964802,2.4348670351000474,-0.9307824969291687,0.2671656310558319,-0.24953287839889526,1.1584917306900024,-0.1920872926712036,0.3853185176849365
2.910027027130127,0.4161036014556885,0.4126649796962738,-0.1142851710319519,-0.27386642893795654,-1.306922887705688,2.462685085132628,-0.929409384727478,0.2704557776451111,-0.25110167264938354,1.3696181774139404,-0.3656105101108551,0.6329720616340637
2.9199728965759277,0.4161036014556885,0.4126649796962738,-0.1142851710319519,-0.27386642893795654,-1.306922887705688,2.462685085132628,-0.929409384727478,0.2704557776451111,-0.25110167264938354,1.3696181774139404,-0.3656105101108551,0.6329720616340637
2.947429895401001,0.3838282823562622,0.29843929409980774,-0.04216039180755615,-0.284674858492518,-1.3031876118833763,2.536486150103007,-0.9255917072296143,0.28084540367126465,-0.2537837326526642,1.8716974258422852,-0.4288129508495331,0.7406644821166992
2.9671449661254883,0.35421377420425415,0.23627161979675293,-0.0439072847366333,-0.2884643219973594,-1.2993553673053766,2.578816786396921,-0.9235803484916687,0.28448033332824707,-0.25704172253608704,1.9148139953613281,-0.39163750410079956,0.7202771902084351
2.988109827041626,0.3783077001571655,0.17583781480789185,-0.02084997296333313,-0.292726140960724,-1.2960529728231733,2.6188940560010687,-0.9215511083602905,0.28856346011161804,-0.2597590386867523,1.6118090152740479,-0.46525341272354126,0.728990375995636
3.0080249309539795,0.2991800904273987,0.13884344696998596,0.09504780173301697,-0.29860345183661596,-1.2993867238762642,2.649571994871303,-0.9207621216773987,0.2941857576370239,-0.2562262713909149,1.0844634771347046,-0.7485882639884949,0.6130449771881104
3.0279228687286377,-0.16906356811523438,0.1755390167236328,0.22281348705291748,-0.3032386079672902,-1.3063272642338772,2.6712676378854834,-0.9211922883987427,0.2986126244068146,-0.24947047233581543,0.8642730712890625,-0.41278815269470215,0.42110079526901245
3.0482029914855957,-0.3836755156517029,0.13644176721572876,0.23403498530387878,-0.30815530182521844,-1.3040577083793978,2.6907109841741392,-0.9191964268684387,0.3033013641834259,-0.2511705160140991,0.7996771335601807,-0.09479092806577682,0.5757819414138794
3.068143844604492,0.05744212865829468,-0.009507298469543457,0.2720493972301483,-0.31776062086628665,-1.298151544570804,2.710357679946245,-0.914848804473877,0.31244006752967834,-0.25579866766929626,0.7465298175811768,0.10450336337089539,0.8403586149215698
3.0870609283447266,0.24709171056747437,-0.07926511764526367,0.41020920872688293,-0.33161713093931877,-1.289352416237459,2.7307690655632064,-0.9083161354064941,0.32557249069213867,-0.2626107931137085,0.7488391995429993,0.0779038816690445,1.0169126987457275
3.1068859100341797,0.24821698665618896,-0.208033949136734,0.5011411905288696,-0.34773601548232674,-1.2805375185189303,2.7532706867872982,-0.900820255279541,0.3407702147960663,-0.26907020807266235,0.8635271787643433,0.10519915074110031,1.0831115245819092
3.1277239322662354,0.08767515420913696,-0.34234002232551575,0.5497912168502808,-0.36061886305371155,-1.2696418690444569,2.7792201177220766,-0.8935681581497192,0.35285335779190063,-0.27754372358322144,1.0765740871429443,0.06581029295921326,0.8457502126693726
3.147725820541382,0.08427649736404419,-0.35609668493270874,0.5596201419830322,-0.3669793989211337,-1.2619613344236678,2.8041952493006335,-0.8892541527748108,0.3587976098060608,-0.28371068835258484,0.8467005491256714,-0.2196670025587082,0.4537421464920044
3.1677348613739014,0.18745917081832886,-0.4672147333621979,0.5854429006576538,-0.37053293411061905,-1.2657077734638855,2.8147102203438124,-0.889089047908783,0.36211225390434265,-0.27999240159988403,-0.06965484470129013,-0.5063657164573669,0.21286806464195251
3.1871719360351562,0.22243350744247437,-0.5002926588058472,0.5937236547470093,-0.37697093974231966,-1.2800776380503238,2.805948967332246,-0.8907685875892639,0.36810579895973206,-0.2665140926837921,-0.8245375156402588,-0.5963249802589417,0.192835733294487
3.208265781402588,0.20643538236618042,-0.45811766386032104,0.6119946241378784,-0.38631016342911845,-1.2995590529488363,2.7867106526805827,-0.8924400806427002,0.37677305936813354,-0.24817922711372375,-1.0720590353012085,-0.6278463006019592,0.18520714342594147
3.224977970123291,0.15841323137283325,-0.389068067073822,0.5555222034454346,-0.3939120846216188,-1.319609604908478,2.7663086190363813,-0.894436240196228,0.3838038146495819,-0.22951805591583252,-0.8678479790687561,-0.5993788242340088,0.042577967047691345
3.2443878650665283,0.13996273279190063,-0.30001533031463623,0.4231506288051605,-0.3958601841352453,-1.3360668332234278,2.754531869545824,-0.8973634839057922,0.3856019973754883,-0.21459344029426575,-0.21767397224903107,-0.5845000147819519,-0.10673782229423523
3.26582670211792,0.14893418550491333,-0.302839994430542,0.3174734115600586,-0.39287055586469327,-1.3476193628206488,2.755528231423016,-0.9009026885032654,0.3828418552875519,-0.20446674525737762,0.3360566198825836,-0.6272422075271606,-0.14409297704696655
3.287491798400879,0.16414982080459595,-0.35674670338630676,0.3072519600391388,-0.38831329240459017,-1.3572289598177092,2.7645727674199416,-0.9045215249061584,0.37862783670425415,-0.19616785645484924,0.5216748118400574,-0.6629021167755127,-0.12302768975496292
3.3063108921051025,0.12446486949920654,-0.38450053334236145,0.31181782484054565,-0.38383110613319826,-1.3670896859553059,2.7739843708092984,-0.9080648422241211,0.37447553873062134,-0.18758068978786469,0.4033241271972656,-0.6789388656616211,-0.1664452850818634
3.3275399208068848,0.017467498779296875,-0.30361413955688477,0.2600615620613098,-0.3773726984631501,-1.3767125502747584,2.780977691905224,-0.9121819734573364,0.36847931146621704,-0.17929667234420776,0.3861956000328064,-0.5490273833274841,-0.34194695949554443
3.3470678329467773,-0.08036506175994873,-0.20244738459587097,0.19744282960891724,-0.36747696739978036,-1.383694624816488,2.7888673336420764,-0.916949450969696,0.35926198959350586,-0.173593208193779,0.5530462861061096,-0.4156307280063629,-0.4815528690814972
3.3673958778381348,-0.1526280641555786,-0.1543908417224884,0.10894620418548584,-0.3556588038583087,-1.3853622347286434,2.799880827260308,-0.9213466644287109,0.3482080101966858,-0.17283466458320618,0.6245408058166504,-0.17893686890602112,-0.4559827744960785
3.387479782104492,-0.014658331871032715,-0.16110575199127197,0.08932507038116455,-0.3463488974345272,-1.3852561376428627,2.8092145860392903,-0.9244744777679443,0.33946579694747925,-0.1735229343175888,0.3703334331512451,-0.12220443785190582,-0.2888775169849396
3.4069437980651855,-0.015525996685028076,-0.13918104767799377,0.15683908760547638,-0.3410839522514147,-1.3873619581342331,2.8118803700253445,-0.9265822172164917,0.3345088064670563,-0.17189939320087433,-0.0020423196256160736,-0.16213418543338776,-0.21790282428264618
3.4268858432769775,-0.23559659719467163,-0.07713755965232849,0.17013557255268097,-0.3369245147575867,-1.3916050426892743,2.808923343304682,-0.9286643266677856,0.33058610558509827,-0.16821283102035522,-0.15016187727451324,-0.13210651278495789,-0.2645423412322998
3.4468748569488525,-0.4406238794326782,-0.03702238202095032,0.09423798322677612,-0.3318525235509036,-1.3944331207071865,2.8057962247563806,-0.9307751655578613,0.3257950246334076,-0.16587789356708527,-0.03711577504873276,-0.016242854297161102,-0.2746769189834595
3.4665160179138184,-0.4702305793762207,-0.08021408319473267,0.08300405740737915,-0.32710510173050295,-1.393023560923993,2.805544693345969,-0.9320522546768188,0.32130298018455505,-0.1674613356590271,0.09031360596418381,0.1406661570072174,-0.201483815908432
3.4871418476104736,-0.36823105812072754,-0.04130750894546509,0.14501585066318512,-0.3235658464836168,-1.3900157506149826,2.805828054961953,-0.9326570630073547,0.3179493844509125,-0.17046739161014557,-0.06874546408653259,0.1557142585515976,-0.14627091586589813
3.5055959224700928,-0.38573646545410156,-0.05689874291419983,0.1513604074716568,-0.3219212706896137,-1.389759802830379,2.7996194059669763,-0.9331265091896057,0.31638970971107483,-0.17080001533031464,-0.437093585729599,0.06265728175640106,-0.12939944863319397
3.526488780975342,-0.4512583613395691,-0.09469401836395264,0.07312214374542236,-0.32050538275119106,-1.3929248585310636,2.7912439559863045,-0.934102475643158,0.3150462508201599,-0.1679248809814453,-0.19130529463291168,-0.1074264720082283,-0.17862217128276825
3.546496868133545,-0.5569921135902405,-0.032159775495529175,-0.00820605456829071,-0.3146548381886912,-1.3953716670980656,2.794431852147179,-0.9363093972206116,0.3094882667064667,-0.16595764458179474,0.6344490051269531,-0.20030651986598969,-0.35882797837257385
3.5666239261627197,-0.652144193649292,0.04920327663421631,0.006327643990516663,-0.3031992300949067,-1.3945817428460476,2.813159295147255,-0.9396069645881653,0.2985750436782837,-0.1673077791929245,1.2136485576629639,-0.29874035716056824,-0.4311215579509735
3.5861408710479736,-0.6068079471588135,-0.01994505524635315,0.05981028079986572,-0.2909389353785253,-1.3935493319913728,2.8363258288802196,-0.9429663419723511,0.28685182332992554,-0.16891053318977356,1.1079609394073486,-0.2699286639690399,-0.3770758807659149
3.6050758361816406,-0.5937352776527405,-0.09745374321937561,0.09039600193500519,-0.2804840357458258,-1.394058781794538,2.8535206695490296,-0.945952832698822,0.2768208086490631,-0.16894815862178802,0.6741011738777161,-0.25023725628852844,-0.3774721622467041
3.6250689029693604,-0.5442498922348022,-0.1279086172580719,0.09082235395908356,-0.27082505897509584,-1.397007531309373,2.8617709520800627,-0.9490363597869873,0.2675265073776245,-0.1666126400232315,0.3173542022705078,-0.28705254197120667,-0.4467979967594147
3.6469268798828125,-0.4524707794189453,-0.0940214991569519,0.048136964440345764,-0.2605331382199109,-1.4024250480134013,2.8665027747662735,-0.9525891542434692,0.2575957477092743,-0.1619216501712799,0.36130836606025696,-0.3470120131969452,-0.4941737651824951
3.666735887527466,-0.45732903480529785,-0.08912806212902069,-0.01839989423751831,-0.24852362470823783,-1.4069226919059024,2.875732631666606,-0.956291139125824,0.24597321450710297,-0.15812893211841583,0.7387664318084717,-0.3194195032119751,-0.5427764654159546
3.685375928878784,-0.4641647934913635,-0.03029637038707733,-0.06780725717544556,-0.23374354667514094,-1.4090319704108276,2.8924125405845826,-0.9601059556007385,0.2316208779811859,-0.15667995810508728,1.0746227502822876,-0.3012649118900299,-0.6617782711982727
3.7061269283294678,-0.4039939045906067,0.006560176610946655,-0.0931892991065979,-0.21764241479258778,-1.4119996983161227,2.910368238851179,-0.9641245603561401,0.21592825651168823,-0.15439970791339874,0.7756664156913757,-0.346229612827301,-0.6282579302787781
3.724963903427124,-0.4004785418510437,-0.10071292519569397,-0.07102052867412567,-0.2046001634601785,-1.417670436353117,2.9191305890673145,-0.9676855206489563,0.20317567884922028,-0.14934681355953217,0.3299795389175415,-0.3571105897426605,-0.48363345861434937
3.744929790496826,-0.3972606658935547,-0.010645285248756409,-0.0574527233839035,-0.19464175719824378,-1.4228545361581917,2.9235127420164253,-0.9703998565673828,0.1934150755405426,-0.14461931586265564,0.30674928426742554,-0.21478302776813507,-0.4170386493206024
3.7659928798675537,-0.40659695863723755,0.10542336106300354,-0.16053920984268188,-0.1864106075285176,-1.4262750802991897,2.927802094689401,-0.972431480884552,0.18533289432525635,-0.14152368903160095,0.15592221915721893,-0.16631554067134857,-0.3276861011981964
3.785782814025879,-0.41775083541870117,0.06402386724948883,-0.12171177566051483,-0.18189633180508372,-1.4309175259562843,2.9244594431418434,-0.9738965630531311,0.18089494109153748,-0.1371229737997055,-0.42617154121398926,-0.09366849064826965,-0.15562228858470917
3.8055858612060547,-0.5084425806999207,0.1025056391954422,-0.08928883075714111,-0.18230065416019514,-1.4355769091037636,2.9101060549277484,-0.9744524359703064,0.1812925785779953,-0.13257387280464172,-0.9434152841567993,0.0051317643374204636,0.04837848246097565
3.824838876724243,-0.5087813138961792,0.2508352994918823,-0.12069456279277802,-0.19018961040486573,-1.4397518876247393,2.885495715444696,-0.9735490083694458,0.18904508650302887,-0.12831352651119232,-1.5751979351043701,0.05435071140527725,0.44591671228408813
3.8456268310546875,-0.5228124856948853,0.3019677698612213,-0.10341399908065796,-0.2100407751596922,-1.4449701316413177,2.8501393271046545,-0.9702906608581543,0.20849977433681488,-0.12273639440536499,-2.086515188217163,0.15665151178836823,1.1260157823562622
3.8654069900512695,-0.6314071416854858,0.38269925117492676,-0.05301874130964279,-0.245350028422515,-1.4496103598054773,2.8079162945706555,-0.9629380106925964,0.24289588630199432,-0.11726921051740646,-2.4141063690185547,0.318305641412735,1.8702625036239624
3.8853697776794434,-0.6950165033340454,0.5006324052810669,-0.019659273326396942,-0.2944359368903107,-1.4552316307264663,2.762582621655957,-0.9505829215049744,0.2902001142501831,-0.11034549027681351,-2.4783971309661865,0.3001296818256378,2.4842405319213867
3.9052720069885254,-0.6857870817184448,0.529293954372406,-0.05692082643508911,-0.3533977721090003,-1.4642351423439934,2.7195966423194786,-0.9328806400299072,0.34608760476112366,-0.09978685528039932,-2.1375300884246826,0.16098003089427948,2.9164083003997803
3.924293041229248,-0.6893563270568848,0.5167660117149353,-0.030402302742004395,-0.41753206456804526,-1.4724247107827333,2.691853884988694,-0.9096733331680298,0.4055057764053345,-0.08977580815553665,-1.0020906925201416,0.06258413940668106,3.2002971172332764
3.9443178176879883,-0.6583811640739441,0.5599660873413086,-0.029847919940948486,-0.48347644388706434,-1.473184746101597,2.6897218267718546,-0.8811697363853455,0.4648599624633789,-0.08628658950328827,0.04733183607459068,-0.04423072561621666,3.3398308753967285
3.9652469158172607,-0.5483400225639343,0.4644804000854492,0.02725357562303543,-0.5492481388024933,-1.468571666632281,2.7018755946547257,-0.8484647870063782,0.5220460891723633,-0.08703741431236267,0.2215326577425003,-0.09108620136976242,3.3125174045562744
3.985055923461914,-0.4197279214859009,0.31626206636428833,0.16121405363082886,-0.6130191904643778,-1.4654520661507795,2.712319063268961,-0.8133806586265564,0.5753394961357117,-0.08600335568189621,-0.04022216796875,-0.17950990796089172,3.1359469890594482
4.0050108432769775,-0.2606433033943176,0.16719412803649902,0.19105249643325806,-0.6737204530908414,-1.4668775856059333,2.716699183527411,-0.7772901058197021,0.6238978505134583,-0.0810670405626297,-0.18415725231170654,-0.20013687014579773,2.9456164836883545
4.024776935577393,-0.0785718560218811,-0.02504897117614746,0.14553070068359375,-0.7299312489520666,-1.467755345385096,2.7226542095435122,-0.7412676811218262,0.666818380355835,-0.0766524225473404,0.14088453352451324,-0.2945020794868469,2.696319341659546
4.045037746429443,0.13780570030212402,-0.12376230955123901,0.10344601422548294,-0.779458571702837,-1.4618954012126324,2.7412080649488266,-0.7070806622505188,0.702894389629364,-0.07730758935213089,0.658351719379425,-0.38361918926239014,2.3779211044311523
4.064859867095947,0.2594044804573059,-0.3159148097038269,0.1132158637046814,-0.8218005745354884,-1.450148429084105,2.770079801335608,-0.6759542226791382,0.732373058795929,-0.08195046335458755,0.7891167402267456,-0.520481526851654,2.0675292015075684
4.084843873977661,0.3702903985977173,-0.5204442739486694,0.14469921588897705,-0.8573115991171483,-1.4402133042161702,2.799346653375683,-0.6489007472991943,0.7560858130455017,-0.08522035926580429,0.7003528475761414,-0.6595501899719238,1.7070106267929077
4.104706764221191,0.40228158235549927,-0.572492778301239,0.15363264083862305,-0.8852553841530556,-1.4340383090106428,2.8263975911779426,-0.6271808743476868,0.7740767002105713,-0.08631077408790588,0.6830182075500488,-0.7940586805343628,1.2928334474563599
4.124612808227539,0.3842201232910156,-0.6004910469055176,0.11501504480838776,-0.9041758973479155,-1.4275832915967028,2.8559282418488987,-0.6120032668113708,0.7859158515930176,-0.0882510170340538,0.9622983336448669,-0.867182731628418,0.8542566299438477
4.1446309089660645,0.3692004680633545,-0.6138395667076111,0.06199188530445099,-0.913880039885324,-1.410908752694563,2.8996952481582077,-0.602888822555542,0.7918791770935059,-0.09722432494163513,1.5785927772521973,-0.8928319811820984,0.5309861898422241
4.164547920227051,0.32515043020248413,-0.624666154384613,0.0287095308303833,-0.9155693861248992,-1.379478569381446,2.960585915780519,-0.5982218384742737,0.7929096817970276,-0.11586759984493256,1.9844423532485962,-0.8010435104370117,0.28932854533195496
4.183523893356323,0.33212196826934814,-0.6290372014045715,0.05447041988372803,-0.9114600060656368,-1.3452406512218607,3.023951868084561,-0.5970756411552429,0.7903989553451538,-0.13700512051582336,1.7838473320007324,-0.7914965152740479,0.11918853968381882
4.203567028045654,0.3288941979408264,-0.6636513471603394,0.11830735206604004,-0.9049234930824274,-1.324151539788934,3.0707574367683463,-0.5990511775016785,0.7863779067993164,-0.150823712348938,1.235868215560913,-0.777600109577179,-0.11297324299812317
4.224320888519287,0.2776365876197815,-0.5637449026107788,0.1519770622253418,-0.8930219161524237,-1.3091286253784402,3.1095269156266236,-0.6057159304618835,0.7789702415466309,-0.16221560537815094,1.5695918798446655,-0.7665623426437378,-0.42511698603630066
4.244606971740723,0.24966222047805786,-0.475608766078949,0.023182451725006104,-0.8715262988445224,-1.2819094858161881,-3.11891895992645,-0.6169871687889099,0.7653122544288635,-0.18336914479732513,2.3463871479034424,-0.7308146953582764,-0.6772531867027283
4.263305902481079,0.2517905831336975,-0.5677264332771301,-0.03154812753200531,-0.8421650858934411,-1.2478571956893452,-3.0540149124212683,-0.6314292550086975,0.7460864782333374,-0.21131063997745514,2.471294403076172,-0.7412795424461365,-0.8373358249664307
4.284165859222412,0.29213112592697144,-0.6147322654724121,0.1285567283630371,-0.8129526848652171,-1.2297455350689908,-3.0073286665386063,-0.6477678418159485,0.7263199090957642,-0.22990550100803375,1.3849725723266602,-0.7960081696510315,-0.8937354683876038
4.3033647537231445,0.29323285818099976,-0.6219994425773621,0.19885343313217163,-0.7901441861524313,-1.2400852531735258,-2.9992375920546506,-0.6656084656715393,0.7104547619819641,-0.22851639986038208,0.025716260075569153,-0.8110312223434448,-1.0972414016723633
4.324054718017578,0.17684584856033325,-0.43790382146835327,0.06133323907852173,-0.766807267745966,-1.2666100776504616,-3.012715032864911,-0.6870693564414978,0.6938396096229553,-0.21569103002548218,0.013593485578894615,-0.8943448066711426,-1.4027365446090698
4.34395170211792,0.05835634469985962,-0.16210174560546875,-0.07347333431243896,-0.7361711227887745,-1.287954217329415,-3.0150322806807592,-0.7116004228591919,0.671455442905426,-0.20681525766849518,0.6120469570159912,-1.1170449256896973,-1.5254883766174316
4.364144802093506,0.0740014910697937,-0.0696905255317688,-0.04648348689079285,-0.7065175423200205,-1.3126521566924432,-3.0143506638683393,-0.735424280166626,0.6491888761520386,-0.1941780149936676,0.16855263710021973,-1.3467105627059937,-1.3399792909622192
4.384263038635254,0.02299743890762329,-0.005244851112365723,0.02916276454925537,-0.6827730690778855,-1.344495503328899,-3.021989209187222,-0.7560450434684753,0.6309468746185303,-0.1740753948688507,-0.0976978987455368,-1.3399393558502197,-1.0918644666671753
4.403887748718262,-0.03053152561187744,0.05314069986343384,-0.06638830900192261,-0.6633487361667065,-1.3736751446178344,-3.0267535947584485,-0.7726759314537048,0.6157588958740234,-0.15431471168994904,0.30369389057159424,-1.285576581954956,-0.9260676503181458
4.42381477355957,-0.16952407360076904,0.15643739700317383,-0.20926082134246826,-0.6430648304808164,-1.390418422985571,-3.013222574686078,-0.787278413772583,0.5996509194374084,-0.14356806874275208,1.1026040315628052,-1.2245365381240845,-0.8698133826255798
4.443603038787842,-0.2382267713546753,0.16843760013580322,-0.16965709626674652,-0.6240094808333622,-1.3993588775058605,-2.988275538284479,-0.7996456027030945,0.5842937231063843,-0.13844823837280273,1.055998682975769,-1.1379530429840088,-0.6297796964645386
4.463665008544922,-0.2455158233642578,0.06314390897750854,-0.1009177416563034,-0.611869592159585,-1.4095039741406756,-2.9702507544176457,-0.8079509735107422,0.5743988752365112,-0.13145826756954193,0.6441968679428101,-0.8652028441429138,-0.3400249779224396
4.483606815338135,-0.3513398766517639,0.15995800495147705,-0.16699552536010742,-0.6057163795619397,-1.4173315196067655,-2.9600672938711976,-0.8124328255653381,0.5693511366844177,-0.12566795945167542,0.24196147918701172,-0.5026901960372925,-0.15344659984111786
4.50373387336731,-0.4001413583755493,0.1714276671409607,-0.15058565139770508,-0.6041455083674392,-1.4257969693572499,-2.9632957361473338,-0.8143514394760132,0.5680590271949768,-0.11891499906778336,-0.5191637873649597,-0.17255425453186035,-0.04180623218417168
4.52263879776001,-0.4059053659439087,0.11809229850769043,-0.15018300712108612,-0.6070479917276247,-1.4399011404364543,-2.98526275527908,-0.8143094182014465,0.5704453587532043,-0.10720213502645493,-1.2281352281570435,0.04101821407675743,0.08903849869966507
4.546318054199219,-0.45242929458618164,0.16680419445037842,-0.20663630962371826,-0.6137258850346856,-1.4551916042012538,-3.016711469051676,-0.8120513558387756,0.5759173631668091,-0.09429742395877838,-1.2820403575897217,0.2822665274143219,0.2958919107913971
4.564946889877319,-0.4742147922515869,0.23082613945007324,-0.2733209729194641,-0.6250120635069641,-1.463971074552798,-3.0448420799662714,-0.8063333034515381,0.5851070284843445,-0.08646591007709503,-1.1277438402175903,0.4726405441761017,0.5710427165031433
4.581596851348877,-0.47571176290512085,0.1982213258743286,-0.2256038784980774,-0.6408671904860624,-1.4679769435529513,-3.0690682478538496,-0.7973443269729614,0.5978907942771912,-0.08227258175611496,-0.9814656376838684,0.5423399209976196,0.7874109745025635
4.601696014404297,-0.4163767099380493,0.15118253231048584,-0.16503006219863892,-0.6592253153197525,-1.468898675145349,-3.0888866837621958,-0.7863669395446777,0.6125046610832214,-0.08040742576122284,-0.7383682727813721,0.5978666543960571,0.8443334698677063
4.619939804077148,-0.36427444219589233,0.10491758584976196,-0.12854719161987305,-0.6776972285603089,-1.4641866141851085,-3.100910616456993,-0.7745958566665649,0.6270008087158203,-0.0828937292098999,-0.43715113401412964,0.6343140602111816,0.9025821685791016
4.63993501663208,-0.3124668002128601,0.06057775020599365,-0.15419548749923706,-0.6969421832582056,-1.4545100982330115,-3.1081245176339483,-0.7616299390792847,0.6418759226799011,-0.08896845579147339,-0.2920222878456116,0.7862821817398071,0.9506711959838867
4.659920930862427,-0.27469760179519653,0.05167055130004883,-0.2337639182806015,-0.7156302548554564,-1.4356049899667866,-3.1059836830588594,-0.7477939128875732,0.656093180179596,-0.10171569138765335,0.347556471824646,0.9700353741645813,0.9198559522628784
4.67992091178894,-0.21885615587234497,0.1091870665550232,-0.2945581078529358,-0.7290041856050102,-1.3932703130730206,-3.074516785056959,-0.73411625623703,0.6661272644996643,-0.13171130418777466,1.8486284017562866,1.192615270614624,0.7901062965393066
4.701735019683838,-0.1772288680076599,0.1571131944656372,-0.26966142654418945,-0.7319360822919528,-1.3206003519572231,-3.0036206678910715,-0.7207204699516296,0.6683111190795898,-0.1841806024312973,3.1153035163879395,1.2998464107513428,0.6375823020935059
4.721810817718506,-0.09557682275772095,0.06316465139389038,-0.1611546277999878,-0.7242501369413903,-1.2366478189174936,-2.916402372100558,-0.7075695991516113,0.6625739932060242,-0.24564461410045624,3.199291706085205,1.285941243171692,0.485361248254776
4.739930868148804,-0.0676952600479126,-0.08243799209594727,0.017469793558120728,-0.7096194820358236,-1.1616399800988182,-2.8401267678512685,-0.6959919929504395,0.6515451669692993,-0.30180200934410095,2.696934700012207,1.186763882637024,0.21832093596458435
4.761814832687378,-0.04476648569107056,-0.12279987335205078,0.15135687589645386,-0.6883928738471149,-1.1001728957750787,-2.7795951555209,-0.6883115768432617,0.6352968811988831,-0.3501788079738617,2.5015435218811035,1.0559290647506714,-0.17349407076835632
4.779947757720947,-0.011909067630767822,-0.1834336519241333,0.22435262799263,-0.6576125679185164,-1.0488928740142853,-2.728962673518396,-0.6860889792442322,0.6112290620803833,-0.39456433057785034,2.404543876647949,0.8964285254478455,-0.6354771852493286
4.800858020782471,0.07789385318756104,-0.3803255558013916,0.35817334055900574,-0.622520107508075,-1.0149869521918793,-2.6960310456635224,-0.6901223063468933,0.5830843448638916,-0.4286535680294037,1.546263337135315,0.512599766254425,-1.0620791912078857
4.820116996765137,0.06937485933303833,-0.4619755744934082,0.4422072768211365,-0.5902453740778402,-1.007504831269587,-2.6954876481151095,-0.7024468183517456,0.5565649271011353,-0.4436262845993042,0.19192712008953094,0.19812944531440735,-1.6701263189315796
4.841571807861328,0.036571621894836426,-0.4795926809310913,0.5505240559577942,-0.5605182233896332,-1.0252282189959774,-2.728690408973389,-0.7240259051322937,0.5316252112388611,-0.439501017332077,-0.9310362935066223,-0.16249744594097137,-2.3314599990844727
4.861431837081909,-0.043314576148986816,-0.3655399680137634,0.5474047660827637,-0.5274798583722524,-1.0605920851831516,-2.785488046925021,-0.7540335059165955,0.5033573508262634,-0.4219774305820465,-1.5474777221679688,-0.41876479983329773,-2.9467992782592773
4.882375717163086,-0.10355520248413086,-0.2979397773742676,0.5033293962478638,-0.488113286119192,-1.1042052940857858,-2.853983952535712,-0.7888094186782837,0.46896034479141235,-0.3973112404346466,-1.8657335042953491,-0.620093047618866,-3.3028042316436768
4.902239799499512,-0.15086239576339722,-0.22949257493019104,0.47123104333877563,-0.4440626467735816,-1.1503639235530663,-2.9260950544716695,-0.8243727087974548,0.4296116232872009,-0.36856985092163086,-2.1012678146362305,-0.7249321341514587,-3.405945301055908
4.922117710113525,-0.22294241189956665,-0.1759246587753296,0.5160926580429077,-0.3989148514632079,-1.1954167643074496,-3.0000929499360027,-0.8573188781738281,0.38841861486434937,-0.33783939480781555,-2.34677791595459,-0.7532812356948853,-3.384366273880005
4.94216775894165,-0.24043524265289307,-0.05762815475463867,0.5339334011077881,-0.3536340002416568,-1.2386210754127844,-3.0752963101736945,-0.886838436126709,0.34630921483039856,-0.3059212565422058,-2.636002540588379,-0.8148884773254395,-3.2916505336761475
4.960269927978516,-0.2360837459564209,0.01680535078048706,0.5147709846496582,-0.3084994809123327,-1.2794158981718902,3.132545716900116,-0.9126286506652832,0.3036293089389801,-0.2737126350402832,-2.6504287719726562,-0.8132565021514893,-3.203059196472168
4.982251882553101,-0.2509968876838684,0.11752915382385254,0.4586423635482788,-0.2608618988896554,-1.3141360610310935,3.0667143751848185,-0.9345195293426514,0.25791338086128235,-0.24526336789131165,-2.1281027793884277,-0.8272055983543396,-3.084362268447876
5.002004861831665,-0.22372591495513916,0.17378023266792297,0.4009283185005188,-0.21241124929305494,-1.3443013258488752,3.01350496124817,-0.9525589942932129,0.21081756055355072,-0.21951648592948914,-1.808336853981018,-0.934719979763031,-2.8615002632141113
5.022093772888184,-0.18848198652267456,0.1551099568605423,0.3399246335029602,-0.16658230138746555,-1.373549991974452,2.9659538539608103,-0.967035710811615,0.16581293940544128,-0.19325706362724304,-1.872672200202942,-1.0947885513305664,-2.6191163063049316
5.041952848434448,-0.16118669509887695,0.18840911984443665,0.27366024255752563,-0.12428855484388361,-1.404140750656794,2.9160369499950964,-0.9785381555557251,0.12396880984306335,-0.16460558772087097,-2.2613685131073,-1.232574462890625,-2.455446243286133
5.060886859893799,-0.13571453094482422,0.1895361840724945,0.19364042580127716,-0.08432165930486747,-1.4357772077015347,2.8592301662080284,-0.9873781800270081,0.08422177284955978,-0.13413099944591522,-2.735161066055298,-1.3279751539230347,-2.3598151206970215
5.080991744995117,-0.11247223615646362,0.2075214684009552,0.12494844198226929,-0.044751768717418566,-1.4667047859842761,2.794809981869507,-0.9935917258262634,0.0447368323802948,-0.10379965603351593,-3.199777603149414,-1.334445834159851,-2.342902183532715
5.101599931716919,-0.08662295341491699,0.24058739840984344,0.08500403165817261,-0.004346681969760677,-1.4943690700277508,2.7225940240038353,-0.9970716834068298,0.004346668254584074,-0.07635217159986496,-3.6298770904541016,-1.2425631284713745,-2.3451621532440186
5.12175178527832,-0.05098360776901245,0.24940450489521027,0.06600838899612427,0.037713000764888156,-1.5164566938053623,2.644434612116725,-0.9978140592575073,-0.03770406171679497,-0.05427427962422371,-3.889746904373169,-1.098460078239441,-2.367029905319214
5.1417927742004395,-0.02963078022003174,0.3609536290168762,0.008421659469604492,0.08202336327890798,-1.5322368242229514,2.5641401135906734,-0.9958972930908203,-0.08193141967058182,-0.03842034935951233,-3.9041354656219482,-0.9392305016517639,-2.443922281265259
5.160759925842285,-0.02886974811553955,0.4726126790046692,-0.06593084335327148,0.12909891792575337,-1.5411084969479734,2.486412920314613,-0.991241455078125,-0.1287406086921692,-0.02943645603954792,-3.6466119289398193,-0.7661386132240295,-2.5114595890045166
5.181748867034912,-0.021818876266479492,0.5337992906570435,-0.09858644008636475,0.17732045356709958,-1.5439123856101626,2.4156143314796346,-0.9839643836021423,-0.17639267444610596,-0.026459215208888054,-3.213768243789673,-0.6022275686264038,-2.4996156692504883
5.200655937194824,0.007223546504974365,0.5831890106201172,-0.09802192449569702,0.22469288114229358,-1.5427120769924818,2.353721823307953,-0.9744783043861389,-0.22280697524547577,-0.027374688535928726,-2.744642496109009,-0.5113784670829773,-2.39577317237854
5.221454858779907,0.024251163005828857,0.6481809616088867,-0.0743340253829956,0.2694883071718596,-1.5393139065848673,2.3000329990648893,-0.9634296894073486,-0.2662382423877716,-0.030341124162077904,-2.3543782234191895,-0.4538412392139435,-2.2448055744171143
5.239688873291016,0.03165757656097412,0.7051213979721069,-0.06783199310302734,0.31149869252875595,-1.5348077935444273,2.253971717035388,-0.9512591361999512,-0.30648553371429443,-0.034249208867549896,-1.9231690168380737,-0.454252690076828,-2.0877039432525635
5.261430740356445,0.06427943706512451,0.7807937860488892,-0.11619430780410767,0.34915471086334043,-1.5321050325778527,2.215464002518592,-0.938959002494812,-0.34210363030433655,-0.036347679793834686,-1.6188750267028809,-0.5187718272209167,-1.8185312747955322
5.281232833862305,0.07028347253799438,0.8105709552764893,-0.14208537340164185,0.38124808753570366,-1.5308669023765502,2.1816529880045015,-0.9274614453315735,-0.3720792233943939,-0.0370526947081089,-1.429832935333252,-0.5594605803489685,-1.5121409893035889
5.301229953765869,0.07648861408233643,0.8430060148239136,-0.1625218391418457,0.4070733024681977,-1.530906437784479,2.151408666008249,-0.9175531268119812,-0.3959234952926636,-0.03662052005529404,-1.265087366104126,-0.6177836060523987,-1.1668025255203247
5.32008695602417,0.08389109373092651,0.8837332725524902,-0.196638822555542,0.42552748153954373,-1.5329750795478894,2.1243971627763467,-0.9101698994636536,-0.41280126571655273,-0.034440185874700546,-1.1408190727233887,-0.6813477277755737,-0.7709212303161621
5.341047763824463,0.024233758449554443,0.9270947575569153,-0.2156798243522644,0.43608609113595465,-1.5367474821748655,2.1004863932112037,-0.905886709690094,-0.42239511013031006,-0.03085632063448429,-0.9798617959022522,-0.6990336775779724,-0.36996737122535706
5.361045837402344,-0.09908759593963623,0.9887489080429077,-0.2625654339790344,0.43872341325806663,-1.5422315173392305,2.0812711267835367,-0.9049255847930908,-0.4247841238975525,-0.025856060907244682,-0.7460099458694458,-0.6683292388916016,0.04801318794488907
5.380893707275391,-0.2031092643737793,1.0206737518310547,-0.29654204845428467,0.4333067287773228,-1.5504716899045303,2.0685754025675074,-0.9073948860168457,-0.4198742210865021,-0.018445011228322983,-0.39199718832969666,-0.7074875831604004,0.46051356196403503
5.401237964630127,-0.3180408477783203,1.0275635719299316,-0.3797239065170288,0.42032453530896247,-1.5633686338177442,2.066460960805033,-0.912931501865387,-0.40805676579475403,-0.006781099829822779,0.23530825972557068,-0.6433592438697815,0.8083210587501526
5.420917987823486,-0.4519210457801819,1.066809058189392,-0.4934229850769043,0.40126731619920736,-1.5796473597793645,2.0819094293428795,-0.9205307960510254,-0.3905853033065796,0.008147860877215862,1.2258738279342651,-0.37010708451271057,1.1009098291397095
5.440007925033569,-0.35950303077697754,1.0667752027511597,-0.5827286243438721,0.3745432753192274,-1.597716108466699,2.1178304474564973,-0.9303377866744995,-0.36584749817848206,0.025050541386008263,2.076458692550659,-0.07283387333154678,1.5271153450012207
5.4606828689575195,-0.17242032289505005,0.9634650945663452,-0.5735855102539062,0.3370111418977814,-1.6118674073331447,2.1642201978538615,-0.9429514408111572,-0.3306678533554077,0.038749825209379196,2.3159642219543457,0.27520859241485596,2.088209390640259
5.480653762817383,-0.0059868693351745605,0.8023010492324829,-0.5355455875396729,0.28698278945008776,-1.6166558863367042,2.208613063316443,-0.9580940008163452,-0.2830597162246704,0.04396859556436539,2.093500852584839,0.595797061920166,2.7383382320404053
5.501992702484131,0.06532639265060425,0.6633179187774658,-0.52351975440979,0.22413456475766275,-1.6117237189912672,2.245318813937788,-0.9741703867912292,-0.2222626507282257,0.0398925319314003,1.742531180381775,0.8271207809448242,3.3711140155792236
5.520673751831055,-0.04860740900039673,0.5451735854148865,-0.4940681457519531,0.15047716748484066,-1.5985527296473843,2.2749788703791336,-0.988318920135498,-0.14990992844104767,0.02743922546505928,1.4570403099060059,1.043623447418213,3.8684754371643066
5.5404157638549805,-0.25876563787460327,0.43324002623558044,-0.413954496383667,0.06980183366865818,-1.5783668888466589,2.301540156451698,-0.997536301612854,-0.06974516808986664,0.007552054710686207,1.3791780471801758,1.2726444005966187,4.130742073059082
5.560441970825195,-0.48450660705566406,0.3682757616043091,-0.289467990398407,-0.013057003540584465,-1.5500957740100072,2.332469809175695,-0.9997006058692932,0.01305663213133812,-0.02069731242954731,1.771990418434143,1.635966420173645,4.147091865539551
5.5803399085998535,-0.6891420483589172,0.3184845447540283,-0.15831583738327026,-0.09210704534811408,-1.5119866117838927,2.3791907770824894,-0.99403977394104,0.09197686612606049,-0.05852668732404709,2.5880632400512695,1.9399527311325073,3.9409096240997314
5.601841926574707,-0.7872521281242371,0.1809069961309433,-0.06163817644119263,-0.16384985662263424,-1.4608212165913457,2.442134432761521,-0.980646550655365,0.16311770677566528,-0.10828360915184021,2.940127372741699,2.3195362091064453,3.7183821201324463
5.620983839035034,-0.7812711000442505,-0.047256842255592346,0.05021899938583374,-0.22859437732658902,-1.3969158511813389,2.5100351733233603,-0.9592990875244141,0.22660869359970093,-0.16850502789020538,2.6741762161254883,2.5428435802459717,3.517960786819458
5.640317916870117,-0.6657418608665466,-0.13278838992118835,0.16971099376678467,-0.2855166106029568,-1.3294904424332072,2.57273866911423,-0.9317161440849304,0.28165319561958313,-0.2292964905500412,2.0697975158691406,2.584453821182251,3.296065330505371
5.6599297523498535,-0.6029908657073975,-0.18693053722381592,0.26041942834854126,-0.33757763272967867,-1.2619017916705066,2.625690593125721,-0.8989013433456421,0.3312024176120758,-0.2868475615978241,1.382365107536316,2.528738260269165,3.0906550884246826
5.6801018714904785,-0.5788348913192749,-0.23559606075286865,0.3100360035896301,-0.3868345109400347,-1.196642836415905,2.6679781765352097,-0.8620374202728271,0.3772587180137634,-0.33847832679748535,0.7320667505264282,2.4923160076141357,2.8821444511413574
5.70013689994812,-0.5462610721588135,-0.2936188876628876,0.36358004808425903,-0.4346813657635015,-1.1348623240642686,2.701206707991425,-0.8221777677536011,0.42112141847610474,-0.38298916816711426,0.2076277881860733,2.3840720653533936,2.7250165939331055
5.720171928405762,-0.518581211566925,-0.3458126187324524,0.4176424741744995,-0.4817558012218243,-1.0763195652836106,2.728213967643026,-0.7800334095954895,0.4633358418941498,-0.42055684328079224,-0.11368007957935333,2.2609519958496094,2.5847184658050537
5.739989757537842,-0.4678199887275696,-0.3765515089035034,0.44423431158065796,-0.5261322208232918,-1.0200248322808827,2.7544691176843012,-0.7368767857551575,0.5021924376487732,-0.4525655508041382,-0.07582980394363403,2.1247684955596924,2.4220457077026367
5.760080814361572,-0.44780582189559937,-0.3933093547821045,0.4803304076194763,-0.5651068653879884,-0.9636522460576895,2.7846345759345477,-0.6935974359512329,0.5355060696601868,-0.48182573914527893,0.10224954038858414,1.9411567449569702,2.2599101066589355
5.779977798461914,-0.3898521065711975,-0.42680156230926514,0.5225481986999512,-0.5973118147075297,-0.9081575386751493,2.819541982151541,-0.651865541934967,0.5624217987060547,-0.5086779594421387,0.32866135239601135,1.7047532796859741,2.068502187728882
5.799954891204834,-0.3748379945755005,-0.4667774438858032,0.5487695932388306,-0.622383228825105,-0.8552189209270982,2.85727249972436,-0.6131991744041443,0.5829731822013855,-0.5330377817153931,0.44474953413009644,1.433124303817749,1.8270466327667236
5.819983959197998,-0.4050898551940918,-0.5013961791992188,0.5720155239105225,-0.64041291902353,-0.8075675841231594,2.894012699321419,-0.5794225335121155,0.5975266098976135,-0.5542847514152527,0.5666870474815369,1.1505396366119385,1.4849216938018799
5.841543912887573,-0.4153997302055359,-0.508105456829071,0.5835210084915161,-0.6500902704127248,-0.7669868869693632,2.9277961471834004,-0.5524195432662964,0.6052582859992981,-0.5731449723243713,0.6272565722465515,0.8701286911964417,1.1093770265579224
5.859977722167969,-0.418759286403656,-0.5423864126205444,0.6105895042419434,-0.6546341045618533,-0.736449004002958,2.95401356584596,-0.5328093767166138,0.6088690161705017,-0.5877012610435486,0.4304654896259308,0.5909772515296936,0.7197198271751404
5.879981994628906,-0.43046045303344727,-0.5729262232780457,0.647994875907898,-0.6575506918581211,-0.7183926508265921,2.9680722743731724,-0.520940363407135,0.6111800670623779,-0.5958861112594604,0.07752980291843414,0.3501586616039276,0.2948268949985504
5.899978876113892,-0.40072518587112427,-0.5988320112228394,0.6727182865142822,-0.6605956951077536,-0.7147066718169685,2.967473951867183,-0.5175182819366455,0.6135873198509216,-0.5963938236236572,-0.3462001085281372,0.044895775616168976,-0.13609537482261658
5.920001983642578,-0.3766751289367676,-0.6030382513999939,0.6422439217567444,-0.6638590038198181,-0.7276128703647654,2.9507954296479033,-0.5238375663757324,0.6161608695983887,-0.5881666541099548,-0.7865871787071228,-0.2891659736633301,-0.6522796154022217
5.9399800300598145,-0.4843257665634155,-0.6096447706222534,0.6210757493972778,-0.6657777571506037,-0.7579749584545654,2.915214020032367,-0.5406376719474792,0.6176709532737732,-0.5711336731910706,-1.2156726121902466,-0.5384129285812378,-1.3065319061279297
5.960099935531616,-0.5592455267906189,-0.5560354590415955,0.6393639445304871,-0.6611810750274292,-0.8028826148918137,2.862322562546601,-0.5677686929702759,0.6140494346618652,-0.5482536554336548,-1.3604934215545654,-0.7077937126159668,-1.9552834033966064
5.97997784614563,-0.35606735944747925,-0.49898064136505127,0.6055132746696472,-0.648557571752905,-0.8589495808659463,2.7986961964047885,-0.603420615196228,0.6040374636650085,-0.5205980539321899,-1.5595248937606812,-1.0115927457809448,-2.3535163402557373
6.0000128746032715,-0.17623370885849,-0.52931809425354,0.4804931581020355,-0.6312317813419883,-0.9241677297312472,2.7270227484587948,-0.64432293176651,0.590139627456665,-0.48639824986457825,-1.7991383075714111,-1.2252758741378784,-2.599994659423828
6.020073890686035,-0.08699190616607666,-0.4458853602409363,0.31731247901916504,-0.6072680561654056,-0.9939389662000694,2.6535773540379415,-0.6883224844932556,0.5706260800361633,-0.4478818476200104,-1.676188349723816,-1.5019810199737549,-2.810220718383789
6.040042877197266,-0.07977116107940674,-0.3259916305541992,0.18781381845474243,-0.5734995088348805,-1.0634782530155416,2.585563132601889,-0.7342090606689453,0.5425750017166138,-0.40810489654541016,-1.4121737480163574,-1.6054927110671997,-3.030399799346924
6.060197830200195,-0.26095062494277954,-0.32288628816604614,0.1552959680557251,-0.5286219552076354,-1.1258427193840803,2.526327432135505,-0.779424250125885,0.5043438673019409,-0.37166550755500793,-1.0033729076385498,-1.5531889200210571,-3.2800204753875732
6.079985857009888,-0.32849645614624023,-0.2238495945930481,0.1375826895236969,-0.47347483817326225,-1.1807108018811125,2.4776311739702805,-0.823130190372467,0.45598161220550537,-0.33843401074409485,-0.7346718907356262,-1.592132806777954,-3.5082316398620605
6.100114822387695,-0.4188249707221985,-0.14845511317253113,0.11530366539955139,-0.4111466345751838,-1.2316175487090926,2.4333696778371388,-0.8644394278526306,0.3996606767177582,-0.3049856126308441,-0.8192706108093262,-1.6120281219482422,-3.7556076049804688
6.119987964630127,-0.48105746507644653,-0.0710718035697937,0.07537028193473816,-0.34386047197024117,-1.2806384122042578,2.3885952802780674,-0.9021060466766357,0.3371240794658661,-0.2693551182746887,-1.0848129987716675,-1.634964108467102,-3.93249773979187
6.139993906021118,-0.4988306164741516,0.02965366840362549,0.05178356170654297,-0.27408878607688875,-1.327105173228679,2.341068317713524,-0.9342291951179504,0.2706698477268219,-0.2322797030210495,-1.4761409759521484,-1.5709015130996704,-3.9822850227355957
6.160059928894043,-0.4389776587486267,0.10739435255527496,0.05668225884437561,-0.20481028894755773,-1.370321664593385,2.288721408608457,-0.9594903588294983,0.20338141918182373,-0.19497253000736237,-1.9877628087997437,-1.5123496055603027,-3.897716999053955
6.179963827133179,-0.3769208788871765,0.17738790810108185,0.026922166347503662,-0.13752887782143272,-1.409456298985385,2.230379160149982,-0.977693498134613,0.13709574937820435,-0.1591241955757141,-2.450108528137207,-1.409980297088623,-3.757405996322632
6.199985027313232,-0.35961753129959106,0.2941018342971802,-0.042752206325531006,-0.0722941615755925,-1.4425601206441654,2.168004089815586,-0.9891985058784485,0.07223120331764221,-0.12755100429058075,-2.724931478500366,-1.2484155893325806,-3.597404718399048
6.220703840255737,-0.3726224899291992,0.42756882309913635,-0.08566921204328537,-0.009046295814551604,-1.4686619611420688,2.105774844419607,-0.9947481751441956,0.009046172723174095,-0.10195272415876389,-2.692798376083374,-1.1071162223815918,-3.3943097591400146
6.240097999572754,-0.3669281601905823,0.5402637720108032,-0.15525954961776733,0.051639272614979026,-1.488288491761199,2.0494592288865414,-0.9952698349952698,-0.051616325974464417,-0.08230441063642502,-2.3308565616607666,-0.9600971937179565,-3.15337872505188
6.259980916976929,-0.3624904155731201,0.6342291831970215,-0.2249765396118164,0.10936163509716047,-1.502772983249653,2.0038214816828384,-0.9917272329330444,-0.10914377123117447,-0.06756484508514404,-1.7955085039138794,-0.8149168491363525,-2.8755571842193604
6.279981851577759,-0.3341835141181946,0.7026388645172119,-0.2019798755645752,0.1622734472442632,-1.513245596429331,1.9692513266844265,-0.9852288365364075,-0.16156220436096191,-0.05676332116127014,-1.3408985137939453,-0.6545841097831726,-2.5460166931152344
6.299977779388428,-0.2460089921951294,0.7698677778244019,-0.20524656772613525,0.20839998889542535,-1.5203842460160866,1.9424862832501584,-0.9771203994750977,-0.20689477026462555,-0.04930044338107109,-1.069865107536316,-0.5698806643486023,-2.192354440689087
6.320063829421997,-0.09965306520462036,0.814091682434082,-0.24182015657424927,0.24747245489770323,-1.5268714447980958,1.9203814692311403,-0.9685997366905212,-0.2449541985988617,-0.04257301241159439,-0.9044854044914246,-0.5867288112640381,-1.8131664991378784
6.340188026428223,0.007478952407836914,0.837182343006134,-0.2980958819389343,0.279227505563415,-1.5344698652120556,1.9026217040240012,-0.9606345891952515,-0.2756131589412689,-0.03491181507706642,-0.6667620539665222,-0.6417931318283081,-1.4302202463150024
6.359808921813965,0.04056662321090698,0.8561056852340698,-0.3665374517440796,0.3038600830348466,-1.5441900511875817,1.8917932644437492,-0.953851044178009,-0.2992056608200073,-0.025384414941072464,-0.2670116126537323,-0.6415119767189026,-1.084008812904358
6.37998104095459,0.01788574457168579,0.9058595299720764,-0.42325085401535034,0.3226210017662559,-1.5561256231824325,1.8908697366287281,-0.9483058452606201,-0.3170534372329712,-0.013913311995565891,0.22834289073944092,-0.5809209942817688,-0.8217964768409729
6.399979829788208,-0.012077152729034424,0.9342592358589172,-0.47048550844192505,0.3369136231621015,-1.5699030189559156,1.9012604690376802,-0.9437792897224426,-0.3305758237838745,-0.0008430856396444142,0.7823423147201538,-0.47151973843574524,-0.6098748445510864
6.419983863830566,-0.0017498135566711426,0.9812153577804565,-0.5346212387084961,0.3466522924650291,-1.5871985286419654,1.924659348831304,-0.9403889179229736,-0.33975115418434143,0.015425832010805607,1.4545434713363647,-0.4747912585735321,-0.39116740226745605
6.439978837966919,-0.12420672178268433,1.0405634641647339,-0.6394416093826294,0.35117335640053193,-1.6087578384795638,1.9645159244141446,-0.9382933974266052,-0.34399980306625366,0.03563615679740906,2.3172123432159424,-0.2939220666885376,-0.1633603870868683
6.459977865219116,-0.3237949013710022,1.0980604887008667,-0.6969709396362305,0.3483329913661728,-1.6301117488409178,2.0220668364989756,-0.9382902979850769,-0.3413313925266266,0.05572044849395752,3.034163236618042,0.17302702367305756,0.2074120044708252
6.479981899261475,-0.3141993284225464,1.0403884649276733,-0.5851733684539795,0.3343648459406632,-1.642237806884556,2.085704540730928,-0.9422094225883484,-0.3281692564487457,0.06742759048938751,2.8985137939453125,0.7332612872123718,0.812109112739563
6.500027894973755,-0.11695069074630737,0.8613677024841309,-0.4355422258377075,0.3072497267507217,-1.6392653171319298,2.135124921544137,-0.9509359002113342,-0.30243831872940063,0.06521155685186386,1.9007097482681274,1.0939326286315918,1.569365382194519
6.519982814788818,0.01028531789779663,0.693414568901062,-0.3645951747894287,0.2671213873369985,-1.6225680451596372,2.1612392817512176,-0.9632425904273987,-0.2639560103416443,0.049913328140974045,0.9428898692131042,1.318369746208191,2.2652270793914795
6.539979934692383,-0.06773656606674194,0.6343687772750854,-0.3546791076660156,0.2157506370075537,-1.597484093684084,2.175089697625876,-0.9764682650566101,-0.21408072113990784,0.026065945625305176,0.7533283829689026,1.5081230401992798,2.78841233253479
6.559980869293213,-0.19967502355575562,0.6012623906135559,-0.3603397011756897,0.15649635246720156,-1.570089335683717,2.194884276467443,-0.9877792596817017,-0.1558583378791809,-0.000698351243045181,1.379677176475525,1.6021915674209595,3.1009104251861572
6.579987049102783,-0.3898014426231384,0.5706297159194946,-0.32595187425613403,0.09334824304743192,-1.5406248430429832,2.232351451437989,-0.9951931238174438,-0.09321273118257523,-0.03003556653857231,2.2079555988311768,1.8402657508850098,3.2682387828826904
6.599979877471924,-0.6162237524986267,0.4770360589027405,-0.1731289029121399,0.029332138397952033,-1.5027394205067572,2.2827758872149744,-0.9972558617591858,-0.029327932745218277,-0.06797512620687485,2.394707679748535,2.2471978664398193,3.3806562423706055
6.619976997375488,-0.7055360078811646,0.33174964785575867,0.05905097723007202,-0.03497194571648816,-1.4549583728621682,2.332995381808452,-0.9926910400390625,0.03496481850743294,-0.11550840735435486,1.9302473068237305,2.4739203453063965,3.49912428855896
6.639992713928223,-0.7385197877883911,0.19589641690254211,0.21454860270023346,-0.10214793997647298,-1.3992412107466352,2.373551392321512,-0.9801844358444214,0.10197039693593979,-0.1698249876499176,1.1085199117660522,2.6951262950897217,3.664153814315796
6.660037994384766,-0.7670613527297974,0.06754851341247559,0.3268168568611145,-0.1728897582007812,-1.340251143463314,2.4041458506306395,-0.9590282440185547,0.17202973365783691,-0.22510167956352234,0.49564114212989807,2.7429206371307373,3.8662548065185547
6.679973840713501,-0.7074936628341675,0.041701748967170715,0.3622482419013977,-0.24748376148041173,-1.280334690549546,2.432391543937221,-0.9289200305938721,0.24496516585350037,-0.27766868472099304,0.3580857813358307,2.642547607421875,4.056042194366455
6.699978828430176,-0.6855417490005493,-0.0026608407497406006,0.4198446571826935,-0.32176790340217226,-1.2184650020854748,2.4710178749707685,-0.890401303768158,0.3162442147731781,-0.32737627625465393,0.900444746017456,2.4632792472839355,4.170625686645508
6.71999979019165,-0.7478640675544739,-0.046380847692489624,0.430316299200058,-0.3893333981471476,-1.149023703682277,2.53010022641498,-0.8440854549407959,0.379571795463562,-0.37874144315719604,1.6810637712478638,2.430199146270752,4.200546741485596
6.739978790283203,-0.7672697901725769,-0.1326388120651245,0.4883610010147095,-0.44618599367561435,-1.0687022466408458,2.6095527299480668,-0.7907595038414001,0.4315280616283417,-0.4341464638710022,2.249197483062744,2.3498964309692383,4.12904691696167
6.759981870651245,-0.701731264591217,-0.21527522802352905,0.5542222261428833,-0.49080161828560914,-0.9813598507205339,2.701241790829525,-0.7331290245056152,0.47133302688598633,-0.49027255177497864,2.3971331119537354,2.256138563156128,3.921639919281006
6.77998685836792,-0.6535715460777283,-0.3089359700679779,0.6309799551963806,-0.5227960622368943,-0.8915052754506133,2.795987302092888,-0.6740956902503967,0.4993046820163727,-0.5443251729011536,2.3694610595703125,2.1227047443389893,3.5762760639190674
6.799975872039795,-0.579559326171875,-0.35891807079315186,0.6896970868110657,-0.5428602583933858,-0.8038224080660132,2.8878080573753313,-0.6165009140968323,0.5165871381759644,-0.5941922664642334,2.2247064113616943,1.9892040491104126,3.177971363067627
6.819979906082153,-0.5249215960502625,-0.40972626209259033,0.7272599935531616,-0.5530634324898699,-0.7216133626004132,2.9720193498263616,-0.5621145963668823,0.5252964496612549,-0.6388200521469116,2.0121333599090576,1.8474453687667847,2.72194242477417
6.839979887008667,-0.4303135275840759,-0.4691983461380005,0.7629842758178711,-0.5556218652158761,-0.6483688066863256,3.0447668072086294,-0.5130459070205688,0.5274717211723328,-0.6771687865257263,1.6736137866973877,1.6350353956222534,2.247262716293335
6.859976768493652,-0.3440636694431305,-0.527984082698822,0.8032304644584656,-0.55620713687994,-0.5882683256855527,3.1021902138340853,-0.4712745249271393,0.5279688835144043,-0.7065049409866333,1.083229899406433,1.3521296977996826,1.7604117393493652
6.880012035369873,-0.344694048166275,-0.5614661574363708,0.8194277286529541,-0.5606562278606312,-0.5439563256549766,3.1409225668095972,-0.43829551339149475,0.5317420959472656,-0.7246705889701843,0.2879270613193512,1.011554479598999,1.2515983581542969
6.8999738693237305,-0.3390876054763794,-0.6101491451263428,0.8340596556663513,-0.5729100446832429,-0.5179618076363265,-3.123938380680222,-0.4160546064376831,0.542079746723175,-0.730101466178894,-0.5659489035606384,0.6226454973220825,0.6967408657073975
6.920001029968262,-0.3480224311351776,-0.6411793231964111,0.8190340995788574,-0.5942048203256585,-0.5108367111858235,-3.1265047635575285,-0.4051056504249573,0.5598500370979309,-0.7228121757507324,-1.3558603525161743,0.22089546918869019,0.1491636037826538
6.9399778842926025,-0.29578614234924316,-0.6547495126724243,0.7567161321640015,-0.6201115608759058,-0.5238437607682741,3.1344847669446754,-0.4070795178413391,0.5811259746551514,-0.7046836614608765,-1.6914666891098022,-0.24573694169521332,-0.4800640344619751
6.959975719451904,-0.323802649974823,-0.6120138764381409,0.670544445514679,-0.6390139237796237,-0.5550351139050654,3.096186936506226,-0.4229930639266968,0.5964041948318481,-0.6821869015693665,-1.4628007411956787,-0.5915399193763733,-1.2235362529754639
6.980025768280029,-0.4176896810531616,-0.5620118379592896,0.6296210289001465,-0.6430512851386283,-0.5999024699440546,3.0444348607469167,-0.45180195569992065,0.5996400713920593,-0.6605353355407715,-1.1723389625549316,-0.8074073791503906,-2.026808500289917
6.999974727630615,-0.42872098088264465,-0.5266309976577759,0.6044180393218994,-0.633783937142618,-0.6579309925731106,2.980681988240876,-0.4927268326282501,0.5921980738639832,-0.6375906467437744,-1.1580703258514404,-1.2182083129882812,-2.647277593612671
7.0199809074401855,-0.3164709210395813,-0.522010087966919,0.5087131261825562,-0.6181027782926143,-0.7306767682232844,2.9048519784399547,-0.5438959002494812,0.5794900059700012,-0.6069338321685791,-1.6484887599945068,-1.5731452703475952,-3.061519145965576
7.039980888366699,-0.31526267528533936,-0.5341151356697083,0.39927369356155396,-0.6017641293622632,-0.8150113961504212,2.8149356902784763,-0.5998985171318054,0.566097617149353,-0.5653807520866394,-2.3165628910064697,-1.7206754684448242,-3.364555597305298
7.060022830963135,-0.32780903577804565,-0.46809953451156616,0.32330429553985596,-0.5823929687925212,-0.907513517054129,2.7135192955030774,-0.6580766439437866,0.5500239729881287,-0.5142069458961487,-2.799136161804199,-1.8556506633758545,-3.6054036617279053
7.079977035522461,-0.4126519560813904,-0.3913266658782959,0.24770420789718628,-0.5565668749212566,-1.003531211210834,2.6041451595095118,-0.7160865664482117,0.5282743573188782,-0.4562307894229889,-3.2528984546661377,-1.8356757164001465,-3.8332319259643555
7.099994897842407,-0.5065576434135437,-0.3314669132232666,0.1954978108406067,-0.5220493485268666,-1.0985593659939048,2.4889159331291313,-0.7719306349754333,0.49865755438804626,-0.3942892253398895,-3.6195929050445557,-1.7400435209274292,-4.095943927764893
7.120065927505493,-0.5892946720123291,-0.24196156859397888,0.14052751660346985,-0.475979365273954,-1.1880774342968814,2.3713116145281625,-0.8245389461517334,0.45820915699005127,-0.3319336473941803,-3.8790981769561768,-1.5790845155715942,-4.394567966461182
7.139977931976318,-0.6753458380699158,-0.133411705493927,0.0730280876159668,-0.41691530144887023,-1.2672885673220302,2.2557740117174294,-0.8725516200065613,0.4049419164657593,-0.27326908707618713,-3.9298884868621826,-1.3244869709014893,-4.684415340423584
7.159975051879883,-0.7382698059082031,-0.0018989741802215576,0.024566620588302612,-0.34521726275489134,-1.3305795250092898,2.148930104723534,-0.913982629776001,0.3384011387825012,-0.22387684881687164,-3.6907474994659424,-1.0283195972442627,-4.869296550750732
7.179976940155029,-0.7015095353126526,0.1357068121433258,-0.012533128261566162,-0.2649183403088886,-1.3764417929238473,2.055348809053768,-0.9469433426856995,0.2618304491043091,-0.18639561533927917,-3.3057665824890137,-0.7255799174308777,-4.892129898071289
7.20001482963562,-0.605478048324585,0.2605004906654358,-0.01852017641067505,-0.18096104914189715,-1.4058028511324125,1.9761844789675145,-0.9703124761581421,0.1799750179052353,-0.1615639626979828,-2.8039660453796387,-0.4711138606071472,-4.739565849304199
7.219974994659424,-0.4904854893684387,0.3652966320514679,-0.043722882866859436,-0.09834758997796915,-1.4227140019693783,1.9108682153726442,-0.9842767119407654,0.09818912297487259,-0.1468287855386734,-2.3422319889068604,-0.31410500407218933,-4.417172908782959
7.239974021911621,-0.41322028636932373,0.48042795062065125,-0.052454233169555664,-0.021252125599942842,-1.4311304900154511,1.8569069365530753,-0.9900391101837158,0.0212505254894495,-0.13918079435825348,-1.8904341459274292,-0.201202854514122,-3.973041296005249
7.2599778175354,-0.3746955394744873,0.6062825918197632,-0.05929701030254364,0.04818052280862906,-1.4340597464827858,1.8141772997442915,-0.98951655626297,-0.048161882907152176,-0.1361527144908905,-1.4169713258743286,-0.14782503247261047,-3.4659111499786377
7.279977798461914,-0.3396950364112854,0.696137011051178,-0.057860031723976135,0.10907292512858688,-1.4345417302777261,1.7806166461704562,-0.9848443865776062,-0.10885678231716156,-0.135026216506958,-1.1364364624023438,-0.11825896799564362,-2.9229137897491455
7.299975872039795,-0.27642160654067993,0.7004696726799011,-0.03264413774013519,0.15910209434738135,-1.4330584479103838,1.7516271695545669,-0.9780187606811523,-0.15843170881271362,-0.13556863367557526,-1.0832736492156982,-0.10742522776126862,-2.3779284954071045
7.31999397277832,-0.18238675594329834,0.7118791341781616,-0.053324684500694275,0.1982988408377726,-1.4295793563625092,1.7240576988439489,-0.9706437587738037,-0.19700179994106293,-0.1379898637533188,-1.0619784593582153,-0.024306373670697212,-1.8905085325241089
7.339976787567139,-0.05213963985443115,0.7841509580612183,-0.09352976083755493,0.22905018448257772,-1.424113153388045,1.6975267873000301,-0.9634244441986084,-0.22705261409282684,-0.14234048128128052,-1.0613656044006348,-0.009641322307288647,-1.5401517152786255
7.359977722167969,0.07069897651672363,0.8255846500396729,-0.1434057354927063,0.2543907822836968,-1.4184620954640956,1.6722090655190027,-0.9566091299057007,-0.25165584683418274,-0.14686208963394165,-0.951829731464386,-0.022401059046387672,-1.3434263467788696
7.379978895187378,0.09168213605880737,0.895609974861145,-0.16770674288272858,0.27751543916386234,-1.4134061829163445,1.6520318319225469,-0.949851930141449,-0.2739669978618622,-0.15074411034584045,-0.594875693321228,-7.196329534053802e-05,-1.2267570495605469
7.400015830993652,0.054791927337646484,0.968510627746582,-0.17080789804458618,0.29931492894697764,-1.409549574705687,1.640771664930731,-0.9431434869766235,-0.2948656678199768,-0.15341071784496307,-0.1144493967294693,0.05373330041766167,-1.0947589874267578
7.420061826705933,0.009285449981689453,1.0552879571914673,-0.17963337898254395,0.31916296678392486,-1.4081952806747844,1.6397588260044798,-0.9369741678237915,-0.31377190351486206,-0.1537100225687027,0.3104291558265686,0.04283662140369415,-0.8618227243423462
7.4399847984313965,-0.034416794776916504,1.1274254322052002,-0.16945575177669525,0.33363888002438663,-1.4092058395170757,1.6461047291983695,-0.9325479865074158,-0.3274834156036377,-0.1520163118839264,0.47930052876472473,0.06775110960006714,-0.44230398535728455
7.459974765777588,-0.05681055784225464,1.1764849424362183,-0.1344982236623764,0.3383124541273634,-1.411643721228775,1.6559836155407017,-0.9313943982124329,-0.3318956792354584,-0.14949822425842285,0.5058077573776245,-0.024413611739873886,0.16433635354042053
7.479975700378418,-0.10547852516174316,1.1834285259246826,-0.15715377032756805,0.32926932874663023,-1.4175288789103273,1.6688000898561237,-0.9351861476898193,-0.3233516812324524,-0.1444665938615799,0.5822415351867676,-0.11111778765916824,0.9267140030860901
7.499974727630615,-0.33544182777404785,1.14566969871521,-0.16046924889087677,0.30502554782018865,-1.4239992824286138,1.6872292777281341,-0.9435806274414062,-0.30031755566596985,-0.13951846957206726,0.7933964133262634,0.08329758048057556,1.7368478775024414
7.519976854324341,-0.4461944103240967,1.0254392623901367,-0.10501915216445923,0.2657068729025799,-1.4265264740755803,1.7110806043556108,-0.9548829793930054,-0.2625913918018341,-0.13872462511062622,0.8745296597480774,0.2957247197628021,2.4782979488372803
7.5399768352508545,-0.23525166511535645,0.8668757677078247,-0.0673297643661499,0.21265214252486736,-1.4261226305650325,1.7365312395031,-0.9672631025314331,-0.2110530436038971,-0.14092209935188293,0.809321403503418,0.3458161950111389,3.1117782592773438
7.560020923614502,-0.03874003887176514,0.6798607110977173,-0.07986950874328613,0.1486231801261132,-1.4246018238022407,1.7634886530080087,-0.9784262180328369,-0.1480766385793686,-0.1440683752298355,0.9360736012458801,0.25963568687438965,3.6042802333831787
7.579977989196777,0.002787292003631592,0.5899867415428162,-0.10958105325698853,0.07689416061322364,-1.423800651860824,1.7965400814414154,-0.9862926602363586,-0.07681840658187866,-0.1460341066122055,1.308409571647644,0.21692657470703125,3.9584672451019287
7.599997043609619,-0.21162736415863037,0.4907432794570923,-0.10105735063552856,0.0008140661351033158,-1.4201554836235464,1.8396263469011245,-0.9886749386787415,-0.0008140660356730223,-0.15007172524929047,1.854897141456604,0.3160448968410492,4.196710109710693
7.619976997375488,-0.44145917892456055,0.39663711190223694,-0.06368136405944824,-0.07664349378223183,-1.4100809860541716,1.8948186612061633,-0.9842153787612915,0.07656847685575485,-0.1595546156167984,2.387895107269287,0.47439655661582947,4.296398639678955
7.639983892440796,-0.6375730633735657,0.2911297082901001,0.018636226654052734,-0.1522063652250634,-1.3907320543010377,1.9602179283807193,-0.9724582433700562,0.15161935985088348,-0.17702233791351318,2.718716621398926,0.7048953175544739,4.232324123382568
7.659945011138916,-0.7825527787208557,0.1693039983510971,0.12676900625228882,-0.22368528251024933,-1.3602898325273782,2.031857468994931,-0.9535618424415588,0.22182458639144897,-0.20374947786331177,2.7854607105255127,0.9243048429489136,4.056155204772949
7.679975986480713,-0.8244527578353882,0.04292669892311096,0.20070922374725342,-0.28854479496144,-1.3212545891486798,2.104732989407142,-0.9289653301239014,0.2845574915409088,-0.23675037920475006,2.5982635021209717,1.1280606985092163,3.856477975845337
7.700016975402832,-0.7850019931793213,-0.07966801524162292,0.271747350692749,-0.34785628057918266,-1.2748373613055177,2.175267863586403,-0.8992327451705933,0.3408832550048828,-0.27418869733810425,2.2502753734588623,1.2740213871002197,3.6799533367156982
7.7199788093566895,-0.642052948474884,-0.15856799483299255,0.32701006531715393,-0.40363083296836527,-1.225462234318394,2.2403693047212316,-0.8653478026390076,0.3927599787712097,-0.31130871176719666,1.73160982131958,1.276360273361206,3.5397913455963135
7.739977836608887,-0.5501931309700012,-0.22760918736457825,0.35589420795440674,-0.4579578425827555,-1.176373228208978,2.298055140233362,-0.8280876278877258,0.442117303609848,-0.3446789085865021,1.2273569107055664,1.2218378782272339,3.4414565563201904
7.759975910186768,-0.5368354320526123,-0.2804972529411316,0.33756306767463684,-0.511197761842052,-1.1274530886667544,2.351466874446903,-0.7878410816192627,0.4892222285270691,-0.3741230368614197,0.9648597836494446,1.2199676036834717,3.35494065284729
7.780025005340576,-0.5809431076049805,-0.31949084997177124,0.35296398401260376,-0.5620785172820452,-1.0750830591135176,2.405092469531276,-0.7442980408668518,0.5329461097717285,-0.4024786949157715,0.8659653663635254,1.2708022594451904,3.2788472175598145
7.799975872039795,-0.5385140776634216,-0.3672792911529541,0.40335631370544434,-0.6097501507131552,-1.0185340751835097,2.4611627077448976,-0.6979209184646606,0.5726626515388489,-0.4300743639469147,0.8041739463806152,1.2868952751159668,3.194298267364502
7.819983005523682,-0.48157787322998047,-0.427983820438385,0.4602716863155365,-0.6536055493226202,-0.9583849814696831,2.5201151601255716,-0.6496172547340393,0.6080527901649475,-0.45636531710624695,0.7619704604148865,1.2391183376312256,3.0941243171691895
7.839976787567139,-0.42863285541534424,-0.4555925130844116,0.4896632730960846,-0.6929636662406072,-0.8965095896114973,2.581594945634152,-0.6009844541549683,0.6388201117515564,-0.48034006357192993,0.7324466705322266,1.11512291431427,2.941361427307129
7.859987735748291,-0.4017125964164734,-0.49965935945510864,0.5047975778579712,-0.7263551895368938,-0.8344149050757838,2.6448925513723793,-0.5538996458053589,0.6641491651535034,-0.5020966529846191,0.7802358865737915,0.9656288623809814,2.7187554836273193
7.879974842071533,-0.3706015348434448,-0.5457803606987,0.503558874130249,-0.7519911348942461,-0.7733579326951683,2.7092976469076557,-0.510166347026825,0.683094322681427,-0.5226017236709595,0.8746869564056396,0.8071554899215698,2.4324147701263428
7.9000208377838135,-0.32813140749931335,-0.5916565656661987,0.5081411600112915,-0.7691265918193858,-0.7155155639702139,2.7723132806864856,-0.4713529050350189,0.6955079436302185,-0.5423055291175842,0.9687937498092651,0.6378806233406067,2.0861387252807617
7.919975757598877,-0.29396048188209534,-0.6070430278778076,0.5190976858139038,-0.7767439548881666,-0.663546402253987,2.830817669770068,-0.43927013874053955,0.7009609341621399,-0.5618679523468018,1.102169394493103,0.4750926196575165,1.6283936500549316
7.939975738525391,-0.2683880925178528,-0.6095892190933228,0.5496570467948914,-0.7759711624850264,-0.6214867319422753,2.879886045651022,-0.415571928024292,0.7004095911979675,-0.5802813768386841,1.0343108177185059,0.2920220196247101,1.1123416423797607
7.959975719451904,-0.2602597177028656,-0.6440233588218689,0.5822798013687134,-0.7702933726076268,-0.5941722462647565,2.913648357963239,-0.4017886519432068,0.6963458061218262,-0.5947003364562988,0.8283401131629944,0.07078081369400024,0.5379313826560974
7.9800028800964355,-0.24506375193595886,-0.655387282371521,0.5732157826423645,-0.7615233544129314,-0.5845819406698579,2.929556572332005,-0.399421751499176,0.6900248527526855,-0.6035959720611572,0.5142256021499634,-0.22797845304012299,-0.08573038876056671
7.999974727630615,-0.2703389525413513,-0.662333607673645,0.5571938753128052,-0.7519165898547515,-0.5972370503296679,2.9231836925217034,-0.41073715686798096,0.6830398440361023,-0.6039467453956604,0.02443193830549717,-0.6028997302055359,-0.8745838403701782
8.019974708557129,-0.43626296520233154,-0.6492941379547119,0.5822660326957703,-0.7398349073130103,-0.6353121344101169,2.890445739219485,-0.43829455971717834,0.6741659641265869,-0.5944730043411255,-0.42251744866371155,-0.9903548359870911,-1.787358283996582
8.039974927902222,-0.5144253969192505,-0.5963728427886963,0.5853663682937622,-0.7233632173052389,-0.6969325056759976,2.8334081895515535,-0.4811343252658844,0.6619094014167786,-0.5747919678688049,-0.8884087204933167,-1.3274017572402954,-2.5528602600097656
8.059975862503052,-0.5160191655158997,-0.5741925239562988,0.4540966749191284,-0.7004158215795945,-0.771998475959786,2.7597206209436167,-0.5333430767059326,0.6445356607437134,-0.5478313565254211,-1.100488305091858,-1.2980737686157227,-3.1082093715667725
8.07997179031372,-0.521195650100708,-0.44397425651550293,0.2097797393798828,-0.6680423979775968,-0.844157759772325,2.681463549173323,-0.5867450833320618,0.6194503903388977,-0.521547257900238,-1.03716242313385,-0.9795792102813721,-3.3923559188842773
8.099975824356079,-0.3674113154411316,-0.298675537109375,0.0665212869644165,-0.6293356891028831,-0.907727810489753,2.6058692016495457,-0.6371206641197205,0.5886078476905823,-0.49761253595352173,-1.2195402383804321,-0.8712503910064697,-3.420417547225952
8.119974851608276,-0.2100040316581726,-0.23823416233062744,0.11176759004592896,-0.5938105077060316,-0.9720450180259134,2.5254729754028626,-0.6846340894699097,0.5595232844352722,-0.4671294391155243,-2.0887744426727295,-0.9516712427139282,-3.329482316970825
8.139973878860474,-0.23400139808654785,-0.25973349809646606,0.15812379121780396,-0.565919658617631,-1.0432382990272304,2.431814989318434,-0.7293318510055542,0.5361922979354858,-0.4249389171600342,-3.00696063041687,-1.0471587181091309,-3.228503704071045
8.159973859786987,-0.32689183950424194,-0.21091711521148682,0.1148882806301117,-0.5393996318650869,-1.1193984338678726,2.3286010333626668,-0.7720767259597778,0.5136209726333618,-0.37428757548332214,-3.4259088039398193,-1.1382379531860352,-3.289271354675293
8.180012702941895,-0.46082258224487305,-0.1294497847557068,0.02024659514427185,-0.5044738512867643,-1.1937716720984934,2.2258266126956374,-0.8139424920082092,0.4833469092845917,-0.3222942054271698,-3.2523701190948486,-1.1440095901489258,-3.5437262058258057
8.200020790100098,-0.5643513202667236,-0.047312408685684204,-0.09912967681884766,-0.45384637618366336,-1.2576218443044038,2.135565949034408,-0.8550518751144409,0.43842577934265137,-0.2768925428390503,-2.538180112838745,-1.0645387172698975,-3.9505350589752197
8.220038890838623,-0.5317429900169373,0.06660237908363342,-0.15449094772338867,-0.387001287001634,-1.3074318054794074,2.064665381703453,-0.8941146731376648,0.37741318345069885,-0.24107782542705536,-1.8295419216156006,-1.0169506072998047,-4.301428318023682
8.239982843399048,-0.438237726688385,0.16730865836143494,-0.12448132038116455,-0.3095985151933864,-1.3463608408905086,2.0082096715242037,-0.928568422794342,0.30467626452445984,-0.2119748592376709,-1.5372589826583862,-0.9244585037231445,-4.479493618011475
8.259934902191162,-0.3848126530647278,0.2429952621459961,-0.0867309719324112,-0.22843834750463343,-1.3772779062195117,1.9572171875678823,-0.9558400511741638,0.22645671665668488,-0.18731680512428284,-1.6434961557388306,-0.8267723917961121,-4.468894004821777
8.28003978729248,-0.3446934223175049,0.3470804691314697,-0.07311485707759857,-0.14855198165089922,-1.4023785283794663,1.9060837004066025,-0.9749935269355774,0.14800621569156647,-0.16577662527561188,-1.8697123527526855,-0.7146009206771851,-4.2826619148254395
