timestamp,acceleration_x,acceleration_y,acceleration_z,attitude_pitch,attitude_roll,attitude_yaw,gravity_x,gravity_y,gravity_z,rotation_x,rotation_y,rotation_z
0.0,0.1615811586380005,0.727307140827179,-0.12575054168701172,-0.020954899848896667,-1.5035188348307142,-1.9312935628866434,-0.9975186586380005,0.02095336653292179,-0.06721199303865433,-1.3372448682785034,0.1240687146782875,-1.291117548942566
0.01999688148498535,0.16289573907852173,0.7825181484222412,-0.13355684280395508,0.002290505959612717,-1.5012789836032965,-1.9577053122572696,-0.9975821375846863,-0.002290504053235054,-0.06946118921041489,-1.1845899820327759,0.06023097038269043,-1.2203840017318726
0.03918790817260742,0.13375073671340942,0.7983002066612244,-0.13114500045776367,0.023048938307849393,-1.498933934860322,-1.9821927368370307,-0.9971542954444885,-0.02304689772427082,-0.07178150117397308,-1.1456924676895142,0.10868381708860397,-1.0484763383865356
0.06011486053466797,0.12569659948349,0.8512383103370667,-0.1393076777458191,0.039618459191277225,-1.4952207684588812,-2.0067970414966747,-0.9963632822036743,-0.03960809484124184,-0.07544440031051636,-1.1563929319381714,0.12529821693897247,-0.7898836135864258
0.08009481430053711,0.18736082315444946,0.8885541558265686,-0.1341962218284607,0.04877550052840098,-1.4914055849271153,-2.0284594279357666,-0.9956647753715515,-0.04875616356730461,-0.07921306043863297,-0.8985918760299683,0.1591176837682724,-0.28532540798187256
0.10000085830688477,0.23977947235107422,0.9384353756904602,-0.17918461561203003,0.04817997200690255,-1.4879035023034926,-2.042322817945465,-0.9954100847244263,-0.0481613352894783,-0.08270186185836792,-0.48251819610595703,0.0374114066362381,0.20371758937835693
0.12000393867492676,0.2805970311164856,0.9229766726493835,-0.24204933643341064,0.03875483379108095,-1.4898206346194904,-2.0465592514124182,-0.9959749579429626,-0.03874513506889343,-0.08082649856805801,-0.02012776769697666,-0.24835030734539032,0.6994667053222656
0.14023494720458984,0.30885106325149536,0.8323451280593872,-0.25111520290374756,0.020166939364275622,-1.496694576196916,-2.0425327145262067,-0.9970532059669495,-0.020165571942925453,-0.0740189179778099,0.22482143342494965,-0.4040631055831909,1.1670517921447754
0.15964984893798828,0.30694955587387085,0.6977306008338928,-0.2296786904335022,-0.006630418636768412,-1.5044197532319006,-2.0362642942707136,-0.9977760910987854,0.006630369927734137,-0.06632639467716217,0.1987832486629486,-0.3688683807849884,1.536205768585205
0.18001985549926758,0.30768775939941406,0.6072465777397156,-0.19243216514587402,-0.04019463908191352,-1.5106413138535955,-2.0312888111248792,-0.9973851442337036,0.040183816105127335,-0.06007019057869911,0.10193958133459091,-0.2520614266395569,1.830792784690857
0.20012378692626953,0.2946785092353821,0.5758658647537231,-0.20023292303085327,-0.07832801053624003,-1.5157363858049437,-2.025656957580813,-0.9954232573509216,0.07824794203042984,-0.054863397032022476,0.2964226305484772,-0.3887399137020111,1.9875030517578125
0.22035503387451172,0.17705005407333374,0.5880712866783142,-0.22503942251205444,-0.11792082894416714,-1.526193820919994,-2.0128661488574457,-0.9920678734779358,0.11764772981405258,-0.04427807778120041,0.8678727149963379,-0.7929563522338867,2.0037410259246826
0.23911285400390625,-0.13657784461975098,0.6561447381973267,-0.32439661026000977,-0.15426561749522885,-1.5401027444845186,-1.9836903539821211,-0.9876593351364136,0.15365448594093323,-0.03032432682812214,1.9434067010879517,-0.9519296884536743,1.689864993095398
0.2599329948425293,-0.3626824617385864,0.7110580205917358,-0.243452787399292,-0.18257859401874046,-1.548883941205945,-1.9324421431151608,-0.9831429719924927,0.18156591057777405,-0.021546456962823868,2.976963520050049,-0.7602618932723999,1.3083782196044922
0.2799499034881592,-0.3750566840171814,0.6027710437774658,-0.050952017307281494,-0.20632213028978771,-1.5486294799557794,-1.8656123471913666,-0.9785505533218384,0.20486143231391907,-0.021694933995604515,3.4692471027374268,-0.5349761247634888,1.2660669088363647
0.29997992515563965,-0.4574722647666931,0.5051140785217285,0.061379969120025635,-0.23163188340874216,-1.5413562044660978,-1.7935024663747245,-0.9728714823722839,0.22956612706184387,-0.02864973247051239,3.450310230255127,-0.309390664100647,1.438442349433899
0.319976806640625,-0.6059452891349792,0.4434927701950073,0.11343282461166382,-0.2593562460993671,-1.526406298289916,-1.7230823722370308,-0.9656031727790833,0.2564583718776703,-0.042891327291727066,3.2497572898864746,0.05086055025458336,1.5336363315582275
0.3400230407714844,-0.5585172176361084,0.31330105662345886,0.18764841556549072,-0.2888908889897012,-1.5044518494963333,-1.6587195211819348,-0.9564517140388489,0.28488925099372864,-0.06354855000972748,2.7595694065093994,0.3198952078819275,1.7841259241104126
0.35997796058654785,-0.4073870778083801,0.18428555130958557,0.2528749704360962,-0.32574790144942106,-1.479941061162347,-1.6047146569193933,-0.9435040354728699,0.3200174570083618,-0.08595895767211914,2.098632335662842,0.4757978916168213,2.281586170196533
0.3800010681152344,-0.3122820258140564,0.11347657442092896,0.2696305513381958,-0.37077540551736454,-1.4536952914052022,-1.5606582457003586,-0.9256635308265686,0.36233824491500854,-0.10889436304569244,1.5995144844055176,0.6454997658729553,2.612114906311035
0.40000200271606445,-0.19250738620758057,0.07028421759605408,0.26796555519104004,-0.4216861806654545,-1.4253661496988728,-1.5215643533807675,-0.9027685523033142,0.40929949283599854,-0.13222327828407288,1.3640087842941284,0.6527944803237915,2.9132583141326904
0.4199790954589844,-0.10194164514541626,-0.001433730125427246,0.28318876028060913,-0.4774351002486343,-1.3959595596424763,-1.4816583527409641,-0.874636173248291,0.45950260758399963,-0.1544959843158722,1.3005962371826172,0.5237054824829102,3.160933256149292
0.43997788429260254,-0.0864633321762085,-0.09042316675186157,0.3042287826538086,-0.5359232950242875,-1.365771130496704,-1.437755011436009,-0.8417900204658508,0.5106350779533386,-0.17504779994487762,1.3889110088348389,0.37630486488342285,3.2892634868621826
0.4599769115447998,-0.13990837335586548,-0.1575513482093811,0.3161719739437103,-0.5930627821905229,-1.3318042721737762,-1.3867853200851454,-0.8056637644767761,0.5589033961296082,-0.19629889726638794,1.5745680332183838,0.2828753888607025,3.2019591331481934
0.47997593879699707,-0.20362114906311035,-0.21493059396743774,0.33345508575439453,-0.6437890881724221,-1.2925538963935241,-1.327977198434931,-0.7690656781196594,0.60023033618927,-0.21968545019626617,1.7616506814956665,0.2329384833574295,2.9171903133392334
0.49997901916503906,-0.23981380462646484,-0.2845068573951721,0.35791096091270447,-0.6848932918865209,-1.2474596965803866,-1.2629832135549004,-0.7343530654907227,0.6325903534889221,-0.2460792064666748,1.8887720108032227,0.26086223125457764,2.5138306617736816
0.5199780464172363,-0.23221546411514282,-0.3475497364997864,0.3900269865989685,-0.7145248335683003,-1.1988762213057471,-1.1964237757150034,-0.7037587761878967,0.6552585363388062,-0.27451783418655396,1.8774396181106567,0.3088855445384979,2.006469488143921
0.5390768051147461,-0.1933354139328003,-0.3791775703430176,0.4050856828689575,-0.7328051642978666,-1.1503586177845286,-1.1333929319674083,-0.6785671710968018,0.6689573526382446,-0.30338579416275024,1.7657829523086548,0.35353103280067444,1.5185208320617676
0.5599958896636963,-0.1480621099472046,-0.3914698362350464,0.4099351465702057,-0.74188696296802,-1.1064693119994737,-1.077414858328859,-0.6591432690620422,0.6756801605224609,-0.3301315903663635,1.607740879058838,0.2335888147354126,1.0813044309616089
0.5800700187683105,-0.14836549758911133,-0.4148925542831421,0.41669130325317383,-0.7437519695645896,-1.070311693170812,-1.0289823602784067,-0.6456714868545532,0.6770538687705994,-0.35313835740089417,1.4622775316238403,0.14738672971725464,0.7489272356033325
0.5999870300292969,-0.16178250312805176,-0.4502738118171692,0.46732568740844727,-0.7414890719656008,-1.0397166002171145,-0.989982640244345,-0.6358860731124878,0.6753867864608765,-0.37349933385849,1.090293526649475,0.2743383049964905,0.4749317765235901
0.6199789047241211,-0.1568954586982727,-0.48615723848342896,0.49084019660949707,-0.7390225279014823,-1.0156784450747245,-0.9653082564884147,-0.6281387805938721,0.6735657453536987,-0.3895522654056549,0.5577835440635681,0.37749096751213074,0.23022659122943878
0.640017032623291,-0.14455777406692505,-0.47490090131759644,0.4721428155899048,-0.7378321578095994,-1.0018608050780584,-0.9557996866727052,-0.6233714818954468,0.672685444355011,-0.3986259698867798,0.11888652294874191,0.3171047568321228,0.04359232634305954
0.6599898338317871,-0.1508895754814148,-0.43491488695144653,0.451109915971756,-0.7376356745452561,-0.9974267899163147,-0.956365879184346,-0.6217086911201477,0.6725400686264038,-0.40145766735076904,-0.1194227933883667,0.15207868814468384,-0.10091134905815125
0.6800808906555176,-0.19589030742645264,-0.40317755937576294,0.4343545734882355,-0.7355358938967999,-1.0012001361326455,-0.9640889408479498,-0.6244069933891296,0.6709846258163452,-0.3998695909976959,-0.2451169490814209,-0.009726276621222496,-0.40579548478126526
0.7000689506530762,-0.254349946975708,-0.37700653076171875,0.42448246479034424,-0.7289876418385014,-1.0124976562293226,-0.9789707608845715,-0.6325977444648743,0.6661149263381958,-0.3951091468334198,-0.3456047773361206,-0.10976535081863403,-0.7335079908370972
0.7200438976287842,-0.28847843408584595,-0.3542102575302124,0.41478580236434937,-0.7181969905671926,-1.0289827804623295,-1.0006981946599653,-0.6451458930969238,0.6580280661582947,-0.3883116841316223,-0.4817452132701874,-0.0953579992055893,-1.039154052734375
0.7399768829345703,-0.2829412817955017,-0.3285081386566162,0.3840150535106659,-0.7033095641831766,-1.0506949162544126,-1.0284227772187688,-0.6618524193763733,0.6467454433441162,-0.37904056906700134,-0.5638099908828735,-0.36893191933631897,-1.313301682472229
0.7599759101867676,-0.3960263729095459,-0.24244260787963867,0.36053702235221863,-0.6830088498676947,-1.0842270613516782,-1.059910609427837,-0.6856539845466614,0.631129801273346,-0.36270368099212646,-0.5751178860664368,-0.9342021942138672,-1.6878538131713867
0.7800629138946533,-0.675230085849762,-0.14402848482131958,0.41637712717056274,-0.6531579762805497,-1.1246935096509703,-1.096306002634193,-0.7164478302001953,0.6076974272727966,-0.3426465690135956,-0.6967450380325317,-0.6736614108085632,-2.2714481353759766
0.8000187873840332,-0.6314427256584167,-0.17849576473236084,0.4671661853790283,-0.6173998124968431,-1.1574956939993855,-1.1436309410447052,-0.7467312216758728,0.5789169669151306,-0.32748717069625854,-1.387575387954712,0.1491362452507019,-2.488351821899414
0.8200078010559082,-0.16976559162139893,-0.20981323719024658,0.37844353914260864,-0.5874615497542918,-1.1887551261963185,-1.2074292706068492,-0.7723426222801208,0.5542499423027039,-0.31031298637390137,-2.260786294937134,0.162465900182724,-2.2996151447296143
0.8399810791015625,0.04446148872375488,-0.07321077585220337,0.14871886372566223,-0.5630307271864441,-1.232717441195025,-1.2788715285919345,-0.7977726459503174,0.5337515473365784,-0.2804783880710602,-2.318394660949707,-0.7474423050880432,-2.121145486831665
0.8599858283996582,0.009477615356445312,0.0711064338684082,-0.03860875964164734,-0.5360828022517504,-1.285451256930423,-1.3360102366689228,-0.8249530792236328,0.5107722282409668,-0.2420002520084381,-1.431670069694519,-1.4231882095336914,-1.9621762037277222
0.8801040649414062,-0.12854892015457153,0.0993446409702301,-0.049475669860839844,-0.5035978558724161,-1.3318819756278326,-1.3703719401242596,-0.850973904132843,0.4825798571109772,-0.2072686105966568,-0.7043090462684631,-1.4251433610916138,-1.9903150796890259
0.9000558853149414,-0.15750408172607422,0.08374816179275513,0.00975733995437622,-0.4671119591230354,-1.3688211096089347,-1.3936861224371464,-0.8747225403785706,0.45030951499938965,-0.17911452054977417,-0.5819458961486816,-1.1817024946212769,-2.006784677505493
0.9196610450744629,-0.12288647890090942,0.10497099161148071,0.02044035494327545,-0.4311011270162715,-1.399799738136507,-1.4147220058814258,-0.8952563405036926,0.4178714454174042,-0.1545955091714859,-0.6279477477073669,-1.0142219066619873,-1.8836749792099
0.939943790435791,-0.12116456031799316,0.11209097504615784,0.002247527241706848,-0.39702130446773753,-1.4277792635988935,-1.4377885700524713,-0.9128015041351318,0.38667306303977966,-0.131443589925766,-0.974031388759613,-0.8726605176925659,-1.8458335399627686
0.9599759578704834,-0.11423009634017944,0.13819941878318787,-0.02031099796295166,-0.36473760838571456,-1.4545707069578042,-1.4706949422484112,-0.9279147982597351,0.3567041754722595,-0.10833572596311569,-1.662928819656372,-0.6214695572853088,-1.780491590499878
0.9800229072570801,-0.06836062669754028,0.18026572465896606,-0.0650634840130806,-0.3334799398066007,-1.4800794358599465,-1.5169084484777982,-0.9410237669944763,0.3273332417011261,-0.08560170233249664,-2.2615466117858887,-0.38170817494392395,-1.7595692873001099
0.9999768733978271,-0.025166988372802734,0.33699581027030945,-0.15410083532333374,-0.30202005913852836,-1.5022295899643474,-1.565139087065819,-0.9524944424629211,0.2974494397640228,-0.06541197746992111,-1.986868977546692,-0.3553624153137207,-1.7805886268615723
1.0200378894805908,0.05627709627151489,0.44738391041755676,-0.2203698754310608,-0.2689352967952048,-1.521713351817121,-1.603595882282937,-0.962893545627594,0.2657051682472229,-0.047299668192863464,-1.380556583404541,-0.5854132771492004,-1.764210820198059
1.0400638580322266,0.11859244108200073,0.5151415467262268,-0.2251996397972107,-0.23384045501337597,-1.542082715373438,-1.623215814366712,-0.9723828434944153,0.2317151576280594,-0.027928298339247704,-0.4171876609325409,-0.8864565491676331,-1.7846806049346924
1.0599761009216309,0.13629066944122314,0.5177539587020874,-0.23518115282058716,-0.2007860814890986,-1.5620736003418534,-1.625912120544824,-0.9798730611801147,0.19943967461585999,-0.00854738149791956,0.17045331001281738,-1.028340220451355,-1.529042363166809
1.0800118446350098,0.11301988363265991,0.511981189250946,-0.2539825439453125,-0.1722649854375158,-1.5806469753252155,-1.6190542573238056,-0.985151469707489,0.17141424119472504,0.009704695083200932,0.400244802236557,-0.8961072564125061,-1.3307130336761475
1.1000337600708008,0.1258341670036316,0.5024412870407104,-0.265392541885376,-0.1484482106181181,-1.5947245970198278,-1.611701446914368,-0.9887187480926514,0.14790359139442444,0.02366284467279911,0.24908646941184998,-0.6516373157501221,-1.052957534790039
1.1199851036071777,0.1667623519897461,0.4719088673591614,-0.2877551317214966,-0.13118926062258812,-1.604960741485592,-1.6098698386920152,-0.9908285737037659,0.13081327080726624,0.033864255994558334,-0.12350112199783325,-0.39959433674812317,-0.6785579919815063
1.1399879455566406,0.19911587238311768,0.47690925002098083,-0.32444989681243896,-0.12145738971200123,-1.6111458595248862,-1.6149351948856328,-0.9918252825737,0.12115898728370667,0.040041420608758926,-0.37650543451309204,-0.16830499470233917,-0.2883889675140381
1.1599760055541992,0.2360655665397644,0.48521333932876587,-0.32772207260131836,-0.11921004716748772,-1.6134182212599333,-1.6235231262136414,-0.9920012950897217,0.11892789602279663,0.04230659827589989,-0.4876183867454529,0.015910642221570015,0.08675706386566162
1.180001974105835,0.2527783513069153,0.47123196721076965,-0.33291900157928467,-0.12348778334729797,-1.6140650066042226,-1.6343052933140794,-0.9914564490318298,0.12317417562007904,0.04292580485343933,-0.5396382808685303,0.019583584740757942,0.3683509826660156
1.2000617980957031,0.2151275873184204,0.48075565695762634,-0.329983115196228,-0.13245481072597656,-1.6153106898083105,-1.6435823134808742,-0.9902589321136475,0.13206784427165985,0.04410988464951515,-0.30605629086494446,-0.032154977321624756,0.5653563737869263
1.2200069427490234,0.1250070333480835,0.5096009969711304,-0.34093236923217773,-0.1448509481082378,-1.6170019221686,-1.6461078646640714,-0.988471508026123,0.14434494078159332,0.04570544511079788,0.12576650083065033,-0.10362295061349869,0.6644001007080078
1.2401189804077148,0.019626975059509277,0.49714115262031555,-0.322529673576355,-0.15856705026461568,-1.6178254479555878,-1.6400109001272458,-0.9863627552986145,0.15790340304374695,0.04642200469970703,0.5105944275856018,-0.05090833455324173,0.6802890300750732
1.259976863861084,-0.048204898834228516,0.4495209753513336,-0.2714580297470093,-0.1731539291182288,-1.6153814001611353,-1.6285619460016747,-0.9840676188468933,0.17228996753692627,0.04390382394194603,0.6437292695045471,0.11040093004703522,0.7374658584594727
1.2801108360290527,-0.06410330533981323,0.38382890820503235,-0.1654571294784546,-0.1896167596470579,-1.6099977444794606,-1.6170959415998283,-0.9813223481178284,0.18848253786563873,0.03848894312977791,0.5234134197235107,0.16213789582252502,0.8738255500793457
1.3001198768615723,-0.19520407915115356,0.38632380962371826,-0.15698635578155518,-0.20864686135295618,-1.6063693037623679,-1.6084344820303946,-0.9776933789253235,0.20713630318641663,0.03479414060711861,0.45604532957077026,0.055464621633291245,0.960185706615448
1.3199868202209473,-0.41911280155181885,0.46641308069229126,-0.2035154104232788,-0.22721793239799984,-1.6006762680917104,-1.596051043343713,-0.9738621711730957,0.22526784241199493,0.029107607901096344,0.8823809027671814,0.2607954740524292,0.8319326043128967
1.340013027191162,-0.4296056032180786,0.4880054295063019,-0.13031482696533203,-0.2438190956858214,-1.586934719491098,-1.572412202283326,-0.9702969193458557,0.2414105236530304,0.015660392120480537,1.4240689277648926,0.5183145403862,0.7855450510978699
1.3599839210510254,-0.2649833559989929,0.39473721385002136,0.030638575553894043,-0.26206069835109447,-1.5671008107852424,-1.5404532078455098,-0.9658518433570862,0.2590714395046234,-0.0035693373065441847,1.6035586595535278,0.534859299659729,0.972648561000824
1.3800199031829834,-0.25164759159088135,0.28826311230659485,0.13376843929290771,-0.2836241976183891,-1.5477858166239256,-1.5070307706289292,-0.9597935676574707,0.27983689308166504,-0.022089237347245216,1.574647068977356,0.5303874015808105,1.1960538625717163
1.3999168872833252,-0.33325648307800293,0.22478950023651123,0.17687809467315674,-0.30777162243910755,-1.5252308824543324,-1.4737824090582203,-0.9520218372344971,0.30293571949005127,-0.04340934380888939,1.5424686670303345,0.7733033299446106,1.307838797569275
1.4199819564819336,-0.27792471647262573,0.1933111548423767,0.15830963850021362,-0.3323828697769505,-1.4966680532054657,-1.4379926458324241,-0.9426716566085815,0.3262963891029358,-0.07000689953565598,1.726755976676941,0.8987491726875305,1.3509795665740967
1.4400248527526855,-0.11401766538619995,0.186964213848114,0.12767177820205688,-0.3570908987219921,-1.4665866688360023,-1.3958177106761753,-0.9318351149559021,0.34955012798309326,-0.09745926409959793,2.039773464202881,0.618386447429657,1.4819389581680298
1.459934949874878,-0.006935238838195801,0.1467847228050232,0.16455352306365967,-0.38320073725416426,-1.4394748191137456,-1.3452431578363966,-0.9194869995117188,0.3738909661769867,-0.1214473620057106,2.3021187782287598,0.28385472297668457,1.6802910566329956
1.479928970336914,0.007990539073944092,0.04841837286949158,0.264975368976593,-0.41195734889297747,-1.41369935303314,-1.2903797046227692,-0.9050548672676086,0.4004036784172058,-0.14336270093917847,2.24387264251709,0.2549479007720947,1.8733853101730347
1.499979019165039,-0.01742035150527954,-0.06941473484039307,0.3375970125198364,-0.4425785416982632,-1.3836289830079151,-1.2377155789927559,-0.8878684639930725,0.42827099561691284,-0.16814808547496796,1.9327815771102905,0.5832920670509338,1.9682403802871704
1.51997709274292,0.010861575603485107,-0.18745115399360657,0.3602742850780487,-0.4751145214717575,-1.3485433124478743,-1.190909677351735,-0.8673681616783142,0.4574402868747711,-0.19601331651210785,1.5349067449569702,0.8088937997817993,2.091428756713867
1.5399889945983887,0.032945454120635986,-0.2626040577888489,0.35338786244392395,-0.5111689094697455,-1.313289890080541,-1.1497591226063109,-0.8434159755706787,0.4891970753669739,-0.2221163660287857,1.142479419708252,0.7368170022964478,2.2488625049591064
1.5601129531860352,-0.04240059852600098,-0.2702901363372803,0.3455575406551361,-0.5479591278764454,-1.2810007232043095,-1.1144018205792063,-0.8179967403411865,0.5209462642669678,-0.24391861259937286,0.8161972761154175,0.7334833145141602,2.0640811920166016
1.5800879001617432,-0.11370718479156494,-0.2731829285621643,0.35970133543014526,-0.5798363038699884,-1.249460764918339,-1.0847650341892245,-0.7937331199645996,0.5478870272636414,-0.2642117440700531,0.6289746761322021,0.8457525968551636,1.738607406616211
1.6000380516052246,-0.08887863159179688,-0.33473217487335205,0.4234299957752228,-0.6065706484800005,-1.2151439588085722,-1.0586074501537381,-0.7701911926269531,0.570053219795227,-0.28608545660972595,0.5256696343421936,1.1312367916107178,1.5229170322418213
1.6200470924377441,-0.03471016883850098,-0.40644437074661255,0.45587795972824097,-0.6304636899813496,-1.1789292025130842,-1.0369797570533086,-0.7465246319770813,0.5895193815231323,-0.3084932565689087,0.21560995280742645,1.1599644422531128,1.3430002927780151
1.6401338577270508,-0.05818265676498413,-0.3989996314048767,0.4400736391544342,-0.6526927815815388,-1.151542033216701,-1.024146425400031,-0.7256460785865784,0.6073278784751892,-0.32340481877326965,-0.0752066969871521,0.8318753838539124,1.0634855031967163
1.6601300239562988,-0.11371845006942749,-0.3751789927482605,0.4627908170223236,-0.6712815098877057,-1.1306499872573987,-1.0169462083990868,-0.7083946466445923,0.6219899654388428,-0.33362504839897156,-0.16226206719875336,0.8531070351600647,0.8326398730278015
1.6800589561462402,-0.10741943120956421,-0.41896194219589233,0.4729836583137512,-0.685595897968153,-1.1104658200789574,-1.0122880544408805,-0.6934687495231628,0.6331343650817871,-0.34386372566223145,-0.1377851665019989,0.8436967730522156,0.6262393593788147
1.700023889541626,-0.05922979116439819,-0.4142415523529053,0.4487009346485138,-0.6964598447239453,-1.0944562731957566,-1.0100763653830822,-0.6817218065261841,0.641506016254425,-0.35174646973609924,-0.1528203785419464,0.5124582648277283,0.40806517004966736
1.730315923690796,-0.1916501522064209,-0.3023785948753357,0.32940587401390076,-0.6964786818766711,-1.0892509467744524,-0.997001492610086,-0.6798708438873291,0.6415204405784607,-0.3552846312522888,0.6842101812362671,-0.4949873387813568,-0.21807825565338135
1.7396559715270996,-0.1916501522064209,-0.3023785948753357,0.32940587401390076,-0.6964786818766711,-1.0892509467744524,-0.997001492610086,-0.6798708438873291,0.6415204405784607,-0.3552846312522888,0.6842101812362671,-0.4949873387813568,-0.21807825565338135
1.759997844696045,-0.27900469303131104,-0.30027008056640625,0.3594954311847687,-0.681215871138644,-1.0917432890930125,-0.9823079881873693,-0.6893640160560608,0.6297379732131958,-0.3580610454082489,0.9790498614311218,-0.6550993323326111,-0.6053591370582581
1.7888050079345703,-0.3278850317001343,-0.2751874327659607,0.33054491877555847,-0.6338861878465163,-1.1093977948707427,-0.9683034288412667,-0.7214773297309875,0.5922804474830627,-0.3587126135826111,0.36323654651641846,-0.7912441492080688,-1.3324098587036133
1.8073089122772217,-0.3282366394996643,-0.23446714878082275,0.22878220677375793,-0.6057357472786344,-1.138894281012383,-0.9796235432319627,-0.7465925216674805,0.5693670511245728,-0.3441232442855835,0.06283488124608994,-1.513126254081726,-1.5851531028747559
1.8287739753723145,-0.5719180107116699,-0.11114978790283203,0.1771565079689026,-0.5733746264162929,-1.1825084447550358,-0.9974356803655999,-0.7775388956069946,0.5424700975418091,-0.3180561065673828,-0.10588505119085312,-1.7036927938461304,-2.0615599155426025
1.8495287895202637,-0.6547347903251648,-0.05576962232589722,0.14372903108596802,-0.5313674329897967,-1.2198759637831553,-1.0207354684460153,-0.8095749616622925,0.5067126750946045,-0.29636260867118835,-0.21694329380989075,-0.742678701877594,-2.465777635574341
1.8682670593261719,-0.15592676401138306,-0.04911166429519653,0.015285283327102661,-0.4893195364594762,-1.2421247987085207,-1.0451736502053746,-0.8354063034057617,0.4700253903865814,-0.2849079668521881,-0.37460970878601074,-0.528777539730072,-2.1804964542388916
1.887995958328247,0.09598696231842041,0.01906508207321167,-0.12117883563041687,-0.45350494952101966,-1.2697852115359822,-1.0658844946814963,-0.8584994077682495,0.4381188750267029,-0.26651638746261597,-0.22391952574253082,-1.3202515840530396,-1.8102552890777588
1.9083690643310547,-0.10491704940795898,0.11624577641487122,-0.24082070589065552,-0.42119902859450636,-1.3047001249812238,-1.0782748292321598,-0.8804804086685181,0.40885499119758606,-0.23998360335826874,0.08455238491296768,-1.4800983667373657,-1.6932799816131592
1.9280328750610352,-0.3326490521430969,0.16222256422042847,-0.2763587236404419,-0.38534481778753993,-1.3316976308628963,-1.0821885181712394,-0.9003069996833801,0.3758786916732788,-0.21946030855178833,0.419267863035202,-1.0453435182571411,-1.834010362625122
1.948112964630127,-0.1354076862335205,0.17911919951438904,-0.24067121744155884,-0.34995284598036114,-1.3501252193836122,-1.0810556718704414,-0.9166095852851868,0.34285351634025574,-0.20561771094799042,0.4689149260520935,-0.8976128697395325,-1.545996069908142
1.9676098823547363,-0.009167075157165527,0.16508981585502625,-0.25528985261917114,-0.32093638877887265,-1.3681521720027265,-1.0780815994751474,-0.929523229598999,0.31545528769493103,-0.1909838616847992,0.4211406111717224,-0.9683495163917542,-1.2688732147216797
1.9876799583435059,0.027160584926605225,0.15872067213058472,-0.289426326751709,-0.2959116532974035,-1.3843357497329671,-1.0742175138417325,-0.939956784248352,0.29161199927330017,-0.17732471227645874,0.47401562333106995,-0.6654965281486511,-1.1127257347106934
2.006464958190918,0.18770307302474976,0.16474640369415283,-0.32792073488235474,-0.2740818223125361,-1.392915526114981,-1.0667736544736424,-0.947484016418457,0.27066314220428467,-0.17033962905406952,0.6341623067855835,-0.41805970668792725,-0.9062579274177551
2.027482032775879,0.38595861196517944,0.1853889524936676,-0.2927336096763611,-0.25560235658103286,-1.3991625000641876,-1.0547986081644356,-0.9532957673072815,0.2528282403945923,-0.16524358093738556,0.8691849708557129,-0.5179921984672546,-0.7179604768753052
2.0475258827209473,0.4657362103462219,0.17153173685073853,-0.24616628885269165,-0.2398494905583595,-1.406673102886922,-1.0361463605995171,-0.9583205580711365,0.23755642771720886,-0.15871025621891022,1.1908693313598633,-0.6917092800140381,-0.5267070531845093
2.067552089691162,0.4366907477378845,0.15582366287708282,-0.18585895001888275,-0.22682310124414823,-1.4152061607181425,-1.0107533495837697,-0.9626155495643616,0.22488313913345337,-0.15099391341209412,1.4490960836410522,-0.7185717821121216,-0.39243942499160767
2.0876450538635254,0.38992518186569214,0.1276077777147293,-0.13570497930049896,-0.21514306784385176,-1.422049901723232,-0.9814261932122565,-0.9661581516265869,0.2134871929883957,-0.1447819471359253,1.5348891019821167,-0.5992493629455566,-0.33617356419563293
2.10719895362854,0.4043823480606079,0.1038239449262619,-0.08699546754360199,-0.20462312596945822,-1.4270127875560332,-0.9527963494458631,-0.9690338969230652,0.2031981647014618,-0.14029929041862488,1.3209248781204224,-0.46459853649139404,-0.30362600088119507
2.127397060394287,0.44821685552597046,0.08757482469081879,-0.05962593853473663,-0.1943781540341509,-1.4324378283249435,-0.9293872440226437,-0.9717919230461121,0.193156436085701,-0.1353202611207962,1.1798462867736816,-0.5629016757011414,-0.4055057764053345
2.147049903869629,0.4776344299316406,0.11491847038269043,-0.05458272993564606,-0.18283620712579993,-1.4395323078241706,-0.9045695850407585,-0.9748728275299072,0.18181923031806946,-0.12870578467845917,1.4492254257202148,-0.6324838399887085,-0.3738443851470947
2.166590929031372,0.4796433448791504,0.16213519871234894,-0.02369105815887451,-0.17205596907288512,-1.4469617822972667,-0.8725108837128125,-0.9776903390884399,0.17120832204818726,-0.12169453501701355,1.8051517009735107,-0.6652366518974304,-0.30029061436653137
2.1854898929595947,0.46556419134140015,0.1833091676235199,-0.018736958503723145,-0.16178658903899196,-1.4552950316359086,-0.8357519328663283,-0.9803653955459595,0.1610817164182663,-0.11373970657587051,1.9066190719604492,-0.7698982357978821,-0.30430927872657776
2.206976890563965,0.44731074571609497,0.1492571383714676,0.006416156888008118,-0.15143078852503872,-1.466348242858021,-0.7981134934953023,-0.98316890001297,0.15085269510746002,-0.10306517034769058,1.9039103984832764,-0.9036834836006165,-0.2933417558670044
2.2269558906555176,0.45623040199279785,0.10362313687801361,0.046941034495830536,-0.14334249403663624,-1.4786220340759395,-0.7610568650181504,-0.9855427742004395,0.14285211265087128,-0.09109985083341599,1.8143045902252197,-0.8861209750175476,-0.13817347586154938
2.2468149662017822,0.4338006377220154,0.09057779610157013,0.08884614706039429,-0.1395808176180403,-1.4910859868180686,-0.7252449409465632,-0.9871301651000977,0.13912801444530487,-0.07885155081748962,1.764231562614441,-0.8623625040054321,0.03635276108980179
2.2668659687042236,0.37985825538635254,0.1763318032026291,0.011877886950969696,-0.13679280085126674,-1.5033982906122285,-0.6864886941105824,-0.9884095191955566,0.1363665759563446,-0.06671791523694992,2.243601083755493,-0.9939885139465332,-0.06462281197309494
2.2858879566192627,0.3652135133743286,0.2224581390619278,0.006325490772724152,-0.13366769839882364,-1.518802702275867,-0.6340416948615498,-0.9897404909133911,0.1332700103521347,-0.05150661617517471,2.8680107593536377,-1.2595659494400024,0.08436231315135956
2.306704044342041,0.2880326509475708,0.11329850554466248,0.15511363744735718,-0.1327884061955016,-1.5386549225130497,-0.5747519457728267,-0.9906847476959229,0.13239851593971252,-0.03185296803712845,2.950320243835449,-1.4283931255340576,0.05325062572956085
2.3265328407287598,0.1599217653274536,0.07587021589279175,0.19007611274719238,-0.13264835832142055,-1.5564975768413412,-0.5183928766919188,-0.9911139011383057,0.13225969672203064,-0.014172655530273914,2.68263578414917,-1.0739545822143555,0.06258971244096756
2.348857879638672,0.09737288951873779,0.1438237726688385,0.1484655737876892,-0.13287303494826683,-1.5655493640947076,-0.4647652134424689,-0.9911718368530273,0.1324823945760727,-0.005200689192861319,2.6287946701049805,-0.5338798761367798,0.022378042340278625
2.365834951400757,0.17821365594863892,0.15588702261447906,0.11930763721466064,-0.13258703649405032,-1.5673029167205563,-0.4133121787392354,-0.9912172555923462,0.13219891488552094,-0.0034627425484359264,2.4730167388916016,-0.3572884202003479,-0.03605024889111519
2.3871428966522217,0.2339431643486023,0.11083975434303284,0.09793967008590698,-0.131866920509663,-1.5676167332288564,-0.3653085257052065,-0.9913132786750793,0.13148508965969086,-0.003151983954012394,2.3191146850585938,-0.3383493423461914,0.01820491813123226
2.4066059589385986,0.19944053888320923,0.17598752677440643,0.13172483444213867,-0.13395252388405837,-1.5673672691840275,-0.3207614686650896,-0.9910361170768738,0.13355229794979095,-0.0033983332104980946,2.113075017929077,-0.22660967707633972,0.2015705108642578
2.4269979000091553,0.0511929988861084,0.22881728410720825,0.16244292259216309,-0.13896968519363456,-1.5647127055288992,-0.2803206378237507,-0.9903409481048584,0.13852280378341675,-0.00602493342012167,1.8779878616333008,-0.03824988380074501,0.3188468813896179
2.445974826812744,-0.09744811058044434,0.22965635359287262,0.2519974708557129,-0.1454593196659802,-1.558059253988738,-0.24673325399935447,-0.9893592000007629,0.14494691789150238,-0.012602221220731735,1.467538833618164,0.2274865359067917,0.32617494463920593
2.4669029712677,-0.2034584879875183,0.1351163685321808,0.32442963123321533,-0.15235286875795007,-1.5461119966489891,-0.22105321869460176,-0.9881158471107483,0.1517641693353653,-0.024395931512117386,1.0346174240112305,0.6311012506484985,0.42605215311050415
2.486121892929077,-0.12845736742019653,0.09389758110046387,0.34145957231521606,-0.16040576702363693,-1.5272722941786043,-0.2036667894646474,-0.9862279295921326,0.15971878170967102,-0.04295174404978752,0.7694362998008728,0.8906669020652771,0.40612608194351196
2.5061497688293457,0.046965718269348145,0.07703875005245209,0.32549798488616943,-0.16722405058424253,-1.5093724761782812,-0.18275359783797646,-0.9841912388801575,0.1664457619190216,-0.0605289563536644,1.297273874282837,0.5370064973831177,0.43674156069755554
2.526020050048828,0.08022081851959229,0.07045654952526093,0.36963456869125366,-0.1734539223494516,-1.4962553234768345,-0.149567103852499,-0.9822595119476318,0.17258547246456146,-0.07335451990365982,1.966464638710022,0.17175981402397156,0.3744296431541443
2.546091079711914,-0.0902489423751831,0.03973589837551117,0.34392762184143066,-0.17629431957778668,-1.4886112324860732,-0.1041629653176137,-0.9811776280403137,0.17538253962993622,-0.08082021772861481,2.4173953533172607,-0.14299601316452026,0.23899875581264496
2.5667238235473633,-0.3049052953720093,0.10279859602451324,0.3629905581474304,-0.17398732873927938,-1.4819070509017511,-0.052288732454633495,-0.9810139536857605,0.17311084270477295,-0.08743201941251755,2.6826395988464355,-0.059410832822322845,-0.062134552747011185
2.585987091064453,-0.34344393014907837,0.09435726702213287,0.4841993451118469,-0.1659245551093289,-1.4706462325490375,0.00018313545812932816,-0.9813242554664612,0.1651642620563507,-0.09860962629318237,2.4366629123687744,0.3202495872974396,-0.19518360495567322
2.6066789627075195,-0.2452148199081421,-0.018078163266181946,0.5052663683891296,-0.15637954054503822,-1.4547100869337877,0.04104747974142114,-0.9811493754386902,0.15574295818805695,-0.1144123449921608,1.6714746952056885,0.5009097456932068,-0.2602584660053253
2.6260218620300293,-0.1568971872329712,0.024293407797813416,0.5211153626441956,-0.14957305230716383,-1.4408125238608973,0.07061838146473857,-0.9804931879043579,0.14901596307754517,-0.128170907497406,1.4437053203582764,0.42099830508232117,-0.07178551703691483
2.644962787628174,-0.29554909467697144,0.1447915881872177,0.4681827425956726,-0.14442150217990066,-1.4286794198612238,0.10105567837454857,-0.9796128273010254,0.14391997456550598,-0.14016446471214294,1.6283433437347412,0.3274461627006531,-0.07007934898138046
2.6666297912597656,-0.3832279443740845,0.09621089696884155,0.4580731987953186,-0.1366357417723366,-1.4183038399779166,0.13515829051261372,-0.9791836142539978,0.13621099293231964,-0.15048642456531525,1.8024886846542358,0.24416537582874298,-0.16427944600582123
2.685637950897217,-0.3127092123031616,-0.01453833281993866,0.5365161299705505,-0.129077974874967,-1.4094106981047891,0.17117476070044396,-0.9787947535514832,0.12871983647346497,-0.1593492478132248,1.8945189714431763,0.21830928325653076,-0.04309956729412079
2.7064528465270996,-0.321663498878479,0.0295046865940094,0.4850912094116211,-0.1216435000023123,-1.3994809536464392,0.20999726068718216,-0.9780802726745605,0.12134372442960739,-0.16921889781951904,1.9891929626464844,0.22982293367385864,-0.10395422577857971
2.724976062774658,-0.321891188621521,0.021985314786434174,0.4410867691040039,-0.11117816876871699,-1.391005284903224,0.24710305865534385,-0.9778068661689758,0.11094927042722702,-0.17771996557712555,1.7634183168411255,0.23700396716594696,-0.24869228899478912
2.7443690299987793,-0.30653148889541626,-0.05094761401414871,0.3958740234375,-0.10087754724943243,-1.3842957366898199,0.277006806218019,-0.977663516998291,0.1007065400481224,-0.18447867035865784,1.4126605987548828,0.15883786976337433,-0.21717552840709686
2.764352798461914,-0.3210065960884094,0.007058754563331604,0.3281479477882385,-0.09049208352270247,-1.3788756071424149,0.30643568030172835,-0.9776232242584229,0.09036862850189209,-0.18996424973011017,1.7259618043899536,0.13214519619941711,-0.2623163163661957
2.7830557823181152,-0.3115862011909485,0.03074578195810318,0.3160277009010315,-0.07748603503725374,-1.373820875431999,0.3410948448170546,-0.9777205586433411,0.07740852236747742,-0.19511696696281433,1.8165971040725708,0.09658906608819962,-0.36112695932388306
2.8017640113830566,-0.27805519104003906,-0.09837715327739716,0.2888241410255432,-0.06372178909235915,-1.3700349114525676,0.3726861841816532,-0.9779263734817505,0.06367867439985275,-0.19901080429553986,1.5206273794174194,0.059646762907505035,-0.3074134290218353
2.8267219066619873,-0.2953975200653076,-0.12828800082206726,0.18417313694953918,-0.053820593360233704,-1.3672273083767577,0.39974109768031135,-0.977933406829834,0.05379461497068405,-0.20187324285507202,1.4038952589035034,0.07438727468252182,-0.12623459100723267
2.845306873321533,-0.30838221311569214,-0.02555854618549347,0.09886866807937622,-0.04541057874696956,-1.3645446032311466,0.42817565114413897,-0.9777964949607849,0.04539497196674347,-0.20458142459392548,1.6132732629776,0.04010510817170143,-0.19005140662193298
2.863318920135498,-0.29692763090133667,0.004299920052289963,0.036773234605789185,-0.03437261833830044,-1.3635367147298387,0.4632596273790463,-0.9780204892158508,0.03436585143208504,-0.20565739274024963,2.0810115337371826,-0.02408391237258911,-0.1454182267189026
2.8855319023132324,-0.28322237730026245,-0.05315525829792023,0.03707146644592285,-0.02395223102416835,-1.3621101973717495,0.5071572972668376,-0.9780234694480896,0.023949941620230675,-0.2071153223514557,2.3902628421783447,0.01280823815613985,0.028927356004714966
2.903541088104248,-0.2688884139060974,-0.028464093804359436,0.01613880693912506,-0.01489958182570068,-1.3642659589998878,0.5518987533817047,-0.9786397218704224,0.014899030327796936,-0.2050424963235855,2.063197374343872,-0.35542500019073486,-0.025044551119208336
2.926270008087158,-0.26528400182724,-0.12489691376686096,0.04259200394153595,-0.005542699719171325,-1.3744147904139778,0.587855682347439,-0.9807640314102173,0.00554267130792141,-0.1951187252998352,1.7149763107299805,-0.6580937504768372,-0.14192482829093933
2.944437026977539,-0.23933643102645874,-0.12156863510608673,0.07276898622512817,0.002851529980734187,-1.3897703452585342,0.6197253169034456,-0.9836556315422058,-0.0028515260200947523,-0.180038183927536,1.5996187925338745,-0.7111732363700867,-0.27238839864730835
2.965514898300171,-0.5098754167556763,-0.19123075902462006,-0.06094479560852051,0.005943344266078827,-1.3862308886946746,0.6302226895736998,-0.9829988479614258,-0.005943309050053358,-0.18351615965366364,0.4789482355117798,0.35842251777648926,-0.2791336476802826
2.984900951385498,-0.26879143714904785,-0.07466766238212585,-0.1848963499069214,0.008431799838931412,-1.379599582855837,0.6368139623891719,-0.9817427396774292,-0.008431700058281422,-0.19002723693847656,-0.26875826716423035,0.19365116953849792,0.26434001326560974
3.004396915435791,-0.2850310802459717,-0.014701126143336296,-0.35038137435913086,-0.0012428704593855466,-1.3880113212467928,0.6387782425814761,-0.9833407402038574,0.0012428701156750321,-0.18176878988742828,0.8307304382324219,-0.7457936406135559,0.7403265237808228
3.0247719287872314,-0.42634356021881104,0.3416077792644501,-0.1617017239332199,-0.015830003002357127,-1.4091121517980465,0.6596360362225457,-0.9868339896202087,0.015829341486096382,-0.16096048057079315,0.8073370456695557,-1.263274908065796,0.7911161184310913
3.0444209575653076,-0.7065343260765076,0.12466737627983093,0.09303796291351318,-0.028733183627050563,-1.4260157204359192,0.6704256142492717,-0.9891292452812195,0.028729230165481567,-0.14421579241752625,-0.009579145349562168,-0.042898260056972504,0.8572885394096375
3.065084934234619,-0.7713262438774109,0.0019346624612808228,-0.03663510084152222,-0.051478582919701144,-1.4139090389821112,0.6661630803679783,-0.9864100813865662,0.051455847918987274,-0.15603752434253693,-0.7625813484191895,0.925678551197052,1.2578306198120117
3.084425926208496,-0.5169968008995056,0.15656882524490356,-0.21088123321533203,-0.08230890061867245,-1.4001177247395737,0.6525681256380226,-0.9821336269378662,0.08221599459648132,-0.1692761331796646,-0.9478399753570557,0.5177344679832458,1.5970474481582642
3.1041908264160156,-0.6015370488166809,0.1407400369644165,-0.1385105848312378,-0.12035356994530476,-1.3911314095881222,0.6422874593577758,-0.9767864346504211,0.12006323039531708,-0.17740724980831146,-0.6781163811683655,0.5684008598327637,1.9256244897842407
3.124342918395996,-0.7075840830802917,0.13381817936897278,-0.042293429374694824,-0.1620562463453417,-1.3782235915196388,0.6382972640194929,-0.9686550498008728,0.16134785115718842,-0.188877135515213,-0.5291873812675476,0.7591395378112793,2.1086764335632324
3.1443910598754883,-0.651216447353363,0.09361235797405243,0.04317291080951691,-0.206528267496985,-1.3607792681834388,0.6357921914748367,-0.9572431445121765,0.20506319403648376,-0.20404620468616486,-0.5724940299987793,1.1071882247924805,2.1945581436157227
3.164200782775879,-0.6574161052703857,0.10804267227649689,0.011951833963394165,-0.25243309273861697,-1.3352408077401692,0.6333103651345122,-0.9415676593780518,0.2497606724500656,-0.22598673403263092,-0.7302789688110352,1.3688081502914429,2.1706759929656982
3.184213876724243,-0.5652795433998108,0.04882073402404785,-0.05179081857204437,-0.29701893781000444,-1.3130822899642123,0.6274873446433666,-0.9246344566345215,0.29267099499702454,-0.24371080100536346,-0.9146897792816162,1.043333649635315,2.084653854370117
3.2038888931274414,-0.4701012969017029,0.05569326877593994,0.010687679052352905,-0.3416137877132642,-1.2942872792160585,0.6208090099797089,-0.9064246416091919,0.33500805497169495,-0.25722381472587585,-0.7655813097953796,1.079445719718933,2.026049852371216
3.2239699363708496,-0.3924526572227478,0.15751919150352478,-0.03753453493118286,-0.3814164452872322,-1.2719374558968497,0.6235894386949421,-0.8869969248771667,0.372235506772995,-0.2732716500759125,-0.1601763367652893,1.0594236850738525,1.8916335105895996
3.241966962814331,-0.32367509603500366,0.11971956491470337,-0.057199686765670776,-0.4182638930353347,-1.2467465073868602,0.6338430920315541,-0.8662358522415161,0.4061746299266815,-0.2909599840641022,-0.15508908033370972,1.064921259880066,1.9041250944137573
3.2638230323791504,-0.3501855731010437,0.08898389339447021,-0.09263220429420471,-0.4553695384138159,-1.2226759492733879,0.6412598121156254,-0.8442266583442688,0.4397942125797272,-0.30636975169181824,-0.44106096029281616,1.0398427248001099,1.819238305091858
3.2837469577789307,-0.2638322114944458,0.10272663831710815,-0.1432962715625763,-0.49144926131081057,-1.2002605884724786,0.6461286707846334,-0.8218154311180115,0.47190412878990173,-0.31925854086875916,-0.3043588101863861,0.9449286460876465,1.7366629838943481
3.3027310371398926,-0.167768657207489,0.11361744999885559,-0.14028024673461914,-0.5234397114530355,-1.1749664741377581,0.6604688631022542,-0.7991350889205933,0.4998622536659241,-0.3339475989341736,0.2521366477012634,0.9748530983924866,1.703338861465454
3.323533058166504,-0.13476413488388062,0.03563857078552246,-0.08001402020454407,-0.5502070530276372,-1.142761986491005,0.6827833944979449,-0.7755143642425537,0.5228637456893921,-0.35382384061813354,0.40322619676589966,1.0622137784957886,1.517159342765808
3.342698097229004,-0.048995256423950195,-0.08971428871154785,-0.036863744258880615,-0.5741958478715938,-1.1102197842901127,0.7043229296210008,-0.7521370649337769,0.5431597828865051,-0.3731856048107147,0.21074920892715454,1.061532974243164,1.4652290344238281
3.3628430366516113,0.06660860776901245,-0.12407851219177246,-0.010819017887115479,-0.5981745964166404,-1.0777083944915293,0.7251019249549185,-0.7279245853424072,0.5631349682807922,-0.39115840196609497,0.3082672953605652,1.0594733953475952,1.3960647583007812
3.382446765899658,0.12794500589370728,-0.1321239471435547,-0.009388595819473267,-0.6153423046695843,-1.0442358951552042,0.749123704184136,-0.7059631943702698,0.5772380828857422,-0.41038060188293457,0.5621941089630127,0.9036313891410828,1.1011101007461548
3.4034769535064697,0.18744248151779175,-0.18298208713531494,0.056996285915374756,-0.6265434439102834,-1.0114038602166455,0.7763087265372787,-0.6865881085395813,0.5863482356071472,-0.4298752248287201,0.7811054587364197,0.8609991073608398,1.014294147491455
3.4199700355529785,0.1933426856994629,-0.18424451351165771,0.08989906311035156,-0.634036958618156,-0.9771097521529482,0.8054515196078175,-0.6677842736244202,0.592401921749115,-0.4506930708885193,0.781237006187439,0.8640407919883728,0.8837854862213135
3.443222999572754,0.1634507179260254,-0.1400446891784668,0.058724820613861084,-0.6357297367816371,-0.9417739721220459,0.8356699155758527,-0.6506333947181702,0.5937648415565491,-0.4734128713607788,1.149929165840149,0.9080079793930054,0.6498428583145142
3.463080883026123,0.1933557391166687,-0.15892332792282104,0.11359018087387085,-0.6293772235397611,-0.9024312066872988,0.8698733077938614,-0.6344568729400635,0.5886414051055908,-0.5009649991989136,1.4005614519119263,0.9613804221153259,0.5510222911834717
3.4832849502563477,0.245619535446167,-0.21614527702331543,0.08980041742324829,-0.6175943978352909,-0.8641279875008877,0.9063881926033612,-0.620039701461792,0.5790756344795227,-0.5293602347373962,1.635895848274231,0.6194316148757935,0.4119096100330353
3.503469944000244,0.2438976764678955,-0.20550888776779175,0.17025643587112427,-0.6005699327998666,-0.8330618122663604,0.9421961464462778,-0.6105054020881653,0.5651127696037292,-0.5549150705337524,1.6708842515945435,0.5355793237686157,0.26694950461387634
3.5254898071289062,0.22532689571380615,-0.2537374496459961,0.24841374158859253,-0.5807963759219762,-0.8017891377659137,0.9744869199254694,-0.6007694602012634,0.5486899018287659,-0.5813909769058228,1.699055790901184,0.7606081366539001,0.13151668012142181
3.5446479320526123,0.23704272508621216,-0.17276042699813843,0.1883949637413025,-0.5543049771004172,-0.7704261913393226,1.0072762722282103,-0.5921606421470642,0.5263524651527405,-0.610163152217865,2.1031856536865234,0.6191666722297668,-0.0499061718583107
3.562246799468994,0.2436409592628479,-0.21219462156295776,0.22945022583007812,-0.5228305778172683,-0.7433562626637453,1.0382274744003208,-0.5863534212112427,0.49933457374572754,-0.6378517150878906,1.9654669761657715,0.4986328184604645,-0.17755520343780518
3.5831069946289062,0.26041096448898315,-0.2231343686580658,0.2744125723838806,-0.4922045065622105,-0.7236350380695163,1.0622421113691471,-0.5835158824920654,0.47256985306739807,-0.6604446172714233,1.752442717552185,0.30631789565086365,-0.31902971863746643
3.6030287742614746,0.2712569832801819,-0.15125486254692078,0.3566162586212158,-0.4605971123078194,-0.7099852334982222,1.0822825789719415,-0.5838944315910339,0.44448307156562805,-0.679339587688446,1.864342451095581,0.1784399002790451,-0.38257521390914917
3.6228370666503906,0.2484390139579773,-0.11471197009086609,0.40467244386672974,-0.42744521195716845,-0.6966686317290717,1.1040664584941582,-0.5839340686798096,0.41454723477363586,-0.6979768872261047,1.8492636680603027,0.2083074301481247,-0.2899422347545624
3.641810894012451,0.22019082307815552,-0.11087587475776672,0.34413135051727295,-0.39684524197357174,-0.687092443625158,1.1234163755834143,-0.5849980115890503,0.3865106701850891,-0.7130125164985657,1.6712677478790283,-0.04626014456152916,-0.27534306049346924
3.6619157791137695,0.21735239028930664,-0.06670385599136353,0.36963987350463867,-0.37027299052778423,-0.683110762004713,1.1405650028271825,-0.5884309411048889,0.3618699312210083,-0.7230486273765564,1.4017542600631714,-0.18568354845046997,-0.24574397504329681
3.682662010192871,0.18134361505508423,0.07643213868141174,0.29297125339508057,-0.3433124425502879,-0.6838340303214007,1.1556477269601175,-0.5949026346206665,0.33660808205604553,-0.7299218773841858,1.724012851715088,-0.4171556532382965,-0.3211851119995117
3.7022249698638916,0.10611909627914429,0.15593934059143066,0.23030400276184082,-0.3094879374321204,-0.6869187705038032,1.175012140074389,-0.6040287017822266,0.3045709431171417,-0.736468493938446,2.0100057125091553,-0.4705038368701935,-0.42160874605178833
3.7237329483032227,0.0905565619468689,0.06400835514068604,0.3032146096229553,-0.27454102236285405,-0.6897511868969148,1.1939194372531536,-0.6125139594078064,0.27110517024993896,-0.7425150871276855,1.7391735315322876,-0.34581881761550903,-0.3776231110095978
3.7426090240478516,0.11843866109848022,0.025157898664474487,0.34619319438934326,-0.24671607301521278,-0.6920435024048317,1.2078811671937295,-0.6187896728515625,0.2442207932472229,-0.746629536151886,1.2354841232299805,-0.2471706122159958,-0.37283506989479065
3.762549877166748,0.10342586040496826,-0.006641805171966553,0.22635388374328613,-0.22344717040590328,-0.6948406556985673,1.2175084389818884,-0.6243457198143005,0.22159241139888763,-0.7490589618682861,1.171491026878357,-0.2859140932559967,-0.4078560173511505
3.784477949142456,0.14099758863449097,-0.039644137024879456,0.3213583827018738,-0.20299215842370938,-0.6985716713575902,1.2241941876950682,-0.6299198269844055,0.20160095393657684,-0.7500388026237488,0.7679188847541809,-0.22335875034332275,-0.4025475084781647
3.8018009662628174,0.16294175386428833,-0.03578035533428192,0.2860215902328491,-0.1886459460997505,-0.7036028111082733,1.2255563821646616,-0.6354912519454956,0.1875290423631668,-0.7489885091781616,0.5116702914237976,-0.3217645287513733,-0.41610878705978394
3.8214569091796875,0.13612908124923706,0.05352163314819336,0.2318522334098816,-0.17557422862214433,-0.7107669235232924,1.2258520497352108,-0.6423852443695068,0.17467357218265533,-0.7462106943130493,0.5100929737091064,-0.3329613208770752,-0.44754382967948914
3.8423900604248047,0.09713470935821533,0.02799825370311737,0.2414056658744812,-0.16391212895095733,-0.716007853569701,1.2237461521992659,-0.6475803256034851,0.16317914426326752,-0.7443200349807739,0.27639642357826233,-0.13210366666316986,-0.5055713653564453
3.8620879650115967,0.14463931322097778,0.004907235503196716,0.22633308172225952,-0.1562966029062428,-0.7192687798618178,1.218333131590899,-0.6508039236068726,0.15566103160381317,-0.7431176900863647,0.044343795627355576,-0.11388552933931351,-0.4634925425052643
3.8826279640197754,0.12696045637130737,-0.003404468297958374,0.11198770999908447,-0.15196849493413717,-0.7250022104428132,1.2106579216738762,-0.6554945111274719,0.15138423442840576,-0.7398715615272522,-0.1246958002448082,-0.27802759408950806,-0.4200620651245117
3.9012739658355713,0.013562619686126709,-0.0055029988288879395,0.038316190242767334,-0.14870487439369368,-0.7299005607243161,1.2025898628045544,-0.6594366431236267,0.14815741777420044,-0.7370160818099976,-0.22930097579956055,-0.05973413959145546,-0.42400026321411133
3.921319007873535,0.010396599769592285,-0.0857686847448349,0.06579309701919556,-0.14889453413885176,-0.7312625374680608,1.1906151889261483,-0.6604210138320923,0.1483449935913086,-0.7360963225364685,-0.5641440749168396,0.06276620924472809,-0.45084068179130554
3.941037893295288,0.07550013065338135,-0.05820150673389435,0.07335984706878662,-0.15359231172655677,-0.7337463673710145,1.1746869368985786,-0.6617733836174011,0.15298913419246674,-0.7339280247688293,-0.776164710521698,-0.0741620808839798,-0.39957961440086365
3.963371753692627,0.05689018964767456,-0.06687624752521515,0.047830820083618164,-0.1612323757291544,-0.7382087362147157,1.1586856794816423,-0.6642358303070068,0.16053472459316254,-0.7300817966461182,-0.8618194460868835,-0.10812342166900635,-0.26214760541915894
3.980196952819824,0.00855720043182373,-0.03019733726978302,0.0032837390899658203,-0.170657701041568,-0.7431414749459961,1.1439376073080931,-0.666775643825531,0.1698305308818817,-0.7256500124931335,-0.7826708555221558,-0.12839025259017944,-0.1903821974992752
4.0016608238220215,-0.05494427680969238,-0.0447351336479187,-0.02958226203918457,-0.18018426879539245,-0.7479353458061895,1.1317576268196032,-0.6691158413887024,0.1792108565568924,-0.7212263941764832,-0.7745174169540405,-0.11727635562419891,-0.028398724272847176
4.021793842315674,-0.16321039199829102,-0.045501306653022766,-0.045583486557006836,-0.19324729179102348,-0.7499256419218653,1.1200004575415585,-0.6688972115516663,0.19204674661159515,-0.7181188464164734,-0.9585337042808533,0.2333430051803589,0.0258011594414711
4.04147481918335,-0.1951580047607422,0.008769452571868896,-0.11493414640426636,-0.20584650776285948,-0.7451609788260675,1.1067464123142976,-0.6637745499610901,0.20439587533473969,-0.7194621562957764,-0.8258016109466553,0.4635712504386902,-0.1128166913986206
4.061352968215942,-0.1328369379043579,-0.011857554316520691,-0.15944021940231323,-0.21592409476245783,-0.7380643364008994,1.0952131432973307,-0.6572327613830566,0.21425016224384308,-0.7225940227508545,-0.6756294369697571,0.47348594665527344,0.02002771757543087
4.0816168785095215,-0.11296552419662476,-0.06532526016235352,-0.17898410558700562,-0.22828310981113423,-0.7305795783448564,1.0897803762416092,-0.6499891877174377,0.2263055145740509,-0.7254652976989746,-0.6191291213035583,0.49820512533187866,0.3802180290222168
4.1016058921813965,-0.12118083238601685,-0.0066311657428741455,-0.070986807346344,-0.24516375366214624,-0.7187881794088001,1.083821192209996,-0.6387832164764404,0.24271517992019653,-0.7300995588302612,-0.9252699017524719,0.8008202910423279,0.146767258644104
4.121424913406372,-0.07056999206542969,-0.08839043974876404,-0.05409508943557739,-0.2556087752065643,-0.7047191480318657,1.0732643288907153,-0.6267719864845276,0.2528344392776489,-0.7370425462722778,-0.5003317594528198,0.899272620677948,-0.13930058479309082
4.141201972961426,0.06242245435714722,-0.17261525988578796,-0.021490097045898438,-0.2619028724479049,-0.6892091405731269,1.0659970621344497,-0.614241361618042,0.25891900062561035,-0.7454318404197693,-0.530919075012207,0.8007750511169434,0.002621358260512352
4.161890983581543,0.11374342441558838,-0.3008664846420288,-0.0021390914916992188,-0.2720283260265866,-0.6770299842033729,1.0593703828996646,-0.6034438610076904,0.2686857283115387,-0.7507752776145935,-0.6721414923667908,0.597780704498291,0.08563514798879623
4.18210506439209,0.14491766691207886,-0.22305452823638916,0.07997763156890869,-0.2843349631960031,-0.6685291437878066,1.051716405601698,-0.5949451923370361,0.28051918745040894,-0.7532259225845337,-0.791182816028595,0.4967013895511627,0.08176527172327042
4.2025370597839355,0.12144559621810913,-0.023985952138900757,0.10950833559036255,-0.29402763208056526,-0.6646751370132121,1.035060677778901,-0.5903329849243164,0.28980934619903564,-0.7533376216888428,-0.7705391049385071,0.3600994348526001,-0.9011679291725159
4.221855878829956,0.11450588703155518,-0.17581117153167725,0.13450324535369873,-0.28616135519683294,-0.6639528389004731,1.0108424303802592,-0.5911752581596375,0.28227177262306213,-0.755535900592804,-0.1798897087574005,0.475754052400589,-1.1441497802734375
4.241261005401611,0.21430939435958862,-0.29716208577156067,0.2292625904083252,-0.28112069081975666,-0.6578118071559199,0.9907542978415413,-0.5873868465423584,0.27743253111839294,-0.7602683901786804,-0.7993957996368408,0.5853812098503113,-0.6806148886680603
4.260032892227173,0.23335546255111694,-0.30230867862701416,0.18451565504074097,-0.2937910387879184,-0.655781460786811,0.9657217435169307,-0.5836515426635742,0.28958290815353394,-0.7586122751235962,-1.5884548425674438,0.3195103704929352,-0.5668462514877319
4.280988931655884,0.18552929162979126,-0.2487671673297882,0.157093346118927,-0.31297977319701625,-0.6615563067817206,0.9325348320792792,-0.5845009088516235,0.3078950047492981,-0.7507059574127197,-1.8283573389053345,0.13071899116039276,-0.7321223616600037
4.300004959106445,0.19491088390350342,-0.23398485779762268,0.23952960968017578,-0.33408272906637543,-0.6706146112017994,0.8960014766200289,-0.5871075987815857,0.32790276408195496,-0.7401246428489685,-2.0705554485321045,0.13667115569114685,-0.6842215657234192
4.320891857147217,0.21152150630950928,-0.18595078587532043,0.3243001699447632,-0.35957331593224634,-0.6854439888801788,0.849480331978471,-0.5925334692001343,0.35187485814094543,-0.7246296405792236,-2.548855781555176,-0.12164340168237686,-1.2887026071548462
4.3409647941589355,0.17774927616119385,-0.2118481695652008,0.2867894172668457,-0.37397772185802713,-0.7131826025070017,0.7902176946123954,-0.6090236902236938,0.3653210997581482,-0.7040103673934937,-2.0069122314453125,-0.4996640086174011,-1.8763482570648193
4.362793922424316,0.1678752899169922,-0.19247055053710938,0.20157289505004883,-0.3746674250329068,-0.7438755607169341,0.737984798340181,-0.6301708817481995,0.36596304178237915,-0.6848034858703613,-1.3091323375701904,-0.666937530040741,-1.6672214269638062
4.38106107711792,0.08191132545471191,-0.1962149441242218,0.1716632843017578,-0.3697924185331543,-0.7763144286252446,0.6961338889865586,-0.6532919406890869,0.3614218831062317,-0.6652697324752808,-1.1745593547821045,-1.028991460800171,-1.5506083965301514
4.400571823120117,-0.008860111236572266,-0.22196123003959656,0.27037012577056885,-0.3684722468669634,-0.8149114266363502,0.6496036782031767,-0.6788230538368225,0.36019062995910645,-0.6398921608924866,-2.023369073867798,-1.1421886682510376,-1.5902960300445557
4.420618057250977,-0.07893741130828857,-0.16763123869895935,0.33930134773254395,-0.37911682565336285,-0.8627605300182908,0.5810402315752792,-0.7057000994682312,0.37010014057159424,-0.6041633486747742,-3.4213781356811523,-1.1231482028961182,-1.9739553928375244
4.440589904785156,-0.1609100103378296,-0.15318068861961365,0.3233693838119507,-0.39321626743347127,-0.9207187277575112,0.48529020099680875,-0.7352845668792725,0.38316118717193604,-0.5590565800666809,-4.3210344314575195,-1.06095290184021,-2.4433319568634033
4.460191965103149,-0.23421454429626465,-0.13041797280311584,0.28443896770477295,-0.40474533641939947,-0.9831854568571373,0.3750487693303029,-0.7650225758552551,0.39378467202186584,-0.5095822811126709,-4.500896453857422,-0.8607650399208069,-2.483185052871704
4.480473041534424,-0.3514047861099243,0.01509237289428711,0.2016110122203827,-0.40675206417797366,-1.0382671597384583,0.26966430524086654,-0.7912344336509705,0.3956284821033478,-0.4662898778915405,-3.727301597595215,-0.4836433529853821,-2.508859872817993
4.500298023223877,-0.39320749044418335,0.19259396195411682,0.13704395294189453,-0.39530385171366544,-1.0817332630622218,0.17833523293252634,-0.8146936893463135,0.38508862257003784,-0.43356797099113464,-3.2427196502685547,-0.3849855661392212,-2.667734384536743
4.520324945449829,-0.3682308793067932,0.175019770860672,0.1466546356678009,-0.37608038382860415,-1.1273723935454916,0.0841791727886958,-0.8401584625244141,0.3672776222229004,-0.39905014634132385,-3.8579647541046143,-0.6522807478904724,-2.9393534660339355
4.540283918380737,-0.34197384119033813,0.11358192563056946,0.18186020851135254,-0.3598802152704643,-1.1829722942901415,-0.028710623314931082,-0.8664308190345764,0.35216212272644043,-0.3539487421512604,-5.2145771980285645,-0.8130356669425964,-2.759498119354248
4.560502052307129,-0.36576807498931885,0.12381505966186523,0.18697276711463928,-0.3518931903559037,-1.245769920225565,-0.16545258717108058,-0.8895726799964905,0.34467560052871704,-0.2997656762599945,-6.448175430297852,-0.6782996654510498,-2.4735379219055176
4.580004930496216,-0.35811716318130493,0.23105543851852417,0.10476076602935791,-0.3458837606996922,-1.3070959698596873,-0.31387968252015047,-0.9082556366920471,0.3390282392501831,-0.24521784484386444,-6.556421279907227,-0.3644558787345886,-2.140054225921631
4.599961757659912,-0.29338711500167847,0.38107314705848694,-0.07669952511787415,-0.33603063925106635,-1.3588811817201027,-0.4494840989620351,-0.9229522347450256,0.32974234223365784,-0.1985689401626587,-5.570043563842773,-0.2767999470233917,-1.843436360359192
4.620107889175415,-0.22751647233963013,0.5145817995071411,-0.1662488430738449,-0.319677436052349,-1.399150629739994,-0.5548029630878326,-0.9353864192962646,0.3142603635787964,-0.16215063631534576,-3.798175096511841,-0.12356770783662796,-1.5371102094650269
4.639967918395996,-0.16847115755081177,0.553564190864563,-0.15661399066448212,-0.30184375064932145,-1.4221485536230578,-0.6214271965498341,-0.944260835647583,0.2972811162471771,-0.14140531420707703,-2.3665668964385986,-0.12004559487104416,-1.2772350311279297
4.6603288650512695,-0.052145421504974365,0.4127284586429596,-0.08939880132675171,-0.2852304949901464,-1.4362293047187573,-0.6682979089032637,-0.9509217143058777,0.2813786268234253,-0.12874074280261993,-1.9106032848358154,0.031072018668055534,-1.0038340091705322
4.680056095123291,-0.041902780532836914,0.29635268449783325,-0.05780351161956787,-0.2736388604593556,-1.4462420767095043,-0.7092610383880918,-0.9553354978561401,0.27023670077323914,-0.1196102723479271,-1.9822580814361572,0.17057257890701294,-0.6345828175544739
4.700143814086914,-0.015767395496368408,0.23077768087387085,-0.05396933853626251,-0.2687850062560494,-1.4544415089470513,-0.7562872053801951,-0.9575757384300232,0.2655602693557739,-0.11192409694194794,-2.4022951126098633,0.2018495351076126,-0.456598162651062
4.720122814178467,0.008938074111938477,0.25843340158462524,-0.07984726876020432,-0.2651078780936061,-1.4633565257770718,-0.8049057001583638,-0.9594996571540833,0.26201337575912476,-0.10348694771528244,-2.119257926940918,0.1858283132314682,-0.4297848045825958
4.739968776702881,0.029172301292419434,0.3243465721607208,-0.09282976388931274,-0.2596304591067586,-1.470909035934773,-0.8414824359372257,-0.961667537689209,0.25672340393066406,-0.0963791161775589,-1.2958821058273315,-0.03139082342386246,-0.5291451811790466
4.759947776794434,0.05720984935760498,0.3136998414993286,-0.06116258352994919,-0.24915756837048567,-1.4783891904110469,-0.8601922426786114,-0.9649857878684998,0.2465876340866089,-0.08942625671625137,-0.5227184891700745,-0.23167811334133148,-0.6651356816291809
4.779982089996338,0.03965479135513306,0.250759482383728,-0.03604363650083542,-0.23574737369477755,-1.4868376893843032,-0.8698811832609751,-0.9689151048660278,0.23356975615024567,-0.08154047280550003,-0.3855586349964142,-0.3488982319831848,-0.7679073214530945
4.800037860870361,0.007699072360992432,0.19857077300548553,-0.025515258312225342,-0.22075951052567236,-1.4959625103174823,-0.8825372525795095,-0.9730007648468018,0.21897076070308685,-0.07294958829879761,-0.780581533908844,-0.24980396032333374,-0.8146710395812988
4.820012092590332,-0.005561709403991699,0.21334055066108704,-0.07280910015106201,-0.20581887326011702,-1.5044157499278807,-0.9039387993364382,-0.9767382740974426,0.20436881482601166,-0.06493184715509415,-1.1768138408660889,-0.15842866897583008,-0.8362712860107422
4.8399739265441895,0.0026474595069885254,0.2968813180923462,-0.09675514698028564,-0.19090957284733395,-1.5126233914090317,-0.9314205070780187,-0.9801714420318604,0.1897520273923874,-0.0570838563144207,-1.3993302583694458,-0.1334260255098343,-0.8340020775794983
4.859978914260864,-0.016272008419036865,0.36817580461502075,-0.1158398985862732,-0.17612943203359435,-1.5208344198358568,-0.9620767776194583,-0.9833008646965027,0.17522020637989044,-0.049168504774570465,-1.5513489246368408,-0.11881272494792938,-0.8287711143493652
4.880325794219971,-0.02892589569091797,0.3922123908996582,-0.14889323711395264,-0.16210073880454565,-1.5282470416378993,-0.9972938519918713,-0.9859974384307861,0.16139176487922668,-0.04197882115840912,-1.8873711824417114,-0.05137438699603081,-0.7731626033782959
4.900420904159546,0.007843434810638428,0.39899909496307373,-0.1811186671257019,-0.14925344450737568,-1.53506443194913,-1.037765026511735,-0.988251268863678,0.14869992434978485,-0.03532712534070015,-1.9935606718063354,-0.0057296715676784515,-0.6970900893211365
4.920137882232666,0.062238454818725586,0.5001065135002136,-0.21823370456695557,-0.13853509120817334,-1.5402587359556945,-1.0749249969450152,-0.9899578094482422,0.13809238374233246,-0.03024032711982727,-1.602590560913086,0.018920015543699265,-0.5279233455657959
4.940127849578857,0.12235724925994873,0.5622706413269043,-0.3106212019920349,-0.13068221602377517,-1.5433968059101444,-1.1015959183270385,-0.9911012649536133,0.1303105652332306,-0.027162497863173485,-1.0415730476379395,-0.04541955888271332,-0.3651650547981262
4.9600629806518555,0.21564775705337524,0.5198599100112915,-0.30551350116729736,-0.12622698634081927,-1.5486786061574986,-1.1209425733718619,-0.9918014407157898,0.1258920580148697,-0.021939964964985847,-0.9282820820808411,-0.2150907963514328,-0.16746102273464203
4.979975938796997,0.2369651198387146,0.46882301568984985,-0.3152241110801697,-0.12570026229472822,-1.5549315761128837,-1.1391003495842662,-0.9919854402542114,0.12536950409412384,-0.015738921239972115,-0.8455287218093872,-0.16262874007225037,0.02039043977856636
4.999993801116943,0.24165105819702148,0.5382691025733948,-0.36580175161361694,-0.12737350346301854,-1.5580922427248405,-1.1526030491746746,-0.991818904876709,0.12702935934066772,-0.012600828893482685,-0.4637194573879242,-0.002648394089192152,0.10274702310562134
5.020004749298096,0.31345808506011963,0.5756714344024658,-0.3839392066001892,-0.13067855997328315,-1.5578660247193996,-1.157371615549856,-0.9913910627365112,0.13030694425106049,-0.012819700874388218,-0.04251685366034508,0.0641576275229454,0.22540107369422913
5.039977073669434,0.4011862277984619,0.5150654315948486,-0.3485490083694458,-0.13705086206723774,-1.5568177120236082,-1.1556003956719827,-0.9905266761779785,0.13662223517894745,-0.013847093097865582,0.1905241757631302,0.00913227628916502,0.4151607155799866
5.059972763061523,0.4325353503227234,0.4677999019622803,-0.30000603199005127,-0.14758822759677445,-1.556205515101346,-1.1500691260232707,-0.9890234470367432,0.14705300331115723,-0.014431679621338844,0.35066965222358704,-0.03907972574234009,0.636877179145813
5.08004093170166,0.3853476047515869,0.4795123338699341,-0.25821763277053833,-0.16184891254206865,-1.5579103178431553,-1.139809676747748,-0.986849308013916,0.1611432284116745,-0.012717253528535366,0.6930781006813049,-0.3569670617580414,0.7831752896308899
5.100059986114502,0.15981268882751465,0.5707743167877197,-0.26642245054244995,-0.17770283248287444,-1.5669403118548473,-1.1185631608011413,-0.9842451810836792,0.17676904797554016,-0.0037952829152345657,1.4720892906188965,-0.8940816521644592,0.774895966053009
5.119968891143799,-0.22844719886779785,0.6777067184448242,-0.23923921585083008,-0.19092864986567173,-1.5778954259392122,-1.0777432276837342,-0.9818039536476135,0.18977075815200806,0.006970040500164032,2.540562152862549,-0.8194911479949951,0.503084123134613
5.139969825744629,-0.45388638973236084,0.6575374603271484,-0.06819939613342285,-0.19828197057981978,-1.5758471880109313,-1.0191379527658293,-0.9803942441940308,0.19698525965213776,0.004951877053827047,3.0982394218444824,-0.09193309396505356,0.24079808592796326
5.159968852996826,-0.33632051944732666,0.5177949070930481,0.0745421051979065,-0.20487250654963995,-1.5602891637309497,-0.9569918879479765,-0.9790331125259399,0.20344233512878418,-0.010287239216268063,2.9017956256866455,0.28185006976127625,0.49741247296333313
5.179996967315674,-0.2672201991081238,0.45696014165878296,0.09749799221754074,-0.21899582925928904,-1.5432393186097875,-0.9024593383666917,-0.9757457971572876,0.2172495424747467,-0.026895442977547646,2.3830368518829346,0.24805110692977905,0.984021008014679
5.199967861175537,-0.35712873935699463,0.390262633562088,0.10185253620147705,-0.2420374859800069,-1.526460128705475,-0.8568604189990834,-0.9698976278305054,0.239681214094162,-0.043029770255088806,1.9884625673294067,0.37880805134773254,1.3921258449554443
5.2199788093566895,-0.39602744579315186,0.3213168978691101,0.1732305884361267,-0.27167329904062587,-1.505048340161741,-0.817204701340827,-0.9612419009208679,0.2683437466621399,-0.06329094618558884,1.707433819770813,0.763316810131073,1.7669048309326172
5.240025997161865,-0.3261830806732178,0.2743526101112366,0.22479313611984253,-0.3073206653874752,-1.4757040241096675,-0.7802476837043916,-0.948841392993927,0.3025059103965759,-0.09050045907497406,1.559995174407959,1.0890085697174072,2.059378147125244
5.2599687576293945,-0.18130075931549072,0.23446089029312134,0.2428746074438095,-0.34743838406492944,-1.441189825666984,-0.7428741181200736,-0.9323621392250061,0.3404903709888458,-0.12152139097452164,1.5418422222137451,1.1082708835601807,2.3277761936187744
5.279968976974487,-0.07766765356063843,0.14359697699546814,0.2612023949623108,-0.39163725715665276,-1.4061689050649566,-0.7021176119580482,-0.9117887616157532,0.3817022144794464,-0.15147635340690613,1.5493996143341064,0.9082221984863281,2.607865571975708
5.2999677658081055,-0.08138257265090942,0.0381280779838562,0.29331034421920776,-0.43989663792509537,-1.37291333527831,-0.6592511552269774,-0.8871386647224426,0.4258459508419037,-0.1778774857521057,1.4304695129394531,0.7040520310401917,2.8421454429626465
5.319967746734619,-0.17674016952514648,-0.03034272789955139,0.2942809462547302,-0.49061586464337,-1.3402522958085243,-0.615270089120499,-0.8587061166763306,0.47116920351982117,-0.20155318081378937,1.3560922145843506,0.6096423268318176,2.9307045936584473
5.3400139808654785,-0.24475854635238647,-0.08194053173065186,0.32988131046295166,-0.5407409271181136,-1.304034604481391,-0.5679904339674765,-0.827003538608551,0.5147713422775269,-0.22599934041500092,1.388555645942688,0.676209568977356,2.9520576000213623
5.359972953796387,-0.26250267028808594,-0.14104485511779785,0.3768288493156433,-0.5887489343540961,-1.2631169071340522,-0.5180808946267982,-0.7925816774368286,0.5553210377693176,-0.25185924768447876,1.2978087663650513,0.7460266947746277,2.816537618637085
5.379971981048584,-0.2500731945037842,-0.20194941759109497,0.40779170393943787,-0.6313749408217947,-1.2190222932761232,-0.46799248898911355,-0.7577853202819824,0.5902552008628845,-0.2781376838684082,1.2185273170471191,0.7724084854125977,2.552773952484131
5.400055885314941,-0.2365294098854065,-0.24860697984695435,0.40484920144081116,-0.6674090780362074,-1.1736138250999852,-0.4179382090136108,-0.7242860794067383,0.6189531087875366,-0.3038206398487091,1.1802937984466553,0.7487543225288391,2.262373924255371
5.419970989227295,-0.19955015182495117,-0.2968740463256836,0.4287510812282562,-0.6967224627424079,-1.1281842985754855,-0.36949390163268153,-0.6930432915687561,0.6417074203491211,-0.3284854590892792,1.041352391242981,0.7441611289978027,1.9581108093261719
5.439969062805176,-0.1323709487915039,-0.387753963470459,0.46267643570899963,-0.7212269374708218,-1.0852577749884877,-0.3267146504428093,-0.6641989946365356,0.6603065729141235,-0.35047850012779236,0.7509167790412903,0.7599579095840454,1.6895930767059326
5.459971904754639,-0.07298719882965088,-0.4816024899482727,0.4853491187095642,-0.7428794934253994,-1.048885281340266,-0.29374288282615896,-0.6384691596031189,0.676411509513855,-0.36718496680259705,0.363715797662735,0.6619966626167297,1.388593316078186
5.480015754699707,-0.051852405071258545,-0.5216379165649414,0.45962071418762207,-0.7616414082026316,-1.0217525180041818,-0.2712954507751524,-0.617337167263031,0.6901102662086487,-0.3776809275150299,0.11599060148000717,0.5049129724502563,1.0633203983306885
5.499969005584717,-0.053437769412994385,-0.5107212662696838,0.43320050835609436,-0.7763472896642769,-1.0028564271475353,-0.2562586170388881,-0.6014695167541504,0.7006779909133911,-0.3837772011756897,0.052869755774736404,0.32900214195251465,0.7241499423980713
5.519970893859863,-0.06702589988708496,-0.5164623856544495,0.41969388723373413,-0.7850299808773439,-0.9912153909181406,-0.24682483640534966,-0.5918486714363098,0.7068464159965515,-0.38740620017051697,0.0472601018846035,0.15866237878799438,0.3459377884864807
5.5399699211120605,-0.08647853136062622,-0.5596849322319031,0.4174717664718628,-0.7871166713159135,-0.9874809557642418,-0.24345089073312778,-0.589165449142456,0.7083209156990051,-0.3888004720211029,0.008587101474404335,-0.037913884967565536,-0.050969094038009644
5.5599799156188965,-0.12919741868972778,-0.5751564502716064,0.4382490813732147,-0.7833826602498056,-0.9953467354428729,-0.24920532721412322,-0.5944201350212097,0.7056801915168762,-0.38559091091156006,-0.15444719791412354,-0.3362669348716736,-0.4798796772956848
5.579972982406616,-0.2266790270805359,-0.5174807906150818,0.4465331435203552,-0.7748726729834593,-1.015261836320781,-0.2655692278323192,-0.6070613861083984,0.6996250748634338,-0.37683096528053284,-0.38077282905578613,-0.4279189109802246,-0.8686119318008423
5.600028038024902,-0.30482470989227295,-0.46031177043914795,0.43417179584503174,-0.7618718956769497,-1.0407629654620678,-0.2931405529579258,-0.6242678165435791,0.6902770400047302,-0.36579710245132446,-0.6424809694290161,-0.24549317359924316,-1.270800232887268
5.619969844818115,-0.3261990547180176,-0.43644148111343384,0.4034307599067688,-0.7436531572773832,-1.0746343951654138,-0.3301133955013151,-0.647250771522522,0.6769811511039734,-0.35037583112716675,-0.7939541935920715,-0.7278758883476257,-1.6304500102996826
5.639999866485596,-0.5229852795600891,-0.3432742953300476,0.45832791924476624,-0.7195615400434291,-1.1236146392486568,-0.3736381945008442,-0.6781408786773682,0.6590549945831299,-0.3252254128456116,-1.0479799509048462,-1.094343900680542,-2.0458059310913086
5.659968852996826,-0.8684803247451782,-0.26963526010513306,0.5329084396362305,-0.6867739016029358,-1.1748747332652951,-0.4303266508264784,-0.7134747505187988,0.6340457797050476,-0.2982281744480133,-1.6273514032363892,-0.26597830653190613,-2.714791774749756
5.6800007820129395,-0.6713957786560059,-0.2832401990890503,0.49404168128967285,-0.6477963980365833,-1.2187001041392336,-0.5042719895193409,-0.7484956383705139,0.6034306883811951,-0.2750016748905182,-2.372047185897827,0.2963615655899048,-2.9476499557495117
5.699978828430176,-0.2738855481147766,-0.13907170295715332,0.3042691946029663,-0.6092324455327688,-1.2668447304500108,-0.5894560931855786,-0.7824956774711609,0.5722381472587585,-0.24544642865657806,-2.8039095401763916,-0.21787850558757782,-2.95629620552063
5.719973087310791,-0.1771482229232788,0.047828853130340576,0.0974050760269165,-0.5671962504226048,-1.3239585031605599,-0.670096895866853,-0.817846953868866,0.5372694730758667,-0.20607803761959076,-2.4093644618988037,-0.9695799946784973,-2.8959133625030518
5.739974021911621,-0.24515986442565918,0.11847534775733948,-0.013430997729301453,-0.5211443707906799,-1.3790262857836988,-0.7306105578530013,-0.8513519763946533,0.497872918844223,-0.1652950793504715,-1.6461595296859741,-1.3290218114852905,-2.761977195739746
5.7599687576293945,-0.31678855419158936,0.16895440220832825,-0.034759700298309326,-0.4720043233068713,-1.4244124328376173,-0.7696110891900807,-0.8811333179473877,0.45467236638069153,-0.12991298735141754,-0.9028371572494507,-1.2815543413162231,-2.662824869155884
5.780011892318726,-0.26292186975479126,0.23181623220443726,-0.019924402236938477,-0.42370802511958894,-1.4556585449441595,-0.788754905130828,-0.9055353403091431,0.41114339232444763,-0.10472450405359268,-0.25725945830345154,-0.9966389536857605,-2.324502944946289
5.799635887145996,-0.16901057958602905,0.21437227725982666,0.015999190509319305,-0.38166433431739627,-1.4776416897411189,-0.7999414218457629,-0.9240224957466125,0.3724655508995056,-0.08632683008909225,-0.4916931390762329,-0.7789765000343323,-2.005540132522583
5.819986820220947,-0.1226775050163269,0.1321134865283966,0.0024648383259773254,-0.34540138508222085,-1.4993743006090665,-0.8238010185450796,-0.9385408163070679,0.3385743796825409,-0.06714670360088348,-1.4849936962127686,-0.5455232858657837,-1.7923719882965088
5.839967966079712,-0.09206777811050415,0.12985175848007202,-0.05376511812210083,-0.31363464669067087,-1.5234657637781788,-0.8676449060021565,-0.9501534104347229,0.30851802229881287,-0.04500490799546242,-2.317838191986084,-0.42910510301589966,-1.628143548965454
5.8599700927734375,-0.06420743465423584,0.2950676381587982,-0.10815918445587158,-0.2852943815405561,-1.5450381740373837,-0.921154554442666,-0.9592607021331787,0.28143996000289917,-0.02471425011754036,-2.661062002182007,-0.12167296558618546,-1.4194059371948242
5.879968881607056,-0.033155977725982666,0.38988468050956726,-0.19116592407226562,-0.2564252293540255,-1.5627237281692536,-0.9753026654702586,-0.9672715067863464,0.25362429022789,-0.007808564230799675,-2.2927732467651367,-0.25436931848526,-1.6077120304107666
5.900026798248291,0.07759541273117065,0.5161818861961365,-0.22360730171203613,-0.2229030440716256,-1.579344372974004,-1.0145583905312408,-0.9752242565155029,0.22106176614761353,0.008336464874446392,-1.5188096761703491,-0.46297383308410645,-1.66184401512146
5.919969081878662,0.1661376953125,0.518867552280426,-0.20268285274505615,-0.1903176098102883,-1.5961598164383561,-1.0383559823374546,-0.9816284775733948,0.18917077779769897,0.024902863427996635,-0.8804886937141418,-0.6516663432121277,-1.5638350248336792
5.93996787071228,0.17735236883163452,0.499946266412735,-0.2209758758544922,-0.16062515704128572,-1.611057383853225,-1.0516450125155548,-0.9863276481628418,0.1599353402853012,0.03973206505179405,-0.6143684983253479,-0.5980480313301086,-1.3552467823028564
5.959968090057373,0.1618451476097107,0.5546124577522278,-0.27014923095703125,-0.13435956519986747,-1.6236423847765242,-1.0613541998653668,-0.9896040558815002,0.1339556723833084,0.052345409989356995,-0.44196391105651855,-0.5147830843925476,-1.234416127204895
5.979994773864746,0.17304450273513794,0.6100978851318359,-0.32851696014404297,-0.1114768563280224,-1.6343697265079002,-1.0668095922308596,-0.99178546667099,0.11124610900878906,0.0631362572312355,-0.2472638338804245,-0.49370041489601135,-1.0096170902252197
5.9999680519104,0.1931282877922058,0.6174230575561523,-0.3531031608581543,-0.09411109977198977,-1.6442918996404354,-1.0701394774338076,-0.9928873181343079,0.09397223591804504,0.07310450077056885,-0.23883014917373657,-0.45717597007751465,-0.7100578546524048
6.019968032836914,0.2086547613143921,0.5896562337875366,-0.3368339538574219,-0.08278630575461023,-1.6525538132661168,-1.0754305015992347,-0.9932465553283691,0.08269177377223969,0.0813867598772049,-0.40705591440200806,-0.29274335503578186,-0.36946800351142883
6.039970874786377,0.24125456809997559,0.5594164729118347,-0.310604453086853,-0.07855801602977175,-1.656719388812231,-1.0856860488856752,-0.9932384490966797,0.07847724109888077,0.08555272966623306,-0.6375858187675476,-0.05393608286976814,0.023416968062520027
6.060003757476807,0.2620342969894409,0.5601284503936768,-0.3082234859466553,-0.08081335590301618,-1.657686980494416,-1.1003520036313146,-0.9929763078689575,0.08072542399168015,0.08649815618991852,-0.7666159868240356,0.047021422535181046,0.30183953046798706
6.079571962356567,0.25921887159347534,0.5772363543510437,-0.3427983522415161,-0.08748705969599568,-1.658195726109611,-1.1149390019410557,-0.9923732876777649,0.08737549930810928,0.08695434778928757,-0.5780234336853027,-0.0020405719988048077,0.47625306248664856
6.099915981292725,0.23345714807510376,0.5985162258148193,-0.3676797151565552,-0.09748466891438379,-1.6604569551064745,-1.1228614477278984,-0.9912545084953308,0.09733033925294876,0.08911542594432831,-0.09633868932723999,-0.16271813213825226,0.583895742893219
6.119922876358032,0.15661072731018066,0.6261259317398071,-0.38037407398223877,-0.11004266388733129,-1.6648595274647304,-1.1199613934075083,-0.9895576238632202,0.10982070863246918,0.09335645288228989,0.5126580595970154,-0.28854086995124817,0.6336114406585693
6.13993501663208,0.050043582916259766,0.6246220469474792,-0.3525731563568115,-0.12475525291687484,-1.6686391447990525,-1.1050426833667857,-0.9874826073646545,0.12443189322948456,0.09692758321762085,1.0585135221481323,-0.24820010364055634,0.6953908205032349
6.159966945648193,-0.06326931715011597,0.5873416066169739,-0.25535690784454346,-0.14215585502020098,-1.6709884120377485,-1.0831279184163762,-0.9849485754966736,0.14167754352092743,0.09901559352874756,1.2324613332748413,-0.32943716645240784,0.8219588994979858
6.180030822753906,-0.37291228771209717,0.6020136475563049,-0.2869325876235962,-0.16167500398011914,-1.6743561275580625,-1.059160028945186,-0.9816715717315674,0.16097159683704376,0.10202670842409134,1.3492459058761597,-0.29074373841285706,0.8349007368087769
6.200056076049805,-0.681726336479187,0.6557170748710632,-0.2504582405090332,-0.17993863276025543,-1.6702351269810063,-1.0316818798433982,-0.978994607925415,0.17896920442581177,0.09767218679189682,1.517848014831543,0.29399287700653076,0.7177534699440002
6.2199718952178955,-0.5449265241622925,0.5420165061950684,-0.0886077880859375,-0.19844978662622012,-1.6522564384006002,-1.0034828397465096,-0.9771225452423096,0.19714978337287903,0.07977304607629776,1.3242928981781006,0.8915773034095764,0.9319639205932617
6.239975929260254,-0.27240854501724243,0.3822687268257141,0.07004964351654053,-0.22501786438168828,-1.6271508899398581,-0.983770085351503,-0.9732427597045898,0.22312377393245697,0.05490480735898018,0.7583933472633362,1.0918970108032227,1.5450018644332886
6.2599687576293945,-0.2747436761856079,0.3010823130607605,0.06846785545349121,-0.26207275382342293,-1.6020328788668974,-0.9729661962071303,-0.9653840065002441,0.259083092212677,0.03016507811844349,0.5459932684898376,1.1493479013442993,2.0294599533081055
6.28002405166626,-0.36167579889297485,0.314886212348938,0.022468924522399902,-0.3036501980326534,-1.5752014970171404,-0.9596212821651041,-0.9542422294616699,0.299005389213562,0.004203626420348883,0.9392776489257812,1.125071406364441,2.068641424179077
6.300025939941406,-0.3077578544616699,0.3035055696964264,0.013477984815835953,-0.3454281229048105,-1.545296327683473,-0.932768059630536,-0.9406246542930603,0.3385995328426361,-0.02399112842977047,1.6272450685501099,0.9212402701377869,2.140585422515869
6.319938898086548,-0.24097001552581787,0.24659845232963562,0.03429645299911499,-0.386602204590173,-1.5141484425167326,-0.8858890814254847,-0.9247100353240967,0.37704357504844666,-0.052438970655202866,2.5125677585601807,0.5744854807853699,2.206601142883301
6.3399658203125,-0.2233840823173523,0.18560859560966492,0.12660986185073853,-0.4279011973523061,-1.4797642394873833,-0.8218498285191287,-0.9060715436935425,0.41496214270591736,-0.08271018415689468,3.051143169403076,0.3217836618423462,2.3433403968811035
6.359989881515503,-0.25439029932022095,0.10653433203697205,0.25342971086502075,-0.46784156071180777,-1.4391069903635492,-0.7459518292219172,-0.8848157525062561,0.45096084475517273,-0.11719907820224762,3.254848003387451,0.4847617447376251,2.383662462234497
6.379909992218018,-0.2599601149559021,-0.018287837505340576,0.35415709018707275,-0.5056576272280043,-1.389050790647022,-0.6654338308408287,-0.8604470491409302,0.48438286781311035,-0.1581273227930069,3.1414084434509277,0.7532951235771179,2.4814646244049072
6.399211883544922,-0.22763442993164062,-0.1651318073272705,0.42250239849090576,-0.5436806758610547,-1.3330493220289388,-0.5883971268930452,-0.8317376375198364,0.5172894597053528,-0.2015550583600998,2.5494117736816406,0.9501405954360962,2.621798515319824
6.42001485824585,-0.25515228509902954,-0.2644426226615906,0.41438060998916626,-0.5829255212514575,-1.2777335225080169,-0.5217789325975116,-0.799260675907135,0.5504686832427979,-0.2411780208349228,1.8864328861236572,1.0505506992340088,2.629051923751831
6.439905881881714,-0.2651515007019043,-0.28870993852615356,0.4201034605503082,-0.6218419498036928,-1.2231261273950944,-0.46517116947931875,-0.764176070690155,0.5825332999229431,-0.27693015336990356,1.3520313501358032,1.2027971744537354,2.519541025161743
6.459918022155762,-0.2237580418586731,-0.33565080165863037,0.438362181186676,-0.6583011953396606,-1.169212202711048,-0.4162488258566934,-0.7281005382537842,0.6117739081382751,-0.30919647216796875,0.9968248009681702,1.25129234790802,2.3087260723114014
6.480014801025391,-0.18122196197509766,-0.3734908103942871,0.46565914154052734,-0.6906728377951243,-1.1170868966617578,-0.37258248575049635,-0.6928320527076721,0.6370559334754944,-0.33785146474838257,0.7907050848007202,1.2340306043624878,2.056880235671997
6.499913930892944,-0.16756844520568848,-0.3913719058036804,0.47630494832992554,-0.717557339918236,-1.067004882514343,-0.33183877071644297,-0.6598089337348938,0.6575462818145752,-0.3637102544307709,0.7529749274253845,1.1283317804336548,1.7576173543930054
6.51997709274292,-0.168165385723114,-0.41714757680892944,0.4943864643573761,-0.7373182246586993,-1.0195836382290204,-0.2932196906064889,-0.630632221698761,0.6723051071166992,-0.38769692182540894,0.7420561909675598,1.0544183254241943,1.403839349746704
6.539994955062866,-0.14979690313339233,-0.4618421792984009,0.5202484130859375,-0.7507388114090408,-0.9764260536214249,-0.25968989194527825,-0.6057878732681274,0.6821791529655457,-0.4094542860984802,0.5887022614479065,0.9932573437690735,1.0662436485290527
6.559937953948975,-0.11164253950119019,-0.48303383588790894,0.5210229158401489,-0.7600200160143786,-0.9402431274199152,-0.23457645660796567,-0.5854399800300598,0.6889359354972839,-0.42734915018081665,0.38116100430488586,0.8862309455871582,0.7588330507278442
6.579967975616455,-0.06131792068481445,-0.48670655488967896,0.5097988843917847,-0.7663058844538329,-0.9128454147036266,-0.2170802215652861,-0.570075511932373,0.6934784650802612,-0.4405696392059326,0.27144837379455566,0.6353070735931396,0.5110593438148499
6.599976062774658,-0.027024507522583008,-0.5013892650604248,0.5171416997909546,-0.770002872088855,-0.8941159663131174,-0.2045955209510605,-0.5597217679023743,0.6961373090744019,-0.4495604336261749,0.2134452909231186,0.3625882565975189,0.31173205375671387
6.619966983795166,-0.04659968614578247,-0.5228793621063232,0.5144926905632019,-0.7709039119768839,-0.8854047410829807,-0.1976413465084998,-0.5552985072135925,0.6967839002609253,-0.45402199029922485,0.1156846210360527,-0.0019135393667966127,0.05941839516162872
6.640004873275757,-0.14430135488510132,-0.49630916118621826,0.5075992941856384,-0.7688359945929134,-0.8897429030484635,-0.19861725459758695,-0.558381199836731,0.6952990889549255,-0.45251500606536865,-0.048841606825590134,-0.3109505772590637,-0.27576902508735657
6.659969806671143,-0.2624998092651367,-0.45218783617019653,0.5317120552062988,-0.763741829617689,-0.9044355717241159,-0.21048387252296782,-0.5677461624145508,0.6916288137435913,-0.44644591212272644,-0.3259073495864868,-0.29762953519821167,-0.6616677045822144
6.679989814758301,-0.3047005534172058,-0.46483832597732544,0.534396231174469,-0.7569203900773473,-0.925925445145079,-0.2358218720842622,-0.5809653997421265,0.6866859793663025,-0.43696874380111694,-0.7153617143630981,-0.10244103521108627,-0.9863566160202026
6.700066089630127,-0.22716760635375977,-0.46068626642227173,0.4556230306625366,-0.7491382573223321,-0.9540296701481684,-0.2723684384115074,-0.5973564386367798,0.681007981300354,-0.42354896664619446,-0.9356710910797119,-0.32930105924606323,-1.2138973474502563
6.71997594833374,-0.23381268978118896,-0.35711848735809326,0.39254143834114075,-0.737584840813848,-0.997072203360911,-0.3136687039456773,-0.621595025062561,0.6725023984909058,-0.4016966223716736,-0.9064327478408813,-1.2208833694458008,-1.4848525524139404
6.739964962005615,-0.5419905185699463,-0.2522660493850708,0.3991774618625641,-0.7172850982009729,-1.0566003774834911,-0.35847672686184445,-0.6561448574066162,0.6573411822319031,-0.3706434369087219,-0.9657725095748901,-1.5610848665237427,-2.0500431060791016
6.759976863861084,-0.8740008473396301,-0.23865759372711182,0.49417731165885925,-0.6860212327961951,-1.1150655975168884,-0.4143538778339362,-0.6948010921478271,0.6334635615348816,-0.3405516743659973,-1.4328783750534058,-0.541043221950531,-2.6423728466033936
6.779821872711182,-0.5515113472938538,-0.29113954305648804,0.457466721534729,-0.6524101898334156,-1.1623789550944748,-0.48447024649227366,-0.7292656898498535,0.6071033477783203,-0.31559038162231445,-2.161949634552002,-0.10030091553926468,-2.6564462184906006
6.800004959106445,-0.2275802493095398,-0.13622045516967773,0.265774667263031,-0.6211746913027258,-1.2185472130459838,-0.5627121148624393,-0.763264536857605,0.5819908380508423,-0.28056031465530396,-2.3811280727386475,-0.9624013304710388,-2.6092610359191895
6.819965839385986,-0.26897990703582764,0.06679344177246094,0.06336140632629395,-0.5856899962005854,-1.283781944355741,-0.6314084144117931,-0.7992422580718994,0.5527744889259338,-0.2359076887369156,-1.7776799201965332,-1.5192549228668213,-2.5625526905059814
6.839975833892822,-0.38396674394607544,0.08591538667678833,-0.019131526350975037,-0.5434555073310511,-1.3405214481957044,-0.6801842432681114,-0.8333337306976318,0.517096757888794,-0.1953611969947815,-1.2144885063171387,-1.49905264377594,-2.5953738689422607
6.859975814819336,-0.3424025774002075,0.11038938164710999,-0.052854299545288086,-0.4978781214047175,-1.3878891730320508,-0.7164381715555962,-0.8639421463012695,0.4775623381137848,-0.15980729460716248,-0.9352579712867737,-1.4383336305618286,-2.475257635116577
6.879970073699951,-0.27568674087524414,0.19515132904052734,-0.06339246034622192,-0.45469363983875905,-1.4274751286562306,-0.7422964170180933,-0.8891846537590027,0.43918710947036743,-0.12831881642341614,-0.6585404276847839,-1.2979660034179688,-2.158168315887451
6.8999669551849365,-0.24340230226516724,0.19082221388816833,-0.038572147488594055,-0.4167986572540711,-1.4590062374595245,-0.7629934452773489,-0.9086822867393494,0.4048352539539337,-0.1020069569349289,-0.8208418488502502,-0.9618323445320129,-1.8609707355499268
6.919983863830566,-0.1829128861427307,0.13486382365226746,-0.023247241973876953,-0.3844061206345276,-1.4857360320172033,-0.7919493155615114,-0.9236698746681213,0.3750086724758148,-0.07875766605138779,-1.5641849040985107,-0.6122817993164062,-1.6269338130950928
6.939966917037964,-0.09800946712493896,0.13851165771484375,-0.07068151980638504,-0.3576346951171065,-1.512156403860713,-0.8364188624105847,-0.9351175427436829,0.3500595688819885,-0.05489816144108772,-2.366903305053711,-0.4290259778499603,-1.3430447578430176
6.9600090980529785,-0.03582048416137695,0.23001021146774292,-0.13487356901168823,-0.3346580462929554,-1.5382556535940102,-0.8911192409870121,-0.9440226554870605,0.3284462094306946,-0.030729979276657104,-2.554959297180176,-0.3157139718532562,-1.1679378747940063
6.979964971542358,0.028300762176513672,0.34537848830223083,-0.19152730703353882,-0.31318935163079825,-1.5604500928482887,-0.9422672427551108,-0.9513049721717834,0.30809441208839417,-0.009842774830758572,-2.1185412406921387,-0.32135945558547974,-1.1339668035507202
6.9999659061431885,0.11074501276016235,0.40138810873031616,-0.21459078788757324,-0.289800347279069,-1.5795926735751085,-0.9804184082173071,-0.9582638740539551,0.28576090931892395,0.008429438807070255,-1.4955413341522217,-0.4633805751800537,-1.1600418090820312
7.019974946975708,0.17387807369232178,0.4053172171115875,-0.22977471351623535,-0.26671815453953657,-1.5974454089121766,-1.0045045348047674,-0.964298665523529,0.2635670602321625,0.025703759863972664,-0.8734716176986694,-0.6436247825622559,-1.1082735061645508
7.040006875991821,0.16554409265518188,0.43016210198402405,-0.27436816692352295,-0.24438235425419902,-1.6148277431000766,-1.0168291858977474,-0.9693466424942017,0.24195708334445953,0.04270930960774422,-0.43073737621307373,-0.7569860219955444,-1.07716965675354
7.059967994689941,0.1456405520439148,0.4459562301635742,-0.3202463388442993,-0.2230330722801287,-1.6310661005059395,-1.0209855618679593,-0.9734605550765991,0.22118857502937317,0.05874139070510864,-0.11721553653478622,-0.747156023979187,-1.0244488716125488
7.079977989196777,0.16270864009857178,0.4278064966201782,-0.31623339653015137,-0.20389822132146718,-1.6455277093288134,-1.0215659472821563,-0.9765514731407166,0.20248833298683167,0.07311519980430603,-0.1145821064710617,-0.6709557175636292,-0.874785304069519
7.099966049194336,0.16353225708007812,0.42693981528282166,-0.3276400566101074,-0.18807383754979667,-1.6584386563418925,-1.0246969145760882,-0.9785957336425781,0.18696704506874084,0.0859866812825203,-0.34806033968925476,-0.5511821508407593,-0.6720796227455139
7.119996070861816,0.153839111328125,0.42160284519195557,-0.33008456230163574,-0.17634031339875544,-1.6683386902496165,-1.0334870357888133,-0.979812741279602,0.17542782425880432,0.0958775132894516,-0.6325595378875732,-0.25725769996643066,-0.40107518434524536
7.139967918395996,0.15378308296203613,0.43973326683044434,-0.33214402198791504,-0.1696765615180173,-1.6727674385167741,-1.049231379046282,-0.9805196523666382,0.16886356472969055,0.10033267736434937,-0.9621489644050598,0.05816994979977608,-0.12202402949333191
7.1599650382995605,0.15170049667358398,0.48852625489234924,-0.38685154914855957,-0.16701907757370232,-1.673752728164111,-1.0687554626775346,-0.9808632135391235,0.16624364256858826,0.10134448856115341,-0.9315486550331116,0.1502941995859146,0.05228640139102936
7.179962873458862,0.15594512224197388,0.5324016213417053,-0.39967429637908936,-0.16815785130339558,-1.6736691922306783,-1.0857603184381879,-0.9806827902793884,0.16736647486686707,0.1012430489063263,-0.7183509469032288,0.12403294444084167,0.23188240826129913
7.1999969482421875,0.12504726648330688,0.5312851667404175,-0.41104912757873535,-0.17309972431804793,-1.6741535570621948,-1.097651173717525,-0.9797989726066589,0.1722365766763687,0.10163147002458572,-0.3654085695743561,0.02578227035701275,0.3789505064487457
7.219966888427734,0.041375577449798584,0.563301682472229,-0.4096158742904663,-0.1819324769509741,-1.6744284337656221,-1.100556704448573,-0.9782195091247559,0.180930495262146,0.10173942893743515,0.19265258312225342,0.005615483038127422,0.5311775803565979
7.239964008331299,-0.07391369342803955,0.5933817625045776,-0.4014143943786621,-0.19464928676126106,-1.672062080126809,-1.0925523200176588,-0.976089358329773,0.19342245161533356,0.09918369352817535,0.6758394241333008,0.10229764133691788,0.6403486728668213
7.259974002838135,-0.13063675165176392,0.5070111751556396,-0.31635868549346924,-0.2103258958365582,-1.665002144150039,-1.078799314610331,-0.9736266732215881,0.20877861976623535,0.09199360013008118,0.7252663373947144,0.3086540997028351,0.8185330033302307
7.279984951019287,-0.20566731691360474,0.426211953163147,-0.2539592981338501,-0.23039243395724718,-1.6566401848689978,-1.0697616977688464,-0.9699919819831848,0.22835960984230042,0.08347299695014954,0.34154775738716125,0.3235049545764923,1.0630042552947998
7.299972057342529,-0.4046551585197449,0.45920950174331665,-0.29315686225891113,-0.2525738441351214,-1.6459629621612435,-1.0652290643052278,-0.9655384421348572,0.24989697337150574,0.07271327078342438,0.348844051361084,0.6818880438804626,1.0860979557037354
7.319936752319336,-0.3667588233947754,0.48312312364578247,-0.22894465923309326,-0.2759981036206207,-1.6258727531822754,-1.0571336216083684,-0.9606949090957642,0.2725073993206024,0.052965205162763596,0.5440657138824463,0.9883530139923096,1.1841002702713013
7.340017795562744,-0.2149183750152588,0.4041815996170044,-0.14220547676086426,-0.30291375782205693,-1.6028483273479563,-1.0462819208113237,-0.9539812803268433,0.298302561044693,0.030587483197450638,0.5889328718185425,0.9549515247344971,1.4465967416763306
7.360002040863037,-0.2056283950805664,0.3052178621292114,-0.060738444328308105,-0.33422500155828483,-1.5799963912656656,-1.0343010036667364,-0.9446249008178711,0.3280371427536011,0.008690855465829372,0.6719918251037598,0.958299458026886,1.616017460823059
7.379981994628906,-0.27015841007232666,0.24812328815460205,-0.0576665997505188,-0.3662738876388934,-1.5536559344595096,-1.0154151397473754,-0.9335312843322754,0.3581389784812927,-0.016002658754587173,1.1994349956512451,1.0089375972747803,1.5967259407043457
7.4000020027160645,-0.29221779108047485,0.19621402025222778,-0.09526121616363525,-0.3937790904718621,-1.5220007531336799,-0.9788923557557311,-0.9223666787147522,0.3836809992790222,-0.04504316672682762,2.2653019428253174,0.6948603987693787,1.1746937036514282
7.419986963272095,-0.2703588008880615,0.15767019987106323,-0.0736272856593132,-0.41477443446338513,-1.485851986009769,-0.9224091258674783,-0.9119074940681458,0.40298348665237427,-0.07764822989702225,2.5317654609680176,0.618367612361908,1.4015041589736938
7.440062999725342,-0.22529453039169312,0.05553320050239563,0.11721278727054596,-0.4413531317883553,-1.4497086456328385,-0.8668866953626889,-0.8975539803504944,0.42716333270072937,-0.10921704024076462,2.2023468017578125,0.8116738200187683,1.6402223110198975
7.4600090980529785,-0.23532390594482422,0.11092880368232727,0.15335792303085327,-0.4661669512564461,-1.4088154719970403,-0.8158858256993331,-0.8816043138504028,0.4494655430316925,-0.14406521618366241,2.096634864807129,1.0052589178085327,1.5215128660202026
7.479972839355469,-0.12497580051422119,0.03448694944381714,0.18884862959384918,-0.4907597976892422,-1.363074864819986,-0.7625715702213666,-0.8630155920982361,0.47129616141319275,-0.18189050257205963,2.052743673324585,1.0620129108428955,1.795445442199707
7.4999799728393555,-0.10061579942703247,-0.08553576469421387,0.24141302704811096,-0.51928162681566,-1.3175525476541132,-0.7105247130062535,-0.8404852747917175,0.49625658988952637,-0.2175176441669464,1.7236944437026978,0.9935818314552307,2.005903482437134
7.519999027252197,-0.14540541172027588,-0.13690048456192017,0.29369017481803894,-0.5507354085829044,-1.2729942527864346,-0.6632940673731774,-0.8146318197250366,0.5233140587806702,-0.2500346601009369,1.3313889503479004,1.086570382118225,2.127697229385376
7.5399699211120605,-0.18052959442138672,-0.1741310954093933,0.3347378969192505,-0.5843032184587154,-1.2275567834981063,-0.6215996605470028,-0.7854434251785278,0.5516183376312256,-0.2807064652442932,0.9601547122001648,1.2139809131622314,2.160369873046875
7.5599799156188965,-0.1726345419883728,-0.23282402753829956,0.37091532349586487,-0.6190748388396743,-1.1821067194309445,-0.5851783346414614,-0.7536655068397522,0.5802819728851318,-0.30864405632019043,0.6187358498573303,1.263828158378601,2.1722798347473145
7.579961776733398,-0.17645037174224854,-0.28734928369522095,0.3840945065021515,-0.6547857774056939,-1.1374638572514326,-0.5526090236927177,-0.719866156578064,0.6089893579483032,-0.33305370807647705,0.3739122450351715,1.2642487287521362,2.135237216949463
7.599984884262085,-0.1867702603340149,-0.3190741539001465,0.4102429449558258,-0.6891247492818975,-1.093881377134814,-0.5228283635471059,-0.6856815814971924,0.6358619332313538,-0.35428887605667114,0.2145419865846634,1.2451701164245605,1.969502568244934
7.6199750900268555,-0.17797553539276123,-0.35520535707473755,0.46148887276649475,-0.7205746756952259,-1.0521057808868897,-0.49615818329879546,-0.6525908708572388,0.6598166227340698,-0.3725147843360901,0.08223679661750793,1.2065010070800781,1.7674649953842163
7.639976978302002,-0.1675979495048523,-0.3990349769592285,0.4733112156391144,-0.7485678777610298,-1.0124292012614098,-0.47213202384705943,-0.6213882565498352,0.6805902123451233,-0.38816705346107483,0.01918303407728672,1.1433775424957275,1.5547534227371216
7.659970760345459,-0.1355351209640503,-0.42262744903564453,0.4777100086212158,-0.7727966537562662,-0.9760939697275601,-0.45065048364499766,-0.5930415987968445,0.6981402635574341,-0.40112602710723877,-0.019074952229857445,1.006348967552185,1.3238602876663208
7.679965972900391,-0.09769922494888306,-0.45627307891845703,0.438169002532959,-0.7920748492856611,-0.944576834824805,-0.43090102419013,-0.5690946578979492,0.7118121385574341,-0.4116491377353668,0.07630656659603119,0.7236723899841309,1.0573549270629883
7.699985980987549,-0.07516616582870483,-0.46664953231811523,0.43075716495513916,-0.8050219374331261,-0.920273794466732,-0.41224118435078505,-0.5515429377555847,0.7208458185195923,-0.4197402894496918,0.20461931824684143,0.3859691023826599,0.7437707781791687
7.719913959503174,-0.08602356910705566,-0.47310513257980347,0.4469577968120575,-0.8109861022345332,-0.903889559801318,-0.3966158673243918,-0.5412042737007141,0.7249667644500732,-0.42605316638946533,0.27098745107650757,0.14436990022659302,0.382114440202713
7.73997688293457,-0.11270999908447266,-0.5140213966369629,0.4597739279270172,-0.8112184769915097,-0.8969968727354262,-0.3884441953208482,-0.5381231307983398,0.7251268029212952,-0.42966824769973755,0.13342562317848206,-0.048804350197315216,-0.012632885947823524
7.7599639892578125,-0.15701717138290405,-0.5323035717010498,0.43094170093536377,-0.8076606798116147,-0.9027989842575924,-0.3917854204384173,-0.5426288843154907,0.7226722240447998,-0.4281339943408966,-0.08135958015918732,-0.28516459465026855,-0.4157443642616272
7.779965877532959,-0.20959347486495972,-0.4698275327682495,0.3971264660358429,-0.7999336473220982,-0.9207206689095319,-0.4061520789113532,-0.5546429753303528,0.717309832572937,-0.42170825600624084,-0.2136300504207611,-0.4459238350391388,-0.8092747330665588
7.79999303817749,-0.2259107232093811,-0.41814714670181274,0.3609933853149414,-0.787034033436579,-0.9455170102056116,-0.42844872197310335,-0.5723834037780762,0.70826256275177,-0.41320887207984924,-0.2836209833621979,-0.4325437545776367,-1.1422739028930664
7.81996488571167,-0.16787773370742798,-0.40961188077926636,0.3169921636581421,-0.7702850922780737,-0.9751208524816684,-0.4565103553891322,-0.5941005349159241,0.6963399052619934,-0.4026854336261749,-0.38657915592193604,-0.6332610249519348,-1.3824958801269531
7.839963912963867,-0.17123562097549438,-0.3436332941055298,0.28321000933647156,-0.7493011108195151,-1.0150842541518685,-0.48789360866988296,-0.6219925880432129,0.6811272501945496,-0.3862525224685669,-0.343528687953949,-1.238729476928711,-1.6284736394882202
7.860128879547119,-0.3893550634384155,-0.2309730052947998,0.28190430998802185,-0.7209668349836311,-1.0649433595666908,-0.5184891983403317,-0.6570927500724792,0.6601112484931946,-0.3639812171459198,-0.18749065697193146,-1.5874947309494019,-2.0097620487213135
7.879992961883545,-0.7079635262489319,-0.1557401418685913,0.32683098316192627,-0.6827112588555646,-1.1138729725667296,-0.5504172897462501,-0.6962723731994629,0.6308988928794861,-0.3423033058643341,-0.2832712233066559,-1.14031982421875,-2.5094029903411865
7.899261951446533,-0.6983920931816101,-0.1660112738609314,0.37193620204925537,-0.6393898538103995,-1.1535004157233377,-0.5902404629476734,-0.7335995435714722,0.5967059135437012,-0.3252289593219757,-0.7934061288833618,-0.45136332511901855,-2.6785693168640137
7.919987916946411,-0.3665352463722229,-0.1352580189704895,0.3132173418998718,-0.6004042846822146,-1.192791650050035,-0.6409687630060016,-0.7668572068214417,0.5649760961532593,-0.3045197129249573,-1.4852341413497925,-0.6962262392044067,-2.503019094467163
7.940026760101318,-0.29513806104660034,-0.04285109043121338,0.1858968436717987,-0.5674279855228369,-1.244571443506493,-0.6975933266609636,-0.7988104820251465,0.5374648571014404,-0.2702473998069763,-1.7187108993530273,-1.2853940725326538,-2.2320711612701416
7.959989070892334,-0.4351254105567932,-0.0030592679977416992,0.12366491556167603,-0.5366247284472028,-1.2963713573500433,-0.7488012301645417,-0.8272801041603088,0.5112380981445312,-0.2329024374485016,-1.516406536102295,-1.0927519798278809,-2.0165140628814697
7.980044841766357,-0.43275368213653564,0.0461193323135376,0.06719405949115753,-0.5061113145993029,-1.336800385650796,-0.7926118834388595,-0.8508004546165466,0.4847797453403473,-0.2027987837791443,-1.413468837738037,-0.8438351154327393,-1.9246639013290405
8.000037908554077,-0.30714911222457886,0.15174123644828796,-0.02122318744659424,-0.474834550792167,-1.3723447381885256,-0.8304642203498483,-0.8719128966331482,0.4571913182735443,-0.17534038424491882,-1.1373988389968872,-0.9345580339431763,-1.8263901472091675
8.020071029663086,-0.2233784794807434,0.17389926314353943,-0.06402967870235443,-0.44484536957312476,-1.4040837168453852,-0.8588934758399966,-0.8901622295379639,0.43031829595565796,-0.14979156851768494,-0.8730202913284302,-0.9321044087409973,-1.5745512247085571
8.039989948272705,-0.1384904384613037,0.06444990634918213,-0.022618219256401062,-0.41930195707635337,-1.431963811665633,-0.8851273411498604,-0.9045851826667786,0.40712296962738037,-0.1263989806175232,-1.1854010820388794,-0.7007582187652588,-1.3209093809127808
8.059966087341309,-0.03305727243423462,-0.02442219853401184,-0.015780985355377197,-0.3994801234993246,-1.4578996936140662,-0.9221566834966242,-0.9153986573219299,0.38893944025039673,-0.10378674417734146,-1.9916448593139648,-0.35628166794776917,-1.054050326347351
8.07991886138916,0.05329692363739014,0.010667562484741211,-0.09724175930023193,-0.3837202421913956,-1.480743041820072,-0.969734228323615,-0.9235210418701172,0.3743727505207062,-0.08339165151119232,-2.2001795768737793,-0.13992956280708313,-0.9393042325973511
8.099974870681763,0.08196723461151123,0.11807605624198914,-0.1753212809562683,-0.372160344850727,-1.498412740260611,-1.0229917652352987,-0.9291049242019653,0.3636287450790405,-0.06736964732408524,-2.591322422027588,0.4197947382926941,-0.6221845149993896
8.119990825653076,0.0036115050315856934,0.10995078086853027,-0.2635400891304016,-0.36178789567008446,-1.508242816646676,-1.0826296689739232,-0.9334364533424377,0.3539469540119171,-0.05846600607037544,-2.9282336235046387,0.7169874310493469,-0.8143080472946167
8.139962911605835,0.04213893413543701,0.16841289401054382,-0.27946412563323975,-0.3452892271457247,-1.517582603185315,-1.1424252722558208,-0.9396457672119141,0.33846884965896606,-0.050049301236867905,-2.306523084640503,0.264206200838089,-1.1425917148590088
8.159992933273315,0.1549195647239685,0.3522118628025055,-0.23783576488494873,-0.32028954930496967,-1.5313799777223722,-1.1776738191395157,-0.9484072327613831,0.3148413896560669,-0.03740212321281433,-0.9493542313575745,-0.4625435769557953,-1.4708473682403564
8.18007493019104,0.17889690399169922,0.3405607342720032,-0.14717859029769897,-0.29088940717127326,-1.5492362648369429,-1.1908338872946933,-0.9577666521072388,0.2868043780326843,-0.020652707666158676,-0.287795752286911,-0.8776171803474426,-1.4826587438583374
8.20005488395691,0.08579152822494507,0.24988409876823425,-0.10068386793136597,-0.26150927202003815,-1.5672490272331443,-1.194155120860354,-0.9659950137138367,0.2585388123989105,-0.0034266880247741938,-0.05458085238933563,-0.7085525393486023,-1.4270830154418945
8.220033884048462,0.03167009353637695,0.3251112401485443,-0.10205376148223877,-0.2348260303312515,-1.5758829385419646,-1.1938148105574335,-0.9725422859191895,0.2326737940311432,0.004946987610310316,0.07701880484819412,-0.18251535296440125,-1.2294869422912598
8.24000597000122,0.08072537183761597,0.38204702734947205,-0.14861810207366943,-0.21238045811433431,-1.5766942574148064,-1.1931168441635283,-0.9775150418281555,0.21078747510910034,0.005765382666140795,-0.1048329696059227,0.033159226179122925,-1.0028687715530396
8.260189056396484,0.1628483533859253,0.33559858798980713,-0.15571367740631104,-0.19555259363054855,-1.5775918242098423,-1.200967405039757,-0.9809178113937378,0.19430862367153168,0.006665926892310381,-0.7179328203201294,0.029675191268324852,-0.6506357789039612
8.280066967010498,0.1449882984161377,0.289199560880661,-0.18909478187561035,-0.18673734711888063,-1.579982134035545,-1.2217149859956786,-0.9825738072395325,0.185653954744339,0.00902598723769188,-1.2567318677902222,0.15033769607543945,-0.21452200412750244
8.300092935562134,0.08481746912002563,0.3819712996482849,-0.2585803270339966,-0.18622664645917156,-1.579201738677097,-1.2486828491692037,-0.9826752543449402,0.1851521134376526,0.008259984664618969,-1.3184242248535156,0.4320608973503113,0.19067047536373138
8.320069789886475,0.06520140171051025,0.49324584007263184,-0.32080817222595215,-0.19403513418291324,-1.5727944184135247,-1.2730443995310905,-0.9812324643135071,0.19281986355781555,0.001960594905540347,-1.061241865158081,0.6349987387657166,0.6160903573036194
8.33995008468628,0.05206763744354248,0.5097190141677856,-0.3200063705444336,-0.21094284763113821,-1.562852660691707,-1.2919231289841402,-0.977803111076355,0.20938193798065186,-0.007767505012452602,-0.792056143283844,0.7342928647994995,1.0785603523254395
8.359986782073975,-0.03236311674118042,0.5031560659408569,-0.35034477710723877,-0.23703344517449773,-1.5487424425147909,-1.3027120265322785,-0.9718026518821716,0.23482005298137665,-0.02143549919128418,-0.27879297733306885,0.9125574827194214,1.5133130550384521
