timestamp,acceleration_x,acceleration_y,acceleration_z,attitude_pitch,attitude_roll,attitude_yaw,gravity_x,gravity_y,gravity_z,rotation_x,rotation_y,rotation_z
0.0,-0.5718953609466553,0.4616168141365051,0.1556268334388733,-0.595773588964147,-0.43268001704941056,-2.873307846440433,-0.34706518054008484,0.5611492395401001,-0.7514368295669556,-1.9988435506820679,-1.7058475017547607,-3.134495735168457
0.01982903480529785,-0.7395285367965698,0.6009915471076965,0.011454939842224121,-0.5852649171982424,-0.5145957880510267,-2.961234263422695,-0.4102669060230255,0.5524201989173889,-0.7256121039390564,-0.70709228515625,-1.5775092840194702,-3.5479941368103027
0.039399147033691406,-0.45648956298828125,0.3322219252586365,0.11622661352157593,-0.5659124004621074,-0.5869618800459834,-3.03407473360211,-0.4674910604953766,0.5361862182617188,-0.7028203010559082,-1.0717005729675293,-1.8147269487380981,-2.668002128601074
0.05952119827270508,-0.2799597978591919,0.0037770867347717285,0.09751129150390625,-0.5646468601985662,-0.666632843169812,-3.1041599003503926,-0.522362470626831,0.535117506980896,-0.663917601108551,-2.3127851486206055,-2.394169330596924,-2.345937490463257
0.07981610298156738,-0.3856546878814697,-0.07544004917144775,0.02232229709625244,-0.5753323050147167,-0.7635707648666088,3.092245452438561,-0.580180823802948,0.5441136360168457,-0.6060778498649597,-3.211357593536377,-2.5713298320770264,-2.5178489685058594
0.10004806518554688,-0.4678240418434143,0.01737534999847412,-0.021166622638702393,-0.5836707644215288,-0.8708917224897215,2.989009970343495,-0.6382702589035034,0.5510907173156738,-0.5375035405158997,-3.622311592102051,-2.509244441986084,-2.8265223503112793
0.11967706680297852,-0.4904181957244873,0.057007014751434326,-0.038859933614730835,-0.5790276733111405,-0.9825714994127797,2.874873261798522,-0.6963187456130981,0.5472103357315063,-0.46443602442741394,-3.7291879653930664,-2.354492664337158,-3.298492670059204
0.14007902145385742,-0.561305582523346,0.1426367163658142,-0.02020895481109619,-0.556587942418202,-1.0896759966229552,2.756801053590509,-0.7526745200157166,0.5282922387123108,-0.39292293787002563,-3.702843427658081,-1.9878796339035034,-3.703101396560669
0.15961313247680664,-0.5925137996673584,0.22369840741157532,-0.04297459125518799,-0.5176131396650491,-1.184580206057298,2.6420444397093723,-0.8049927949905396,0.4948073625564575,-0.32734107971191406,-3.6615967750549316,-1.6575572490692139,-3.958981513977051
0.18016624450683594,-0.49765729904174805,0.2637730538845062,-0.07082748413085938,-0.46803294858089195,-1.2687044286263065,2.531534863596372,-0.8520435094833374,0.4511316418647766,-0.26552215218544006,-3.8974978923797607,-1.547128677368164,-3.9823098182678223
0.20002222061157227,-0.41417789459228516,0.27892357110977173,-0.07329729199409485,-0.4137498568587939,-1.3453403653301004,2.421124628996961,-0.8924472332000732,0.4020455777645111,-0.2046874761581421,-4.388108730316162,-1.4074299335479736,-3.859381914138794
0.22001409530639648,-0.41534852981567383,0.31194692850112915,-0.04626886546611786,-0.3574512730996262,-1.4147611179081372,2.3077237174443677,-0.9254105091094971,0.34988775849342346,-0.14558002352714539,-4.863712787628174,-1.2772001028060913,-3.661794900894165
0.24002504348754883,-0.5569401383399963,0.4155772030353546,0.017138004302978516,-0.2996409390138678,-1.47509680740308,2.1935984680552507,-0.9510706067085266,0.295177161693573,-0.09129587560892105,-5.084624767303467,-1.0053770542144775,-3.46881103515625
0.259613037109375,-0.7671942114830017,0.5442303419113159,0.0995057225227356,-0.23816616649126646,-1.5170661239580867,2.0869361785611042,-0.9703696966171265,0.2359209507703781,-0.052188389003276825,-4.6519927978515625,-0.31327274441719055,-3.44101881980896
0.2800910472869873,-0.6675992012023926,0.6947537660598755,0.10477977991104126,-0.17450827291145668,-1.5354025700363851,1.9948061283500196,-0.9841950535774231,0.17362390458583832,-0.03484891355037689,-4.149566650390625,0.34845131635665894,-3.2983648777008057
0.3000311851501465,-0.27222251892089844,0.7790490984916687,0.04935776814818382,-0.11512595630530828,-1.5382152837868202,1.912026362580745,-0.9928531050682068,0.11487181484699249,-0.032359641045331955,-3.8753058910369873,0.5619202852249146,-2.9250144958496094
0.32002711296081543,0.04193955659866333,0.7454433441162109,0.01867234706878662,-0.06504254625590906,-1.5354401529023312,1.8341724606725596,-0.9972617030143738,0.06499669700860977,-0.03527405858039856,-3.751875877380371,0.4013232886791229,-2.3372268676757812
0.34015893936157227,0.17336934804916382,0.6461511254310608,0.034848567098379135,-0.02893225786493516,-1.5334666430864385,1.7582908117963432,-0.9988850355148315,0.028928222134709358,-0.03730539232492447,-3.7029662132263184,0.15986205637454987,-1.5479590892791748
0.35967397689819336,0.1166885495185852,0.5558567643165588,0.07685405015945435,-0.009084764076103669,-1.5325206648627077,1.6838986036987231,-0.9992262125015259,0.009084639139473438,-0.03826473280787468,-3.6835930347442627,0.16626641154289246,-0.7736639976501465
0.3800930976867676,-0.05618172883987427,0.5946941375732422,0.1543002724647522,-0.00091745656991857,-1.5259473940090316,1.6111465567069754,-0.9989938735961914,0.0009174564620479941,-0.044833872467279434,-3.518084764480591,0.5734978318214417,-0.4663943946361542
0.4001321792602539,-0.20273852348327637,0.7130286693572998,0.17090368270874023,0.006272097198403013,-1.5106796492237644,1.546247187374073,-0.998173713684082,-0.0062720561400055885,-0.06007928028702736,-2.9009604454040527,0.9238415360450745,-0.6437838077545166
0.4200100898742676,-0.14327991008758545,0.7997041940689087,0.15864646434783936,0.016883296404132823,-1.490972050776266,1.4947850094722208,-0.9966735243797302,-0.01688249409198761,-0.0797281563282013,-2.177858591079712,0.9596062898635864,-0.7602400779724121
0.439730167388916,0.014451265335083008,0.8013425469398499,0.1323375701904297,0.028015508159027053,-1.4732848432873382,1.4566035432373936,-0.9948588609695435,-0.02801184356212616,-0.09731881320476532,-1.5630491971969604,0.7023558616638184,-0.6760590076446533
0.4597890377044678,0.11398935317993164,0.7549790143966675,0.09511327743530273,0.03635905727606196,-1.4624141168127323,1.4287286820729652,-0.9934752583503723,-0.036351047456264496,-0.10809864848852158,-1.1636531352996826,0.31411826610565186,-0.4476223886013031
0.4800229072570801,0.14949733018875122,0.7129305601119995,0.08722323179244995,0.040410384159354794,-1.4584189495807984,1.407689153371469,-0.9928809404373169,-0.04039938747882843,-0.11204943060874939,-0.8927491903305054,0.049689821898937225,-0.2105734497308731
0.5000319480895996,0.151922345161438,0.7022356986999512,0.10238154232501984,0.040335574822311746,-1.4583821903957819,1.3921841284482015,-0.9928796887397766,-0.04032463952898979,-0.11208625882863998,-0.6341009736061096,-0.04646662622690201,-0.002443599049001932
0.5198941230773926,0.15971112251281738,0.7245078086853027,0.08370638638734818,0.03669554763890007,-1.460071158693515,1.3837639995415754,-0.9932070374488831,-0.03668731451034546,-0.11042465269565582,-0.20804660022258759,-0.1013675183057785,0.17054404318332672
0.5392720699310303,0.1924569010734558,0.7363695502281189,-0.012496888637542725,0.03015153506228129,-1.4654203300736983,1.3856729466424256,-0.9940009713172913,-0.030146967619657516,-0.10513326525688171,0.3479886054992676,-0.369256854057312,0.3441661298274994
0.5601301193237305,0.21901768445968628,0.7103970050811768,-0.07777352631092072,0.02265479359475016,-1.4764083277956912,1.3983029777898737,-0.9952932596206665,-0.02265285514295101,-0.09422372281551361,0.8010597825050354,-0.6415627002716064,0.48383578658103943
0.5801281929016113,0.2079007625579834,0.6455181241035461,-0.09540904313325882,0.012568591462610417,-1.4901777200503654,1.4179532791660925,-0.9966732859611511,-0.012568260543048382,-0.08052494376897812,1.05348801612854,-0.6528539061546326,0.6794827580451965
0.5999031066894531,0.18335872888565063,0.5677136182785034,-0.1292932629585266,-0.0016681414099655298,-1.502159485866394,1.44195731125522,-0.9976439476013184,0.001668140641413629,-0.06858286261558533,1.2326791286468506,-0.5343103408813477,0.9009085893630981
0.6200661659240723,0.2099739909172058,0.509437620639801,-0.1482200026512146,-0.01986060249958616,-1.5117405711752678,1.468584072581911,-0.9980597496032715,0.019859297201037407,-0.05900979042053223,1.317314863204956,-0.46972066164016724,1.0605268478393555
0.6400198936462402,0.2461458444595337,0.43987172842025757,-0.16204571723937988,-0.040608196985246904,-1.5205753885092148,1.496599843443629,-0.9979155659675598,0.040597036480903625,-0.05015842989087105,1.3389732837677002,-0.4879295825958252,1.148158073425293
0.6600742340087891,0.2536265254020691,0.3777722716331482,-0.1345704197883606,-0.0628055291657247,-1.5279159997460723,1.5233282405732664,-0.9971106648445129,0.0627642497420311,-0.042782656848430634,1.2364416122436523,-0.372637540102005,1.1821788549423218
0.6800742149353027,0.23817533254623413,0.3201204240322113,-0.1458706259727478,-0.08570040276762002,-1.5326798330994864,1.5486391318760926,-0.9956062436103821,0.08559553325176239,-0.03796740621328354,1.2325289249420166,-0.3097602128982544,1.2078216075897217
0.7000589370727539,0.25217580795288086,0.3083943724632263,-0.15150487422943115,-0.1095185239792337,-1.5367419527013964,1.5759621259392314,-0.9934322834014893,0.10929971933364868,-0.03384379670023918,1.4377859830856323,-0.39634960889816284,1.271223545074463
0.7200970649719238,0.24963605403900146,0.331255167722702,-0.15319722890853882,-0.13445104690854662,-1.542829194304349,1.6094201522448635,-0.9905872941017151,0.13404633104801178,-0.027711110189557076,1.8402559757232666,-0.6367710828781128,1.3121999502182007
0.7400321960449219,0.16628265380859375,0.34364575147628784,-0.14700037240982056,-0.15976434228345882,-1.5516271580776393,1.6520406931663993,-0.9870832562446594,0.15908555686473846,-0.018923884257674217,2.338747024536133,-0.8517544269561768,1.3052527904510498
0.7600860595703125,-0.005994439125061035,0.3556814193725586,-0.14946728944778442,-0.18465760089451871,-1.5600928463885144,1.7052516905904298,-0.9829427599906921,0.1836099624633789,-0.01052131038159132,2.8677687644958496,-0.8809735774993896,1.2491095066070557
0.7801430225372314,-0.19600540399551392,0.35914987325668335,-0.09745419025421143,-0.20847324008532642,-1.5641170440567207,1.7675252952455613,-0.9783260226249695,0.20696644484996796,-0.006534613203257322,3.186572551727295,-0.742386519908905,1.189957618713379
0.80029296875,-0.38589298725128174,0.3254316747188568,-0.004563866648823023,-0.23201852508172746,-1.5632874080714378,1.8333632074104647,-0.9731765389442444,0.2299424260854721,-0.007307640742510557,3.205768585205078,-0.5998795032501221,1.2123942375183105
0.8200030326843262,-0.6616939306259155,0.29685935378074646,0.050386250019073486,-0.2552502267985363,-1.5554971032142204,1.89856970008439,-0.9674868583679199,0.25248754024505615,-0.01480295229703188,3.0896267890930176,-0.1509353220462799,1.1533799171447754
0.8401210308074951,-0.821647047996521,0.2642863690853119,0.105671226978302,-0.2763260675553383,-1.5368597974853133,1.960015399131306,-0.9615101218223572,0.27282294631004333,-0.032642848789691925,2.754617214202881,0.35886526107788086,1.088969349861145
0.8600850105285645,-0.6562275886535645,0.1803383231163025,0.11557226628065109,-0.2985011445722763,-1.5108740886666419,2.0132356901662183,-0.9540628790855408,0.2940879762172699,-0.05723810940980911,2.172884464263916,0.6612595319747925,1.2841284275054932
0.888261079788208,-0.2143210768699646,-0.016609877347946167,0.21615570783615112,-0.36278776833741333,-1.458039901354456,2.0786187295674274,-0.9289740324020386,0.3548819124698639,-0.10519398748874664,0.8538950085639954,0.8054982423782349,2.2279489040374756
0.9000802040100098,-0.2143210768699646,-0.016609877347946167,0.21615570783615112,-0.36278776833741333,-1.458039901354456,2.0786187295674274,-0.9289740324020386,0.3548819124698639,-0.10519398748874664,0.8538950085639954,0.8054982423782349,2.2279489040374756
0.91998291015625,-0.1893947720527649,-0.061577051877975464,0.19045108556747437,-0.40983778789531766,-1.434329270684312,2.102546538802544,-0.9086580276489258,0.3984605669975281,-0.12477743625640869,0.8483288884162903,0.6771382093429565,2.6567418575286865
0.9479551315307617,-0.25151848793029785,-0.008337467908859253,0.12048496305942535,-0.5004828322895692,-1.376347412581959,2.1816815560750196,-0.8608165383338928,0.4798492193222046,-0.1695268750190735,2.0607247352600098,0.41705015301704407,2.2506699562072754
0.9684290885925293,-0.20264649391174316,-0.02273869514465332,0.14671523869037628,-0.5313544935480039,-1.3388797253795903,2.2447434306432217,-0.8390403389930725,0.5067015290260315,-0.19815276563167572,2.6046061515808105,0.21427379548549652,1.933498740196228
0.988440990447998,-0.191694974899292,-0.07981473207473755,0.22230511903762817,-0.5523804778349525,-1.2987828826897432,2.316046578608958,-0.819977879524231,0.5247151851654053,-0.2287139743566513,2.7453181743621826,0.14724673330783844,1.6349925994873047
1.0098800659179688,-0.24364489316940308,-0.16997724771499634,0.3068719804286957,-0.5661136344183619,-1.2564494399040602,2.386678246263022,-0.8026350140571594,0.5363560318946838,-0.2609584331512451,2.5524652004241943,0.3706246316432953,1.443584680557251
1.0285000801086426,-0.28119438886642456,-0.26412826776504517,0.3778955340385437,-0.577568595353929,-1.2118673712880847,2.4495679938546497,-0.7844030261039734,0.5459885597229004,-0.29429274797439575,2.0352156162261963,0.6922940015792847,1.3881715536117554
1.039412021636963,-0.28119438886642456,-0.26412826776504517,0.3778955340385437,-0.577568595353929,-1.2118673712880847,2.4495679938546497,-0.7844030261039734,0.5459885597229004,-0.29429274797439575,2.0352156162261963,0.6922940015792847,1.3881715536117554
1.068195104598999,-0.21793019771575928,-0.3860965967178345,0.4530135691165924,-0.6099401199077774,-1.129689206777955,2.5296053857782046,-0.7412219643592834,0.572818398475647,-0.34995588660240173,0.3799431324005127,1.1091656684875488,1.4163013696670532
1.0878682136535645,-0.16391700506210327,-0.42024749517440796,0.4634069800376892,-0.635452130264914,-1.0976251986843444,2.5458438785624264,-0.7163776755332947,0.5935414433479309,-0.36675792932510376,-0.274861603975296,1.1333030462265015,1.4542142152786255
1.1071910858154297,-0.1294533610343933,-0.4273146986961365,0.45779797434806824,-0.6656574563097255,-1.0720255891522474,2.5523844348289075,-0.6906911134719849,0.6175763607025146,-0.3762245774269104,-0.6389580965042114,1.030917763710022,1.4412870407104492
1.1256608963012695,-0.1265389323234558,-0.425284743309021,0.4638572335243225,-0.6969118293785613,-1.0512382009660863,2.553187272670994,-0.6656362414360046,0.6418526768684387,-0.3807274401187897,-0.8160997033119202,1.0104453563690186,1.2950316667556763
1.1393280029296875,-0.1265389323234558,-0.425284743309021,0.4638572335243225,-0.6969118293785613,-1.0512382009660863,2.553187272670994,-0.6656362414360046,0.6418526768684387,-0.3807274401187897,-0.8160997033119202,1.0104453563690186,1.2950316667556763
1.1678121089935303,-0.09657144546508789,-0.4734819531440735,0.4621809124946594,-0.7530119850659447,-1.0204268343187057,2.5432065484985547,-0.6218885779380798,0.6838394999504089,-0.3815993368625641,-0.8813143372535706,0.8259831666946411,0.8997340798377991
1.187939167022705,-0.06236457824707031,-0.504961371421814,0.4522649943828583,-0.7758877739473986,-1.0110236602520812,2.5344919474851006,-0.6048563718795776,0.7003500461578369,-0.37902286648750305,-0.8501039743423462,0.6968023180961609,0.6609343886375427
1.2076570987701416,-0.03163135051727295,-0.5323104858398438,0.4277592599391937,-0.7936439702323733,-1.0070993906945684,2.522817374048032,-0.5927581191062927,0.7129133343696594,-0.3746892809867859,-0.7836089730262756,0.5041839480400085,0.3953472971916199
1.2275230884552002,-0.007372796535491943,-0.5375864505767822,0.38523802161216736,-0.8053940743282845,-1.0094336501135515,2.5094112925104537,-0.5864990949630737,0.7211037278175354,-0.3688196539878845,-0.6259156465530396,0.22172755002975464,0.09037811309099197
1.2406201362609863,-0.007372796535491943,-0.5375864505767822,0.38523802161216736,-0.8053940743282845,-1.0094336501135515,2.5094112925104537,-0.5864990949630737,0.7211037278175354,-0.3688196539878845,-0.6259156465530396,0.22172755002975464,0.09037811309099197
1.2642431259155273,-0.03713715076446533,-0.5103185772895813,0.3392050266265869,-0.8050412480852916,-1.0385768826625323,2.4766068190098953,-0.5972163677215576,0.7208592295646667,-0.35170209407806396,-0.4139162003993988,-0.4731053113937378,-0.7452266812324524
1.282555103302002,-0.13876277208328247,-0.49249398708343506,0.3461576998233795,-0.7926781029787213,-1.0666030510564084,2.4517555512842963,-0.6145939826965332,0.712235689163208,-0.3391082286834717,-0.5216385722160339,-0.49574437737464905,-1.1873297691345215
1.3054919242858887,-0.235163152217865,-0.4653109908103943,0.3853905200958252,-0.7743598916208931,-1.0991818979934085,2.416495155229867,-0.636830747127533,0.6992586255073547,-0.32478275895118713,-0.8491622805595398,-0.2589487135410309,-1.5984734296798706
1.3273460865020752,-0.25419050455093384,-0.4494307041168213,0.3793973922729492,-0.7517533263164397,-1.1353636719687754,2.3692586170851415,-0.6623285412788391,0.6829205751419067,-0.30812373757362366,-1.2204902172088623,-0.1604761928319931,-1.9260938167572021
1.347053050994873,-0.20969480276107788,-0.3930376172065735,0.30066829919815063,-0.7246506976861296,-1.1788299156841766,2.314352498107513,-0.6919469237327576,0.6628739237785339,-0.2860200107097626,-1.361703634262085,-0.5829819440841675,-2.2130377292633057
1.3670291900634766,-0.2702574133872986,-0.2799261808395386,0.2414129376411438,-0.689013861170402,-1.23327704715492,2.2589681882389447,-0.7283234000205994,0.6357763409614563,-0.25560376048088074,-1.302060604095459,-1.229234218597412,-2.6799521446228027
1.3886311054229736,-0.5908910632133484,-0.15240007638931274,0.29720044136047363,-0.6392561471627007,-1.292411358526901,2.2032750058507857,-0.7716423869132996,0.5965986251831055,-0.22054044902324677,-1.4183639287948608,-1.052290439605713,-3.4402897357940674
1.4072961807250977,-0.9783381223678589,-0.07367151975631714,0.38855060935020447,-0.5734983343586654,-1.3389353641794144,2.1446120639141006,-0.817529559135437,0.5425739884376526,-0.1930246204137802,-1.6036901473999023,-0.3124363422393799,-4.051530838012695
1.4268450736999512,-0.6907164454460144,0.012456655502319336,0.25228947401046753,-0.5019311567073814,-1.3744178178120259,2.086032600879445,-0.8598053455352783,0.48111939430236816,-0.17105181515216827,-1.7776639461517334,-0.375590443611145,-3.9534311294555664
1.4469718933105469,-0.3187409043312073,0.22980180382728577,0.04113383591175079,-0.433051666628189,-1.4111624062151829,2.033905573939293,-0.8961484432220459,0.41964271664619446,-0.14428336918354034,-1.4605084657669067,-0.9552314281463623,-3.6594247817993164
1.4668090343475342,-0.24691593647003174,0.3533456027507782,-0.17103558778762817,-0.3679436923654334,-1.4483965588348846,2.0007308049243187,-0.9260880351066589,0.35969752073287964,-0.11392244696617126,-0.6275537014007568,-1.425068974494934,-3.205204486846924
1.4849882125854492,-0.25463181734085083,0.35107874870300293,-0.25944727659225464,-0.3110316749863545,-1.4828685684813625,1.9880727249699028,-0.9483404159545898,0.3060409724712372,-0.08360100537538528,-0.04862618446350098,-1.5150679349899292,-2.5726840496063232
1.5068211555480957,-0.22926658391952515,0.31449371576309204,-0.16267317533493042,-0.2674649810441247,-1.5109866806937313,1.9833497419077084,-0.9627193808555603,0.26428741216659546,-0.057648662477731705,-0.2020891308784485,-1.098877191543579,-1.7898411750793457
1.5270991325378418,-0.22203344106674194,0.28889214992523193,-0.033975839614868164,-0.2405983160608277,-1.5294264324698892,1.969585556308804,-0.970364511013031,0.23828375339508057,-0.04016679525375366,-1.0427772998809814,-0.402742475271225,-1.0045099258422852
1.5468111038208008,-0.2892814874649048,0.2340700775384903,-0.04695713147521019,-0.22571200255541088,-1.5391249540790828,1.9377951283303965,-0.9741460084915161,0.22380036115646362,-0.03086286038160324,-1.9127278327941895,0.11649192869663239,-0.6573802828788757
1.5669810771942139,-0.248643159866333,0.21407964825630188,-0.08648675680160522,-0.21564252932020164,-1.5463005947907928,1.8915106883876935,-0.9765458703041077,0.21397511661052704,-0.023925991728901863,-2.5876173973083496,0.1885995864868164,-0.44546830654144287
1.5884180068969727,-0.10725408792495728,0.25355175137519836,-0.04976761341094971,-0.20954138312641526,-1.5555008472211966,1.8347169097573177,-0.9780117273330688,0.20801132917404175,-0.014960325323045254,-2.90600323677063,0.14056754112243652,-0.27428537607192993
1.6076691150665283,-0.045638859272003174,0.2904031276702881,-0.03272587060928345,-0.2045350073672575,-1.5654154663205342,1.7736443883685151,-0.9791412353515625,0.20311188697814941,-0.005268673412501812,-3.038431406021118,0.14891041815280914,-0.33292457461357117
1.6256189346313477,-0.003130197525024414,0.3026554584503174,-0.028114914894104004,-0.19569200937184547,-1.5737290212832782,1.713967255301663,-0.9809090495109558,0.1944453865289688,0.002876714803278446,-2.768303155899048,0.22641195356845856,-0.5442057251930237
1.6463890075683594,0.0804440975189209,0.33520185947418213,-0.03659772872924805,-0.18254919383361565,-1.5788256343663896,1.662597792063208,-0.9833522439002991,0.18153700232505798,0.007895806804299355,-2.271411657333374,0.22499001026153564,-0.7522706389427185
1.6661500930786133,0.16755074262619019,0.3962382376194,-0.08486950397491455,-0.1636804785397869,-1.5825348479820902,1.6237699575759612,-0.9865660667419434,0.16295059025287628,0.011581358499825,-1.5481524467468262,0.05237952619791031,-1.1115549802780151
1.6861119270324707,0.24184107780456543,0.4636405110359192,-0.15764939785003662,-0.13754659116171714,-1.588122347734927,1.6015108799192108,-0.9904066324234009,0.1371132880449295,0.017161523923277855,-0.676590085029602,-0.28302934765815735,-1.4639034271240234
1.706192970275879,0.2945505380630493,0.5240551233291626,-0.21531426906585693,-0.10593418840916792,-1.597911271503301,1.596686399674123,-0.9940285086631775,0.10573616623878479,0.026959635317325592,0.08356347680091858,-0.6105631589889526,-1.673695683479309
1.7260711193084717,0.3056004047393799,0.5449269413948059,-0.24287879467010498,-0.07250717520043705,-1.6118136224339576,1.603847845881435,-0.9965334534645081,0.0724436566233635,0.040898047387599945,0.44920116662979126,-0.8027821779251099,-1.6815866231918335
1.7450690269470215,0.27119582891464233,0.5396394729614258,-0.2707529067993164,-0.04103000707022299,-1.6276382721758904,1.6140123883268431,-0.9975444078445435,0.041018497198820114,0.05676351115107536,0.34306707978248596,-0.811916172504425,-1.502131462097168
1.7659201622009277,0.22156083583831787,0.555978536605835,-0.2936939001083374,-0.014075078468125266,-1.6422679831365736,1.6185380937408331,-0.9973480105400085,0.014074613340198994,0.07140374183654785,-0.07218485325574875,-0.6549032926559448,-1.2096887826919556
1.7859270572662354,0.1894543170928955,0.5747208595275879,-0.3133653402328491,0.006392045813133215,-1.6532385157937646,1.6144723036234574,-0.9965829849243164,-0.006392002105712891,0.08234713226556778,-0.4826790988445282,-0.42859411239624023,-0.7786804437637329
1.8049359321594238,0.17860913276672363,0.607112467288971,-0.3065190315246582,0.017712139013603585,-1.658768747607353,1.6026818921658876,-0.995976448059082,-0.0177112128585577,0.08784519135951996,-0.7429444193840027,-0.14961972832679749,-0.2561982274055481
1.8256900310516357,0.16455864906311035,0.670992910861969,-0.31785154342651367,0.01916909035806465,-1.6594710903081449,1.5892749393495271,-0.995887815952301,-0.019167916849255562,0.08854231238365173,-0.525073230266571,0.01290553156286478,0.21175307035446167
1.8455801010131836,0.14778029918670654,0.7553099393844604,-0.37063610553741455,0.011383169817458365,-1.6600471119168763,1.5845669426954607,-0.9959552884101868,-0.011382924392819405,0.0891265720129013,0.1902187019586563,-0.11969850212335587,0.5861272215843201
1.8657541275024414,0.08685833215713501,0.8027384281158447,-0.4192758798599243,-0.0040548449098247825,-1.66492486864082,1.5962388595806325,-0.9955648183822632,0.004054833669215441,0.0939888134598732,1.1080965995788574,-0.35899364948272705,0.8236744999885559
1.8855009078979492,-0.03880500793457031,0.760334312915802,-0.38381433486938477,-0.024992416302460616,-1.6717628822456434,1.6229200449659196,-0.9945964217185974,0.024989815428853035,0.10076361149549484,1.6500663757324219,-0.29838383197784424,0.9974755048751831
1.9055590629577637,-0.14063960313796997,0.6327311992645264,-0.26620304584503174,-0.05042615819718362,-1.6730154473647545,1.653275945730601,-0.9935153722763062,0.05040479078888893,0.10191146284341812,1.5569829940795898,0.059460513293743134,1.2509772777557373
1.925447940826416,-0.18189096450805664,0.4727475941181183,-0.18229617178440094,-0.08197066070337299,-1.6678460329877367,1.677461951796783,-0.991952121257782,0.0818788930773735,0.09657204896211624,1.1583935022354126,0.26043835282325745,1.6595921516418457
1.9444420337677002,-0.2535666823387146,0.40280842781066895,-0.17796969413757324,-0.12020115290782557,-1.6602041780133863,1.6947765186900257,-0.9888190031051636,0.11991190910339355,0.08864451199769974,0.9866147041320801,0.319717139005661,1.9453341960906982
1.965744972229004,-0.3846602439880371,0.42958974838256836,-0.21533739566802979,-0.16077796262506944,-1.6500147269701524,1.7136451454801689,-0.9840072393417358,0.16008618474006653,0.07811494916677475,1.289043664932251,0.44859787821769714,1.891762137413025
1.9852418899536133,-0.42888450622558594,0.44952458143234253,-0.18832814693450928,-0.19923661133609752,-1.6339186985873475,1.7416742868344117,-0.9782657623291016,0.19792109727859497,0.061832599341869354,1.713719129562378,0.6410985589027405,1.7620257139205933
2.005199909210205,-0.3275931477546692,0.3600305914878845,-0.042062997817993164,-0.2378320336598386,-1.6109638379496207,1.7764350370596431,-0.971066951751709,0.23559623956680298,0.03902633488178253,1.8092222213745117,0.8225957155227661,1.8614121675491333
2.024199962615967,-0.3309778571128845,0.21676981449127197,0.05837130546569824,-0.27826230833222493,-1.583485107689037,1.8116903234198565,-0.9614565968513489,0.27468520402908325,0.012200367636978626,1.6841636896133423,1.0020415782928467,2.0551226139068604
2.0450029373168945,-0.42673182487487793,0.13464847207069397,0.0836295485496521,-0.3201003471927234,-1.5517175990533845,1.8458774139087872,-0.9490309953689575,0.31466180086135864,-0.01810850016772747,1.6195062398910522,1.1461167335510254,2.1168839931488037
2.0651721954345703,-0.45855414867401123,0.09565281867980957,0.09584712982177734,-0.35999431950443994,-1.5163560619664265,1.8843357457439955,-0.9345120787620544,0.35226890444755554,-0.05092540383338928,1.873968243598938,1.0792657136917114,1.9711986780166626
2.0848870277404785,-0.395222008228302,0.07080909609794617,0.16042059659957886,-0.3970287003135006,-1.4788152619816646,1.9236985117835184,-0.9183154702186584,0.38667988777160645,-0.08470665663480759,1.554325819015503,1.1842806339263916,2.0543432235717773
2.1048831939697266,-0.304720401763916,-0.11323770880699158,0.21134501695632935,-0.4389339077572832,-1.4396170316573018,1.9604421735282747,-0.8974277973175049,0.4249746799468994,-0.11840389668941498,1.2043137550354004,1.2582714557647705,2.503383159637451
2.124917984008789,-0.24575024843215942,-0.1234542727470398,0.2726322412490845,-0.48726542817431046,-1.4011623212437698,1.9911876941819688,-0.8709335327148438,0.4682113230228424,-0.1491735577583313,0.9356648325920105,1.2031269073486328,2.6396520137786865
2.1447958946228027,-0.25920212268829346,-0.1718764305114746,0.2785811424255371,-0.5364399371434304,-1.3604609235851315,2.025467750311765,-0.840590238571167,0.5110792517662048,-0.17946022748947144,1.0480034351348877,1.1924735307693481,2.7692489624023438
2.1646010875701904,-0.3241322636604309,-0.22713476419448853,0.3118816018104553,-0.5852298242075425,-1.3161867764934168,2.064870923636931,-0.8067116737365723,0.552390992641449,-0.20995303988456726,1.0628770589828491,1.1675463914871216,2.7155532836914062
2.1848371028900146,-0.3943305015563965,-0.34136462211608887,0.36316680908203125,-0.6303300568141649,-1.2682242768158587,2.1047800003033714,-0.771135687828064,0.5894114375114441,-0.2407151460647583,0.8086757063865662,1.3725552558898926,2.5247583389282227
2.204693078994751,-0.3360201120376587,-0.4443117380142212,0.42244046926498413,-0.6722498739106018,-1.2186706280790571,2.138986751530055,-0.7344143390655518,0.6227478981018066,-0.2698526978492737,0.41021543741226196,1.4744088649749756,2.3184518814086914
2.2249090671539307,-0.23941165208816528,-0.5266561508178711,0.4417268931865692,-0.7128678980860497,-1.1731445485672582,2.165356467835367,-0.6974626779556274,0.6540060043334961,-0.29295384883880615,0.011709125712513924,1.3918428421020508,2.2375540733337402
2.2441811561584473,-0.18400031328201294,-0.5630702972412109,0.44272834062576294,-0.7535822999666378,-1.1323610660462644,2.186463425615047,-0.6602683663368225,0.6842554807662964,-0.3095802962779999,-0.20964650809764862,1.2726905345916748,2.0965189933776855
2.263768196105957,-0.1804918646812439,-0.5667585134506226,0.4338809847831726,-0.7906802299480795,-1.0969772155414266,2.203444374226853,-0.6258739829063416,0.710831880569458,-0.32093554735183716,-0.30329450964927673,1.0899314880371094,1.7523518800735474
2.2850241661071777,-0.17405498027801514,-0.5460753440856934,0.43020743131637573,-0.8206983534618305,-1.0672477831534113,2.216575148593878,-0.5970935821533203,0.7316220998764038,-0.3289502263069153,-0.2900473177433014,0.9377139806747437,1.320530652999878
2.3047120571136475,-0.13050895929336548,-0.5755038261413574,0.438782274723053,-0.8420204409268024,-1.0425885630633633,2.2264607547503563,-0.5751946568489075,0.7459901571273804,-0.3356330096721649,-0.19735190272331238,0.7979586124420166,0.8746490478515625
2.3242292404174805,-0.0723540186882019,-0.6413100957870483,0.4477632939815521,-0.856264233963779,-1.0248156489719378,2.231435312033428,-0.5600005984306335,0.7553999423980713,-0.3402499556541443,-0.26520073413848877,0.5968350768089294,0.5118958950042725
2.343946933746338,-0.03709590435028076,-0.6638163328170776,0.43677347898483276,-0.8652757583334024,-1.0180743425141416,2.22827827625365,-0.5518779754638672,0.7612740993499756,-0.3404296338558197,-0.36702150106430054,0.2878512442111969,0.13333378732204437
2.3640189170837402,-0.047274649143218994,-0.619579553604126,0.3902723789215088,-0.8676298675284223,-1.0246258202184093,2.216772378639286,-0.5525635480880737,0.7627984881401062,-0.3358749449253082,-0.3780624568462372,-0.0646820217370987,-0.34222742915153503
2.3842039108276367,-0.09047621488571167,-0.5525763630867004,0.35327643156051636,-0.8605537423385903,-1.042569965377002,2.198648843287633,-0.5631491541862488,0.7582037448883057,-0.3286183476448059,-0.26449859142303467,-0.2965456247329712,-0.8604636788368225
2.40358304977417,-0.12912988662719727,-0.5280604958534241,0.3519023656845093,-0.8448374838350251,-1.0665937414480928,2.1760226494480666,-0.5812429189682007,0.747863233089447,-0.32071352005004883,-0.297982782125473,-0.4243890643119812,-1.2266300916671753
2.424950122833252,-0.19142204523086548,-0.5196941494941711,0.3491930067539215,-0.8237716567897572,-1.097944188114621,2.147105335172095,-0.6049034595489502,0.7337137460708618,-0.3094439208507538,-0.433758944272995,-0.5400004982948303,-1.5488128662109375
2.444362163543701,-0.2714751958847046,-0.47566455602645874,0.3426039218902588,-0.7979106503037028,-1.1335970845500916,2.111778786689712,-0.6325316429138184,0.715898871421814,-0.29562222957611084,-0.6271247863769531,-0.43833664059638977,-1.8567098379135132
2.463012218475342,-0.2914028763771057,-0.42205607891082764,0.33716660737991333,-0.7670698281741881,-1.1706158907566733,2.069492784741434,-0.6630647778511047,0.6940286755561829,-0.2804803252220154,-0.8607391715049744,-0.3138028085231781,-2.191679000854492
2.484166145324707,-0.23325449228286743,-0.38598912954330444,0.2910909652709961,-0.7310081675007486,-1.2100099606039119,2.0229671122212123,-0.6965702176094055,0.6676205396652222,-0.26281657814979553,-0.9284964799880981,-0.5294253826141357,-2.406362771987915
2.504033088684082,-0.26136624813079834,-0.31340646743774414,0.21616131067276,-0.6898279364613329,-1.253243401412163,1.980232308812228,-0.7327895164489746,0.6364044547080994,-0.24085018038749695,-0.7206689119338989,-0.9627475142478943,-2.599170446395874
2.523790121078491,-0.5804561972618103,-0.18835031986236572,0.19448518753051758,-0.6393708710327374,-1.2938806837486583,1.945130076153901,-0.7718996405601501,0.5966907143592834,-0.21938768029212952,-0.5016854405403137,-0.8040995597839355,-3.120391368865967
2.543628215789795,-1.0536398887634277,-0.03320246934890747,0.24848952889442444,-0.5744217605170548,-1.3259260025008728,1.908205686907688,-0.8144629001617432,0.5433494448661804,-0.2035219818353653,-0.8505097031593323,-0.3174244463443756,-3.9361789226531982
2.5649030208587646,-0.8092833161354065,0.0641523003578186,0.180137038230896,-0.5004709171058518,-1.3550784232289943,1.8604463273809753,-0.8570221066474915,0.4798387587070465,-0.18779708445072174,-1.4481877088546753,-0.2823565602302551,-4.080129146575928
2.5810210704803467,-0.3184526562690735,0.16900092363357544,-0.003545507788658142,-0.43101262025048404,-1.3892628055584841,1.8074526155519408,-0.8936137557029724,0.4177910387516022,-0.1640266329050064,-1.7468914985656738,-0.7523980140686035,-3.646057367324829
2.604217052459717,-0.19287317991256714,0.25714343786239624,-0.17453087866306305,-0.3702949004807026,-1.425906598443453,1.7599929788086475,-0.9224526882171631,0.36189034581184387,-0.13459710776805878,-1.5056074857711792,-1.0375159978866577,-3.050490617752075
2.624998092651367,-0.1820409893989563,0.27479198575019836,-0.26507818698883057,-0.3206237335154502,-1.4595498857040587,1.725135770594373,-0.9431724548339844,0.31515857577323914,-0.10535957664251328,-1.1812937259674072,-1.0764201879501343,-2.2962756156921387
2.6456010341644287,-0.17485898733139038,0.3152347803115845,-0.1651880145072937,-0.2841071211835867,-1.4861243914636,1.6957571047875277,-0.9564732909202576,0.28030046820640564,-0.08118054270744324,-1.3107987642288208,-0.6449020504951477,-1.6427289247512817
2.6600160598754883,-0.17810869216918945,0.3644024431705475,-0.04301196336746216,-0.2586500801065362,-1.5018425028161837,1.6629618716358656,-0.964438796043396,0.2557757794857025,-0.06660734117031097,-1.6468439102172852,-0.0689500942826271,-1.1564394235610962
2.6853132247924805,-0.1901727318763733,0.34714263677597046,-0.03252500295639038,-0.2407789459603635,-1.5092219638813793,1.6237457767857186,-0.9693119525909424,0.23845916986465454,-0.059760309755802155,-1.9514106512069702,0.20285139977931976,-0.916472852230072
2.7050089836120605,-0.11255878210067749,0.3096735179424286,-0.05729496106505394,-0.2261700336312536,-1.5169376043791791,1.5793335009827412,-0.9731191396713257,0.22424675524234772,-0.052461687475442886,-2.298851251602173,0.09431809931993484,-0.7100697755813599
2.7248449325561523,0.0019144415855407715,0.29746073484420776,-0.03594833239912987,-0.2160102423751902,-1.5280403945429184,1.5295633209845385,-0.975867509841919,0.21433430910110474,-0.04174956679344177,-2.4677062034606934,-0.053186047822237015,-0.5283805727958679
2.744425058364868,0.03572434186935425,0.3251001834869385,-0.029606996104121208,-0.20717082514219723,-1.5395025850422797,1.4797395087563876,-0.9781374335289001,0.20569205284118652,-0.030619576573371887,-2.305703639984131,-0.016898436471819878,-0.5435091257095337
2.763340950012207,0.0732196569442749,0.3587911128997803,-0.06231337785720825,-0.19645575900034723,-1.5478890860471826,1.4377104550607227,-0.9805071353912354,0.19519449770450592,-0.02246464230120182,-1.7581934928894043,0.021126000210642815,-0.630792498588562
2.783555030822754,0.15641289949417114,0.3875102996826172,-0.0986630916595459,-0.18332377190869206,-1.5539416943535453,1.4075132233426815,-0.983103334903717,0.18229864537715912,-0.016571415588259697,-1.2003724575042725,-0.07802446186542511,-0.740734338760376
2.802941083908081,0.221216082572937,0.3962693214416504,-0.14767473936080933,-0.16716067297106815,-1.5613412698901104,1.3877838778193226,-0.9860169291496277,0.1663832664489746,-0.009323123842477798,-0.7503677606582642,-0.3000349700450897,-0.8888942003250122
2.822735071182251,0.24272674322128296,0.3793618083000183,-0.1396484375,-0.14843485511239934,-1.5702098816920917,1.3740789361186203,-0.9890034198760986,0.1478903740644455,-0.0005799962673336267,-0.6520582437515259,-0.31860706210136414,-0.971693217754364
2.8428900241851807,0.23296624422073364,0.3536721467971802,-0.11957955360412598,-0.1288157589679366,-1.5772240345418989,1.3603022159733877,-0.9916941523551941,0.12845979630947113,0.006374408025294542,-0.7052885293960571,-0.19195528328418732,-0.9785923361778259
2.8619542121887207,0.23355692625045776,0.3755500912666321,-0.17933857440948486,-0.10994657506872418,-1.5817440863089955,1.3474305499066837,-0.9939022660255432,0.10972519963979721,0.010881436988711357,-0.5272193551063538,-0.14896051585674286,-0.9122822284698486
2.8825669288635254,0.261222243309021,0.45576050877571106,-0.2754216194152832,-0.0917467085931193,-1.5863656239616621,1.3413141819900172,-0.9956733584403992,0.09161805361509323,0.015503186732530594,-0.09945794939994812,-0.2564665675163269,-0.9182218313217163
2.9026710987091064,0.29460906982421875,0.5372405648231506,-0.31686246395111084,-0.07314567769184453,-1.5931034288076786,1.3437863814958593,-0.9970776438713074,0.07308047264814377,0.022245602682232857,0.3129752278327942,-0.4560301899909973,-0.9488388299942017
2.922434091567993,0.2740437984466553,0.5727587342262268,-0.3684380054473877,-0.05513786047204981,-1.603351880702944,1.3551280920519013,-0.9979509711265564,0.05510992556810379,0.03250033035874367,0.7900024652481079,-0.6308721303939819,-0.8649541735649109
2.9425320625305176,0.21881365776062012,0.607803225517273,-0.4125145673751831,-0.04063023050355736,-1.6156106491661695,1.3765857164928381,-0.9981712698936462,0.040619052946567535,0.04476233944296837,1.2966147661209106,-0.6908795237541199,-0.672429084777832
2.9627699851989746,0.16343629360198975,0.6171332597732544,-0.3862828016281128,-0.030851401647191874,-1.6276536007393303,1.405898461875671,-0.9979086518287659,0.030846508219838142,0.05679958686232567,1.5076290369033813,-0.5850474238395691,-0.45272377133369446
2.9822239875793457,0.11111384630203247,0.5852598547935486,-0.3489314317703247,-0.02597965507425099,-1.6361658412076248,1.4356624194155763,-0.9975272417068481,0.02597673237323761,0.06530091166496277,1.4347916841506958,-0.36644214391708374,-0.21855661273002625
3.0014429092407227,0.08819764852523804,0.5467715859413147,-0.34903061389923096,-0.026611120629882506,-1.6414988574548055,1.4638290202069701,-0.997148334980011,0.026607979089021683,0.07061862200498581,1.407959222793579,-0.26389896869659424,0.09161323308944702
3.021149158477783,0.07243531942367554,0.5505959987640381,-0.32568109035491943,-0.03304344036481557,-1.645381603384594,1.4924374508686258,-0.9966752529144287,0.03303742781281471,0.07447545230388641,1.5011286735534668,-0.17738060653209686,0.31143784523010254
3.0412330627441406,0.03322535753250122,0.5493053793907166,-0.2876870632171631,-0.0426875615549888,-1.6455471674655051,1.5230471733323534,-0.9962989091873169,0.04267459735274315,0.07461320608854294,1.6176358461380005,0.03193310648202896,0.41434767842292786
3.0611791610717773,0.06196725368499756,0.5084966421127319,-0.22483861446380615,-0.05467150445027874,-1.6420385936463144,1.5546784457483926,-0.9959728717803955,0.05464427173137665,0.07107564806938171,1.616962194442749,0.13598431646823883,0.5562889575958252
3.0819029808044434,0.11562466621398926,0.4441506564617157,-0.14921307563781738,-0.06951617425799453,-1.6376704310992436,1.586286442477404,-0.9953547120094299,0.0694601982831955,0.06666286289691925,1.6409766674041748,0.08411801606416702,0.7273387908935547
3.101950168609619,0.07491213083267212,0.3846871852874756,-0.08381366729736328,-0.08737831221154628,-1.63331301028552,1.6178564627969148,-0.9942387342453003,0.08726716786623001,0.062237612903118134,1.6171916723251343,0.17299330234527588,0.8024288415908813
3.1219000816345215,0.0020264387130737305,0.3653905987739563,-0.010202400386333466,-0.10340629199237672,-1.623095399607547,1.6497775457836277,-0.993298351764679,0.10322210192680359,0.05199600011110306,1.6812314987182617,0.5330399870872498,0.6160688996315002
3.14194393157959,0.09096789360046387,0.309271901845932,0.08716058731079102,-0.11628297004387475,-1.6061810227342026,1.6849929234195868,-0.992624819278717,0.11602108925580978,0.03513839468359947,1.8938839435577393,0.777134120464325,0.5589869618415833
3.161785125732422,0.25693172216415405,0.2168009877204895,0.21634197235107422,-0.13053903987513174,-1.583367034144326,1.7244821988317638,-0.9914132952690125,0.130168616771698,0.012463422492146492,2.018723249435425,1.030759334564209,0.8029327988624573
3.1819019317626953,0.39290058612823486,0.10660263895988464,0.3599780201911926,-0.14916848108662936,-1.557085763961885,1.7640644783149204,-0.9888020157814026,0.14861589670181274,-0.01355788204818964,1.9138212203979492,0.9281303882598877,1.0711761713027954
3.2014288902282715,0.3302304148674011,-0.018449321389198303,0.3141776919364929,-0.17126287664877216,-1.5412156613819987,1.8024597912669804,-0.9849392175674438,0.1704268902540207,-0.02914365939795971,1.8770445585250854,0.01039026491343975,1.150546908378601
3.221496105194092,0.00961536169052124,0.011158034205436707,0.2683809995651245,-0.1908343028873227,-1.538704617661522,1.8436753051741828,-0.9813406467437744,0.1896781176328659,-0.03150371462106705,2.1388447284698486,-0.41770753264427185,0.8859766721725464
3.241631031036377,-0.23048555850982666,0.022641554474830627,0.6083160042762756,-0.2033667185979153,-1.5331214254036478,1.884605689566681,-0.9786970615386963,0.20196780562400818,-0.03688976913690567,1.6926242113113403,0.3841532766819,0.547610342502594
3.261587142944336,-0.09764844179153442,-0.24846339225769043,0.9158401489257812,-0.21177373884829323,-1.508724402701489,1.9124483749598074,-0.9757766723632812,0.21019434928894043,-0.06064624711871147,1.1144509315490723,1.3380213975906372,0.5310264825820923
3.2816319465637207,0.2299102544784546,-0.4632706046104431,0.6820890307426453,-0.2249906304189837,-1.477329009982123,1.9414423081029462,-0.9705411195755005,0.22309723496437073,-0.0909789651632309,1.7946678400039673,0.9395372867584229,0.964082658290863
3.301403045654297,0.4199542999267578,-0.3470318913459778,0.32229912281036377,-0.23954449404451533,-1.4582801232307991,1.9914435920220412,-0.965303361415863,0.2372601479291916,-0.10907294601202011,2.8905322551727295,-0.2239934653043747,0.9346258044242859
3.3211350440979004,0.5227583050727844,-0.13822734355926514,0.2512843608856201,-0.24677290998956541,-1.4564305501212935,2.062861718645667,-0.9633709788322449,0.24427591264247894,-0.11065954715013504,3.83794903755188,-1.222004771232605,0.6108866333961487
3.3409361839294434,0.4323403835296631,-0.18746572732925415,0.2954517602920532,-0.24823482230988467,-1.4640924775220774,2.1412911300685677,-0.9638344645500183,0.24569326639175415,-0.10323695838451385,3.5651869773864746,-1.2677189111709595,0.35927852988243103
3.3607070446014404,0.1879369020462036,-0.3747882843017578,0.4264068007469177,-0.24754803348440138,-1.464803249860757,2.2039826681257497,-0.9640750885009766,0.24502748250961304,-0.10256968438625336,2.347508192062378,-0.26692453026771545,0.28525951504707336
3.3801069259643555,0.0025486350059509277,-0.43144726753234863,0.4909284710884094,-0.2502906960198135,-1.4526124700182441,2.2364332345100415,-0.9620822072029114,0.24768561124801636,-0.11423493921756744,0.8167188763618469,0.5718574523925781,0.2913665175437927
3.4011690616607666,0.014989793300628662,-0.3616091310977936,0.3905457854270935,-0.2539634356821307,-1.43943492765886,2.244874500438692,-0.9595849514007568,0.2512422204017639,-0.12678250670433044,0.10798116028308868,0.43964868783950806,0.2101835161447525
3.421016216278076,0.10510021448135376,-0.2173098623752594,0.31534379720687866,-0.25723128884251434,-1.4336769593560008,2.249064803589139,-0.9580205678939819,0.2544039189815521,-0.1321927011013031,0.3971124589443207,0.0729985162615776,0.14087076485157013
3.4407811164855957,0.04721802473068237,-0.13140660524368286,0.31279271841049194,-0.25676183550618553,-1.4297941939628227,2.263798066977646,-0.957618236541748,0.2539498805999756,-0.13592824339866638,1.003749132156372,-0.009939951822161674,0.004260476212948561
3.4607739448547363,-0.07364076375961304,-0.08588457107543945,0.2987412214279175,-0.250923987560346,-1.4234651727367102,2.2892230218621745,-0.9581890106201172,0.24829912185668945,-0.1422014832496643,1.4922508001327515,0.015690576285123825,-0.21574920415878296
3.480915069580078,-0.13314813375473022,-0.09685620665550232,0.3325599431991577,-0.24165741613954903,-1.4146956713990135,2.319862199867517,-0.9591368436813354,0.23931221663951874,-0.15094996988773346,1.5396159887313843,0.059757813811302185,-0.24994057416915894
3.500108242034912,-0.20169764757156372,-0.11352422833442688,0.3419892191886902,-0.2305984705079499,-1.4056832935166559,2.3501744536682896,-0.960289478302002,0.2285601943731308,-0.16001306474208832,1.5407966375350952,0.18123862147331238,-0.34730613231658936
3.520642042160034,-0.22461551427841187,-0.12165990471839905,0.37474435567855835,-0.21940911550473938,-1.3949634606365109,2.3778189041492355,-0.9609770178794861,0.21765294671058655,-0.17073452472686768,1.2362250089645386,0.2695383131504059,-0.29945242404937744
3.5406150817871094,-0.1704389452934265,-0.15553689002990723,0.41110485792160034,-0.21055600645684222,-1.3856328261920465,2.397806146230518,-0.9611984491348267,0.20900365710258484,-0.18004119396209717,0.8382830023765564,0.1746716946363449,-0.18922527134418488
3.559995174407959,-0.209663987159729,-0.1624651551246643,0.3907665014266968,-0.2057221932843137,-1.3813642867934892,2.410977245175974,-0.9614020586013794,0.20427417755126953,-0.1843305230140686,0.5920857191085815,0.07256735116243362,-0.07717875391244888
3.5801639556884766,-0.35805338621139526,-0.13756217062473297,0.3789503574371338,-0.20142134962481412,-1.3764797914225784,2.422556347029588,-0.9613434672355652,0.20006214082241058,-0.18919217586517334,0.6258534789085388,0.13425983488559723,-0.14252497255802155
3.6016860008239746,-0.35122424364089966,-0.15124383568763733,0.3495667278766632,-0.19626358775172004,-1.370999845908667,2.435469089551004,-0.961290717124939,0.19500601291656494,-0.19465960562229156,0.7030115723609924,0.12256411463022232,-0.1140674576163292
3.620406150817871,-0.23162275552749634,-0.1857995241880417,0.33421558141708374,-0.19171727369471045,-1.3679611452804863,2.4468491392316714,-0.9615533351898193,0.190544992685318,-0.1977563500404358,0.4540814757347107,-0.0010843196650967002,-0.10201986134052277
3.6404240131378174,-0.18851035833358765,-0.16860264539718628,0.3227923810482025,-0.18873350806554104,-1.3668996728306004,2.45251389521389,-0.9618952870368958,0.1876150369644165,-0.19889111816883087,0.19048045575618744,-0.025543855503201485,-0.07574697583913803
3.660271167755127,-0.178209125995636,-0.142704039812088,0.23270267248153687,-0.18629063620568187,-1.3680437057981527,2.4576850630447953,-0.9625683426856995,0.18521499633789062,-0.197882279753685,0.4204247295856476,-0.1893511712551117,-0.05200604349374771
3.680237054824829,-0.22555667161941528,-0.10617309808731079,0.19065648317337036,-0.18256395494287553,-1.3703806363338027,2.469951150059387,-0.9636979103088379,0.1815515160560608,-0.195768341422081,0.8240781426429749,-0.23429246246814728,-0.08776091039180756
3.7001841068267822,-0.29547059535980225,-0.10267668962478638,0.22561104595661163,-0.1760950982845769,-1.3713969858177184,2.488587370936904,-0.9650272727012634,0.1751864105463028,-0.19501730799674988,1.0312526226043701,-0.1620052009820938,-0.19237394630908966
3.7199931144714355,-0.3120747208595276,-0.09795327484607697,0.23647820949554443,-0.16694978197590726,-1.369961348099656,2.5075367631689245,-0.9662759900093079,0.16617532074451447,-0.19671395421028137,0.9507952332496643,-0.0897579938173294,-0.3190225660800934
3.7400450706481934,-0.2602381706237793,-0.08806729316711426,0.15595924854278564,-0.15751978085127571,-1.3729530750264802,2.5219042643091956,-0.9683535695075989,0.15686917304992676,-0.1941216140985489,0.6604937314987183,-0.4511014521121979,-0.2860313653945923
3.760277032852173,-0.3341413736343384,-0.10770626366138458,0.1338988095521927,-0.15180668613095963,-1.3805685589276921,2.5314647058860893,-0.9706679582595825,0.151224285364151,-0.18690797686576843,0.3608923554420471,-0.4193277955055237,-0.10167805850505829
3.7801620960235596,-0.44124555587768555,-0.09362265467643738,0.09234099090099335,-0.1488901267791098,-1.3856719533737032,2.5379456013898767,-0.9720386862754822,0.1483406275510788,-0.18203230202198029,0.4060444235801697,-0.1727648228406906,-0.06807249039411545
3.8000340461730957,-0.39196544885635376,0.006096839904785156,0.02636037766933441,-0.14643395533076245,-1.3867932540641392,2.5473932794113736,-0.9725974798202515,0.14591118693351746,-0.18100835382938385,0.5074714422225952,-0.13156811892986298,0.027241159230470657
3.8199939727783203,-0.38881099224090576,0.011889472603797913,-0.014852285385131836,-0.14744236509784797,-1.388678088329432,2.555638510167474,-0.9727916121482849,0.1469087302684784,-0.1791480928659439,0.2728119492530823,-0.1469699740409851,0.2113557755947113
3.8399901390075684,-0.43262505531311035,-0.039945781230926514,-0.03681361675262451,-0.15244349300688437,-1.3889981021853584,2.561080813711265,-0.9721141457557678,0.1518537402153015,-0.178701713681221,0.1962834745645523,0.09902248531579971,0.3582013249397278
3.8600411415100098,-0.5058540105819702,-0.012315303087234497,-0.05465143918991089,-0.15839301260529723,-1.383875535201062,2.567170177471174,-0.9702810645103455,0.1577315330505371,-0.18350791931152344,0.263940691947937,0.3315824866294861,0.335031658411026
3.879992961883545,-0.5414801239967346,0.007304012775421143,-0.019471406936645508,-0.1640855513944374,-1.37422243882446,2.5726260217172063,-0.9675681591033936,0.16335023939609528,-0.19268694519996643,0.12361034750938416,0.5827650427818298,0.3819867670536041
3.899993896484375,-0.6534306406974792,-0.032681629061698914,-0.022782623767852783,-0.1719400331953329,-1.3589948243520102,2.576079226304736,-0.9632379412651062,0.17109408974647522,-0.20712170004844666,0.15750789642333984,0.9057332873344421,0.43578043580055237
3.9200029373168945,-0.6247573494911194,-0.01922634243965149,-0.0731109082698822,-0.18087067448479824,-1.3397510588884893,2.5822570323552343,-0.9575483202934265,0.1798861175775528,-0.22525960206985474,0.14551670849323273,0.8419861793518066,0.6018847823143005
3.939995050430298,-0.4749576449394226,0.007597938179969788,-0.2107689082622528,-0.19195824116448174,-1.3313066183020799,2.590830286616164,-0.9536157250404358,0.19078153371810913,-0.23284998536109924,0.06747915595769882,-0.1729811578989029,0.44127142429351807
3.9599990844726562,-0.4210367798805237,-0.006159260869026184,-0.1465253233909607,-0.19930966977593295,-1.3394312891830553,2.5933491097299157,-0.9540851712226868,0.1979927122592926,-0.22476691007614136,0.11031411588191986,-0.5083719491958618,0.5357199907302856
3.97999906539917,-0.5467473268508911,-0.12024964392185211,-0.07371485233306885,-0.21190459246901835,-1.3485560137521573,2.593906580269303,-0.9535882472991943,0.2103222757577896,-0.21548514068126678,-0.37654250860214233,-0.41734579205513,0.5648564696311951
4.000003099441528,-0.5889630317687988,-0.014483168721199036,-0.09235018491744995,-0.22330456352288175,-1.3585507452827468,2.5873304073042953,-0.9532884359359741,0.22145333886146545,-0.2054252326488495,-0.4463748037815094,-0.4980456233024597,0.4418851435184479
4.019996166229248,-0.5894874334335327,0.05417574942111969,-0.12795662879943848,-0.2333519104277081,-1.370602080625539,2.5817792382425386,-0.9534658789634705,0.23123988509178162,-0.19346992671489716,-0.27559998631477356,-0.5402529835700989,0.4574034810066223
4.040004014968872,-0.5810585618019104,0.06337690353393555,-0.07308851182460785,-0.2443922173417118,-1.3792616863046026,2.580832307540786,-0.9525410532951355,0.24196664988994598,-0.1847088634967804,-0.06656435132026672,-0.3291928768157959,0.5998142957687378
4.062696933746338,-0.535230278968811,0.07739058136940002,-0.07702647149562836,-0.2563559103826117,-1.3848198793927262,2.5830013067031685,-0.9506399035453796,0.2535572350025177,-0.178863525390625,0.07372136414051056,-0.29005345702171326,0.6675918102264404
4.080235958099365,-0.5173736810684204,0.02415776252746582,-0.0901891440153122,-0.27014694171171943,-1.3890092673575851,2.5879104599147436,-0.947851300239563,0.2668730616569519,-0.17423057556152344,0.09012175351381302,-0.26005008816719055,0.7245565056800842
4.100052118301392,-0.49875885248184204,-0.028139114379882812,-0.07673400640487671,-0.2845100747084032,-1.3926872820394416,2.5890746037633843,-0.9446156620979309,0.28068724274635315,-0.17004652321338654,-0.33452898263931274,-0.13156235218048096,0.7354686260223389
4.119974136352539,-0.44212955236434937,-0.104318767786026,-0.05407620966434479,-0.30078946646897253,-1.3975479915317972,2.5790443026667114,-0.9408050179481506,0.296274334192276,-0.16464346647262573,-0.7765640616416931,0.009580486454069614,0.7049068808555603
4.139967918395996,-0.4112856388092041,-0.03970271348953247,-0.018745005130767822,-0.31785510182177523,-1.3988336045754344,2.5667691548323233,-0.9358974099159241,0.3125298321247101,-0.162544846534729,-0.617260754108429,0.18737684190273285,0.7050020098686218
4.159955024719238,-0.31195443868637085,0.020508676767349243,-0.04377293586730957,-0.3337355514584899,-1.3969520664313464,2.561114088466677,-0.9305838942527771,0.327574759721756,-0.16342633962631226,-0.1694524586200714,0.1487710326910019,0.8447217345237732
4.179128170013428,-0.24060076475143433,0.028074264526367188,-0.049438223242759705,-0.35029187510381615,-1.3926510983455516,2.5651773545032284,-0.9244075417518616,0.34317198395729065,-0.16644325852394104,0.26763224601745605,0.12816163897514343,0.8643802404403687
4.199938058853149,-0.17319297790527344,0.009514272212982178,-0.04779857397079468,-0.36600379194752874,-1.3865637680796863,2.575786814647912,-0.9179628491401672,0.35788679122924805,-0.17105837166309357,0.340933620929718,0.1376490741968155,0.8811169266700745
4.219954967498779,-0.08598518371582031,-0.11226716637611389,-0.031133830547332764,-0.38282593211297183,-1.3800004424025942,2.584361928178833,-0.9107798337936401,0.37354332208633423,-0.17591282725334167,0.1321483701467514,0.2290169596672058,0.9098204374313354
4.240016937255859,-0.05785715579986572,-0.1355133354663849,0.04247109591960907,-0.4008297979885125,-1.3702653468006256,2.588950909710939,-0.9022868871688843,0.3901824951171875,-0.1834014356136322,-0.06979347765445709,0.5927977561950684,0.9258441925048828
4.259947061538696,-0.045932114124298096,-0.1568995714187622,0.03678901493549347,-0.4183891701705013,-1.356922643312164,2.5890670666305673,-0.8929257392883301,0.40628910064697266,-0.1939394325017929,-0.3227667510509491,0.6838997602462769,0.8018949627876282
4.2799601554870605,0.10097044706344604,-0.19751623272895813,0.061396196484565735,-0.436361042145446,-1.3480191337711427,2.5788098707566953,-0.8838987350463867,0.4226442873477936,-0.20023603737354279,-1.075631856918335,0.6877504587173462,0.7576569318771362
4.299961090087891,0.17331713438034058,-0.3121967315673828,0.24054333567619324,-0.4557563373722437,-1.3419559015978513,2.5525651921564596,-0.8745192885398865,0.44014158844947815,-0.20369350910186768,-1.4461500644683838,1.0349129438400269,0.6555068492889404
4.319982051849365,0.24091565608978271,-0.21258437633514404,0.19856059551239014,-0.47293854481420483,-1.3309772022647746,2.533374797388081,-0.8647558689117432,0.45550423860549927,-0.21145443618297577,-0.4559710621833801,0.899071216583252,0.5783998370170593
4.33999490737915,0.2979862093925476,-0.15817061066627502,0.024375855922698975,-0.48126834300732096,-1.317003154410918,2.5382383946907527,-0.8580141663551331,0.46290382742881775,-0.2225571572780609,0.5040157437324524,0.24297210574150085,0.3972586691379547
4.359994888305664,0.2980131506919861,-0.25770580768585205,0.09974916279315948,-0.48537211112579187,-1.3084023104334754,2.5511059895094057,-0.854226291179657,0.4665375351905823,-0.22943376004695892,0.3799549639225006,0.15910260379314423,0.2710747718811035
4.380017042160034,0.05467861890792847,-0.2660410702228546,0.17894837260246277,-0.4874306588591513,-1.2988989824380381,2.554727967997926,-0.851080596446991,0.4683573246002197,-0.2372828722000122,-0.13721150159835815,0.647209882736206,0.006547135300934315
4.3999950885772705,0.06312638521194458,-0.1976872980594635,0.1743093729019165,-0.4882661453329109,-1.2869532391673086,2.5470582532729527,-0.8478094935417175,0.4690953493118286,-0.24732282757759094,-0.46323278546333313,0.8299744129180908,-0.04937007278203964
4.420003890991211,0.18219470977783203,-0.09094712138175964,0.10861146450042725,-0.4913211109565362,-1.2755986783528221,2.5368080250672103,-0.8435715436935425,0.47179114818573,-0.2565150260925293,-0.47113820910453796,0.8330665230751038,0.08043662458658218
4.440038204193115,0.12423557043075562,-0.030340850353240967,0.11674439907073975,-0.49596675651152855,-1.2616425741244677,2.52745293852547,-0.8378127217292786,0.4758821427822113,-0.2675929069519043,-0.4383302330970764,0.9874406456947327,0.09752577543258667
4.459993124008179,0.14423763751983643,-0.025695085525512695,0.10675698518753052,-0.5004228258065195,-1.2455174299346914,2.5200672970136004,-0.8313712477684021,0.47979655861854553,-0.28038689494132996,-0.3258781433105469,0.9623334407806396,0.16346608102321625
4.479993104934692,0.22971534729003906,-0.06615081429481506,0.12035048007965088,-0.5069092806087646,-1.2294218013034723,2.514878615089032,-0.8238009214401245,0.4854775071144104,-0.2926833927631378,-0.35181722044944763,0.9304692149162292,0.30395105481147766
4.5000340938568115,0.25423020124435425,-0.13695845007896423,0.13471540808677673,-0.5169636714464826,-1.2141148063778229,2.5083424680913553,-0.8146089911460876,0.4942428767681122,-0.3035387396812439,-0.529266893863678,0.9343938231468201,0.4570249319076538
4.520019054412842,0.27759408950805664,-0.1932581067085266,0.15196558833122253,-0.5320655056687,-1.1995710777761985,2.4983232914346276,-0.80306077003479,0.5073143839836121,-0.3126102089881897,-0.8654670119285583,1.0322582721710205,0.6214593052864075
4.539996147155762,0.27820926904678345,-0.22015595436096191,0.19571685791015625,-0.5499159721637757,-1.1860754270964022,2.4817148742664097,-0.7902483344078064,0.5226156115531921,-0.3199692964553833,-1.0045100450515747,1.1925303936004639,0.49454349279403687
4.559994220733643,0.2769554853439331,-0.18071991205215454,0.14981511235237122,-0.5632060166072453,-1.1671073440026145,2.4703805133675854,-0.7775810956954956,0.5338997840881348,-0.33214253187179565,-0.321807324886322,1.26903235912323,0.3631736636161804
4.579951047897339,0.3271113634109497,-0.07360881567001343,0.1062881350517273,-0.5665908054850449,-1.1441599187097566,2.4697897495949097,-0.7681055068969727,0.5367587208747864,-0.34914714097976685,0.040901895612478256,1.0683324337005615,-0.09756015986204147
4.600061893463135,0.3455851078033447,-0.19664406776428223,0.14481490850448608,-0.5641917628227797,-1.1258934763284851,2.4678332886805707,-0.7627602815628052,0.53473299741745,-0.36367183923721313,-0.11902555823326111,0.9264757633209229,-0.0898665189743042
4.619994163513184,0.3315179944038391,-0.2909882068634033,0.15303462743759155,-0.5661057960358961,-1.1104214956709841,2.4611466846487655,-0.7561241984367371,0.5363494157791138,-0.3749738335609436,-0.45373257994651794,0.9796908497810364,-0.026716722175478935
4.640035152435303,0.3123851418495178,-0.23383182287216187,0.1278533935546875,-0.5700012802131804,-1.097620288597113,2.447636883099833,-0.7493967413902283,0.5396331548690796,-0.38366708159446716,-0.7474545240402222,1.0479656457901,-0.11670082807540894
4.660022020339966,0.29951733350753784,-0.1776047945022583,0.08941885828971863,-0.5748135030378153,-1.0869496425825833,2.427004476289738,-0.742952823638916,0.5436782836914062,-0.3904291093349457,-1.0015496015548706,1.1611521244049072,-0.2948259115219116
4.680027961730957,0.2646521329879761,-0.08391958475112915,0.06427061557769775,-0.576127546964271,-1.0774354140708873,2.401191582116481,-0.738574743270874,0.5447806715965271,-0.3971412479877472,-0.8965166807174683,1.2013927698135376,-0.5418388247489929
4.699995994567871,0.24866008758544922,0.0021309852600097656,-0.009720087051391602,-0.5732296752614049,-1.0663896799260448,2.3782971309900027,-0.7355220913887024,0.542348325252533,-0.40603625774383545,-0.7395338416099548,1.2036278247833252,-0.5595279335975647
4.720043182373047,0.2838427424430847,0.007398068904876709,0.005732297897338867,-0.570975888814496,-1.0568551495642295,2.3546777486033883,-0.7326799035072327,0.5404533743858337,-0.4136303663253784,-0.8800783157348633,1.085712194442749,-0.5399405360221863
4.739993095397949,0.27837127447128296,0.07534092664718628,-0.02101472020149231,-0.5710356705838165,-1.0500076280499293,2.328901335602014,-0.7298023700714111,0.5405036807060242,-0.41862159967422485,-1.0214474201202393,1.0322492122650146,-0.48579302430152893
4.760024070739746,0.2417433261871338,0.11364853382110596,-0.04087546467781067,-0.5741122975566917,-1.0451455616915846,2.3002338256856545,-0.726316511631012,0.5430896282196045,-0.4213285744190216,-1.2249789237976074,1.0134713649749756,-0.466226726770401
4.7800211906433105,0.19810914993286133,0.14511489868164062,-0.05498811602592468,-0.578604127217787,-1.0426867377274136,2.2680622688757754,-0.7231638431549072,0.5468558073043823,-0.4218796491622925,-1.2922608852386475,0.9992924332618713,-0.4868825674057007
4.800026893615723,0.18379682302474976,0.20358961820602417,-0.08464378118515015,-0.5818115785406718,-1.0389495773797284,2.2390822149605993,-0.7200668454170227,0.5495383739471436,-0.4236876368522644,-0.9099222421646118,0.9605070352554321,-0.4564393162727356
4.819993019104004,0.17798209190368652,0.2625023126602173,-0.10505267977714539,-0.5815941376840531,-1.0317619873304167,2.218730217777655,-0.7171054482460022,0.5493566989898682,-0.4289134740829468,-0.6147722601890564,0.8940567970275879,-0.4335302412509918
4.840007066726685,0.17745649814605713,0.22545218467712402,-0.04854518175125122,-0.5809208485106199,-1.0242619245184397,2.200313901842259,-0.7141842842102051,0.5487939715385437,-0.43447187542915344,-0.7043681740760803,0.8704508543014526,-0.41474881768226624
4.859993934631348,0.18326860666275024,0.17232978343963623,-0.010311484336853027,-0.5816954809328342,-1.018412073847969,2.180353665634262,-0.7112683653831482,0.5494413375854492,-0.43841907382011414,-0.7498387694358826,0.8129364252090454,-0.3752424418926239
4.879992961883545,0.1952228546142578,0.1348191499710083,0.014413028955459595,-0.583747686712731,-1.0137398604559171,2.1609465994165915,-0.7082536816596985,0.5511548519134521,-0.44114041328430176,-0.7194817662239075,0.7212365865707397,-0.3143450617790222
4.900007009506226,0.1931949257850647,0.09090971946716309,0.006010591983795166,-0.5848572023062796,-1.010534015920566,2.143712760029184,-0.7063173651695251,0.5520803332328796,-0.4430834949016571,-0.4885450601577759,0.4981585144996643,-0.350844144821167
4.919995069503784,0.2383365035057068,0.05866426229476929,0.014392256736755371,-0.5820093395972227,-1.0069795487695377,2.132883892688296,-0.7060640454292297,0.5497035384178162,-0.44642969965934753,-0.09927214682102203,0.49720004200935364,-0.3828960657119751
4.940026044845581,0.19451671838760376,0.047839462757110596,0.01813870668411255,-0.5723300265247074,-0.9983323840688942,2.129423678827434,-0.7066168189048767,0.5415922403335571,-0.4553793966770172,0.18194808065891266,0.673699140548706,-0.6224858164787292
4.959996223449707,0.0756615400314331,0.06766343116760254,0.08663249015808105,-0.5599241163744941,-0.9878506109578911,2.1224816670645223,-0.707360029220581,0.5311219096183777,-0.4664238393306732,-0.08696221560239792,0.7055497765541077,-0.7126393914222717
4.9800050258636475,0.18193161487579346,-0.06790268421173096,-0.08986586332321167,-0.552135541776704,-0.9894019636689118,2.1092325546168498,-0.7115182876586914,0.5245066285133362,-0.4675835967063904,-0.3468197286128998,-0.5672764182090759,-0.5744462609291077
5.000004053115845,0.49698758125305176,-0.06366312503814697,-0.2236614227294922,-0.5516724183285541,-1.0199757208245301,2.1055515149607116,-0.7256861925125122,0.5241122841835022,-0.44574177265167236,-0.02521071583032608,-1.9143692255020142,-0.1324462890625
5.019995212554932,0.3962051272392273,0.16803598403930664,-0.06506392359733582,-0.543529183831955,-1.067191617278102,2.094402833210505,-0.749629020690918,0.5171598196029663,-0.41303977370262146,-0.3895915150642395,-2.0726897716522217,-0.9927493333816528
5.040048122406006,0.1402674913406372,0.029684901237487793,0.009365200996398926,-0.529326868791471,-1.1091017179751117,2.0773315163939468,-0.7727746963500977,0.5049524307250977,-0.384502649307251,-0.349154531955719,-1.3446942567825317,-0.7760041952133179
5.060002088546753,0.1929394006729126,0.067665696144104,-0.07707333564758301,-0.5224795759768543,-1.1432975488159762,2.0593900330756036,-0.7885965704917908,0.4990304410457611,-0.35928237438201904,-0.6458600163459778,-1.297685146331787,-0.5805301666259766
5.079996109008789,0.2535834312438965,0.14997515082359314,-0.2878328561782837,-0.5169202227951073,-1.1801327041968803,2.041668327876446,-0.8038457632064819,0.4942050874233246,-0.33104848861694336,-0.6014094948768616,-1.441636323928833,-0.5611846446990967
5.100013017654419,0.21057748794555664,0.22108528017997742,-0.2734072804450989,-0.511237665595978,-1.2182595767647715,2.018716956675027,-0.8185027837753296,0.4892570376396179,-0.3011320233345032,-1.108312964439392,-1.254960536956787,-0.7081265449523926
5.119450092315674,0.1508328914642334,0.1351015865802765,-0.24623677134513855,-0.5069045526208242,-1.2589755441326973,1.9815841248371624,-0.8320920467376709,0.4854733645915985,-0.2682134509086609,-1.826521873474121,-1.0300625562667847,-0.7124344706535339
5.139984130859375,0.14112454652786255,0.14509063959121704,-0.23543760180473328,-0.5056545686951399,-1.3017297773131886,1.9328465840262543,-0.8433797359466553,0.48438018560409546,-0.23256486654281616,-2.1353652477264404,-0.879081666469574,-0.638865053653717
5.160003185272217,0.10236293077468872,0.24402159452438354,-0.20905935764312744,-0.5031700697934566,-1.340185560687762,1.8847423706987578,-0.8528663516044617,0.4822051227092743,-0.2002425342798233,-1.7984533309936523,-0.6595296859741211,-0.655159592628479
5.1800031661987305,0.024186253547668457,0.3484039306640625,-0.22308558225631714,-0.49635863147036047,-1.3693601686734511,1.8493176627715096,-0.8615427017211914,0.4762267768383026,-0.1759318858385086,-1.0853271484375,-0.569066047668457,-0.6588799357414246
5.199989080429077,-0.03297066688537598,0.3672145903110504,-0.202284038066864,-0.48656657658684155,-1.3895518263141768,1.8292751562675045,-0.8694645166397095,0.4675936996936798,-0.1593341827392578,-0.4962422549724579,-0.5284993052482605,-0.6545738577842712
5.220030069351196,-0.0923912525177002,0.33599013090133667,-0.1412605494260788,-0.47565918760928116,-1.4036579673659213,1.8199083189239358,-0.8766025900840759,0.4579245448112488,-0.14789363741874695,-0.16503581404685974,-0.434002548456192,-0.5519519448280334
5.239123106002808,-0.1312035322189331,0.29044848680496216,-0.05349378287792206,-0.46765343006886667,-1.4121253589244167,1.8167154076753993,-0.8814153075218201,0.45079290866851807,-0.14104063808918,-0.033517755568027496,-0.2560032606124878,-0.28754475712776184
5.260005950927734,-0.16623622179031372,0.24283167719841003,0.033048272132873535,-0.4643674713231599,-1.41446969401072,1.8157663461560423,-0.883202075958252,0.4478573501110077,-0.13920381665229797,0.0034349500201642513,0.05911625921726227,-0.0665934756398201
5.279993057250977,-0.1797354817390442,0.17716586589813232,0.07108163833618164,-0.46584380321558333,-1.4100539308844888,1.8166006520883495,-0.8819251656532288,0.4491768479347229,-0.14299647510051727,0.050288837403059006,0.2939074635505676,0.20902717113494873
5.29999303817749,-0.16607683897018433,0.09019303321838379,0.07343973219394684,-0.47229038817317004,-1.4019751201344388,1.819366965657888,-0.8778682947158813,0.45492714643478394,-0.1496269702911377,0.06614410132169724,0.3550100326538086,0.38459938764572144
5.3199920654296875,-0.1439976692199707,-0.007012993097305298,0.12404286861419678,-0.4810228249722966,-1.392391186345508,1.821501401092399,-0.87245112657547,0.4626861810684204,-0.15732242166996002,-0.07383041828870773,0.4685423970222473,0.43503597378730774
5.340059041976929,-0.10815310478210449,-0.13424745202064514,0.16749900579452515,-0.4908493116025512,-1.382161680452804,1.8198895826059083,-0.8662883043289185,0.47137510776519775,-0.16537821292877197,-0.24346981942653656,0.5872966051101685,0.47333770990371704
5.359990119934082,-0.07157647609710693,-0.25040969252586365,0.17289073765277863,-0.5023698501796146,-1.37198133152285,1.8147750823813815,-0.859178900718689,0.4815039336681366,-0.17310446500778198,-0.4315032660961151,0.6522684693336487,0.5279009342193604
5.379992961883545,-0.03332036733627319,-0.3297325074672699,0.20957744121551514,-0.514098710676439,-1.362942280364706,1.8051509371002463,-0.8519943952560425,0.4917502701282501,-0.17968563735485077,-0.6431766152381897,0.6988583207130432,0.3900744318962097
5.399992942810059,-0.027664661407470703,-0.4423131048679352,0.24717938899993896,-0.5232187582293539,-1.3603595468593803,1.7887735792433097,-0.8471063375473022,0.4996708631515503,-0.1809411644935608,-0.9587254524230957,0.26381152868270874,0.18897150456905365
5.420039176940918,-0.21931952238082886,-0.5259988307952881,0.3057953715324402,-0.5297918278636818,-1.3709856943798355,1.7631118758689515,-0.8457438945770264,0.5053536891937256,-0.17127405107021332,-1.365851640701294,0.19778110086917877,-0.018377413973212242
5.4400060176849365,-0.5123433470726013,-0.550973117351532,0.3943500518798828,-0.5318922240849572,-1.373832654170581,1.7275472418317945,-0.8451851010322571,0.5071650743484497,-0.16865742206573486,-1.680884599685669,1.3292474746704102,-0.3826238214969635
5.460000038146973,-0.2786542773246765,-0.5322985649108887,0.3039172291755676,-0.5286048748775789,-1.3646692126470579,1.6853712606068159,-0.8452316522598267,0.5043291449546814,-0.17673535645008087,-1.7137465476989746,1.4727225303649902,-0.6784325838088989
5.479993104934692,0.11642932891845703,-0.3865784704685211,0.062363311648368835,-0.5179838782708277,-1.3631917914588638,1.6487517755632242,-0.8501634001731873,0.4951294958591461,-0.17907793819904327,-1.1040161848068237,0.37185588479042053,-1.036263108253479
5.499995231628418,0.2610996961593628,-0.21760493516921997,0.011363208293914795,-0.49635786184296504,-1.3802612036560458,1.6274140831831094,-0.863409698009491,0.4762260913848877,-0.16652998328208923,-0.3397616446018219,-0.925240695476532,-1.4447535276412964
5.519999980926514,0.04293757677078247,-0.23858609795570374,0.0765727311372757,-0.4657877549735147,-1.4059937064938306,1.6176442862916809,-0.8813619613647461,0.4491267800331116,-0.14658020436763763,-0.10284294188022614,-0.9840408563613892,-1.710366129875183
5.540002107620239,-0.3496549129486084,-0.3659527897834778,0.1746692657470703,-0.4336968436835861,-1.4230873586459518,1.6055042121712197,-0.8975372910499573,0.4202282428741455,-0.13354696333408356,-0.5393904447555542,-0.19058029353618622,-1.549756407737732
5.560003042221069,-0.4349178671836853,-0.38963091373443604,0.2272489070892334,-0.4080141078473728,-1.4319443223971706,1.5830477055121182,-0.9090761542320251,0.39678722620010376,-0.12704455852508545,-1.106989860534668,0.08119244128465652,-1.3761745691299438
5.579957962036133,-0.276523232460022,-0.24242815375328064,0.141021728515625,-0.3819087269160915,-1.4448518861245911,1.5513291036601349,-0.9206048250198364,0.372692346572876,-0.11656201630830765,-1.3870042562484741,-0.170219287276268,-1.6367863416671753
5.60007905960083,-0.22398680448532104,-0.02615305781364441,0.04883603751659393,-0.34949349660466156,-1.4615147648738114,1.519210340733215,-0.9339416027069092,0.3424219787120819,-0.10247083753347397,-1.1622657775878906,-0.3249669373035431,-1.9346489906311035
5.620007038116455,-0.18598568439483643,0.12574806809425354,-0.005958914756774902,-0.3108597310209498,-1.4765870618332468,1.4948065579141903,-0.9478489756584167,0.3058772683143616,-0.08956127613782883,-0.739909291267395,-0.38708528876304626,-2.1244494915008545
5.639993190765381,-0.09182435274124146,0.19083809852600098,-0.05057936906814575,-0.2692040727778514,-1.4905329632035824,1.4808429231097164,-0.960879385471344,0.2659642696380615,-0.07728945463895798,-0.25931909680366516,-0.5822901129722595,-2.1130599975585938
5.659992218017578,-0.023073673248291016,0.24568426609039307,-0.06726085394620895,-0.22796475578685724,-1.5048812742699074,1.4742252233015063,-0.9720127582550049,0.22599540650844574,-0.0641632229089737,-0.10654453188180923,-0.6698504090309143,-2.062941789627075
5.6800830364227295,-0.015380501747131348,0.29999658465385437,-0.10728389024734497,-0.18716294459812316,-1.5195706442337502,1.4701615857004526,-0.9812471866607666,0.18607214093208313,-0.05030906945466995,-0.06221076846122742,-0.7081863880157471,-2.006028175354004
5.700000047683716,0.004586279392242432,0.3732547163963318,-0.1541399359703064,-0.14825338132970103,-1.5349910897803534,1.4669157068039913,-0.9883967041969299,0.1477109044790268,-0.035404909402132034,-0.079974465072155,-0.7582385540008545,-1.8748632669448853
5.719998121261597,0.032659053802490234,0.4167991876602173,-0.1770474910736084,-0.1123985359030293,-1.549972127446195,1.4644884245662864,-0.9934744238853455,0.1121620237827301,-0.02069130167365074,-0.07135939598083496,-0.6727712154388428,-1.6825695037841797
5.740049123764038,0.04605072736740112,0.4555267095565796,-0.2051602602005005,-0.08112231638026453,-1.5620451066818435,1.4626827942127132,-0.9966732263565063,0.0810333713889122,-0.008722329512238503,-0.0446443110704422,-0.525626540184021,-1.4433289766311646
5.759993076324463,0.055097222328186035,0.5191116333007812,-0.2571336030960083,-0.05417234025009611,-1.5713387869717748,1.4624607448755278,-0.9985327124595642,0.054145846515893936,0.0005416643107309937,0.053136471658945084,-0.4104135036468506,-1.269429326057434
5.77999210357666,0.06786662340164185,0.5919831991195679,-0.3183170557022095,-0.029862717705505228,-1.57875302891234,1.4653486470462744,-0.9995223879814148,0.02985827997326851,0.007953069172799587,0.22850024700164795,-0.34581470489501953,-1.1776896715164185
5.8000171184539795,0.10566180944442749,0.6407869458198547,-0.37511420249938965,-0.007696447129409578,-1.5847814389776371,1.472087242819936,-0.9998724460601807,0.0076963710598647594,0.013984239660203457,0.42571455240249634,-0.2940053343772888,-1.0567444562911987
5.82000207901001,0.1576908826828003,0.6691411733627319,-0.4281076192855835,0.011701246638151207,-1.5907796663617917,1.4823224743287475,-0.9997318387031555,-0.011700979433953762,0.019980641081929207,0.5372929573059082,-0.3239881694316864,-0.9188839793205261
5.839991092681885,0.186465322971344,0.6984269618988037,-0.4215914011001587,0.02815783985762494,-1.5971984830335086,1.493149606239808,-0.9992551803588867,-0.028154119849205017,0.0263886246830225,0.4962216913700104,-0.271260142326355,-0.7477977275848389
5.859992980957031,0.18723702430725098,0.7077107429504395,-0.3974064588546753,0.039981510138099474,-1.6009980095909073,1.5027046361620302,-0.9987450242042542,-0.03997085988521576,0.030172955244779587,0.4300326108932495,-0.06554026901721954,-0.44618478417396545
5.880029201507568,0.19630718231201172,0.7225238680839539,-0.35298001766204834,0.0446058613665568,-1.6003693888613757,1.511290145874493,-0.9985684156417847,-0.04459106922149658,0.029539337381720543,0.43545952439308167,0.14327232539653778,-0.037616271525621414
5.900033950805664,0.20464056730270386,0.7395299673080444,-0.3317803144454956,0.04105514767885618,-1.5969832362667586,1.5216075222662777,-0.9988147020339966,-0.04104361683130264,0.02616185136139393,0.6379101276397705,0.205295130610466,0.3511713743209839
5.919991970062256,0.18726122379302979,0.7575142979621887,-0.28542399406433105,0.030269738009903076,-1.5939953358979173,1.5368445607531231,-0.9992727041244507,-0.030265115201473236,0.023186296224594116,0.9224440455436707,0.13834689557552338,0.6811809539794922
5.940000057220459,0.09456557035446167,0.7584983110427856,-0.22613584995269775,0.013762999285446675,-1.5924374707421605,1.5581560803952725,-0.9996709823608398,-0.013762564398348331,0.02163740247488022,1.2157222032546997,0.08535327762365341,0.9016798734664917
5.9600701332092285,-0.037065982818603516,0.7373083233833313,-0.10938680171966553,-0.006511952047846657,-1.5897456685563232,1.5832529197983884,-0.9997991919517517,0.006511906161904335,0.01894780434668064,1.304482102394104,0.1861724704504013,1.084766149520874
5.979991912841797,-0.15535849332809448,0.6815370917320251,0.017334461212158203,-0.03154186248281643,-1.5853908228892244,1.6076017099167397,-0.9993959665298462,0.03153663128614426,0.014586715959012508,1.1594676971435547,0.2139235883951187,1.384666085243225
5.999995231628418,-0.32625722885131836,0.6367299556732178,0.09654629230499268,-0.06205563658217057,-1.5774579449611061,1.6291431890234986,-0.9980529546737671,0.06201581656932831,0.006648745853453875,1.0625848770141602,0.5065036416053772,1.6269996166229248
6.019992113113403,-0.4004107713699341,0.5924181342124939,0.14102476835250854,-0.09695800572753906,-1.5639861989348753,1.650157695302329,-0.9952802062034607,0.09680616110563278,-0.006778090260922909,1.0338634252548218,0.6052348613739014,1.8820135593414307
6.040043115615845,-0.33390939235687256,0.5410684943199158,0.1761484146118164,-0.13711033247425838,-1.5499991942146174,1.672100480444829,-0.9904007911682129,0.13668113946914673,-0.020600466057658195,1.1218252182006836,0.5317138433456421,2.1393680572509766
6.059999942779541,-0.27663224935531616,0.47166305780410767,0.20748913288116455,-0.1819111831903296,-1.5351199957172823,1.6978765555485853,-0.982873797416687,0.18090954422950745,-0.03508021682500839,1.293495535850525,0.5056422352790833,2.356811761856079
6.079730987548828,-0.20691567659378052,0.3936040699481964,0.27704471349716187,-0.2304706266626444,-1.5192962649463304,1.728006385446452,-0.9722681641578674,0.2284357249736786,-0.05011618509888649,1.4528111219406128,0.4221501350402832,2.6011486053466797
6.099884986877441,-0.1825404167175293,0.3074880838394165,0.34766316413879395,-0.2823698776267149,-1.502066946731576,1.7650147959324167,-0.9581301212310791,0.2786324620246887,-0.06595557183027267,1.87458074092865,0.3658827543258667,2.7770609855651855
6.119990110397339,-0.23061758279800415,0.2548028826713562,0.37178105115890503,-0.3351780456523276,-1.480024748511694,1.8155608033169979,-0.9404637813568115,0.3289373219013214,-0.08560261875391006,2.5300793647766113,0.27494293451309204,2.8556442260742188
6.139991044998169,-0.2737540006637573,0.2087801992893219,0.38364917039871216,-0.3850614807064372,-1.4527220379912806,1.882133605094478,-0.9203222990036011,0.3756161034107208,-0.1091742292046547,3.110673427581787,0.08637984097003937,2.735616445541382
6.15998911857605,-0.3175436854362488,0.14859402179718018,0.40348362922668457,-0.4282664122019356,-1.4221088177534462,1.959360119917179,-0.8996496200561523,0.4152944087982178,-0.13476122915744781,3.2968082427978516,-0.06985726207494736,2.494175434112549
6.180011034011841,-0.31838613748550415,0.06850084662437439,0.43874338269233704,-0.46482731983947934,-1.3899550549185944,2.03838385683653,-0.8793216943740845,0.44826844334602356,-0.1607741117477417,3.0992674827575684,-0.12354383617639542,2.307394504547119
6.2000041007995605,-0.2769785523414612,-0.020766645669937134,0.48187029361724854,-0.49785082823701005,-1.35767695630714,2.112703009641769,-0.8587328791618347,0.4775383472442627,-0.18583469092845917,2.730673313140869,-0.07501234114170074,2.255922794342041
6.219976902008057,-0.24615681171417236,-0.08916819095611572,0.49593600630760193,-0.530638404867027,-1.3242007697628584,2.1816358277781003,-0.8363932371139526,0.5060840845108032,-0.21053576469421387,2.3978285789489746,0.0373346209526062,2.315927743911743
6.239977121353149,-0.24588638544082642,-0.12933433055877686,0.4942845106124878,-0.5638087241660724,-1.2880084931727442,2.2473101592880016,-0.8116543889045715,0.5344092845916748,-0.23584656417369843,2.1747303009033203,0.15916962921619415,2.345421314239502
6.260083198547363,-0.25791698694229126,-0.15733885765075684,0.4978841245174408,-0.5955869715181018,-1.2489415565389919,2.3111861750776708,-0.7853109836578369,0.5609947443008423,-0.26186126470565796,2.0000085830688477,0.24642810225486755,2.2753775119781494
6.27999210357666,-0.2713695168495178,-0.19562435150146484,0.5118144154548645,-0.6243321580890177,-1.2077231679585338,2.3730963039516704,-0.7584612965583801,0.5845555663108826,-0.28815120458602905,1.8263664245605469,0.3271127939224243,2.1327056884765625
6.299992084503174,-0.27981120347976685,-0.2356569766998291,0.5288980007171631,-0.6490710246750946,-1.1654512706122142,2.4318358719820354,-0.7320905923843384,0.6044465899467468,-0.31414595246315,1.6344712972640991,0.39890187978744507,1.9274917840957642
6.319993019104004,-0.2648674249649048,-0.2737191915512085,0.5480725765228271,-0.6694844544872137,-1.124168470930477,2.486064638674443,-0.7072240710258484,0.6205818057060242,-0.3386915922164917,1.430657148361206,0.40545645356178284,1.7085872888565063
6.340027093887329,-0.2513713240623474,-0.3055419325828552,0.5627308487892151,-0.6860670057961201,-1.0856264172786578,2.5346837905077266,-0.6844501495361328,0.6334989666938782,-0.3608419597148895,1.2144516706466675,0.40842825174331665,1.477315902709961
6.3600358963012695,-0.23228919506072998,-0.35055601596832275,0.5700585842132568,-0.6996524342898369,-1.050747671893144,2.5769274647992426,-0.6639203429222107,0.6439518332481384,-0.3801783323287964,0.9770038723945618,0.36613088846206665,1.2959941625595093
6.3800060749053955,-0.21288561820983887,-0.3869996666908264,0.5721163749694824,-0.7119901404096521,-1.0210053042256269,2.612487395772853,-0.6454975008964539,0.6533417105674744,-0.3955722749233246,0.7472382187843323,0.3141280710697174,1.148023009300232
6.400001049041748,-0.18486088514328003,-0.41426587104797363,0.5582647323608398,-0.7231683612834939,-0.9951143351161948,2.6428901574207955,-0.6288749575614929,0.6617633700370789,-0.408148854970932,0.6042948365211487,0.2678617537021637,1.0202134847640991
6.4199981689453125,-0.1333216428756714,-0.4505687355995178,0.5472823977470398,-0.7331064661401897,-0.9731639314775793,2.6692778135789896,-0.6142979264259338,0.6691812872886658,-0.41813209652900696,0.5194501876831055,0.16670309007167816,0.8943871855735779
6.440022945404053,-0.09086698293685913,-0.49420231580734253,0.5142577886581421,-0.7415281582522021,-0.9557011287693956,2.6932214245424926,-0.6022787094116211,0.6754156351089478,-0.42552804946899414,0.5300444960594177,-0.050054971128702164,0.761614978313446
6.459997177124023,-0.08517700433731079,-0.5247750878334045,0.4612523317337036,-0.7448775071690444,-0.9434765864121238,2.7165040467896095,-0.5951971411705017,0.6778817772865295,-0.43152838945388794,0.679011881351471,-0.31423965096473694,0.461089551448822
6.479993104934692,-0.11761051416397095,-0.5351690053939819,0.4496946334838867,-0.7407377905706718,-0.9400283703428928,2.7358249380434154,-0.595966637134552,0.6748325824737549,-0.43522942066192627,0.6971003413200378,-0.6385810375213623,0.04169037938117981
6.499997138977051,-0.19695836305618286,-0.5226664543151855,0.4684717655181885,-0.7307884640478117,-0.9470267570045656,2.746471107298971,-0.6044179201126099,0.6674569845199585,-0.43494829535484314,0.4944109320640564,-0.743825376033783,-0.39949116110801697
6.520015239715576,-0.282959520816803,-0.5276477932929993,0.48248201608657837,-0.7165039529473649,-0.9628141676751782,2.743586316259968,-0.6189721822738647,0.6567522883415222,-0.4307548403739929,0.14227740466594696,-0.6515106558799744,-0.8850230574607849
6.539999961853027,-0.2791737914085388,-0.5375816226005554,0.444117933511734,-0.6997504253586188,-0.9868705794611872,2.7268917647861937,-0.6382454633712769,0.6440267562866211,-0.42174866795539856,-0.22061693668365479,-0.7185835838317871,-1.1991733312606812
6.559991121292114,-0.24425315856933594,-0.4721938371658325,0.32567915320396423,-0.6802375762743723,-1.0196397441610003,2.702658116943726,-0.6623018383979797,0.6289777159690857,-0.4071154296398163,-0.25279170274734497,-1.0612118244171143,-1.4642549753189087
6.579582214355469,-0.2912176251411438,-0.3336598873138428,0.18306538462638855,-0.6534782611322594,-1.0610907488003696,2.678644624651115,-0.6930503845214844,0.6079517006874084,-0.3873959183692932,0.004382716491818428,-1.6413425207138062,-1.8278290033340454
6.600050926208496,-0.43931204080581665,-0.22502881288528442,0.20510149002075195,-0.6171673651589606,-1.1126893897497383,2.6545356187308737,-0.7314336895942688,0.5787274241447449,-0.3606649935245514,-0.18574799597263336,-1.9349879026412964,-2.3204426765441895
6.619991064071655,-0.6554228067398071,-0.2193353772163391,0.4198150932788849,-0.5757929072146578,-1.1650601737948811,2.614919677558808,-0.7706634402275085,0.5444999933242798,-0.33105483651161194,-1.112011194229126,-0.9739521741867065,-2.7703676223754883
6.639988899230957,-0.6076638698577881,-0.31096088886260986,0.46685516834259033,-0.536387359650802,-1.2081876804306815,2.5550800970097667,-0.8036671876907349,0.5110340714454651,-0.3048985004425049,-2.133394956588745,-0.36119481921195984,-2.7108702659606934
6.659994125366211,-0.2840767502784729,-0.24481043219566345,0.28464677929878235,-0.5057687885502848,-1.2535295079160298,2.4823760741550336,-0.8311421871185303,0.4844801127910614,-0.272912859916687,-2.6533570289611816,-0.6628847122192383,-2.2913568019866943
6.680031061172485,-0.16147619485855103,-0.05768224596977234,0.0723084956407547,-0.47848844652479305,-1.3045841718989486,2.4134585562162814,-0.8564221858978271,0.4604378938674927,-0.23353298008441925,-2.2631423473358154,-1.1498116254806519,-2.1613378524780273
6.70001220703125,-0.2146158218383789,0.10705935955047607,-0.07479880750179291,-0.4431795349822368,-1.3533784639275306,2.3618692563812234,-0.882124662399292,0.42881399393081665,-0.19486992061138153,-1.345935583114624,-1.416512131690979,-2.431847095489502
6.719996929168701,-0.28366678953170776,0.22678351402282715,-0.15450525283813477,-0.3960371089159443,-1.3954906733612005,2.3331971490346706,-0.9084565043449402,0.3857652246952057,-0.16090930998325348,-0.32179147005081177,-1.6062147617340088,-2.68904447555542
6.739992141723633,-0.30370670557022095,0.3057033121585846,-0.15528488159179688,-0.3417325688672712,-1.4309112235599992,2.3261050650201764,-0.9329721927642822,0.33511999249458313,-0.13136689364910126,0.4437080919742584,-1.6364773511886597,-2.7774832248687744
6.7599968910217285,-0.29526686668395996,0.29066202044487,-0.09253562986850739,-0.2858625046351785,-1.4615143485542672,2.3290502074093107,-0.95369553565979,0.2819850444793701,-0.10463861376047134,0.382773220539093,-1.5005732774734497,-2.726778745651245
6.780076026916504,-0.27671974897384644,0.2293771654367447,-0.062410056591033936,-0.23314801882061234,-1.4907913285204502,2.3246642105248925,-0.969831645488739,0.23104150593280792,-0.0777573511004448,-0.3424753248691559,-1.3353148698806763,-2.5575034618377686
6.8000311851501465,-0.2464507818222046,0.2539582848548889,-0.13606125116348267,-0.18522456401725526,-1.520210429403343,2.3074190761936118,-0.9816374778747559,0.1841672658920288,-0.049699410796165466,-0.9663316011428833,-1.253400206565857,-2.342613458633423
6.819988012313843,-0.17821305990219116,0.412087619304657,-0.22341656684875488,-0.14094509047554882,-1.5482444151667747,2.284100677149266,-0.9898318648338318,0.14047889411449432,-0.022326385602355003,-1.0591095685958862,-1.1791844367980957,-2.175902843475342
6.839989185333252,-0.09142833948135376,0.5378977060317993,-0.30537354946136475,-0.09862989934988282,-1.5740615140561505,2.267126461668726,-0.9951346516609192,0.09847006946802139,0.0032493125181645155,-0.5417493581771851,-1.09471595287323,-2.044952392578125
6.859990119934082,-0.004181504249572754,0.6244113445281982,-0.3337486982345581,-0.05979783986221556,-1.5948366669954837,2.2624502064549525,-0.9979239702224731,0.05976220965385437,0.02399505488574505,0.012935684993863106,-0.9332800507545471,-1.832366943359375
6.879217147827148,0.03954988718032837,0.6881828904151917,-0.4052790403366089,-0.02501551397906809,-1.6130791588593514,2.2688669015718754,-0.9987935423851013,0.025012904778122902,0.04225700721144676,0.4982166588306427,-0.9232302308082581,-1.682688593864441
6.900008201599121,0.06981998682022095,0.7205579876899719,-0.4879356622695923,0.006034706088627331,-1.631845188492118,2.2842441482074887,-0.9981186985969543,-0.0060346694663167,0.06100982055068016,0.8446282744407654,-0.948467493057251,-1.484606146812439
6.919989109039307,0.09569263458251953,0.7169981598854065,-0.5216367244720459,0.03141068206832093,-1.650769749711816,2.304142737627052,-0.9963120222091675,-0.03140551596879959,0.07984878867864609,0.94061678647995,-0.8653022646903992,-1.2007194757461548
6.939988136291504,0.10851353406906128,0.7175396680831909,-0.5369210243225098,0.05038570922259821,-1.6671005028674881,2.3251890825348664,-0.994102954864502,-0.05036439374089241,0.09603334218263626,1.0028284788131714,-0.6637095212936401,-0.8900303840637207
6.9600300788879395,0.13378465175628662,0.7469072341918945,-0.5525078773498535,0.06246905729359179,-1.679131373640679,2.347835366055436,-0.9921981692314148,-0.06242843717336655,0.1079123318195343,1.143808364868164,-0.41932371258735657,-0.5605413317680359
6.97999906539917,0.17268645763397217,0.7561229467391968,-0.5194138288497925,0.06762161943620688,-1.686480525788633,2.372831708082051,-0.9910455942153931,-0.06757009774446487,0.11516250669956207,1.2738919258117676,-0.15174981951713562,-0.23062357306480408
6.999996185302734,0.1942591667175293,0.727420449256897,-0.4832199811935425,0.0654493044078273,-1.6890503423260863,2.3992378774419354,-0.9908897280693054,-0.06540258973836899,0.11772596091032028,1.3789138793945312,0.053728774189949036,0.13615672290325165
7.019990921020508,0.19286829233169556,0.6795395016670227,-0.45836126804351807,0.055743313066107636,-1.6881934446976075,2.4270035967681647,-0.9915743470191956,-0.0557144470512867,0.11694571375846863,1.4935235977172852,0.1907869428396225,0.48524874448776245
7.039989948272705,0.17161601781845093,0.6498989462852478,-0.4131588935852051,0.04001582409923063,-1.6844551968890118,2.4565134718186306,-0.9927523136138916,-0.0400051474571228,0.11332350969314575,1.6280512809753418,0.3167360723018646,0.7257658839225769
7.0600152015686035,0.14336907863616943,0.6115548610687256,-0.36922430992126465,0.01983560078069384,-1.6788688415520854,2.488523499447616,-0.9939700961112976,-0.019834300503134727,0.10784102976322174,1.7995752096176147,0.31390905380249023,0.9200199246406555
7.079402923583984,0.06885355710983276,0.5997551679611206,-0.33737945556640625,-0.003745190604466427,-1.6733246736611465,2.524868109591753,-0.9947413206100464,0.0037451819516718388,0.10234806686639786,2.0811054706573486,0.28647029399871826,1.0226366519927979
7.099987983703613,-0.07122117280960083,0.5989617705345154,-0.28802788257598877,-0.02822400631454787,-1.6656445147118069,2.566500601461249,-0.9951087832450867,0.02822025865316391,0.09466831386089325,2.2931928634643555,0.452728807926178,0.9812349081039429
7.1195878982543945,-0.21290135383605957,0.569840669631958,-0.18618321418762207,-0.05144361292572178,-1.6518744050082235,2.6106918514948445,-0.9953961968421936,0.05142092704772949,0.08088211715221405,2.2771077156066895,0.7416045069694519,0.963800847530365
7.1399922370910645,-0.32757049798965454,0.5248855948448181,-0.07852935791015625,-0.07502298065020932,-1.6319880579339614,2.652787053871593,-0.9953205585479736,0.0749526247382164,0.060981519520282745,2.0660436153411865,1.003584861755371,1.0984901189804077
7.160022020339966,-0.43828707933425903,0.4980669617652893,0.004904743283987045,-0.10029134379364975,-1.6055014224495041,2.6897302280794086,-0.9943756461143494,0.10012330114841461,0.03452376276254654,1.7201176881790161,1.2915494441986084,1.258968710899353
7.17999792098999,-0.4847370982170105,0.46892982721328735,0.07416665554046631,-0.12825374850828727,-1.5746027121441761,2.7196446940041445,-0.9917794466018677,0.12790243327617645,0.0037751130294054747,1.3135653734207153,1.4665518999099731,1.4702118635177612
7.199993133544922,-0.4806148409843445,0.42584070563316345,0.13886398077011108,-0.16020130849558145,-1.5386624680955518,2.7424731654720325,-0.986685574054718,0.15951694548130035,-0.031716931611299515,0.8847943544387817,1.724042534828186,1.705189824104309
7.219995975494385,-0.3311460018157959,0.3348478674888611,0.24113160371780396,-0.19729819135821908,-1.5005317055765792,2.7575855473310376,-0.9781799912452698,0.19602066278457642,-0.06884478032588959,0.4297599792480469,1.7662585973739624,2.0831665992736816
7.239988088607788,-0.22217655181884766,0.2459559142589569,0.32082515954971313,-0.2425134347675204,-1.4643901194076014,2.7675061180207687,-0.9652470350265503,0.24014326930046082,-0.10309766978025436,0.18219222128391266,1.6280690431594849,2.488044500350952
7.2600250244140625,-0.2625909447669983,0.2052297592163086,0.3430255651473999,-0.2932164609859529,-1.4302046161669633,2.7792571046520527,-0.9478734135627747,0.289032906293869,-0.13414816558361053,0.3822126090526581,1.482116937637329,2.6329944133758545
7.279987096786499,-0.34193485975265503,0.20877474546432495,0.34126049280166626,-0.3417538002985535,-1.3952471305177538,2.801284342339583,-0.9276877641677856,0.3351399898529053,-0.16454865038394928,0.981582760810852,1.3066668510437012,2.4675869941711426
7.300000190734863,-0.3537517786026001,0.20535767078399658,0.3253864645957947,-0.3822361128695301,-1.358124842189912,2.839978874511252,-0.9069291949272156,0.37299615144729614,-0.19583947956562042,1.8036750555038452,1.0113649368286133,2.216231346130371
7.320027112960815,-0.317787230014801,0.18149679899215698,0.3380250036716461,-0.41303265189209243,-1.3198950340045261,2.895924262599839,-0.8872296214103699,0.4013887941837311,-0.22739891707897186,2.4760286808013916,0.6430830955505371,1.9769337177276611
7.33998703956604,-0.32752740383148193,0.12452244758605957,0.4042239487171173,-0.4349452153120423,-1.2814300272894117,2.963007733760082,-0.8691889047622681,0.42136073112487793,-0.25877735018730164,2.7837445735931396,0.4918310046195984,1.790174126625061
7.359147071838379,-0.3601888418197632,0.03924340009689331,0.4978240132331848,-0.451529703494718,-1.2404516495249096,3.0335938631487953,-0.8511300086975098,0.4363424479961395,-0.29186102747917175,2.7539243698120117,0.5917927026748657,1.7663259506225586
7.3800129890441895,-0.35091763734817505,-0.03325846791267395,0.5550854206085205,-0.4674903041590082,-1.1969049617364502,3.1022527901341164,-0.8310280442237854,0.4506472945213318,-0.32605111598968506,2.466140031814575,0.7162260413169861,1.8661608695983887
7.400213241577148,-0.3116145133972168,-0.0809236466884613,0.572239875793457,-0.48546530514582625,-1.15240244439813,-3.117127661870728,-0.8081668019294739,0.46661993861198425,-0.3593493700027466,2.0634360313415527,0.8076808452606201,1.9879255294799805
7.420406103134155,-0.26243335008621216,-0.1286221742630005,0.5916385650634766,-0.5072604858116763,-1.1083267421090959,-3.060171412124998,-0.7822595238685608,0.48578453063964844,-0.3899785578250885,1.5366294384002686,0.8801993727684021,2.132957935333252
7.440148115158081,-0.22349584102630615,-0.19155365228652954,0.611212432384491,-0.5349239325516075,-1.0664076711938848,-3.0111062687189563,-0.7531733512878418,0.5097755789756775,-0.415762722492218,0.9548175930976868,0.8741601705551147,2.3012425899505615
7.46011209487915,-0.21634483337402344,-0.2519559860229492,0.6362859010696411,-0.5688922166788168,-1.0269031417748857,-2.9694419120510296,-0.7209262251853943,0.5386990904808044,-0.43596866726875305,0.4445662498474121,0.9088429808616638,2.413562536239624
7.480132102966309,-0.21267396211624146,-0.30120140314102173,0.6493358016014099,-0.6072675490490287,-0.9885540092898643,-2.933108637875609,-0.6859006881713867,0.5706256628036499,-0.4515819251537323,0.09342660009860992,0.8924285769462585,2.437894105911255
7.500120162963867,-0.19543200731277466,-0.3408429026603699,0.6534415483474731,-0.6467642169784994,-0.9519540692672661,-2.8998551329385704,-0.6500421166419983,0.6026073098182678,-0.4629357159137726,-0.0719357281923294,0.814606785774231,2.337583303451538
7.520407199859619,-0.16977351903915405,-0.3940548896789551,0.6451480388641357,-0.6839150268447154,-0.9170914976908233,-2.8677407633570966,-0.6153063178062439,0.6318324208259583,-0.471365749835968,-0.08807635307312012,0.6841453909873962,2.155324697494507
7.540133953094482,-0.13670629262924194,-0.455830454826355,0.6343215703964233,-0.7168353905989194,-0.8846842475117943,-2.8363665512106935,-0.5832948088645935,0.6570022106170654,-0.4776138365268707,-0.05923885852098465,0.5197800397872925,1.915204644203186
7.559982061386108,-0.11280089616775513,-0.502373218536377,0.5997713804244995,-0.7438581224376898,-0.8564223595203289,-2.806743304725493,-0.5559459328651428,0.6771320104598999,-0.4820956587791443,0.02673124521970749,0.32260993123054504,1.5473747253417969
7.579265117645264,-0.08352696895599365,-0.5116297602653503,0.5450556874275208,-0.7634370913737651,-0.8359607786387139,-2.7814847951199955,-0.5360255241394043,0.6914086937904358,-0.4843868315219879,0.09307769685983658,-0.029221059754490852,1.1044902801513672
7.599984169006348,-0.052049100399017334,-0.5042601823806763,0.49550843238830566,-0.7739026614230115,-0.8273997957928129,-2.761571272053754,-0.5265030860900879,0.6989316940307617,-0.4840339124202728,0.30168622732162476,-0.5039728879928589,0.6391118168830872
7.628681182861328,-0.08602923154830933,-0.5479928255081177,0.4839988052845001,-0.7671627851929584,-0.8427681276788928,-2.732366991122158,-0.5373837351799011,0.6940955519676208,-0.4790092408657074,0.6013408303260803,-1.2068753242492676,-0.1972983479499817
7.648305892944336,-0.18704509735107422,-0.5606188178062439,0.46717405319213867,-0.753924166372871,-0.8656294159545125,-2.7281527410458546,-0.555142343044281,0.6845047473907471,-0.4725147485733032,0.48075345158576965,-1.3576831817626953,-0.5997406244277954
7.669031143188477,-0.2694075107574463,-0.4925844073295593,0.4417877793312073,-0.7361814210169785,-0.8962688376572396,-2.733310917136907,-0.5787522196769714,0.6714630722999573,-0.46279922127723694,0.37580183148384094,-1.3443856239318848,-1.0339030027389526
7.688316106796265,-0.2766065001487732,-0.4297882318496704,0.3799773156642914,-0.7117722319955042,-0.9323820002526154,-2.7459303483092468,-0.6080674529075623,0.6531767249107361,-0.45123592019081116,0.36243948340415955,-1.504805326461792,-1.4610270261764526
7.708018064498901,-0.2332472801208496,-0.39589816331863403,0.3096197247505188,-0.6813547234946198,-0.9785550430175088,-2.762419875426925,-0.6444382071495056,0.6298458576202393,-0.43358227610588074,0.3897936940193176,-2.10689640045166,-1.7573198080062866
7.72705602645874,-0.35444343090057373,-0.3428660035133362,0.2695533037185669,-0.6448839761724798,-1.0361769308910111,-2.779885734941238,-0.687655508518219,0.6011057496070862,-0.40718773007392883,0.39107608795166016,-2.4796042442321777,-2.0987563133239746
7.748073101043701,-0.6544961929321289,-0.2729712128639221,0.33940714597702026,-0.6009251695623227,-1.092340120317324,-2.801816436241756,-0.7321919202804565,0.5654057860374451,-0.3797515034675598,0.1005186215043068,-1.7149490118026733,-2.6312243938446045
7.7682929039001465,-0.7985491156578064,-0.2548576593399048,0.3681284785270691,-0.5522839166257755,-1.1370990083391337,-2.836516017504846,-0.7725109457969666,0.5246329307556152,-0.35775262117385864,-0.6237905621528625,-0.99129319190979,-2.9506287574768066
7.788112163543701,-0.44814395904541016,-0.23420917987823486,0.2041279375553131,-0.5076576705775937,-1.1822687654131845,-2.886559785509392,-0.8087528347969055,0.4861316680908203,-0.3310506343841553,-1.5497915744781494,-1.1566005945205688,-2.8266355991363525
7.8077239990234375,-0.20842230319976807,-0.1384943425655365,0.03561130166053772,-0.4703595484699581,-1.240207947323922,-2.9477219939212724,-0.8431371450424194,0.4532068073749542,-0.28934985399246216,-2.094653606414795,-1.7311121225357056,-2.5961382389068604
7.827726125717163,-0.2707121968269348,-0.05710554122924805,-0.06656700372695923,-0.4350658187835359,-1.3018016611184202,-3.008600324311711,-0.8742309212684631,0.4214700758457184,-0.2410045713186264,-2.033592939376831,-1.6690900325775146,-2.392228364944458
7.849346160888672,-0.41568523645401,0.006668061017990112,-0.13039353489875793,-0.400183453874964,-1.3525846110509103,-3.0608532183345027,-0.8991491198539734,0.38958731293678284,-0.19937953352928162,-1.7705724239349365,-1.3025555610656738,-2.172285318374634
7.862749099731445,-0.4079188108444214,0.11434251070022583,-0.16733239591121674,-0.36531710895748926,-1.393301822074764,-3.104743130410385,-0.9193362593650818,0.3572455048561096,-0.16491259634494781,-1.5598220825195312,-1.1600208282470703,-2.0643978118896484
7.884675025939941,-0.3711986541748047,0.19262415170669556,-0.15231364965438843,-0.3311243734867066,-1.4285689622311204,3.1394733403050754,-0.9361284971237183,0.32510653138160706,-0.13404817879199982,-1.5800671577453613,-1.0099505186080933,-1.8863251209259033
7.907651901245117,-0.412208616733551,0.1554764211177826,-0.10898500680923462,-0.30040703819217507,-1.4587496982748336,3.097607603231226,-0.9492262005805969,0.29590904712677,-0.10680492967367172,-2.1723549365997314,-0.6977903842926025,-1.6698803901672363
7.927433013916016,-0.3942054510116577,0.10832226276397705,-0.0907171368598938,-0.2749030853346397,-1.4842872660789286,3.0386566665356836,-0.9588522911071777,0.2714536488056183,-0.08315695822238922,-3.265043020248413,-0.09846289455890656,-1.3843631744384766
7.947406053543091,-0.3042272925376892,0.20254486799240112,-0.1026807352900505,-0.2579476893023589,-1.5011506239722299,2.960015108954588,-0.9645713567733765,0.2550966739654541,-0.06728707253932953,-3.9965267181396484,0.3916245400905609,-0.9931965470314026
7.967266082763672,-0.20152801275253296,0.34586799144744873,-0.21494132280349731,-0.23869811794021248,-1.5175719189979742,2.877183357345698,-0.9702704548835754,0.2364378571510315,-0.05169089138507843,-3.8466780185699463,0.07699423283338547,-1.3989561796188354
7.987575054168701,-0.02083730697631836,0.44833388924598694,-0.22525471448898315,-0.21084821734485665,-1.5367141481528341,2.8107040497317084,-0.9772858619689941,0.20928940176963806,-0.03332093358039856,-2.2860710620880127,-0.409449964761734,-1.5356457233428955
8.007204055786133,0.09190124273300171,0.5188913941383362,-0.2530788779258728,-0.18234323760869425,-1.5534759404004428,2.7813691964944303,-0.9832739233970642,0.1813344657421112,-0.017032386735081673,-0.6763481497764587,-0.6772909164428711,-1.437608242034912
8.026441097259521,0.08997368812561035,0.5643116235733032,-0.27994662523269653,-0.15036569103930947,-1.5704192840828113,2.778794003925876,-0.9887162446975708,0.14979970455169678,-0.00037278825766406953,0.42561599612236023,-0.9198885560035706,-1.759344458580017
8.047037124633789,0.12398582696914673,0.5118244886398315,-0.30045175552368164,-0.115276940293733,-1.587884388522727,2.795297521132227,-0.9932178258895874,0.11502179503440857,0.016973819583654404,1.101487636566162,-1.0128350257873535,-1.7067101001739502
8.0660982131958,0.15459412336349487,0.5022032260894775,-0.3073958158493042,-0.08299026327854234,-1.6057822542384088,2.8202873351079467,-0.9959482550621033,0.08289503306150436,0.034858398139476776,1.2362300157546997,-1.0109375715255737,-1.612334966659546
8.086161136627197,0.1463923454284668,0.4937918186187744,-0.34590232372283936,-0.05229826697429535,-1.6239494693130645,2.8457439406959897,-0.9972221851348877,0.0522744283080101,0.05305546522140503,1.1655303239822388,-0.9606900215148926,-1.5437818765640259
8.105936050415039,0.14992380142211914,0.5170249342918396,-0.4049952030181885,-0.0248477148252773,-1.6414297138785963,2.869288346469111,-0.9971983432769775,0.02484515868127346,0.07055287063121796,0.9986141920089722,-0.8755887150764465,-1.3426339626312256
8.125937938690186,0.14959317445755005,0.5401169061660767,-0.43304920196533203,-0.0017226743293813664,-1.6569671840667137,2.8891204350067126,-0.9962881207466125,0.0017226734198629856,0.08606412261724472,0.7946770191192627,-0.6756604313850403,-1.1212605237960815
8.146022081375122,0.1555822491645813,0.5521565675735474,-0.43063175678253174,0.01611600969740058,-1.6670400368245883,2.904212267029165,-0.9952425956726074,-0.016115311533212662,0.09608269482851028,0.555107593536377,-0.3185997009277344,-0.7876133918762207
8.166628122329712,0.18131405115127563,0.5563849806785583,-0.41502606868743896,0.026969321665668778,-1.6705329451145774,2.9142649642985763,-0.9946683645248413,-0.026966052129864693,0.09953511506319046,0.3613491952419281,-0.041959136724472046,-0.39603516459465027
8.185679912567139,0.1924336552619934,0.5631215572357178,-0.41194236278533936,0.030243481040151832,-1.6699425926052582,2.9215930584239076,-0.9946337938308716,-0.030238870531320572,0.09893862158060074,0.3793555498123169,0.10282023996114731,-0.01246865838766098
8.206686019897461,0.1511973738670349,0.5997310280799866,-0.42967331409454346,0.02659879403310069,-1.6674785171762196,2.93114817296377,-0.9949777126312256,-0.02659565769135952,0.09649748355150223,0.6412133574485779,0.15693451464176178,0.253227174282074
8.226548194885254,0.0922544002532959,0.6275351643562317,-0.41763103008270264,0.018481630823792138,-1.6645601636671612,2.946974335434322,-0.9954370856285095,-0.018480578437447548,0.0936104953289032,1.0264889001846313,0.16615030169487,0.38957709074020386
8.245639085769653,0.01080930233001709,0.6290257573127747,-0.38188254833221436,0.0073064846463724775,-1.6610708332770412,2.9702763416164086,-0.9959014654159546,-0.007306419778615236,0.09014953672885895,1.3753094673156738,0.2272445410490036,0.505927562713623
8.266446113586426,-0.07165467739105225,0.5947130918502808,-0.31405365467071533,-0.006437474910806296,-1.6548938944141451,2.997510619850508,-0.9964451789855957,0.006437430623918772,0.0839967280626297,1.404193639755249,0.39495426416397095,0.6322571635246277
8.286358118057251,-0.13454383611679077,0.5237759351730347,-0.20601582527160645,-0.023238445940928318,-1.6455082132198313,3.021844970237964,-0.996941089630127,0.023236354812979698,0.074622243642807,1.1432162523269653,0.5049399137496948,0.8643720746040344
8.306304931640625,-0.25034475326538086,0.4828645586967468,-0.15539409220218658,-0.04450913353419035,-1.6327701088418376,3.040686581512064,-0.9970914721488953,0.04449443891644478,0.06187276169657707,0.9036253094673157,0.7253681421279907,1.1110117435455322
8.32541799545288,-0.34450197219848633,0.48114973306655884,-0.10203182697296143,-0.06961137369247261,-1.6152414595820523,3.056614518450139,-0.9965927600860596,0.06955517083406448,0.04432288557291031,0.8596464395523071,0.9092886447906494,1.3104499578475952
