timestamp,acceleration_x,acceleration_y,acceleration_z,attitude_pitch,attitude_roll,attitude_yaw,gravity_x,gravity_y,gravity_z,rotation_x,rotation_y,rotation_z
0.0,-0.3504178524017334,0.6050414443016052,-0.18125402927398682,-0.16542642815235442,-1.5490387324226735,-0.8606863865785856,-0.9861149787902832,0.16467295587062836,-0.021458875387907028,2.4151523113250732,0.42915913462638855,1.8972632884979248
0.0249481201171875,-0.25735729932785034,0.43850263953208923,0.0003084540367126465,-0.20542572850987198,-1.530444307301782,-0.813857245024932,-0.9781774878501892,0.20398396253585815,-0.03949287533760071,2.042966604232788,0.5643345713615417,2.2554068565368652
0.03566694259643555,-0.28149449825286865,0.2855686545372009,0.08505063503980637,-0.2514508605247859,-1.5082606869336261,-0.7743549784247019,-0.966659426689148,0.24880945682525635,-0.06052958965301514,1.5998733043670654,0.7735618948936462,2.5129334926605225
0.05504417419433594,-0.35213011503219604,0.2381111979484558,0.0991743728518486,-0.30017468807754283,-1.481444451900661,-0.7390876698011655,-0.9514742493629456,0.29568707942962646,-0.08524297922849655,1.4853312969207764,0.9272965788841248,2.5989770889282227
0.07425904273986816,-0.35115599632263184,0.221613347530365,0.1243494302034378,-0.34909371654131943,-1.4509907931144685,-0.7012857045522858,-0.9329473972320557,0.342046320438385,-0.11231011897325516,1.5779331922531128,0.9163702726364136,2.6512577533721924
0.09823799133300781,-0.33645516633987427,0.17151281237602234,0.19873280823230743,-0.3974140024393969,-1.416663960499725,-0.6591774909819156,-0.9111339449882507,0.38703519105911255,-0.14155800640583038,1.6410119533538818,1.0028644800186157,2.6862642765045166
0.1198580265045166,-0.3119678497314453,0.05314892530441284,0.27095580101013184,-0.4450904640699175,-1.3771079615664075,-0.6141402280330984,-0.885694682598114,0.4305395185947418,-0.17372667789459229,1.5590256452560425,1.1170570850372314,2.7490243911743164
0.13918304443359375,-0.2475326657295227,-0.06196308135986328,0.3372782766819,-0.49349455764459393,-1.3346560768398206,-0.569317298570929,-0.8562425374984741,0.47370636463165283,-0.20603734254837036,1.316171646118164,1.0685784816741943,2.84104585647583
0.15973496437072754,-0.2557292580604553,-0.13336044549942017,0.35582423210144043,-0.5423409580444074,-1.2933728432979241,-0.5257508429338041,-0.823753833770752,0.5161424279212952,-0.23457776010036469,1.1248525381088257,0.9431049227714539,2.8511135578155518
0.17915797233581543,-0.30314016342163086,-0.1786852478981018,0.3691254258155823,-0.5901220227303904,-1.2511795533934789,-0.482875397702573,-0.7887941598892212,0.5564624071121216,-0.2610625922679901,0.9208012819290161,0.9820641875267029,2.7838523387908936
0.19891691207885742,-0.2663891911506653,-0.2732817530632019,0.41229042410850525,-0.6363334427822671,-1.2080841020352084,-0.44207146885371384,-0.7519521117210388,0.594250500202179,-0.2853676974773407,0.6907712817192078,0.963904857635498,2.701582908630371
0.21906399726867676,-0.20483660697937012,-0.36078041791915894,0.42958056926727295,-0.680520708488673,-1.1656973233772387,-0.4027726956170194,-0.7143377065658569,0.6291978359222412,-0.3063199520111084,0.5500956177711487,0.8567726016044617,2.551213026046753
0.23901891708374023,-0.17792457342147827,-0.3929123878479004,0.4247021973133087,-0.7202734853810697,-1.126233581828313,-0.36402691946871496,-0.678566575050354,0.6595902442932129,-0.32324641942977905,0.5526441335678101,0.5593055486679077,2.2931010723114014
0.25905299186706543,-0.21070915460586548,-0.37706273794174194,0.4015844464302063,-0.7524492510346092,-1.0889432130238097,-0.32177167310191096,-0.6468959450721741,0.6834288239479065,-0.338306188583374,0.8379390835762024,0.38385868072509766,2.002924919128418
0.2756659984588623,-0.2382420301437378,-0.407043993473053,0.4312634766101837,-0.7763132145070287,-1.0489190433915554,-0.2752208549496124,-0.6185237765312195,0.7006536722183228,-0.35568657517433167,0.918708324432373,0.392245352268219,1.695812702178955
0.29516005516052246,-0.21601951122283936,-0.5049766302108765,0.4890125095844269,-0.7935060901511831,-1.0105490510142086,-0.23250331165824356,-0.5941306948661804,0.7128166556358337,-0.37269464135169983,0.7429133653640747,0.43038755655288696,1.3519529104232788
0.31939101219177246,-0.17388451099395752,-0.5831871628761292,0.502389669418335,-0.8070804983232581,-0.9781297794558853,-0.19941237420472732,-0.5736589431762695,0.7222710847854614,-0.3863160014152527,0.45920225977897644,0.4041121006011963,1.043420433998108
0.3390500545501709,-0.15479117631912231,-0.5990015268325806,0.4542270004749298,-0.8174936987028006,-0.9565564392297162,-0.17719390139933297,-0.5590149760246277,0.7294336557388306,-0.39424455165863037,0.23512203991413116,0.11118897795677185,0.6700740456581116
0.35863304138183594,-0.1757184863090515,-0.533940315246582,0.40910929441452026,-0.8227987790936071,-0.9476701146233039,-0.16455720257515077,-0.5523394346237183,0.7330523729324341,-0.3969327211380005,0.17207834124565125,-0.1205858364701271,0.26790937781333923
0.3784198760986328,-0.1910971999168396,-0.5241432189941406,0.4158060550689697,-0.8228422813891408,-0.9479713926818595,-0.1599660227011067,-0.5524331331253052,0.7330819368362427,-0.39674773812294006,0.055624812841415405,-0.24609723687171936,-0.06946105509996414
0.3985569477081299,-0.20562368631362915,-0.5535613298416138,0.43142062425613403,-0.8200185336039824,-0.9588261436438779,-0.16584351673310077,-0.5583992004394531,0.7311584949493408,-0.39191552996635437,-0.2177123725414276,-0.4003572165966034,-0.4019249677658081
0.41838884353637695,-0.26079338788986206,-0.4983537197113037,0.40660881996154785,-0.8144860182747297,-0.9800479616555071,-0.18322532905816308,-0.5699409246444702,0.7273730039596558,-0.3822251856327057,-0.4637297987937927,-0.46806347370147705,-0.7313858866691589
0.4386868476867676,-0.3380771279335022,-0.4134049415588379,0.3649241328239441,-0.8053865686827341,-1.010123049452921,-0.21068641423254889,-0.5867581367492676,0.7210985422134399,-0.36841830611228943,-0.5972231030464172,-0.4597196877002716,-1.0603798627853394
0.4572901725769043,-0.3370819687843323,-0.3835272192955017,0.34661799669265747,-0.7914781587577491,-1.040647415130444,-0.2432335056910201,-0.6063232421875,0.711392879486084,-0.3553764224052429,-0.6481369733810425,-0.31020310521125793,-1.3057117462158203
0.4775381088256836,-0.2791418433189392,-0.3786289095878601,0.2837395668029785,-0.7731698610086258,-1.0749434393273036,-0.2802877403141103,-0.6295039057731628,0.6984074115753174,-0.34051743149757385,-0.7016767263412476,-0.5951749086380005,-1.5830843448638916
0.49808406829833984,-0.2890046238899231,-0.3235178589820862,0.18207183480262756,-0.7483786013549664,-1.1184287703694022,-0.31808764375245935,-0.6590849757194519,0.680451512336731,-0.3203010857105255,-0.6193006634712219,-1.1610647439956665,-1.9082828760147095
0.5180699825286865,-0.4768044352531433,-0.2249089479446411,0.17557257413864136,-0.7150423468304798,-1.1719074661444604,-0.3574503390507059,-0.695787787437439,0.6556493639945984,-0.2932634949684143,-0.7829887866973877,-1.4399477243423462,-2.3465652465820312
0.5385499000549316,-0.7197349071502686,-0.21254432201385498,0.29683446884155273,-0.676663154152704,-1.2280048142497677,-0.4103452094467277,-0.734305739402771,0.6261948943138123,-0.26205962896347046,-1.6810320615768433,-0.6317662000656128,-2.681894540786743
0.5608201026916504,-0.6997910141944885,-0.24377119541168213,0.33186349272727966,-0.6385168928872622,-1.2729736457007432,-0.48210123990617776,-0.7676317095756531,0.5960052013397217,-0.2356262356042862,-2.471613645553589,0.35857391357421875,-2.7005767822265625
0.5746779441833496,-0.3445090651512146,-0.10665231943130493,0.17182153463363647,-0.6003543147979971,-1.3127939735160137,-0.5601186602651902,-0.797825038433075,0.5649348497390747,-0.2105329930782318,-2.3971855640411377,0.009106108918786049,-2.7052218914031982
0.5933518409729004,-0.13280266523361206,0.10552084445953369,-0.043044909834861755,-0.5582318744710415,-1.3537220675989556,-0.6184457253541232,-0.8282873630523682,0.5296872854232788,-0.18267826735973358,-1.2679169178009033,-0.8612934947013855,-2.5460195541381836
0.6181819438934326,-0.13828504085540771,0.21247407793998718,-0.13614559173583984,-0.5122589087761014,-1.3901608904830849,-0.6467266191988366,-0.8574578762054443,0.4901474416255951,-0.1565941721200943,-0.33062607049942017,-1.266719102859497,-2.4852895736694336
0.636023998260498,-0.24538594484329224,0.15420088171958923,-0.09892475605010986,-0.46483709868472833,-1.4220490034703173,-0.6602307970681794,-0.8840239644050598,0.44827720522880554,-0.13247467577457428,-0.1768539845943451,-1.2384928464889526,-2.3691341876983643
0.6582808494567871,-0.28227710723876953,0.0967249870300293,-0.02641528844833374,-0.42102036574321017,-1.4503668488611663,-0.6738810485978051,-0.9060621857643127,0.4086919128894806,-0.10964719206094742,-0.4851662814617157,-0.9873135089874268,-2.162574052810669
0.6767568588256836,-0.27735716104507446,0.10976248979568481,-6.74128532409668e-05,-0.3807717786865538,-1.4734473742248784,-0.6935527159275985,-0.9239826798439026,0.3716370761394501,-0.09023397415876389,-0.9255887866020203,-0.5347468256950378,-2.0457773208618164
0.6990489959716797,-0.19124746322631836,0.18527528643608093,-0.06850665807723999,-0.34246757938109257,-1.4911183399667431,-0.7207691388534517,-0.9389406442642212,0.33581238985061646,-0.07497162371873856,-1.2089157104492188,-0.3974498510360718,-2.021441698074341
0.7176361083984375,-0.03631913661956787,0.26331663131713867,-0.13573330640792847,-0.3065243965950026,-1.5092097480006463,-0.7527101753770474,-0.951580822467804,0.3017468750476837,-0.05867881327867508,-1.4241197109222412,-0.46959665417671204,-1.8437086343765259
0.7373809814453125,0.07083779573440552,0.3129938244819641,-0.1724967360496521,-0.27076204001273313,-1.5290849075302622,-0.7808405697061594,-0.962729275226593,0.2674658000469208,-0.040180109441280365,-1.0513883829116821,-0.6804893612861633,-1.8170610666275024
0.7574880123138428,0.16604632139205933,0.34788060188293457,-0.1533418893814087,-0.23700410969765795,-1.5498451630675196,-0.8009859023088497,-0.9718325734138489,0.23479154706001282,-0.020364003255963326,-0.7655092477798462,-0.8645581603050232,-1.6459211111068726
0.7763619422912598,0.1731104850769043,0.3567580580711365,-0.1559506058692932,-0.20513291309304812,-1.570662099377599,-0.8138941891182406,-0.9790340065956116,0.2036972939968109,-0.00013141320960130543,-0.5018758773803711,-0.8982437252998352,-1.552227258682251
0.7980360984802246,0.16372644901275635,0.40571171045303345,-0.14876329898834229,-0.1751383082805068,-1.5896614909687339,-0.8225238484369186,-0.9845272898674011,0.17424432933330536,0.018575472757220268,-0.35919544100761414,-0.8336068391799927,-1.4437483549118042
0.8176231384277344,0.15184026956558228,0.42436665296554565,-0.17722976207733154,-0.14724027647803647,-1.6063128309953845,-0.8277883586547361,-0.9885562062263489,0.14670883119106293,0.03512483090162277,-0.2530456483364105,-0.7437111139297485,-1.333798885345459
0.835468053817749,0.14968007802963257,0.4556348919868469,-0.23875880241394043,-0.12155322811431855,-1.6213202422297432,-0.8316492280394945,-0.9913548231124878,0.12125412374734879,0.05012978985905647,-0.25463640689849854,-0.7069391012191772,-1.2246637344360352
0.8568239212036133,0.17119431495666504,0.4759829640388489,-0.30329227447509766,-0.09801115800555478,-1.6351687683598914,-0.8356673500534483,-0.9931395649909973,0.09785431623458862,0.06401927024126053,-0.27197572588920593,-0.6319005489349365,-1.1050409078598022
0.8768210411071777,0.22203385829925537,0.4688996970653534,-0.3091171979904175,-0.07716686734586094,-1.6472288496976815,-0.839251844102105,-0.9941134452819824,0.0770903080701828,0.07613090425729752,-0.23191900551319122,-0.5627284646034241,-0.945858359336853
0.896697998046875,0.24299877882003784,0.5112184286117554,-0.3622957468032837,-0.0596023649896034,-1.659025401552293,-0.8403175027607245,-0.9943416714668274,0.059567082673311234,0.0879582017660141,0.03729243576526642,-0.6227682828903198,-0.804253876209259
0.9169530868530273,0.2084507942199707,0.5975327491760254,-0.43535709381103516,-0.04576325993329713,-1.6712989224469061,-0.8335447565890248,-0.9939125180244446,0.045747287571430206,0.10022847354412079,0.5057448744773865,-0.6306549310684204,-0.6285752058029175
0.9363961219787598,0.1523265242576599,0.5949393510818481,-0.43885135650634766,-0.0365995503014299,-1.6831924710008384,-0.8192488630326535,-0.9930250644683838,0.03659138083457947,0.11208456754684448,0.7493448257446289,-0.5841489434242249,-0.44225040078163147
0.9565038681030273,0.0945633053779602,0.5042679309844971,-0.3972938060760498,-0.031351237555911966,-1.6923718370943415,-0.8047280224328216,-0.9921312928199768,0.03134610131382942,0.12121667712926865,0.6003848314285278,-0.3781382143497467,-0.2549538016319275
0.9764699935913086,0.04547828435897827,0.4282071888446808,-0.3506124019622803,-0.02904176389396579,-1.6969888724643272,-0.7944266793120842,-0.9916301369667053,0.029037682339549065,0.1258048266172409,0.4107377827167511,-0.11318518221378326,-0.10870768129825592
0.9952859878540039,0.009796977043151855,0.44824129343032837,-0.35336804389953613,-0.02895085407000192,-1.6970592596499563,-0.7864077086000194,-0.9916239380836487,0.028946809470653534,0.12587496638298035,0.44265690445899963,0.04819128289818764,0.001320582814514637
1.0156190395355225,0.014622926712036133,0.4713018536567688,-0.3556687831878662,-0.03169417027404225,-1.6947737890578063,-0.7750730305613801,-0.9918263554573059,0.0316888652741909,0.12359801679849625,0.7351601719856262,0.109202079474926,0.1301696002483368
1.0363359451293945,0.042376577854156494,0.42685410380363464,-0.28664374351501465,-0.037128417153378446,-1.69240282021505,-0.7585608390425508,-0.9919310808181763,0.03711988776922226,0.12122341245412827,0.9489948749542236,0.09565839916467667,0.20450212061405182
1.0554099082946777,0.0411531925201416,0.35838180780410767,-0.1683903932571411,-0.04432741898901204,-1.689871627895973,-0.7389223291838221,-0.9919437170028687,0.04431290552020073,0.11867743730545044,1.0826208591461182,0.04214981198310852,0.2708354890346527
1.0764110088348389,-0.04074472188949585,0.32012999057769775,-0.07820452004671097,-0.05317081541275457,-1.6916867087300729,-0.7181545555313754,-0.9912987947463989,0.053145766258239746,0.12042571604251862,1.1172417402267456,-0.4010108411312103,0.3560912609100342
1.0953779220581055,-0.34680891036987305,0.34294959902763367,-0.07867862284183502,-0.062394835678221024,-1.6981773636020694,-0.695089662830184,-0.989967942237854,0.06235435977578163,0.1267896443605423,1.2273585796356201,-0.10387849807739258,0.23952965438365936
1.116405963897705,-0.5439753532409668,0.3251873254776001,0.034216396510601044,-0.0684360296562174,-1.6865533738373297,-0.6736231699870676,-0.9909826517105103,0.0683826208114624,0.11522835493087769,0.9950676560401917,1.1043964624404907,0.14994218945503235
1.1359601020812988,-0.07304102182388306,0.08831575512886047,0.1768031120300293,-0.07607952578213718,-1.6571062048073848,-0.6569804392203032,-0.9933958649635315,0.07600615173578262,0.08595341444015503,0.7012681365013123,1.5352174043655396,0.4901154935359955
1.1559929847717285,0.402576208114624,-0.026622094213962555,0.25403404235839844,-0.09110966327201149,-1.631182068687826,-0.6457820369045993,-0.9940375089645386,0.09098366647958755,0.060098759829998016,0.6155350804328918,0.8115952014923096,0.9256361722946167
1.1758928298950195,0.4964328408241272,-0.06683236360549927,0.15283215045928955,-0.11254099895678452,-1.6262750564480584,-0.6297378413173953,-0.9921453595161438,0.11230358481407166,0.05509950593113899,1.2781071662902832,-0.4084970951080322,1.1045706272125244
1.1947121620178223,0.2432754635810852,0.01942180097103119,0.15158319473266602,-0.13571858994001182,-1.6369562172820882,-0.6029919273578019,-0.9886369109153748,0.13530233502388,0.06550370901823044,1.384926199913025,-0.7383139133453369,0.9201529026031494
1.2158069610595703,-0.07924437522888184,-0.05404233932495117,0.3016716241836548,-0.14896833100666854,-1.6403114807477308,-0.5781200501649406,-0.9865363836288452,0.14841796457767487,0.06868990510702133,1.1149446964263916,0.047249142080545425,0.2661999464035034
1.2358169555664062,-0.016326904296875,-0.2557021975517273,0.43930017948150635,-0.15681097060290985,-1.631159182238853,-0.5563215815433106,-0.9859315156936646,0.1561691015958786,0.05958602949976921,1.2153780460357666,0.43110939860343933,0.53193598985672
1.2556071281433105,0.1891462802886963,-0.2066359966993332,0.38288426399230957,-0.17124739389933785,-1.6178627459910495,-0.5279001963548754,-0.9842817783355713,0.1704116314649582,0.04636085778474808,1.732654333114624,0.3078589141368866,0.5654637217521667
1.2753829956054688,0.23714107275009155,-0.07056063413619995,0.32739806175231934,-0.18076592047966875,-1.6153236507223785,-0.48834010797057653,-0.9827314019203186,0.17978306114673615,0.04378734156489372,1.9353008270263672,-0.6549327969551086,0.3561323881149292
1.2955288887023926,0.2144342064857483,-0.16560620069503784,0.536219596862793,-0.19099629801476883,-1.618796049873487,-0.45536627167503235,-0.9806849360466003,0.18983717262744904,0.04710879176855087,1.3556149005889893,-0.1979876011610031,0.4215891659259796
1.315774917602539,0.18101853132247925,-0.5381981134414673,0.48252010345458984,-0.1988069257899974,-1.6125170223917602,-0.43369323987744535,-0.9794499278068542,0.19749990105628967,0.04088705778121948,0.9440851211547852,0.3204587399959564,0.3517739474773407
1.3354358673095703,0.39175164699554443,-0.4245675206184387,0.2961512804031372,-0.20676892742227815,-1.603456308117623,-0.4124628123398837,-0.9781774878501892,0.20529872179031372,0.03195862099528313,1.3050789833068848,0.13487370312213898,0.3248573839664459
1.355375051498413,0.5236907601356506,-0.17158861458301544,0.1693732738494873,-0.21108603386191058,-1.5980301791863685,-0.37905663896235287,-0.9774413704872131,0.20952194929122925,0.02662607654929161,2.0023465156555176,-0.3578277826309204,0.008639784529805183
1.3752598762512207,0.49993211030960083,0.004770234227180481,0.12139296531677246,-0.2132892105145421,-1.6005801709438414,-0.33337654966842806,-0.9769067168235779,0.2116757184267044,0.029104644432663918,2.331547737121582,-0.7583709955215454,0.20180591940879822
1.395172119140625,0.3609163165092468,-0.09937424957752228,0.19271838665008545,-0.2209804111579469,-1.6058822679323594,-0.2937400575353912,-0.9750826954841614,0.21918630599975586,0.034225739538669586,1.3434449434280396,-0.5466521978378296,0.344958633184433
1.4151110649108887,0.13237428665161133,-0.36550232768058777,0.3108229637145996,-0.2271303608659817,-1.6085627223011159,-0.284519939720192,-0.9736219048500061,0.22518251836299896,0.03678768128156662,-0.4118863344192505,0.15535219013690948,0.3215295374393463
1.4339780807495117,0.07485419511795044,-0.3233017325401306,0.3147399425506592,-0.23673105724886936,-1.6027632883801959,-0.3046225020417429,-0.971613347530365,0.2345261126756668,0.031070111319422722,-1.3111581802368164,0.7796820402145386,0.6749280691146851
1.4551889896392822,0.15062445402145386,-0.11269547045230865,0.2229534387588501,-0.24887805342319644,-1.593572264205551,-0.3327347787459621,-0.9689383506774902,0.24631673097610474,0.02207229472696781,-1.2925770282745361,0.7283084392547607,0.6019183993339539
1.4750330448150635,0.22231900691986084,0.017659276723861694,0.1722475290298462,-0.2610209196494613,-1.5887484155162936,-0.3546132405735228,-0.9659714698791504,0.2580670118331909,0.0173430684953928,-0.7268928289413452,0.30410435795783997,0.6890237331390381
1.4950461387634277,0.1788884997367859,-0.022530704736709595,0.1629577875137329,-0.275277078536365,-1.5876265395734368,-0.36387988160694523,-0.9622138142585754,0.27181360125541687,0.016195792704820633,-0.19754110276699066,0.08575490117073059,0.7184891104698181
1.51534104347229,0.020216047763824463,-0.08665493130683899,0.15639126300811768,-0.2888036249944248,-1.5867270315162774,-0.36397260278683996,-0.9584637880325317,0.2848055958747864,0.015270295552909374,0.16701480746269226,0.05994434654712677,0.6276070475578308
1.5353729724884033,-0.08912360668182373,-0.11776268482208252,0.18922054767608643,-0.30018347047820115,-1.5823650321312563,-0.359832211935656,-0.9552185535430908,0.2956954836845398,0.011051135137677193,0.20580187439918518,0.2539803981781006,0.5186941027641296
1.554826021194458,-0.06302136182785034,-0.18166056275367737,0.2699167728424072,-0.31097732988444876,-1.5756486109736876,-0.3576177528674253,-0.9520239233970642,0.30598923563957214,0.00461952667683363,-0.04383692890405655,0.29667702317237854,0.5803732872009277
1.574713945388794,-0.06680083274841309,-0.2592066526412964,0.2512248754501343,-0.3225077001916918,-1.5722721771404184,-0.3625098256322745,-0.948442816734314,0.31694597005844116,0.0013997606001794338,-0.39248985052108765,0.2107003927230835,0.5606681704521179
1.5931439399719238,-0.11662966012954712,-0.2571921646595001,0.22693264484405518,-0.33291863799288346,-1.571809425403229,-0.37308377187579217,-0.9450922608375549,0.3268027901649475,0.0009574719588272274,-0.5790912508964539,0.20629657804965973,0.4839925467967987
1.616128921508789,-0.14028239250183105,-0.2335449457168579,0.19180583953857422,-0.3416383783513127,-1.5717003088242105,-0.3847925274101567,-0.942206859588623,0.3350312411785126,0.0008517383248545229,-0.47297006845474243,0.16206112504005432,0.371764600276947
1.6331429481506348,-0.14348900318145752,-0.17537280917167664,0.175542950630188,-0.3471602038257859,-1.5709525447588124,-0.39101916412959986,-0.9403429627418518,0.340228796005249,0.00014689845556858927,-0.08484641462564468,0.1321687400341034,0.1810394823551178
1.653141975402832,-0.14867949485778809,-0.18282538652420044,0.17767202854156494,-0.34947208919161177,-1.566997577732325,-0.38883693642037065,-0.9395471215248108,0.3424018621444702,-0.0035691207740455866,0.21867960691452026,0.18193824589252472,0.05938240885734558
1.6743700504302979,-0.15769314765930176,-0.2666053771972656,0.1667865514755249,-0.3493357418116371,-1.5622945066857787,-0.384946401896288,-0.9395665526390076,0.3422737419605255,-0.00798821821808815,0.11925460398197174,0.1309235394001007,-0.06620410084724426
1.6942510604858398,-0.18245989084243774,-0.23889905214309692,0.1062425971031189,-0.34726171190463834,-1.5613890669765365,-0.38232770998965177,-0.9402666687965393,0.3403242528438568,-0.00884559378027916,0.18194825947284698,-0.11489129811525345,-0.13045072555541992
1.7143669128417969,-0.23013395071029663,-0.16615387797355652,0.10160315036773682,-0.34461099353334246,-1.5627444976517735,-0.3786610402806166,-0.9411765336990356,0.3378305733203888,-0.00757835665717721,0.09875553101301193,-0.15979619324207306,-0.14499931037425995
1.7340478897094727,-0.28485387563705444,-0.1553727388381958,0.13854771852493286,-0.34094056374033377,-1.565196620728525,-0.3779767748473035,-0.9424260258674622,0.3343736529350281,-0.005277364049106836,-0.02072085067629814,-0.05091816931962967,-0.19295227527618408
1.7541389465332031,-0.3394213914871216,-0.12291193008422852,0.1276005506515503,-0.33727809574798,-1.565243273765189,-0.3781821311839026,-0.9436445236206055,0.3309197723865509,-0.005240161903202534,0.05365952104330063,0.07625895738601685,-0.18343403935432434
1.774610996246338,-0.36629271507263184,-0.09938305616378784,0.12381541728973389,-0.3334647508476502,-1.5605684276094374,-0.37709121792497974,-0.9448645710945129,0.32731887698173523,-0.009664316661655903,-0.03027142398059368,0.30782878398895264,-0.1956811249256134
1.793921947479248,-0.3408852815628052,-0.1345968246459961,0.10286039113998413,-0.32997508690323685,-1.556182195263273,-0.3805418378023673,-0.9459495544433594,0.3240194618701935,-0.01382521539926529,-0.32372957468032837,0.2571917176246643,-0.15622961521148682
1.8131818771362305,-0.299633264541626,-0.13404956459999084,0.10387492179870605,-0.3272527173948369,-1.5540444677145528,-0.39068784567291426,-0.946796178817749,0.32144275307655334,-0.015862081199884415,-0.5794169306755066,0.2834742069244385,-0.14036248624324799
1.835468053817749,-0.26706022024154663,-0.09271755814552307,0.05780482292175293,-0.3241325436818001,-1.5524723015295805,-0.40294193743264667,-0.9477683305740356,0.31848663091659546,-0.017368875443935394,-0.5642951726913452,0.2609897553920746,-0.20723016560077667
1.8531520366668701,-0.2189374566078186,0.00642770528793335,-0.0020439010113477707,-0.31974798371044805,-1.5515062576417076,-0.41290357527762245,-0.9491381049156189,0.31432732939720154,-0.018311211839318275,-0.3508473336696625,0.11211363226175308,-0.24888744950294495
1.8737950325012207,-0.18672138452529907,0.019474804401397705,-0.005428548902273178,-0.3152819112886545,-1.5514673824840561,-0.4178288286888228,-0.9505314230918884,0.3100844919681549,-0.018375057727098465,-0.1442851424217224,0.09626853466033936,-0.1656433790922165
1.893193006515503,-0.23822498321533203,0.051908791065216064,-0.01311182789504528,-0.3126413781393944,-1.5500489230542718,-0.42068002146441347,-0.9513197541236877,0.3075730502605438,-0.01974024809896946,-0.15938301384449005,0.15566740930080414,-0.1328303962945938
1.9130878448486328,-0.2970724105834961,0.088075190782547,-0.014176785945892334,-0.3094806427172509,-1.5478394633667676,-0.42661401546340516,-0.952241063117981,0.3045639991760254,-0.021864308044314384,-0.3835791349411011,0.2233804166316986,-0.19191865622997284
1.9331440925598145,-0.2619573473930359,0.0889541506767273,-0.02500283531844616,-0.30618861895310184,-1.5471190215546957,-0.43477081272862367,-0.9532221555709839,0.3014267086982727,-0.02257394976913929,-0.35646072030067444,0.07499999552965164,-0.1557762622833252
1.9531431198120117,-0.26090776920318604,0.12212225794792175,0.009153787046670914,-0.3046573588498238,-1.5475386501972086,-0.44103978938190447,-0.9536917805671692,0.29996633529663086,-0.02218465507030487,-0.251252681016922,0.09493153542280197,0.005494260229170322
1.9731409549713135,-0.325469434261322,0.12406253814697266,0.005127133801579475,-0.3055507329424518,-1.5471782391238398,-0.44714825926546753,-0.9534155130386353,0.30081844329833984,-0.022522039711475372,-0.38827013969421387,0.14092130959033966,0.05000346899032593
1.9935498237609863,-0.31125903129577637,0.06739014387130737,0.04497933387756348,-0.3071364244862385,-1.5456171500846416,-0.45635368281687905,-0.9529011845588684,0.3023303151130676,-0.023998338729143143,-0.42663100361824036,0.3097791373729706,0.09854040294885635
2.0131430625915527,-0.23195397853851318,0.04382196068763733,0.0358009971678257,-0.308762713390997,-1.5424078629509366,-0.4635656757174772,-0.9523264765739441,0.30388009548187256,-0.02704234980046749,-0.17454063892364502,0.2097507119178772,0.019796650856733322
2.0332930088043213,-0.16751259565353394,0.06167110800743103,-0.01784241572022438,-0.30783775467814684,-1.5391255909254156,-0.4612833105790059,-0.9525132179260254,0.30299875140190125,-0.030176885426044464,0.389945387840271,0.02573240175843239,-0.1300952136516571
2.05314302444458,-0.12427514791488647,0.05983820557594299,-0.07718992233276367,-0.3029599121723938,-1.5364774506322743,-0.4472371772757274,-0.9538957476615906,0.298346608877182,-0.032749488949775696,0.9058175086975098,-0.20122404396533966,-0.28327834606170654
2.0731899738311768,-0.05113917589187622,0.04880163073539734,-0.019272860139608383,-0.29475777466167186,-1.5388192903185192,-0.4252622277529208,-0.956383466720581,0.29050809144973755,-0.03059273771941662,1.340123176574707,-0.6507863998413086,-0.5211222767829895
2.093255043029785,-0.07872861623764038,-0.06735548377037048,-0.07577556371688843,-0.2898892702726098,-1.5383238951125116,-0.39879025030106013,-0.9577705264091492,0.28584611415863037,-0.031112074851989746,0.8110624551773071,-0.08788568526506424,0.1268264502286911
2.1133530139923096,-0.07918691635131836,-0.08713459968566895,0.0697317123413086,-0.2895428171268321,-1.5390605235416244,-0.3956070277880903,-0.9578919410705566,0.28551411628723145,-0.0304096806794405,-0.3260658383369446,-0.11586388200521469,-0.21754372119903564
2.134984016418457,-0.07818955183029175,-0.15192148089408875,0.0026909708976745605,-0.28957267927442787,-1.541634087903701,-0.4035694754552365,-0.9579586386680603,0.28554272651672363,-0.027944141998887062,-0.5238387584686279,-0.07679184526205063,0.033077389001846313
2.153125047683716,-0.13429349660873413,0.03929013013839722,-0.007930580526590347,-0.28641782398319504,-1.5430154833845684,-0.408408293994076,-0.9588921666145325,0.28251779079437256,-0.026645688340067863,0.17801247537136078,0.2409636527299881,-0.10282579064369202
2.173117160797119,-0.08210241794586182,0.0448533296585083,-0.03374159336090088,-0.2859311973225678,-1.5384615862460258,-0.4049073070830299,-0.9588980674743652,0.2820509672164917,-0.031016530469059944,0.08193904161453247,-0.09553170949220657,-0.17157268524169922
2.192345142364502,-0.11001336574554443,0.03460198640823364,0.0374225378036499,-0.28119227473262115,-1.540479567616608,-0.3993500270978079,-0.9602839946746826,0.27750128507614136,-0.02912162058055401,0.3925163149833679,0.004557163920253515,0.03990558907389641
2.213078022003174,-0.17211681604385376,-0.04182961583137512,0.0983356237411499,-0.2849111593991612,-1.5404944910228058,-0.40046654058258535,-0.9592462182044983,0.281072199344635,-0.029075821861624718,-0.49513694643974304,-0.13562479615211487,-0.07242294400930405
2.2331628799438477,-0.3109145760536194,-0.06337207555770874,0.10164260864257812,-0.2846377706528593,-1.546767561675787,-0.41043416266949706,-0.9594864845275879,0.28080981969833374,-0.02305971458554268,-0.5405102968215942,-0.20923927426338196,0.17585615813732147
2.2530789375305176,-0.2630324363708496,-0.0076777637004852295,0.1869981288909912,-0.2904778211611945,-1.5533071475069813,-0.42568991033546766,-0.9579606056213379,0.28641006350517273,-0.01675565354526043,-0.8055076599121094,-0.12975989282131195,0.26004114747047424
2.273080825805664,-0.31025052070617676,0.0050814151763916016,0.10648316144943237,-0.29571863582894653,-1.561249838458765,-0.44106287171551445,-0.956549346446991,0.2914273738861084,-0.009131965227425098,-0.6502796411514282,-0.22055265307426453,0.2813666760921478
2.2931008338928223,-0.2703794240951538,0.06769761443138123,0.05848538875579834,-0.3010569302280219,-1.5715329954573503,-0.4517642742872687,-0.9550235867500305,0.29652976989746094,0.0007035360904410481,-0.40727412700653076,-0.5123149752616882,0.23688992857933044
2.313101053237915,-0.2697664499282837,0.04667288064956665,0.05224812030792236,-0.30597973852150295,-1.5872131312469846,-0.46013373198800717,-0.9534239768981934,0.30122753977775574,0.01565358228981495,-0.46067014336586,-0.784599244594574,0.2945033311843872
2.333153009414673,-0.31660014390945435,-0.016846537590026855,0.12081634998321533,-0.31230384003239053,-1.6077670538176652,-0.4737940245306521,-0.9509780406951904,0.30725184082984924,0.035174377262592316,-0.8119485378265381,-0.7993693351745605,0.34925901889801025
2.3531088829040527,-0.3765529990196228,-0.018432289361953735,0.1492304801940918,-0.3189319673833647,-1.6280182109830188,-0.49260779609796296,-0.948016881942749,0.3135525584220886,0.054306596517562866,-0.879902184009552,-0.6551076173782349,0.4077112674713135
2.37310791015625,-0.3462873697280884,0.019315481185913086,0.10365474224090576,-0.32664158377330027,-1.6469910554866225,-0.5099024875925042,-0.9443774223327637,0.3208639919757843,0.07209616154432297,-0.6794646978378296,-0.7594605684280396,0.4565294682979584
2.393205165863037,-0.31376272439956665,0.04501873254776001,0.0590130016207695,-0.3347323935396067,-1.6690263280678965,-0.5223765486565882,-0.9399451613426208,0.32851642370224,0.09262894093990326,-0.4266795814037323,-1.0239348411560059,0.43635547161102295
2.4134578704833984,-0.30852216482162476,0.058172136545181274,0.08029651641845703,-0.34230288845081075,-1.6921733906029308,-0.5281545083231959,-0.9350539445877075,0.3356572687625885,0.11405475437641144,-0.049034781754016876,-1.1111204624176025,0.40618598461151123
2.433177947998047,-0.3018702268600464,0.06591951847076416,0.0979604423046112,-0.3505157528564225,-1.7155237528263974,-0.5274609131267348,-0.9293766617774963,0.34338223934173584,0.13545335829257965,0.24185071885585785,-1.235918402671814,0.3799816966056824
2.4532339572906494,-0.3127591609954834,0.05891159176826477,0.07660281658172607,-0.3591120627801578,-1.7388537476039725,-0.5226944951393532,-0.9230197668075562,0.3514430820941925,0.15659737586975098,0.29120829701423645,-1.2991899251937866,0.41694432497024536
2.47322416305542,-0.3249437212944031,-0.005889177322387695,0.025755032896995544,-0.3684804352954866,-1.764676572826383,-0.5203924189207796,-0.9153975248336792,0.3601982891559601,0.1797352135181427,0.04507909342646599,-1.3090991973876953,0.4739443361759186
2.4931979179382324,-0.33240777254104614,-0.06610140204429626,0.042914628982543945,-0.3776084899359262,-1.791120000658124,-0.5257409572325457,-0.9070789813995361,0.36869850754737854,0.20314878225326538,-0.33495160937309265,-1.1082251071929932,0.5128946900367737
2.5131001472473145,-0.3096344470977783,-0.04085925221443176,0.041865065693855286,-0.38524874616222893,-1.8146471418063632,-0.5381893461454927,-0.8992888331413269,0.37578967213630676,0.22374485433101654,-0.566372811794281,-0.8340595364570618,0.4865996837615967
2.533121109008789,-0.2359125018119812,-0.00901806354522705,0.031412869691848755,-0.39189775389875775,-1.8357306694175473,-0.5527312906585033,-0.8919411301612854,0.3819429874420166,0.24199439585208893,-0.5507727861404419,-0.734594464302063,0.5073584914207458
2.5531320571899414,-0.17000669240951538,0.012456357479095459,0.004280835390090942,-0.3986377485848067,-1.855301033757676,-0.5661408708989621,-0.8845436573028564,0.3881632685661316,0.25867408514022827,-0.482798308134079,-0.6983906626701355,0.4664078652858734
2.5731358528137207,-0.18012064695358276,0.026181936264038086,-0.03230643272399902,-0.40403282677362146,-1.8741056618664929,-0.5798828137345841,-0.8775119185447693,0.3931296467781067,0.2746313810348511,-0.5696607232093811,-0.6453279852867126,0.43762654066085815
2.593626022338867,-0.14235949516296387,0.021993130445480347,-0.10080939531326294,-0.4087426336057466,-1.892171603231412,-0.5949005104549172,-0.87064129114151,0.3974558711051941,0.28985077142715454,-0.585007905960083,-0.6070554256439209,0.4085969626903534
2.613095998764038,-0.10987907648086548,0.05626380443572998,-0.16381213068962097,-0.4129041628466424,-1.9113960357865214,-0.6103350732780802,-0.8633419871330261,0.40127110481262207,0.30597856640815735,-0.6775221824645996,-0.6678506135940552,0.4936264157295227
2.633146047592163,-0.040113627910614014,0.07125359773635864,-0.0803474485874176,-0.41798443227391885,-1.9317164551919266,-0.6313832626272101,-0.855027973651886,0.40591922402381897,0.32273346185684204,-0.9528759121894836,-0.4890836477279663,0.6453076601028442
2.653141975402832,-0.026551127433776855,0.03980749845504761,-0.03153976798057556,-0.42395058716143363,-1.9493973550410235,-0.6588519193960625,-0.8469232320785522,0.41136449575424194,0.3368988335132599,-1.12147855758667,-0.1769416183233261,0.8367376327514648
2.6731770038604736,-0.0292280912399292,0.08134129643440247,-0.0713312029838562,-0.43269042620941883,-1.9635779820343415,-0.6880032049442895,-0.8387070298194885,0.41931480169296265,0.3474849760532379,-0.9672887921333313,-0.03400789573788643,0.9407642483711243
2.6931400299072266,-0.017397046089172363,0.13241365551948547,-0.1425195038318634,-0.44293267005317744,-1.9746693977196879,-0.7128859551031544,-0.8308084607124329,0.42859095335006714,0.355059415102005,-0.7539410591125488,-0.067079558968544,0.8853188753128052
2.713149070739746,0.05603510141372681,0.07977032661437988,-0.1716793179512024,-0.4542114068180598,-1.9873903179144252,-0.7340536899601101,-0.8217516541481018,0.43875381350517273,0.36361974477767944,-0.5627661943435669,-0.2777365744113922,0.9282621741294861
2.7331418991088867,0.08920437097549438,0.0478510856628418,-0.11331799626350403,-0.4674118934987521,-2.0037085413116507,-0.7553663410256085,-0.8103805184364319,0.4505772888660431,0.3745177686214447,-0.6768548488616943,-0.377972275018692,1.0651724338531494
2.7531399726867676,0.04937523603439331,0.04610300064086914,-0.0385136604309082,-0.48183189495511464,-2.020884303148876,-0.7806485181336891,-0.7978951930999756,0.46340328454971313,0.38551390171051025,-0.713726818561554,-0.14365769922733307,1.2231467962265015
2.7731449604034424,0.04116874933242798,0.06184539198875427,-0.08690288662910461,-0.49920506363630096,-2.034004857110322,-0.8065481447790754,-0.7854467034339905,0.4787277579307556,0.3922923803329468,-0.5434496998786926,0.015106655657291412,1.3284738063812256
2.7931430339813232,0.12218981981277466,0.10151606798171997,-0.12075680494308472,-0.5197627149790041,-2.0445315072548635,-0.8264748291724777,-0.7723515629768372,0.49667420983314514,0.3959644138813019,-0.04467466473579407,-0.1515055000782013,1.288822889328003
2.813170909881592,0.16503936052322388,0.07804471254348755,-0.14848092198371887,-0.5437017112363601,-2.0553980164510968,-0.8362088549148567,-0.7572635412216187,0.517307460308075,0.3986794352531433,0.3462575674057007,-0.41395071148872375,1.2206069231033325
2.833142042160034,0.1083524227142334,-0.00999373197555542,-0.1069154143333435,-0.5682180155737077,-2.0655109723304834,-0.8402491400071903,-0.7418058514595032,0.5381309390068054,0.40017417073249817,0.47806525230407715,-0.31631407141685486,1.1166644096374512
2.853175163269043,0.06900864839553833,-0.10782414674758911,-0.09129554033279419,-0.5911883245723814,-2.069856162247852,-0.8430859096532066,-0.7290123701095581,0.5573480725288391,0.397371768951416,0.40206480026245117,0.005884039681404829,1.0201712846755981
2.873141050338745,0.14040428400039673,-0.1249193549156189,-0.10320675373077393,-0.6122409143330155,-2.070374059052198,-0.8450995008602117,-0.7183462381362915,0.574702799320221,0.39204058051109314,0.472093403339386,0.016930032521486282,0.9210476875305176
2.8931398391723633,0.2092893123626709,-0.11256295442581177,-0.1163681149482727,-0.6324522567550187,-2.070642070503794,-0.8439920489301771,-0.7079009413719177,0.5911244750022888,0.3865862786769867,0.5573340058326721,-0.12009502202272415,0.8104987740516663
2.913140058517456,0.17934495210647583,-0.1323801875114441,-0.08522617816925049,-0.650904594892303,-2.0707293169603616,-0.8413835395426671,-0.6981744170188904,0.6059063076972961,0.3813536763191223,0.5130046606063843,0.030360354110598564,0.7314830422401428
2.933161973953247,0.14149433374404907,-0.16105419397354126,-0.0821397602558136,-0.667878127213827,-2.065453471888063,-0.8387265222736483,-0.6910243630409241,0.6193214058876038,0.3727283179759979,0.512168824672699,0.33354172110557556,0.6548861265182495
2.953217029571533,0.18274688720703125,-0.10485512018203735,-0.10686862468719482,-0.6846637162500254,-2.053261642025017,-0.8312670702728538,-0.6862107515335083,0.6324125528335571,0.35940176248550415,0.8625337481498718,0.36908063292503357,0.5501336455345154
2.973142147064209,0.247189462184906,-0.04507255554199219,-0.12318271398544312,-0.7040652807800974,-2.0347215833759873,-0.8107328097061519,-0.6816529631614685,0.6473216414451599,0.34106308221817017,1.388063907623291,0.13762672245502472,0.478160560131073
2.9931390285491943,0.23811841011047363,-0.09821289777755737,-0.06708765029907227,-0.7249641941307208,-2.0151065138759456,-0.7823081833145977,-0.6758473515510559,0.6631086468696594,0.3217417001724243,1.3650091886520386,0.015729568898677826,0.43975159525871277
3.013139009475708,0.15308594703674316,-0.2352367639541626,-0.011607527732849121,-0.7418685001110848,-1.9965461950204793,-0.7580731126095547,-0.6713966131210327,0.6756665706634521,0.30446958541870117,0.986785352230072,0.25207066535949707,0.33922016620635986
3.033189058303833,0.1317824125289917,-0.25044649839401245,-0.02022978663444519,-0.7542291054641667,-1.977400902441166,-0.7409457243673838,-0.6693801879882812,0.6847270727157593,0.28823530673980713,0.6954059600830078,0.44135117530822754,0.27465927600860596
3.052353858947754,0.1874701976776123,-0.16146963834762573,-0.03732064366340637,-0.7640691357878366,-1.9588735780840894,-0.7251014015613721,-0.6683356761932373,0.6918652057647705,0.2732217013835907,0.8024093508720398,0.2942860722541809,0.21217800676822662
3.073160171508789,0.21326321363449097,-0.1337205171585083,-0.06186741590499878,-0.7753399449593367,-1.9404353004636046,-0.7045556345335737,-0.6659456491470337,0.6999589204788208,0.25801923871040344,0.9645503759384155,0.14545214176177979,0.30491411685943604
3.093140125274658,0.17100059986114502,-0.15763020515441895,-0.06620824337005615,-0.788326612979365,-1.921935122996063,-0.6828537784342655,-0.6620132923126221,0.7091744542121887,0.2425084114074707,0.9479110240936279,0.1892068088054657,0.3376797139644623
3.1131670475006104,0.13398772478103638,-0.14683866500854492,-0.04011048376560211,-0.8013274890874794,-1.9003633109879519,-0.6606252946715913,-0.6583102941513062,0.7182803153991699,0.22516918182373047,0.9314708709716797,0.3976384103298187,0.3923051953315735
3.1331400871276855,0.14245498180389404,-0.13776051998138428,-0.0443558394908905,-0.8141340442111367,-1.87786181188203,-0.6415161821703248,-0.6543875336647034,0.7271313667297363,0.20750294625759125,0.7128852009773254,0.42965784668922424,0.3855668604373932
3.1531381607055664,0.14324212074279785,-0.16572195291519165,-0.04706999659538269,-0.8246277200854998,-1.8599844483020058,-0.6281203663550216,-0.6506427526473999,0.734295129776001,0.19358497858047485,0.4859139323234558,0.40010449290275574,0.36324599385261536
3.173154830932617,0.12123692035675049,-0.12945127487182617,-0.03268909454345703,-0.8332765017914372,-1.842997770539298,-0.6163399069365035,-0.647695779800415,0.7401386499404907,0.18079109489917755,0.6165377497673035,0.42998194694519043,0.2280159443616867
3.1931891441345215,0.08918184041976929,-0.057304978370666504,-0.058238133788108826,-0.8413868626548884,-1.8161980861545335,-0.5917008037612154,-0.6464635133743286,0.7455680966377258,0.16190652549266815,1.1740745306015015,0.35336947441101074,0.13757097721099854
3.2131471633911133,0.1082419753074646,-0.0007451176643371582,0.07115541398525238,-0.8498593960414464,-1.7859961584092312,-0.5640143921957472,-0.6448630690574646,0.7511876225471497,0.14095711708068848,0.49750447273254395,0.6858904957771301,0.268098384141922
3.233139991760254,-0.001214742660522461,-0.18773990869522095,-0.05552041530609131,-0.8537955945187348,-1.7637362900675668,-0.547852937527717,-0.6449339985847473,0.7537800073623657,0.12600092589855194,0.6789032816886902,0.2902567386627197,0.02209477312862873
3.2531399726867676,0.06981408596038818,-0.06019824743270874,0.05028069019317627,-0.8591161218470299,-1.7508198040289782,-0.5390246498363568,-0.6425527930259705,0.757265567779541,0.11694061756134033,0.07705195248126984,0.30800947546958923,0.31511974334716797
3.273221015930176,0.03691166639328003,-0.11134016513824463,0.022086620330810547,-0.8638400123607888,-1.7483319079758712,-0.5400723912973838,-0.6393134593963623,0.7603423595428467,0.11470859497785568,-0.04450223967432976,0.06319793313741684,0.19302387535572052
3.2931430339813232,0.02345561981201172,-0.03208303451538086,0.01833200454711914,-0.8684523843810437,-1.746070239523576,-0.5391645838039838,-0.636111319065094,0.7633301019668579,0.11264965683221817,0.0779271349310875,0.15044955909252167,0.2211267501115799
3.3131420612335205,-0.026804864406585693,-0.012257516384124756,-0.04068887233734131,-0.8716404008362707,-1.7360823617961976,-0.5314649217779933,-0.6348010301589966,0.7653856873512268,0.10588978976011276,0.45350587368011475,0.21906235814094543,0.03961560130119324
3.333138942718506,-0.011051595211029053,-0.04132574796676636,-0.05508458614349365,-0.8733020404914772,-1.7206912189127013,-0.5176513039081531,-0.6350972056388855,0.7664539813995361,0.09591727703809738,0.4554625153541565,0.23381388187408447,-0.026299498975276947
3.353200912475586,0.018468737602233887,-0.0773044228553772,-0.07300055772066116,-0.8730381632847705,-1.706586872880168,-0.5035504056596516,-0.6365870833396912,0.7662844657897949,0.0869777575135231,0.41721028089523315,0.106268972158432,-0.10925411432981491
3.3731398582458496,0.04220700263977051,-0.08993017673492432,-0.027503132820129395,-0.8724078913299482,-1.6980169101095808,-0.4948510894014816,-0.6377881169319153,0.7658793926239014,0.08158037811517715,0.13533423840999603,0.08872424066066742,-0.0410442054271698
3.3931398391723633,0.019977033138275146,-0.09814280271530151,-0.005219936370849609,-0.8711089571057563,-1.6952795480783363,-0.4943174321290714,-0.6389957070350647,0.7650435566902161,0.07995767891407013,-0.07756689190864563,0.16631703078746796,-0.08768077194690704
3.413145065307617,0.006804704666137695,-0.08348262310028076,-0.021409399807453156,-0.8692443748765359,-1.692573051915947,-0.4966922297361869,-0.6406242847442627,0.763841450214386,0.07840105891227722,-0.06116269528865814,0.270818293094635,-0.07995550334453583
3.433140993118286,0.0225256085395813,-0.06138038635253906,-0.04003643989562988,-0.8668956720951356,-1.6870756148813466,-0.49608642852332624,-0.6428260207176208,0.7623234987258911,0.0750860646367073,0.10089989006519318,0.22089338302612305,-0.16887924075126648
3.4531409740448,0.012729525566101074,-0.04483979940414429,-0.07103251665830612,-0.8635309223096301,-1.6783997644922972,-0.489131021780574,-0.6459999084472656,0.7601415514945984,0.0697813406586647,0.30137690901756287,0.12306952476501465,-0.19098086655139923
3.473140001296997,0.016864359378814697,-0.07152801752090454,-0.02543187141418457,-0.8604607529485283,-1.6697451651631088,-0.4795752135261856,-0.648898720741272,0.7581430673599243,0.06441815197467804,0.23936568200588226,0.023468714207410812,-0.19019590318202972
3.4932141304016113,-0.008754849433898926,-0.08470642566680908,0.01831125095486641,-0.8560647177513169,-1.6658790653520708,-0.47521088074616674,-0.6524542570114136,0.7552691698074341,0.06222476810216904,-0.005238669924438,0.056689076125621796,-0.2564835250377655
3.5131430625915527,-0.04877960681915283,-0.06620663404464722,0.023536913096904755,-0.8515969051252015,-1.66752127694446,-0.47947937037110233,-0.6557034850120544,0.752333402633667,0.0636214166879654,-0.28149113059043884,0.10801271349191666,-0.14900973439216614
3.533151149749756,-0.035916805267333984,-0.010204493999481201,0.02427387237548828,-0.8480106173466005,-1.6732625244828663,-0.4907689551432516,-0.6580072641372681,0.7499659657478333,0.06766046583652496,-0.4539305865764618,0.0959928035736084,-0.13425032794475555
3.5521578788757324,-0.03750854730606079,-0.012882769107818604,-0.0016908645629882812,-0.8451898199993547,-1.678961394009243,-0.5007251928826674,-0.6597113609313965,0.7480970621109009,0.07163731753826141,-0.24060837924480438,0.07656681537628174,-0.07174809277057648
3.573183059692383,-0.05810266733169556,0.056291818618774414,-0.010808467864990234,-0.8435489225877593,-1.6797197619075892,-0.5041436178301804,-0.6608763337135315,0.7470071911811829,0.0722709596157074,0.004235232248902321,0.10907664895057678,-0.09475447982549667
3.5931448936462402,-0.07526469230651855,0.003596782684326172,-0.0038693025708198547,-0.8405797958462454,-1.6745539684835178,-0.5013258826702988,-0.6634438633918762,0.7450299859046936,0.06908546388149261,0.1317780613899231,0.23105208575725555,-0.19138045608997345
3.6131091117858887,-0.0688522458076477,-0.08573037385940552,-0.0009559392929077148,-0.8367026708649139,-1.665523870074057,-0.4976607254334093,-0.6669113636016846,0.7424382567405701,0.06336452066898346,0.06918015331029892,0.4086025357246399,-0.228998064994812
3.6331400871276855,-0.06557309627532959,-0.13787001371383667,-0.013710133731365204,-0.8299635491396704,-1.6547628606027767,-0.49598549765018374,-0.67252516746521,0.7379067540168762,0.05660269409418106,0.03323321044445038,0.5519790649414062,-0.4988352656364441
3.6531381607055664,-0.053409039974212646,-0.20365411043167114,-0.05901920422911644,-0.8190457153768618,-1.6356130892821508,-0.489193028582266,-0.6814849376678467,0.7304944396018982,0.04423360899090767,0.27064451575279236,0.8046461939811707,-0.5423401594161987
3.6731390953063965,-0.023316681385040283,-0.23611515760421753,-0.04006171226501465,-0.8066016007863003,-1.6133797608280425,-0.48068352134962605,-0.691328763961792,0.7219398021697998,0.029456960037350655,0.24931348860263824,0.8551403880119324,-0.8013282418251038
3.6931381225585938,-0.06356942653656006,-0.2439875602722168,-0.03925669193267822,-0.7880131087193154,-1.589052339338758,-0.47345532876839624,-0.7051379084587097,0.7089533805847168,0.012874436564743519,0.21273614466190338,1.0807369947433472,-1.0525866746902466
3.713139057159424,-0.07086598873138428,-0.2610160708427429,-0.004186689853668213,-0.7645738996266633,-1.5613109244678833,-0.46853996248258606,-0.7216451168060303,0.6922295689582825,-0.006845299154520035,0.10698965936899185,1.3405392169952393,-1.312650203704834
3.7331390380859375,-0.04896038770675659,-0.25765281915664673,0.03514105826616287,-0.7359246062429623,-1.533032122867115,-0.4687508979048171,-0.7406819462776184,0.6712727546691895,-0.02798456884920597,-0.07939200103282928,1.4922850131988525,-1.5391827821731567
3.7531659603118896,-0.00969606637954712,-0.25242650508880615,0.07391207665205002,-0.7039684100882309,-1.508083114188849,-0.4771705746327189,-0.760781466960907,0.6472477912902832,-0.04777369648218155,-0.40714210271835327,1.566524863243103,-1.708215355873108
3.7731449604034424,-0.006586968898773193,-0.22713005542755127,0.10865920037031174,-0.6687793299011104,-1.4880642916330868,-0.49560922999725265,-0.7818959355354309,0.6200287342071533,-0.06483583152294159,-0.7678287625312805,1.597574234008789,-1.922052025794983
3.7931389808654785,-0.035830020904541016,-0.15715062618255615,0.11646736413240433,-0.629770272886177,-1.4730306262585804,-0.52298607170999,-0.8043036460876465,0.5889590978622437,-0.0788848027586937,-1.0194032192230225,1.5727750062942505,-2.1738522052764893
3.813140869140625,-0.05913949012756348,-0.10113823413848877,0.11483436822891235,-0.5869460479359015,-1.4601982969154945,-0.5545686966283134,-0.8275488615036011,0.553820788860321,-0.0919002816081047,-1.133512258529663,1.4918371438980103,-2.3571648597717285
3.833189010620117,-0.07838964462280273,-0.04240947961807251,0.14842796325683594,-0.5412623942728868,-1.4515970871536068,-0.5904997729898939,-0.8509774804115295,0.5152183771133423,-0.1019190326333046,-1.3782553672790527,1.297524094581604,-2.5496480464935303
3.853137969970703,-0.12108802795410156,0.01849028468132019,0.18878664076328278,-0.49277391216917643,-1.448191854730491,-0.6336679169389903,-0.8744106292724609,0.4730715751647949,-0.10774707794189453,-1.824483036994934,1.2011215686798096,-2.7024500370025635
3.873137950897217,-0.12243270874023438,0.053837478160858154,0.2675786018371582,-0.4502678987465987,-1.4518629185205636,-0.7007175245995108,-0.8939706087112427,0.43520674109458923,-0.10682713985443115,-3.2157812118530273,1.505029559135437,-2.338460922241211
3.893138885498047,-0.23258817195892334,0.10442525148391724,0.18137609958648682,-0.4090706225602814,-1.4568997072197458,-0.78160308487129,-0.9115464091300964,0.39775681495666504,-0.10427334159612656,-3.4802017211914062,1.421385407447815,-2.6282644271850586
3.913137912750244,-0.19756579399108887,0.39157381653785706,0.08759842813014984,-0.36434332489941007,-1.4571864664169414,-0.8535996626505647,-0.9283347129821777,0.3563357889652252,-0.105924092233181,-2.650280475616455,1.1637458801269531,-2.5194337368011475
3.933138847351074,-0.06269645690917969,0.4325571060180664,0.06380153447389603,-0.31922054337822414,-1.4592065340768117,-0.9058189777871317,-0.9435750246047974,0.3138265907764435,-0.10573257505893707,-1.710697889328003,0.3689853549003601,-2.567244052886963
3.9531610012054443,-0.027719497680664062,0.4242068827152252,0.06950682401657104,-0.2722436312798894,-1.4683524506569625,-0.9387918537871514,-0.9581204652786255,0.26889312267303467,-0.0984983891248703,-1.0780646800994873,-0.21731150150299072,-2.384537935256958
3.973206043243408,-0.03338736295700073,0.44369974732398987,0.15186822414398193,-0.22959190678368624,-1.4800865535072412,-0.9654190819158545,-0.9697559475898743,0.22758015990257263,-0.08820840716362,-1.121729850769043,-0.239217147231102,-2.14947509765625
3.9931399822235107,-0.050089359283447266,0.41729962825775146,0.15421223640441895,-0.19097583605163893,-1.4880461983144397,-0.989965505671126,-0.9784599542617798,0.18981708586215973,-0.081153005361557,-0.8948062658309937,-0.04124370217323303,-1.8676429986953735
4.013142108917236,0.01775890588760376,0.5585176944732666,0.08997189998626709,-0.15846860608309432,-1.490986618510496,-1.0062347793690858,-0.9843270182609558,0.1578061878681183,-0.07872607558965683,-0.4388335049152374,-0.020759113132953644,-1.5275938510894775
4.03314208984375,0.10202604532241821,0.612280011177063,0.05560154467821121,-0.13167619329157051,-1.4938387975617458,-1.0145612584467054,-0.9884091019630432,0.13129600882530212,-0.07621604949235916,-0.17280614376068115,-0.10747039318084717,-1.2058886289596558
4.053189039230347,0.15618348121643066,0.5361214876174927,0.05937398225069046,-0.1114633074978042,-1.4954729136055653,-1.0180997711113917,-0.9909766316413879,0.11123264580965042,-0.07478523254394531,-0.1455872505903244,-0.028469759970903397,-0.8465231657028198
4.073144912719727,0.1735808253288269,0.49277517199516296,0.020012550055980682,-0.09854026381980023,-1.4970454136092133,-1.0265640414204227,-0.9924439787864685,0.09838086366653442,-0.07332663983106613,-0.6490954160690308,-0.05536706745624542,-0.4925004839897156
4.093224048614502,0.17231988906860352,0.39165064692497253,-0.05756884068250656,-0.09356269571454347,-1.4998370947849515,-1.0444529610571585,-0.9931207299232483,0.09342624992132187,-0.07058960199356079,-1.0529603958129883,-0.058737654238939285,-0.16352121531963348
4.113182067871094,0.15484076738357544,0.4378371238708496,-0.07912921160459518,-0.09276766540713292,-1.5039895950539575,-1.0688816217939798,-0.9934791326522827,0.0926346629858017,-0.06647001206874847,-1.3376001119613647,-0.10733591020107269,-0.11478317528963089
4.133138179779053,0.1460099220275879,0.5422158241271973,-0.1412375569343567,-0.09157914296477986,-1.5087773711286918,-1.0940714958440083,-0.9938952326774597,0.09145119041204453,-0.06171949580311775,-1.098076343536377,-0.14804063737392426,-0.1517006903886795
4.153138160705566,0.18737322092056274,0.589576005935669,-0.19859462976455688,-0.0892993347316736,-1.514836023771974,-1.112704037969996,-0.9944564700126648,0.08918070048093796,-0.055708251893520355,-0.6859040856361389,-0.2749694585800171,-0.2136421501636505
4.1731390953063965,0.22619318962097168,0.5603116750717163,-0.27393847703933716,-0.08562114271843752,-1.5225025627327926,-1.1207192710475917,-0.995175302028656,0.0855165645480156,-0.048098161816596985,-0.14124953746795654,-0.4444628655910492,-0.16715462505817413
4.193164825439453,0.262203574180603,0.5754150152206421,-0.22608017921447754,-0.08329635851400431,-1.532452078406814,-1.1205004689518219,-0.9958003759384155,0.08320006728172302,-0.038201943039894104,0.1481674462556839,-0.5130415558815002,-0.0768931433558464
4.213147163391113,0.20713061094284058,0.6009404063224792,-0.2290581464767456,-0.08218125638678968,-1.54187945133218,-1.1155555794410446,-0.9962084293365479,0.08208878338336945,-0.028815267607569695,0.3629596531391144,-0.44784438610076904,-0.00318906269967556
4.233136177062988,0.15813416242599487,0.58961421251297,-0.2251107096672058,-0.08319596556995473,-1.5480849491964146,-1.106987218743035,-0.9962844252586365,0.08310002088546753,-0.022630883380770683,0.47400981187820435,-0.24546919763088226,0.12377341091632843
4.253148078918457,0.19287210702896118,0.5871444940567017,-0.21522003412246704,-0.08714483210228781,-1.5514294914422286,-1.096621624270216,-0.9960185885429382,0.08703457564115524,-0.019292140379548073,0.5617794394493103,-0.2261781394481659,0.30993473529815674
4.2731781005859375,0.25890594720840454,0.5769892334938049,-0.21908247470855713,-0.09558054548965224,-1.556996908784405,-1.0828599422830985,-0.9953410625457764,0.09543508291244507,-0.01373599935323,0.8329094648361206,-0.49662941694259644,0.5602362155914307
4.293137073516846,0.19608712196350098,0.6239672303199768,-0.22695320844650269,-0.10817721935153662,-1.568656999032696,-1.0621773012101552,-0.9941524267196655,0.1079663559794426,-0.002126821083948016,1.2658196687698364,-0.8688623309135437,0.6894001960754395
4.313138961791992,-0.03410285711288452,0.6743794679641724,-0.24323415756225586,-0.12201991005756496,-1.584026839222252,-1.0303617392214148,-0.9924780130386353,0.12171734869480133,0.013131759129464626,1.9220666885375977,-0.9745519757270813,0.6608133912086487
4.333137035369873,-0.2916334867477417,0.7189701795578003,-0.20945298671722412,-0.13586329703007166,-1.595343234563245,-0.9866286112409121,-0.9904863834381104,0.135445699095726,0.024318262934684753,2.3774726390838623,-0.664781391620636,0.6615203619003296
4.353224992752075,-0.428303599357605,0.6644807457923889,-0.0881032943725586,-0.1522690985692695,-1.596872203278047,-0.9391933320320514,-0.9880936741828918,0.15168136358261108,0.02577124908566475,2.2522900104522705,-0.13481926918029785,0.9078236222267151
4.37313985824585,-0.37161505222320557,0.48766377568244934,0.0697857141494751,-0.176381088663904,-1.5878545716984622,-0.9004951575657563,-0.984342098236084,0.17546796798706055,0.01679277792572975,1.6224552392959595,0.36422601342201233,1.44650399684906
4.3931379318237305,-0.2602689266204834,0.3289914131164551,0.0997086763381958,-0.21146038989427526,-1.5733168166698308,-0.8717863022110061,-0.9777225255966187,0.20988798141479492,0.002464344957843423,1.28040611743927,0.4510571360588074,2.0149290561676025
4.413133144378662,-0.21660715341567993,0.37248852849006653,0.06730788946151733,-0.25497538709955253,-1.5599144945774834,-0.8442025497648311,-0.9676123261451721,0.25222158432006836,-0.010529810562729836,1.5254215002059937,0.2537274956703186,2.29805588722229
4.433135032653809,-0.2576137185096741,0.4212726652622223,0.04734093323349953,-0.3011543703169999,-1.5458278800845917,-0.8038994359281028,-0.9546970129013062,0.2966228127479553,-0.023842256516218185,2.262143611907959,0.07561659812927246,2.409878730773926
4.4531731605529785,-0.2714245915412903,0.3140515089035034,0.12361174821853638,-0.34865491655912784,-1.5274008826722079,-0.7497323093018957,-0.9389484524726868,0.34163397550582886,-0.04077168181538582,2.6341426372528076,0.0327451266348362,2.5038225650787354
4.473137855529785,-0.29357242584228516,0.14919376373291016,0.22733396291732788,-0.39562244780552813,-1.5051248286563184,-0.6914814700308081,-0.9207678437232971,0.38538262248039246,-0.06055527925491333,2.5037717819213867,0.13495120406150818,2.4879236221313477
4.493139028549194,-0.2987002730369568,0.0020046234130859375,0.29482096433639526,-0.44123594573490227,-1.4769284313244535,-0.6357390810538439,-0.9002439975738525,0.4270573556423187,-0.08475308120250702,2.2127997875213623,0.4291645288467407,2.494070529937744
4.513219833374023,-0.22820168733596802,-0.13323920965194702,0.32374298572540283,-0.4864413843151607,-1.4442320393306287,-0.5852456759566577,-0.8769314885139465,0.4674830436706543,-0.11158464848995209,1.7571184635162354,0.5501172542572021,2.4723010063171387
4.533161163330078,-0.1488543152809143,-0.1712017059326172,0.32782262563705444,-0.5289082204971927,-1.4128408140996906,-0.5421012220405845,-0.8526106476783752,0.5045910477638245,-0.1358058899641037,1.4605183601379395,0.4643802344799042,2.2705254554748535
4.553235054016113,-0.13027232885360718,-0.1705741286277771,0.2787973880767822,-0.5664413228932484,-1.3825583308010054,-0.4983485109056018,-0.8289105892181396,0.5366325974464417,-0.15790189802646637,1.649074673652649,0.3112271726131439,2.0872042179107666
4.573145866394043,-0.16050869226455688,-0.19078367948532104,0.2653050422668457,-0.5982224315280482,-1.3475440281718578,-0.44678944527718173,-0.8058305382728577,0.5631744861602783,-0.18295322358608246,1.8505545854568481,0.36288049817085266,1.9127624034881592
4.5931620597839355,-0.15410453081130981,-0.29289674758911133,0.3261018395423889,-0.6243293585037692,-1.3104136469294259,-0.39466551066682365,-0.7840058207511902,0.5845533013343811,-0.20888373255729675,1.646362066268921,0.3600248098373413,1.6444728374481201
4.6131110191345215,-0.14228379726409912,-0.3953421115875244,0.362324982881546,-0.6456304253625427,-1.2757652167772782,-0.34934509394300767,-0.7642105221748352,0.601702094078064,-0.23224373161792755,1.2881574630737305,0.4392457604408264,1.4190914630889893
4.633138179779053,-0.11653858423233032,-0.4304967522621155,0.38144123554229736,-0.6633616377866817,-1.2433881789006591,-0.31165508769185085,-0.7460713386535645,0.6157690286636353,-0.2533893287181854,1.022999882698059,0.4741858243942261,1.1795181035995483
4.653138160705566,-0.07659995555877686,-0.41546666622161865,0.3971157371997833,-0.6770882382708733,-1.2154647952703193,-0.2807594657511881,-0.7307121157646179,0.6265262365341187,-0.2711543142795563,0.845452606678009,0.363010048866272,0.9326920509338379
4.673145055770874,-0.08111816644668579,-0.4195306897163391,0.37061983346939087,-0.6865479393797334,-1.1924807510254847,-0.2533425351218668,-0.718747615814209,0.6338710188865662,-0.2856740653514862,0.78179532289505,0.24793723225593567,0.7284128665924072
4.693138122558594,-0.09358000755310059,-0.44676733016967773,0.38735002279281616,-0.6929762776275149,-1.173209266644717,-0.230950196762652,-0.7093375325202942,0.6388298273086548,-0.2978876233100891,0.5563111901283264,0.26614633202552795,0.5189400911331177
4.713139057159424,-0.07112723588943481,-0.4910966157913208,0.41323697566986084,-0.6977091882231138,-1.1590323239709581,-0.2172701466292539,-0.7022646069526672,0.6424638628959656,-0.30670005083084106,0.21851861476898193,0.26115715503692627,0.34410059452056885
4.733137130737305,-0.03159749507904053,-0.5147204995155334,0.41042882204055786,-0.7022420606334698,-1.151898590686692,-0.21283836663429634,-0.6973912715911865,0.6459308862686157,-0.3105142414569855,-0.06736733019351959,0.14502869546413422,0.19505555927753448
4.752792835235596,-0.029402077198028564,-0.5183293223381042,0.3837549388408661,-0.7048536549909277,-1.1520972860110625,-0.21444155236285883,-0.6959093809127808,0.6479223370552063,-0.3096887469291687,-0.12964589893817902,-0.061636678874492645,-0.013212643563747406
4.77318811416626,-0.0753711462020874,-0.48372364044189453,0.3638547956943512,-0.7038140456161036,-1.1585967785835072,-0.21958358780744133,-0.6985242366790771,0.6471301317214966,-0.3054288625717163,-0.18843428790569305,-0.24727268517017365,-0.24500541388988495
4.793158054351807,-0.1557663083076477,-0.491138219833374,0.36529284715652466,-0.6992379251461129,-1.171471102292074,-0.22985447441121235,-0.7051193714141846,0.6436346173286438,-0.29755899310112,-0.3699491322040558,-0.37047290802001953,-0.49910658597946167
4.813140869140625,-0.2525089979171753,-0.48989808559417725,0.37526506185531616,-0.6912642267964506,-1.1907324763136982,-0.2490271886298744,-0.715462863445282,0.6375117301940918,-0.285817950963974,-0.713890790939331,-0.2844060957431793,-0.7986206412315369
4.8331379890441895,-0.2948400378227234,-0.4851148724555969,0.3707377314567566,-0.6800375349508366,-1.214009719122628,-0.27939942763576375,-0.7285822629928589,0.6288222074508667,-0.27157074213027954,-1.0606040954589844,-0.1579626053571701,-1.1038273572921753
4.853176116943359,-0.28413206338882446,-0.41174960136413574,0.32300055027008057,-0.663969583161001,-1.2427757973219258,-0.3165545344892865,-0.7455615997314453,0.6162479519844055,-0.253725528717041,-1.0795730352401733,-0.46960949897766113,-1.3831344842910767
4.873136043548584,-0.39768069982528687,-0.2525383234024048,0.2743346095085144,-0.641914281613536,-1.2784927808742585,-0.3535999531543599,-0.7669770121574402,0.5987297892570496,-0.23080116510391235,-1.1057426929473877,-0.7611924409866333,-1.6386281251907349
4.8931379318237305,-0.6575514078140259,-0.1785297989845276,0.30011051893234253,-0.6140957499975852,-1.3142098730765874,-0.3965421596571312,-0.7905383110046387,0.5762197375297546,-0.20741331577301025,-1.580518126487732,-0.15264755487442017,-1.9762029647827148
4.91317892074585,-0.6470326781272888,-0.21816372871398926,0.32593291997909546,-0.5830181456808127,-1.342809536875549,-0.4543370241806228,-0.8132030367851257,0.5505459904670715,-0.1886799931526184,-2.2894065380096436,0.4023154675960541,-2.1664555072784424
4.933137893676758,-0.38047730922698975,-0.12631750106811523,0.2068462371826172,-0.5506895683637083,-1.3735050819116272,-0.5217406032783563,-0.8356329798698425,0.5232749581336975,-0.16703595221042633,-2.4852113723754883,0.06594187766313553,-2.158820867538452
4.9531660079956055,-0.2533593773841858,0.05867058038711548,0.039062634110450745,-0.5176179125627048,-1.406709491187536,-0.5823806530060598,-0.857327938079834,0.4948115050792694,-0.1419525295495987,-1.9878748655319214,-0.23607611656188965,-2.0485525131225586
4.973145961761475,-0.217115581035614,0.11785250902175903,-0.06458039581775665,-0.48327591370119627,-1.4348347973538758,-0.6274818971751247,-0.8773059844970703,0.464682400226593,-0.1200203225016594,-1.4654945135116577,-0.4111909568309784,-1.9346287250518799
4.993135929107666,-0.16266512870788574,0.1193065345287323,-0.08123116940259933,-0.4504105976166249,-1.4599008972094527,-0.6619256018931851,-0.894738495349884,0.4353352189064026,-0.0996311604976654,-1.2218141555786133,-0.518527090549469,-1.6984320878982544
5.013167858123779,-0.13277649879455566,0.10365724563598633,-0.06222105026245117,-0.42143314278786204,-1.4824018233895466,-0.6909472255055545,-0.9089411497116089,0.40906861424446106,-0.08055531978607178,-1.1349908113479614,-0.49021226167678833,-1.459999918937683
5.03314208984375,-0.13342410326004028,0.057239532470703125,-0.01592177152633667,-0.3961403479259825,-1.5010989835890602,-0.7192298770982262,-0.9203174710273743,0.38586047291755676,-0.0642477497458458,-1.32670259475708,-0.23218072950839996,-1.304028868675232
5.053145885467529,-0.14480721950531006,0.0624658465385437,0.0010116100311279297,-0.37179131298614637,-1.5160297573055563,-0.7549869356855882,-0.9302814602851868,0.3632849454879761,-0.050999321043491364,-1.8915331363677979,0.09523211419582367,-1.3237663507461548
5.073184013366699,-0.09246927499771118,0.08044517040252686,-0.00970948114991188,-0.3471068976920945,-1.5279505045643154,-0.8011853736987434,-0.9394981265068054,0.3401786684989929,-0.04027821868658066,-2.266157388687134,0.33947595953941345,-1.360885739326477
5.093135833740234,-0.0005241632461547852,0.16114774346351624,-0.032909270375967026,-0.32132787424141185,-1.5362897355691432,-0.8513707426731877,-0.9482521414756775,0.31582674384117126,-0.032733943313360214,-2.335923671722412,0.40109485387802124,-1.4179120063781738
5.113131046295166,0.10587745904922485,0.25843700766563416,-0.031085729598999023,-0.293854323407312,-1.5443172347145842,-0.8998175572000107,-0.9567992091178894,0.28964346647262573,-0.02534109726548195,-2.158219814300537,0.23886092007160187,-1.479605793952942
5.133216857910156,0.16652947664260864,0.31782662868499756,-0.04811340570449829,-0.2643744204590488,-1.5535989849819494,-0.941863660852785,-0.9651135802268982,0.26130548119544983,-0.016599025577306747,-1.812896728515625,0.009673274122178555,-1.547445297241211
5.153141021728516,0.170989990234375,0.3867928385734558,-0.07494997978210449,-0.23387908556188422,-1.5633443955401192,-0.975507969392665,-0.9727479219436646,0.23175273835659027,-0.007248984649777412,-1.4614115953445435,-0.1427174210548401,-1.5426629781723022
5.173173904418945,0.1523221731185913,0.4480527639389038,-0.10204851627349854,-0.2033395059281748,-1.573411499882244,-1.0035641556835408,-0.9793944954872131,0.20194116234779358,0.0025612919125705957,-1.2761445045471191,-0.2307404726743698,-1.5252994298934937
5.193137168884277,0.14754718542099,0.4777560234069824,-0.09975957870483398,-0.17344183881216926,-1.5820563814663773,-1.0269129069171268,-0.9849343299865723,0.17257356643676758,0.011090883053839207,-1.0146781206130981,-0.174598827958107,-1.4399409294128418
5.2131359577178955,0.1564355492591858,0.5570851564407349,-0.12421834468841553,-0.14600875227194682,-1.5870031954665966,-1.042703628632879,-0.9892297983169556,0.14549052715301514,0.01603372022509575,-0.5663846135139465,-0.07586576789617538,-1.2840824127197266
5.233211994171143,0.16718316078186035,0.670507550239563,-0.2094177007675171,-0.12183157624642507,-1.5897736666340154,-1.0485373535926552,-0.9924092888832092,0.12153041362762451,0.01883554831147194,-0.03889383748173714,-0.130246102809906,-1.129533290863037
5.253162860870361,0.20820707082748413,0.696634829044342,-0.24721026420593262,-0.10195787633968413,-1.592673502438405,-1.0450621739072816,-0.9945690035820007,0.10178131610155106,0.021761832758784294,0.2641944885253906,-0.19515354931354523,-0.8354973793029785
5.273190021514893,0.26344192028045654,0.6382509469985962,-0.20548033714294434,-0.08913142122801807,-1.5961126421394036,-1.0401958113335585,-0.9957115054130554,0.08901344984769821,0.025213131681084633,0.1522890329360962,-0.17939820885658264,-0.47078606486320496
5.29314398765564,0.27409273386001587,0.5896616578102112,-0.1983323097229004,-0.0833014780158654,-1.5989113313346137,-1.0385888638835699,-0.9961387515068054,0.08320517092943192,0.02801382727921009,0.037303850054740906,-0.1298503577709198,-0.1273762285709381
5.313135147094727,0.2631921172142029,0.6437163352966309,-0.24960017204284668,-0.08363029875277993,-1.601805723807432,-1.0358138222416986,-0.9960260987281799,0.08353284746408463,0.030896073207259178,0.3012296259403229,-0.20172694325447083,0.1481737643480301
5.333191871643066,0.23332202434539795,0.6896861791610718,-0.3004707098007202,-0.08956254218660399,-1.6063873704527087,-1.0252788889017046,-0.9953613877296448,0.08944285660982132,0.03544091433286667,0.7892142534255981,-0.3535849153995514,0.38453978300094604
5.3531341552734375,0.14524996280670166,0.6882119178771973,-0.30489885807037354,-0.09979545400742201,-1.6125484164794281,-1.0052811072678682,-0.9941574931144714,0.09962989389896393,0.04153228923678398,1.2161365747451782,-0.43084001541137695,0.5695319175720215
5.373144149780273,0.024491190910339355,0.6352583169937134,-0.2465839385986328,-0.11444200373361248,-1.616923231238675,-0.9793022421789198,-0.9924020767211914,0.11419235914945602,0.045808929949998856,1.3756879568099976,-0.22623397409915924,0.7867905497550964
5.393161058425903,-0.0664438009262085,0.550804615020752,-0.1516958475112915,-0.13342886985125288,-1.615174159887573,-0.954937802826108,-0.990135908126831,0.13303330540657043,0.04396895319223404,1.0784262418746948,0.07659496366977692,0.9986449480056763
5.413146018981934,-0.11138230562210083,0.4625539779663086,-0.07678759098052979,-0.15615238123529224,-1.610170264497474,-0.9380056018189665,-0.9870675206184387,0.1555185616016388,0.038884829729795456,0.7417101263999939,0.15534764528274536,1.1973702907562256
5.433145046234131,-0.2143040895462036,0.48359835147857666,-0.1163400411605835,-0.18166000513143676,-1.60387016068986,-0.9227959908509381,-0.9830074310302734,0.18066251277923584,0.032523684203624725,0.9707329273223877,0.21865613758563995,1.276807188987732
5.452533960342407,-0.31816840171813965,0.5936188697814941,-0.1884298324584961,-0.20776901095730302,-1.5945164273709662,-0.8959938457030483,-0.9782184362411499,0.20627740025520325,0.02320779114961624,1.8223010301589966,0.17603899538516998,1.2387961149215698
5.473140001296997,-0.3426578640937805,0.6211291551589966,-0.16612732410430908,-0.2328366375592194,-1.5804773268955015,-0.8487839273093611,-0.9729703068733215,0.2307385355234146,0.009419620037078857,2.7862040996551514,0.2121591866016388,1.2183290719985962
5.493215084075928,-0.2876243591308594,0.5141655206680298,-0.01328200101852417,-0.25885736011020694,-1.5605906479897107,-0.7872947379838022,-0.9666329622268677,0.255976140499115,-0.009865487925708294,3.0551517009735107,0.2646214962005615,1.401828646659851
5.51313591003418,-0.328291654586792,0.33700284361839294,0.11925148963928223,-0.2870079581405852,-1.5382991775500718,-0.7275056497246746,-0.9585888981819153,0.28308385610580444,-0.031162377446889877,2.566810369491577,0.4025651514530182,1.529875636100769
5.533135890960693,-0.4254481792449951,0.18713080883026123,0.20260024070739746,-0.31675083739191146,-1.5124644680247654,-0.6807644665741716,-0.9486364126205444,0.31148067116737366,-0.055398572236299515,1.772498607635498,0.8120390176773071,1.647409439086914
5.553145885467529,-0.4213476777076721,0.09448394179344177,0.25095170736312866,-0.3484208093091291,-1.4820185746179533,-0.6482602573171411,-0.9362116456031799,0.3414139449596405,-0.0833338126540184,1.1200369596481323,1.1345953941345215,1.738116979598999
5.573163032531738,-0.28780919313430786,0.07703006267547607,0.24304406344890594,-0.3818264387994064,-1.4498413956111553,-0.6226151515328231,-0.9212059378623962,0.3726159930229187,-0.11197098344564438,1.0221891403198242,1.120314598083496,1.8544306755065918
5.593133926391602,-0.15294873714447021,0.09226000308990479,0.21317058801651,-0.41655450255210225,-1.4178556107468254,-0.5916815167498302,-0.9038141369819641,0.4046120047569275,-0.13931792974472046,1.3762924671173096,0.864946722984314,1.9828966856002808
5.613246917724609,-0.08463019132614136,0.07121750712394714,0.21840034425258636,-0.4511491551095448,-1.385259672919904,-0.5502072027404961,-0.8845014572143555,0.4359999895095825,-0.1660168170928955,1.723326325416565,0.6723681688308716,2.073836326599121
5.633146047592163,-0.06446349620819092,-0.03133612871170044,0.26152604818344116,-0.48569379807998364,-1.3514599781623478,-0.5026178190363493,-0.8631641864776611,0.4668220281600952,-0.1924188882112503,1.6804795265197754,0.5820135474205017,2.1686205863952637
5.65247106552124,-0.08397883176803589,-0.15922406315803528,0.310182124376297,-0.5211849936924714,-1.3174365235563257,-0.4572450597506266,-0.8395441174507141,0.4979081451892853,-0.21737800538539886,1.3234851360321045,0.6780873537063599,2.227177381515503
5.673174858093262,-0.09871596097946167,-0.25566965341567993,0.3454892933368683,-0.5589152425667053,-1.2825146317410447,-0.41906041923569404,-0.8128440976142883,0.5302668213844299,-0.24104274809360504,0.8349999785423279,0.8361091613769531,2.2832729816436768
5.693310976028442,-0.09536588191986084,-0.3037915825843811,0.3662137985229492,-0.5983532782424155,-1.2483365839771923,-0.3874207912438516,-0.7836778163909912,0.5632826089859009,-0.26184362173080444,0.5798810720443726,0.8293700218200684,2.2699503898620605
5.713165998458862,-0.12429368495941162,-0.3288179636001587,0.3556351661682129,-0.6359847174860641,-1.2134501540095404,-0.35500059180470217,-0.7536665797233582,0.593970000743866,-0.2814010679721832,0.6901966333389282,0.789200484752655,2.1509225368499756
5.733217000961304,-0.166265606880188,-0.34861284494400024,0.3796815574169159,-0.6683415875459094,-1.1762212518805268,-0.3189713225137225,-0.7245425581932068,0.6196852326393127,-0.30170902609825134,0.7702562212944031,0.7510012984275818,1.8950508832931519
5.753223896026611,-0.19932198524475098,-0.3878723382949829,0.4237084686756134,-0.6936954974557912,-1.1391126740959292,-0.2834690854129137,-0.6983526349067688,0.6393829584121704,-0.32170337438583374,0.7199727892875671,0.7331116199493408,1.5463757514953613
5.773311138153076,-0.20463848114013672,-0.44774794578552246,0.4495105743408203,-0.7126597484524031,-1.1044302235882206,-0.25201924753786686,-0.6758242249488831,0.6538485288619995,-0.34021177887916565,0.6184594631195068,0.700683057308197,1.2172338962554932
5.7933759689331055,-0.18369197845458984,-0.510643482208252,0.46983519196510315,-0.7265358999372243,-1.074408423542735,-0.22652015827518435,-0.6572657227516174,0.6642842888832092,-0.3559893071651459,0.4406066834926605,0.6156418323516846,0.8921509385108948
5.813299179077148,-0.17293018102645874,-0.5085077285766602,0.4546700716018677,-0.7354931486377929,-1.0514272761892238,-0.20884557192263895,-0.6437203288078308,0.6709529161453247,-0.3680305778980255,0.2754080295562744,0.49816033244132996,0.5246966481208801
5.833187103271484,-0.15110266208648682,-0.46450692415237427,0.42783644795417786,-0.739231510785535,-1.0366609786508034,-0.199197069173751,-0.6360525488853455,0.6737201809883118,-0.3762158751487732,0.17848002910614014,0.3362414538860321,0.17163319885730743
5.860611915588379,-0.09074926376342773,-0.4502325654029846,0.41698288917541504,-0.7334141539578376,-1.0268157693176203,-0.19254731408114756,-0.635660707950592,0.6694098711013794,-0.3844815790653229,0.1431368738412857,-0.14149120450019836,-0.25230133533477783
5.880374908447266,-0.14841341972351074,-0.41457313299179077,0.417963445186615,-0.7268203828098597,-1.0349309985370443,-0.19587454849101138,-0.642541229724884,0.664496898651123,-0.38155585527420044,-0.026967480778694153,-0.4071631133556366,-0.45137155055999756
5.900660991668701,-0.26439929008483887,-0.3920101523399353,0.4213379919528961,-0.7186683845663722,-1.0503344461441837,-0.207176993709397,-0.6530202627182007,0.6583829522132874,-0.37429505586624146,-0.33441469073295593,-0.3265738785266876,-0.6827645897865295
5.920825958251953,-0.30638134479522705,-0.41650503873825073,0.41675013303756714,-0.709708353545636,-1.0691290617820124,-0.2296538619163582,-0.6650847792625427,0.6516125798225403,-0.364778608083725,-0.7040824294090271,-0.10740869492292404,-0.9356480836868286
5.94192099571228,-0.2260494828224182,-0.3760959506034851,0.3455110192298889,-0.6984524952095708,-1.0928008514671332,-0.26082024918591484,-0.6800022125244141,0.6430333256721497,-0.35228583216667175,-0.7833461761474609,-0.31556108593940735,-1.1747653484344482
5.961362838745117,-0.17263823747634888,-0.23591220378875732,0.23155593872070312,-0.6814562964800349,-1.121844331319993,-0.2891781905941952,-0.6996915936470032,0.6299247145652771,-0.33708563446998596,-0.38559117913246155,-0.8165035843849182,-1.326306700706482
5.981155872344971,-0.25691717863082886,-0.13412493467330933,0.2287408709526062,-0.6571790725907083,-1.1549788153690728,-0.30879341678864997,-0.7242535352706909,0.6108859181404114,-0.31980523467063904,-0.05007576942443848,-1.2003753185272217,-1.5458393096923828
6.00128698348999,-0.47542810440063477,-0.14455854892730713,0.3165508508682251,-0.6278036945278406,-1.1892933772341818,-0.32920294821737095,-0.75113445520401,0.5873686671257019,-0.30132246017456055,-0.4782591164112091,-0.8986524939537048,-1.8179020881652832
6.021129131317139,-0.5891972184181213,-0.21278029680252075,0.3843599557876587,-0.5988794454602574,-1.2226614713212711,-0.36834969768345427,-0.7764187455177307,0.5637173056602478,-0.28177496790885925,-1.5005813837051392,-0.23144586384296417,-2.0002734661102295
6.041018962860107,-0.37763625383377075,-0.1960877776145935,0.3115765154361725,-0.5724576327669214,-1.2577358949410218,-0.4248523801185874,-0.7997168302536011,0.5416995286941528,-0.2588725686073303,-1.9614739418029785,-0.29047271609306335,-2.014061212539673
6.061167001724243,-0.19999545812606812,-0.0006614923477172852,0.1229693591594696,-0.545130469119177,-1.2971462432827363,-0.4787427007801058,-0.8232439160346985,0.5185296535491943,-0.23107780516147614,-1.518029808998108,-0.7888351678848267,-1.9352446794509888
6.082887172698975,-0.19165068864822388,0.12543219327926636,-0.020784199237823486,-0.5141045531708061,-1.3353487797501484,-0.5171676887204314,-0.8467100262641907,0.49175533652305603,-0.20312315225601196,-0.9680779576301575,-1.0271086692810059,-1.933249592781067
6.092511177062988,-0.19165068864822388,0.12543219327926636,-0.020784199237823486,-0.5141045531708061,-1.3353487797501484,-0.5171676887204314,-0.8467100262641907,0.49175533652305603,-0.20312315225601196,-0.9680779576301575,-1.0271086692810059,-1.933249592781067
6.119868040084839,-0.17796730995178223,0.09994825720787048,-0.047132208943367004,-0.4470179359516183,-1.3985285715744504,-0.5714025148014731,-0.8883934020996094,0.43227842450141907,-0.15457361936569214,-0.8153926134109497,-0.8962306976318359,-1.7618439197540283
6.140967845916748,-0.1405298113822937,0.13593241572380066,-0.04240177571773529,-0.4163022360378116,-1.42575456127055,-0.5963544951302109,-0.9049871563911438,0.40438127517700195,-0.13218919932842255,-0.9836457371711731,-0.7512503266334534,-1.6449956893920898
6.1658689975738525,-0.11513245105743408,0.12850069999694824,-0.027715429663658142,-0.3875851020068025,-1.4499975211539726,-0.6263498678879151,-0.9190776944160461,0.37795373797416687,-0.1115666925907135,-1.3923887014389038,-0.5063982605934143,-1.5846061706542969
6.17625093460083,-0.04557281732559204,0.13956931233406067,-0.06404703855514526,-0.3600740912302708,-1.4720333683232187,-0.6637542405733761,-0.9313101768493652,0.3523435592651367,-0.09227918088436127,-1.756359338760376,-0.36498600244522095,-1.531644344329834
6.379362106323242,0.0595206618309021,0.20340296626091003,-0.08888297528028488,-0.3336038730553391,-1.4934464034840924,-0.7051276356820874,-0.9420433044433594,0.32745033502578735,-0.07301265001296997,-1.8447458744049072,-0.3830152451992035,-1.45395028591156
6.396622180938721,0.11742234230041504,0.3498227000236511,-0.1648252010345459,-0.27928207489552365,-1.5337063817407401,-0.7789879402937295,-0.9605926871299744,0.27566561102867126,-0.03564467653632164,-1.4349029064178467,-0.535398542881012,-1.4746837615966797
6.418514966964722,0.11530226469039917,0.5749487280845642,-0.3158457279205322,-0.19003272250139697,-1.5782280312357158,-0.8252942847102099,-0.9819710850715637,0.18889102339744568,0.007297853007912636,-0.048411041498184204,-0.5895757675170898,-1.4559956789016724
6.434482097625732,0.05747169256210327,0.6056109666824341,-0.36648082733154297,-0.12856859939554935,-1.6070176531282279,-0.816645040724391,-0.9910959005355835,0.12821468710899353,0.03591451793909073,-0.2219013273715973,0.012979943305253983,-0.5071334838867188
6.456490993499756,0.07378774881362915,0.6726517677307129,-0.3660534620285034,-0.1516748539522122,-1.5936078828486124,-0.786019576915714,-0.9882622957229614,0.1510939747095108,0.022547712549567223,1.873349905014038,-0.23874318599700928,0.581935465335846
6.475399971008301,-0.09972268342971802,0.5658900141716003,-0.22524142265319824,-0.16375320137433416,-1.587212815066907,-0.750140868505451,-0.9864895939826965,0.16302233934402466,0.016196150332689285,1.60926353931427,0.30235058069229126,0.6036320924758911
6.4949610233306885,-0.10048419237136841,0.46617549657821655,-0.0917212963104248,-0.1780437440359752,-1.57405301645284,-0.7247494231785637,-0.9841870069503784,0.17710457742214203,0.0032052029855549335,0.8872805237770081,0.5347787737846375,0.8160297870635986
6.516587972640991,-0.10126066207885742,0.4277064800262451,-0.02955573797225952,-0.19680678665203877,-1.5594841604618794,-0.7124679788503916,-0.9806333780288696,0.19553875923156738,-0.011093560606241226,0.41967862844467163,0.7148035764694214,1.0621564388275146
6.5370049476623535,-0.10932308435440063,0.47455471754074097,-0.050875067710876465,-0.22029219115199428,-1.5434937353375122,-0.7021116460411877,-0.9754701256752014,0.21851475536823273,-0.026639482006430626,0.6543496251106262,0.5528295040130615,1.3090415000915527
6.556720018386841,-0.17407077550888062,0.5542373657226562,-0.07277810573577881,-0.24810489466111596,-1.5326722615501258,-0.6813467784843193,-0.9686753153800964,0.24556732177734375,-0.036947742104530334,1.3288836479187012,0.1023697480559349,1.4944044351577759
6.575858116149902,-0.4245959520339966,0.6007237434387207,-0.07291710376739502,-0.2759176327870967,-1.5199586514025536,-0.6451119960268414,-0.9609326720237732,0.2724299728870392,-0.04889371246099472,1.9673850536346436,0.34687694907188416,1.4397021532058716
6.596637010574341,-0.3955588936805725,0.44788336753845215,0.11629360169172287,-0.3040963987189906,-1.4969490153605267,-0.603591545033453,-0.9515177011489868,0.2994311451911926,-0.07039503753185272,1.7120481729507446,0.6938976049423218,1.6830346584320068
6.6208600997924805,-0.20289790630340576,0.19371196627616882,0.254006564617157,-0.33974894055627775,-1.4728801164714218,-0.5714688055838523,-0.9383224248886108,0.33325040340423584,-0.09217173606157303,1.042860507965088,0.6829590201377869,2.1410789489746094
6.640212059020996,-0.23131448030471802,0.11117297410964966,0.2545480728149414,-0.38331346007719347,-1.4510128157071926,-0.5477739085316375,-0.9207852482795715,0.37399551272392273,-0.11082544177770615,0.7785122394561768,0.6937934756278992,2.3885977268218994
6.659827947616577,-0.34381258487701416,0.1381097435951233,0.24056664109230042,-0.4287546658084529,-1.4272467628707215,-0.523873687238819,-0.9001296162605286,0.4157385230064392,-0.13010813295841217,0.8321607112884521,0.711798369884491,2.4013922214508057
6.679431915283203,-0.3585290312767029,0.10993564128875732,0.2661275863647461,-0.47294425438471915,-1.4022490074331018,-0.49531466020478493,-0.8776160478591919,0.45550933480262756,-0.14933665096759796,1.0458770990371704,0.5605641007423401,2.3668620586395264
6.698716163635254,-0.3572273850440979,0.011158525943756104,0.3059959411621094,-0.5144207197136464,-1.3735349630501512,-0.4594534768384513,-0.8536949753761292,0.49203062057495117,-0.17061984539031982,1.2975653409957886,0.6411672234535217,2.2978551387786865
6.7191548347473145,-0.2670454978942871,-0.140159010887146,0.3618764877319336,-0.5526445663465823,-1.338802104059947,-0.4173043493470099,-0.8283373117446899,0.5249399542808533,-0.19569294154644012,1.3844095468521118,0.6740707159042358,2.2328572273254395
6.739281177520752,-0.13785183429718018,-0.28496694564819336,0.3980151414871216,-0.5891907350497761,-1.3026396859394345,-0.3744341388916145,-0.8016776442527771,0.5556883811950684,-0.22028064727783203,1.202957272529602,0.5837171077728271,2.2092502117156982
6.758080005645752,-0.07608872652053833,-0.3738276958465576,0.4040030241012573,-0.6244212795589535,-1.2698889685407129,-0.3335051860831077,-0.7748481631278992,0.5846278667449951,-0.24045918881893158,1.061825156211853,0.41145631670951843,2.1204147338867188
6.7790961265563965,-0.06777083873748779,-0.4119218587875366,0.362947553396225,-0.6569034115507554,-1.2373475674032064,-0.292504239678798,-0.748269259929657,0.6106676459312439,-0.25918760895729065,1.0824470520019531,0.3632105588912964,1.9960423707962036
6.799810886383057,-0.04374927282333374,-0.43407535552978516,0.34320685267448425,-0.6847579278824859,-1.2052731674634747,-0.2483392205168002,-0.7234017848968506,0.6324855089187622,-0.2768615782260895,1.2454053163528442,0.0716179609298706,1.8098315000534058
6.820742130279541,-0.07492941617965698,-0.42348939180374146,0.3273601531982422,-0.7054661122538054,-1.1743504850387014,-0.19800203572321143,-0.7022618055343628,0.6483887434005737,-0.293973833322525,1.582098126411438,-0.16145354509353638,1.5488077402114868
6.840397834777832,-0.17140167951583862,-0.39858949184417725,0.3439541161060333,-0.7178208474064833,-1.1421822069953393,-0.14383714485545174,-0.6851047277450562,0.657744824886322,-0.31305497884750366,1.617475986480713,-0.12411240488290787,1.2278631925582886
6.856909990310669,-0.22060805559158325,-0.48303914070129395,0.45034104585647583,-0.7255141238290703,-1.1121118982593203,-0.0980669515354523,-0.670825719833374,0.6635201573371887,-0.3312613368034363,1.0556933879852295,0.12532158195972443,0.953680157661438
6.875071048736572,-0.19611531496047974,-0.6152705550193787,0.5476162433624268,-0.7352010525120088,-1.0905526111763788,-0.0744679584351948,-0.65779709815979,0.6707363128662109,-0.3426600992679596,0.06648876518011093,0.4564521014690399,0.7153860330581665
6.898600101470947,-0.15494072437286377,-0.6641839742660522,0.5057026147842407,-0.7482514911722025,-1.0785164741408038,-0.07388882124300299,-0.6458559036254883,0.680358350276947,-0.34638553857803345,-0.5022290349006653,0.6640884876251221,0.43688711524009705
6.918524980545044,-0.08050119876861572,-0.5379577279090881,0.37564826011657715,-0.7572133105302866,-1.0726097692082872,-0.08155305522171843,-0.6384167075157166,0.6868988871574402,-0.34726688265800476,-0.3320457935333252,0.38434115052223206,0.0847620815038681
6.938382148742676,-0.01601278781890869,-0.35931503772735596,0.27066200971603394,-0.7566564607008345,-1.0724033108843452,-0.08470698890576633,-0.6386808753013611,0.6864940524101257,-0.3475814759731293,0.1900448501110077,-0.1524900645017624,-0.22439125180244446
6.958510875701904,-0.00878840684890747,-0.328735888004303,0.2499389350414276,-0.7468797432585879,-1.0748937832844283,-0.0777863860273949,-0.6454169750213623,0.6793524026870728,-0.34916672110557556,0.6372835040092468,-0.544185221195221,-0.37261849641799927
6.978376865386963,-0.09919708967208862,-0.38337618112564087,0.3378421366214752,-0.7338557956076193,-1.0830556260458604,-0.07064681375099442,-0.6560061573982239,0.6697379350662231,-0.34800443053245544,0.3431476652622223,-0.696558952331543,-0.5581201910972595
6.998322010040283,-0.27862775325775146,-0.41087472438812256,0.4094058573246002,-0.7211912149127603,-1.0995819204812591,-0.07847012172493374,-0.6691720485687256,0.6602797508239746,-0.34093955159187317,-0.3018670976161957,-0.3644315302371979,-0.8313910961151123
7.01725697517395,-0.36584627628326416,-0.4125216603279114,0.4235803782939911,-0.7101296818439261,-1.118887474494208,-0.10399257794377967,-0.6821579337120056,0.6519321203231812,-0.3311273157596588,-0.8801652789115906,0.05113070085644722,-1.028597116470337
7.0384039878845215,-0.27567315101623535,-0.3818168044090271,0.3287757635116577,-0.697395361801473,-1.1414675722723384,-0.13930045236745556,-0.6969526410102844,0.6422233581542969,-0.31907108426094055,-0.9135625958442688,-0.18744121491909027,-1.2952739000320435
7.059573173522949,-0.18311893939971924,-0.21691447496414185,0.21347081661224365,-0.6769842574453593,-1.1734443821309006,-0.16960132254877705,-0.7187366485595703,0.6264452338218689,-0.3016360104084015,-0.3258305490016937,-1.120746374130249,-1.512467861175537
7.078554153442383,-0.3332744836807251,-0.08305156230926514,0.17574244737625122,-0.6467527512523256,-1.2104434604563228,-0.1844439688889909,-0.746788501739502,0.6025981307029724,-0.28139421343803406,0.26279953122138977,-1.552178978919983,-1.7575548887252808
7.098261833190918,-0.6052066087722778,-0.10549002885818481,0.26097652316093445,-0.6099433113634317,-1.247592475200508,-0.19549302914036248,-0.7772396802902222,0.5728210210800171,-0.2603355646133423,-0.004210397135466337,-1.3972891569137573,-1.9950166940689087
7.11983585357666,-0.6989031434059143,-0.18294620513916016,0.33566856384277344,-0.5738696372040537,-1.2787240989275255,-0.21870885510605298,-0.8042402267456055,0.5428858399391174,-0.24181166291236877,-0.7547168135643005,-0.3711705505847931,-1.9912328720092773
7.140640020370483,-0.3085041046142578,-0.26006340980529785,0.24599668383598328,-0.5439559956352499,-1.3000909944806172,-0.2558087718433806,-0.8245069980621338,0.5175250768661499,-0.2288152426481247,-1.3838143348693848,-0.040711335837841034,-1.7503656148910522
7.155874013900757,0.07107019424438477,-0.20751836895942688,0.06864757835865021,-0.520305779811686,-1.331243697966959,-0.29759781823491344,-0.8428903222084045,0.49714547395706177,-0.20586971938610077,-1.3976140022277832,-1.1133683919906616,-1.443488597869873
7.1764750480651855,0.054724931716918945,-0.10929092764854431,-0.05063915252685547,-0.5003279851260336,-1.3808253522379816,-0.33158768636356767,-0.8616403341293335,0.4797133505344391,-0.16568459570407867,-1.1026161909103394,-1.9638705253601074,-1.2267553806304932
7.194619178771973,-0.38163095712661743,-0.12818288803100586,0.042625606060028076,-0.47699935888762596,-1.427201168113941,-0.36332039813439443,-0.8792334198951721,0.45911553502082825,-0.12712864577770233,-1.4158042669296265,-0.9375870227813721,-1.5838228464126587
7.213245868682861,-0.5992863774299622,-0.1636984944343567,0.16814416646957397,-0.4475654096182635,-1.4518059048707281,-0.40825905274517094,-0.8951290249824524,0.43277204036712646,-0.10701733827590942,-2.1828479766845703,0.2850639224052429,-1.8133522272109985
7.233088970184326,-0.3400244116783142,-0.0496879518032074,0.08189737796783447,-0.4149982787340477,-1.4689210046932921,-0.46293059716875895,-0.9103724360466003,0.4031883478164673,-0.09306667745113373,-2.2859623432159424,0.1478491574525833,-1.9698762893676758
7.253069877624512,-0.1281687617301941,0.1453113555908203,-0.06051832437515259,-0.37936312712251125,-1.4903029063206896,-0.5117049361604358,-0.925893247127533,0.37032896280288696,-0.07468969374895096,-1.8033437728881836,-0.4022926986217499,-1.9987677335739136
7.2759881019592285,-0.10275429487228394,0.27846240997314453,-0.1679278016090393,-0.34065200355483366,-1.513541994585762,-0.5450782580338851,-0.9409927129745483,0.33410170674324036,-0.05393485352396965,-1.050624966621399,-0.6541997790336609,-2.0823326110839844
7.296393871307373,-0.0804210901260376,0.3509710729122162,-0.17513012886047363,-0.30083946189194555,-1.5319854913761681,-0.5626621598040307,-0.954369068145752,0.2963220775127411,-0.03705846890807152,-0.48711031675338745,-0.6366846561431885,-1.9478869438171387
7.313081979751587,0.01372140645980835,0.3189694285392761,-0.1348193883895874,-0.2647238744541026,-1.5477524335177961,-0.5732641041846335,-0.9649086594581604,0.26164278388023376,-0.022239187732338905,-0.5160125494003296,-0.6381407976150513,-1.6939048767089844
7.33607292175293,0.06066161394119263,0.29058659076690674,-0.11001521348953247,-0.2333924354640227,-1.563643851792459,-0.5876401362509116,-0.9728626608848572,0.23127929866313934,-0.006958494428545237,-0.8340848684310913,-0.5648869872093201,-1.4803546667099
7.356374025344849,0.031073689460754395,0.34886467456817627,-0.175889253616333,-0.2048882039624535,-1.5782628919547295,-0.6068872208523125,-0.9790565371513367,0.20345769822597504,0.007310325279831886,-0.9971608519554138,-0.48409444093704224,-1.3854926824569702
7.3735270500183105,0.029534637928009033,0.479492723941803,-0.26665031909942627,-0.17792342444638,-1.5907383475101662,-0.624940325880213,-0.9840177893638611,0.17698615789413452,0.01962590403854847,-0.766407310962677,-0.41441237926483154,-1.280155897140503
7.3962180614471436,0.09363436698913574,0.5509121417999268,-0.33565807342529297,-0.15390307884171306,-1.6007058897591249,-0.6366395131772103,-0.9877383708953857,0.15329623222351074,0.029551636427640915,-0.48443830013275146,-0.4044743478298187,-1.0916385650634766
7.414791107177734,0.17235088348388672,0.5350342392921448,-0.3237156867980957,-0.1341452150938539,-1.6100542113350709,-0.6458031503020147,-0.9902524948120117,0.1337432563304901,0.038895200937986374,-0.5436347723007202,-0.3609280586242676,-0.8410748839378357
7.436883926391602,0.19455653429031372,0.48986345529556274,-0.3105800151824951,-0.11982864802286682,-1.6173839293351995,-0.6587290949325707,-0.991752028465271,0.11954208463430405,0.046236805617809296,-0.8102344870567322,-0.22581958770751953,-0.5541090965270996
7.456763029098511,0.13831228017807007,0.5295640826225281,-0.3326406478881836,-0.10977061205811121,-1.6225213950044328,-0.676162671890657,-0.9926519393920898,0.10955029726028442,0.05139083042740822,-0.9165716767311096,-0.04704930633306503,-0.3860590159893036
7.476870059967041,0.08950585126876831,0.6066769361495972,-0.38084733486175537,-0.10230269493060987,-1.6223155190345158,-0.6924092352822718,-0.9934518933296204,0.10212434083223343,0.05122716724872589,-0.7219954133033752,0.2177247405052185,-0.2799263894557953
7.496780872344971,0.17575907707214355,0.6208838224411011,-0.38919389247894287,-0.0979617489018981,-1.6185165405687336,-0.704652520032579,-0.9940727949142456,0.09780514240264893,0.04747340828180313,-0.5255939364433289,0.2338506281375885,-0.07884562015533447
7.515685081481934,0.28216105699539185,0.5956019163131714,-0.38554513454437256,-0.09872646943421948,-1.616522662991626,-0.7130884148371709,-0.9940904974937439,0.09856616705656052,0.04548782482743263,-0.29208868741989136,0.0400727242231369,0.1988534927368164
7.534824848175049,0.2688164710998535,0.6028966903686523,-0.38795387744903564,-0.10519826049439113,-1.617656783577602,-0.7159107196749287,-0.9933803081512451,0.10500433295965195,0.0465843565762043,0.05623332038521767,-0.08329590409994125,0.4530642628669739
7.5565760135650635,0.15193873643875122,0.6130281090736389,-0.37005293369293213,-0.11642172400782053,-1.6178053446658,-0.7115012952508786,-0.9921334385871887,0.11615890264511108,0.04667360335588455,0.42540106177330017,0.053897105157375336,0.6505153179168701
7.576460838317871,0.04102599620819092,0.5888592600822449,-0.32890963554382324,-0.13192101479305868,-1.6133761704921987,-0.7020944406759746,-0.990412712097168,0.13153870403766632,0.04219712316989899,0.5301231741905212,0.2579055428504944,0.8621976375579834
7.596551895141602,-0.007129013538360596,0.5210081934928894,-0.26805198192596436,-0.1520316719818611,-1.606062338739393,-0.693699370099363,-0.9878510236740112,0.15144668519496918,0.03485201671719551,0.3336395025253296,0.34018778800964355,1.126662015914917
7.6178929805755615,-0.04772251844406128,0.43718165159225464,-0.17897629737854004,-0.1771157355733149,-1.598243294443371,-0.6915406362201574,-0.9839852452278137,0.17619116604328156,0.027014194056391716,-0.021748684346675873,0.4351755678653717,1.359263300895691
7.635591983795166,-0.10207557678222656,0.3945988416671753,-0.14210402965545654,-0.2054768671476518,-1.5884559927052189,-0.6930795622485253,-0.9788113832473755,0.2040340155363083,0.017287278547883034,0.01593238115310669,0.5434437394142151,1.4691476821899414
7.655372142791748,-0.10353106260299683,0.4284958839416504,-0.1706252098083496,-0.23491366944319036,-1.5787841032802046,-0.6884056414853726,-0.9725036025047302,0.232759028673172,0.007768306415528059,0.5588201284408569,0.237188458442688,1.4643592834472656
7.676025867462158,-0.1747223138809204,0.48813989758491516,-0.213373064994812,-0.26309973918133256,-1.5743933773789145,-0.668022131742816,-0.9655823707580566,0.2600748836994171,0.003473263466730714,1.4754126071929932,-0.2834153473377228,1.3124792575836182
7.695156097412109,-0.4835849404335022,0.5702129602432251,-0.27352428436279297,-0.28551820756439705,-1.569487449568188,-0.6264831507070621,-0.9595150947570801,0.2816547155380249,-0.0012558881426230073,2.5553948879241943,-0.1847156435251236,0.8831537961959839
7.713165044784546,-0.6213797330856323,0.549350917339325,-0.1376361846923828,-0.29994452575002334,-1.546982116875397,-0.5654151702494417,-0.9550821781158447,0.29546719789505005,-0.022748827934265137,3.098182201385498,0.667081356048584,0.7347556948661804
7.733082056045532,-0.28088903427124023,0.31225913763046265,0.06295913457870483,-0.315668541722045,-1.5115930370437303,-0.5050674828824036,-0.9489237070083618,0.31045204401016235,-0.05624513328075409,2.457632541656494,0.930594265460968,1.115950107574463
7.753098011016846,-0.09128546714782715,0.12032926082611084,0.12441981583833694,-0.3397846170846025,-1.4799926180903673,-0.46193087264460364,-0.9389422535896301,0.33328402042388916,-0.08549454063177109,1.457045316696167,0.8589829802513123,1.6124504804611206
7.775938034057617,-0.14244377613067627,0.05305361747741699,0.1065790057182312,-0.37323033649885434,-1.4525223118294375,-0.43441140722206234,-0.924649178981781,0.3646252751350403,-0.10987478494644165,0.883856475353241,0.9565213322639465,1.9333133697509766
7.796135902404785,-0.22764790058135986,0.11183241009712219,0.07816900312900543,-0.4099948521017923,-1.4229504348654778,-0.4086532697006605,-0.9071177840232849,0.3986046016216278,-0.13509942591190338,1.0963406562805176,0.9903058409690857,2.0272042751312256
7.815063953399658,-0.1917639970779419,0.1744629144668579,0.07762084901332855,-0.44552275079202286,-1.3890366958410683,-0.3711091579219035,-0.8875209093093872,0.43092966079711914,-0.1631157100200653,1.7053074836730957,0.8127755522727966,2.054901123046875
7.837210178375244,-0.14050400257110596,0.11078241467475891,0.1403292417526245,-0.47872065750363463,-1.352232512474052,-0.31998531620342113,-0.8664693832397461,0.46064403653144836,-0.19245316088199615,2.061978340148926,0.6215339303016663,2.107882022857666
7.855997085571289,-0.17933320999145508,-0.021725594997406006,0.23108913004398346,-0.5096962602939387,-1.3120238634723889,-0.2627925530094285,-0.8438296318054199,0.4879121482372284,-0.2233680933713913,2.069655418395996,0.7319537401199341,2.1006319522857666
7.8761491775512695,-0.22846311330795288,-0.10801202058792114,0.2934904992580414,-0.538848648070858,-1.2662095511289833,-0.205479445188945,-0.8187934160232544,0.5131481289863586,-0.25740334391593933,1.8776301145553589,0.9839553236961365,2.0869786739349365
7.895843982696533,-0.19286280870437622,-0.17444556951522827,0.33730119466781616,-0.5670330196655061,-1.2165729746367202,-0.1512600958977906,-0.7911308407783508,0.5371317863464355,-0.2925775945186615,1.5624146461486816,1.1040147542953491,2.0888452529907227
7.91452693939209,-0.1351163387298584,-0.2509339451789856,0.37610748410224915,-0.5957870929577944,-1.1679379387642934,-0.10263042763378322,-0.7614442706108093,0.5611603856086731,-0.3245021402835846,1.1673364639282227,1.0844258069992065,2.092965841293335
7.935642957687378,-0.11888664960861206,-0.30982887744903564,0.41425517201423645,-0.6253014163736721,-1.1220413764552353,-0.059639313456291865,-0.7305092811584473,0.5853416919708252,-0.3517551124095917,0.8405986428260803,1.048276424407959,2.0558197498321533
7.955548048019409,-0.14039230346679688,-0.3514917492866516,0.44774535298347473,-0.6543558582298037,-1.0786721744085321,-0.021209953730009896,-0.69928377866745,0.6086483001708984,-0.37489983439445496,0.6285858750343323,1.0207239389419556,1.9316695928573608
7.975281000137329,-0.1576891541481018,-0.4055229425430298,0.47353395819664,-0.6808592794902225,-1.0361710610928392,0.01446889685640143,-0.668604850769043,0.6294609308242798,-0.39591237902641296,0.4835599362850189,0.9975526332855225,1.7495787143707275
7.995335102081299,-0.1647544503211975,-0.4478129744529724,0.513454794883728,-0.7044857613402744,-0.9980741281695917,0.0444545552650865,-0.6403603553771973,0.6476420760154724,-0.412914514541626,0.2537873387336731,0.9146478772163391,1.480063557624817
8.015265941619873,-0.1699867844581604,-0.5162084698677063,0.5199506282806396,-0.7251426159338528,-0.9663380700164832,0.06672910266726167,-0.6157951354980469,0.6632421612739563,-0.42533078789711,-0.008965723216533661,0.810263454914093,1.1672621965408325
8.033146858215332,-0.16820043325424194,-0.5678262114524841,0.5239493250846863,-0.7423152809146095,-0.9417833421057378,0.07963017399582475,-0.5958682298660278,0.6759958863258362,-0.4335561692714691,-0.19938528537750244,0.7849167585372925,0.7923216223716736
8.053998947143555,-0.13411587476730347,-0.566731870174408,0.5039851069450378,-0.755194196928379,-0.9249988605767756,0.083413026390571,-0.5815061330795288,0.685430109500885,-0.43821969628334045,-0.30735278129577637,0.6115139722824097,0.40541523694992065
8.075550079345703,-0.10035842657089233,-0.5310059785842896,0.44925063848495483,-0.761830046154623,-0.9177185769105525,0.0815453752515471,-0.5746752023696899,0.6902467608451843,-0.43966802954673767,-0.19052323698997498,0.20249269902706146,0.051515333354473114
8.095118999481201,-0.1234942078590393,-0.48720526695251465,0.42954468727111816,-0.7613130089729426,-0.9207843631545101,0.07796815899981042,-0.5763044357299805,0.6898725628852844,-0.4381200671195984,0.01715567708015442,-0.21842193603515625,-0.24845626950263977
8.11502194404602,-0.24377161264419556,-0.4675899147987366,0.4579957127571106,-0.7548722931410589,-0.9306963473369737,0.07150150915677986,-0.584170401096344,0.6851956844329834,-0.4350312352180481,-0.09740043431520462,-0.27027013897895813,-0.5556937456130981
8.134721040725708,-0.3513908386230469,-0.4791533350944519,0.5405764579772949,-0.7476652312380315,-0.9477015767031705,0.051833197899412244,-0.5954781174659729,0.6799286007881165,-0.42790547013282776,-0.6892454028129578,-0.07280340045690536,-0.8674710988998413
8.153774976730347,-0.3729296326637268,-0.5072898864746094,0.5369575619697571,-0.7429925186890162,-0.9734741211331784,0.013910464522688529,-0.6089277863502502,0.6764947772026062,-0.4142005443572998,-1.2816921472549438,0.019353331997990608,-1.12263822555542
8.174833059310913,-0.3560124635696411,-0.40161168575286865,0.40881603956222534,-0.7366144712230328,-1.0088159702189308,-0.035627586523832994,-0.6268215179443359,0.6717839241027832,-0.39471688866615295,-1.3261747360229492,-0.25110408663749695,-1.4289535284042358
8.193726062774658,-0.36385154724121094,-0.23405802249908447,0.24313560128211975,-0.7199960120196002,-1.0496831524176347,-0.08171007116986678,-0.6520177125930786,0.6593816876411438,-0.3742848038673401,-0.7042604684829712,-0.7997602820396423,-1.7804255485534668
8.214555978775024,-0.4607347249984741,-0.11031413078308105,0.21272012591362,-0.6901078023567269,-1.0930579794942552,-0.11560280934743057,-0.6848341226577759,0.6366203427314758,-0.35456573963165283,-0.22432704269886017,-1.2579822540283203,-2.0889718532562256
8.233566045761108,-0.6470626592636108,-0.1132860779762268,0.327312171459198,-0.6534512687509352,-1.1358037025132677,-0.14791514402831837,-0.7200486063957214,0.6079303026199341,-0.33459052443504333,-0.60033118724823,-0.8625994324684143,-2.306044578552246
8.254839897155762,-0.6225464940071106,-0.21410316228866577,0.3974899649620056,-0.6202578219982624,-1.1744217495119804,-0.196989908497705,-0.7506378293037415,0.5812450051307678,-0.31416162848472595,-1.7376465797424316,-0.17831189930438995,-2.284893274307251
8.276348114013672,-0.295016348361969,-0.22963964939117432,0.3037164509296417,-0.5953899514143594,-1.218716133359894,-0.267546932827068,-0.7771425247192383,0.5608316659927368,-0.2855125665664673,-2.6033527851104736,-0.3593144416809082,-2.1711974143981934
8.296649932861328,-0.09738999605178833,-0.08204948902130127,0.11044609546661377,-0.5715390180493923,-1.272333907462418,-0.3419880709178428,-0.8038857579231262,0.5409271121025085,-0.2473173290491104,-2.364328384399414,-0.8821856379508972,-2.097494125366211
8.31610107421875,-0.07409727573394775,0.08570903539657593,-0.03168788552284241,-0.5418076977367832,-1.3239637044830614,-0.399344242132381,-0.8308099508285522,0.5156856179237366,-0.20933981239795685,-1.4937021732330322,-1.2141313552856445,-2.121377468109131
8.33574104309082,-0.14989614486694336,0.15861603617668152,-0.08314745128154755,-0.5043399736130162,-1.3663499189260766,-0.43354731870732993,-0.8572602868080139,0.48322969675064087,-0.1777472198009491,-0.5851110219955444,-1.2942907810211182,-2.2065539360046387
8.353909969329834,-0.2161540389060974,0.19155684113502502,-0.08258037269115448,-0.46173001901999844,-1.3994556782665772,-0.4491041486321039,-0.8821737170219421,0.44549763202667236,-0.1526489555835724,-0.060329847037792206,-1.2876876592636108,-2.241135358810425
