timestamp,acceleration_x,acceleration_y,acceleration_z,attitude_pitch,attitude_roll,attitude_yaw,gravity_x,gravity_y,gravity_z,rotation_x,rotation_y,rotation_z
0.0,0.3877642750740051,0.17418551445007324,-0.30314046144485474,-0.5710017068250728,-0.7114793006133397,2.3083119048915233,-0.5493701100349426,0.5404751300811768,-0.6372433304786682,-1.5872067213058472,0.40597838163375854,-1.421681523323059
0.020032167434692383,0.40343791246414185,0.210554838180542,-0.36827993392944336,-0.5764430060250997,-0.7268783052157504,2.263509050515148,-0.5571549534797668,0.5450451970100403,-0.6265015602111816,-1.3489739894866943,0.49446770548820496,-1.0668100118637085
0.03989815711975098,0.42151182889938354,0.1590682864189148,-0.36024928092956543,-0.5841283569072975,-0.7366881983496798,2.2259472438841064,-0.560443103313446,0.5514724850654602,-0.6178848743438721,-1.35993492603302,0.569383978843689,-0.7689435482025146
0.05996298789978027,0.46844011545181274,0.07670950889587402,-0.31972455978393555,-0.5966640811999132,-0.743401571794487,2.19219332651958,-0.5598555207252502,0.5618860721588135,-0.608971118927002,-1.4626644849777222,0.6423764228820801,-0.4617868959903717
0.08013415336608887,0.4969000816345215,-0.011115312576293945,-0.2837289571762085,-0.6142324092649303,-0.7470253270007372,2.161601709318251,-0.5552650094032288,0.576331377029419,-0.5996022820472717,-1.5133103132247925,0.7391999363899231,-0.21455463767051697
0.1000058650970459,0.5510873198509216,-0.09911978244781494,-0.23210746049880981,-0.6337010239495087,-0.7465791527709643,2.1357735730969996,-0.5472726225852966,0.5921312570571899,-0.5915008783340454,-1.3320636749267578,0.8183279633522034,0.0019195805070921779
0.12010693550109863,0.5934048295021057,-0.17136406898498535,-0.13222551345825195,-0.6537625768120002,-0.7417244936763551,2.1164711215104606,-0.5362606644630432,0.6081774234771729,-0.5852733254432678,-1.2032700777053833,0.7975497245788574,0.2133876234292984
0.14001917839050293,0.6401179432868958,-0.2405412793159485,-0.05594247579574585,-0.6746451872611647,-0.7343109309901066,2.1040278743138643,-0.5232813954353333,0.624620258808136,-0.5796776413917542,-1.0007445812225342,0.7215472459793091,0.5043007135391235
0.1719369888305664,0.603899359703064,-0.1772383451461792,-0.06733769178390503,-0.7151202449464762,-0.7010006802698302,2.124178885330077,-0.48697128891944885,0.6557081937789917,-0.5769798755645752,0.14661622047424316,0.3300827443599701,1.4929596185684204
0.1800248622894287,0.603899359703064,-0.1772383451461792,-0.06733769178390503,-0.7151202449464762,-0.7010006802698302,2.124178885330077,-0.48697128891944885,0.6557081937789917,-0.5769798755645752,0.14661622047424316,0.3300827443599701,1.4929596185684204
0.2087109088897705,0.2543923854827881,0.34455281496047974,-0.3484230637550354,-0.7284534170004425,-0.6074515565199285,2.2379392916877263,-0.4259164035320282,0.6657163500785828,-0.6127127408981323,2.03737211227417,0.3358066976070404,1.856713891029358
0.2300100326538086,0.01978754997253418,0.9284775853157043,-0.6598451137542725,-0.7090289112000718,-0.5540036288231411,2.3113251055634314,-0.3993041515350342,0.6510969996452332,-0.6454679369926453,2.4782655239105225,0.1993817239999771,1.8197593688964844
0.2513911724090576,-0.12062898278236389,0.7597095966339111,-0.6942264437675476,-0.6899914695684725,-0.5066858302562706,2.380297996992709,-0.3742745518684387,0.6365305781364441,-0.6743495464324951,1.749659538269043,0.14653846621513367,1.806585669517517
0.2595679759979248,-0.12062898278236389,0.7597095966339111,-0.6942264437675476,-0.6899914695684725,-0.5066858302562706,2.380297996992709,-0.3742745518684387,0.6365305781364441,-0.6743495464324951,1.749659538269043,0.14653846621513367,1.806585669517517
0.27979588508605957,-0.05631834268569946,0.6614224910736084,-0.49588900804519653,-0.6828573180158498,-0.46237944726318664,2.4413524541737806,-0.3460559546947479,0.6310122013092041,-0.694311797618866,1.1651320457458496,0.4363122582435608,2.000357151031494
0.3093760013580322,-0.06993719935417175,0.24561065435409546,-0.20740008354187012,-0.6881922780487231,-0.3794620855899659,2.542614566263197,-0.28611141443252563,0.6351419687271118,-0.7174503803253174,0.23071886599063873,0.25554609298706055,1.6599608659744263
0.33223986625671387,-0.03293922543525696,0.12564092874526978,-0.1567053198814392,-0.6956696168946818,-0.35247942672896937,2.583031462420417,-0.26500391960144043,0.6408995985984802,-0.7204309105873108,0.24169130623340607,-0.1407996416091919,1.529942512512207
0.34502100944519043,-0.0865432620048523,0.1384689211845398,-0.11850923299789429,-0.6968291318645023,-0.3347032764931578,2.621670851540126,-0.2519119381904602,0.6417892575263977,-0.7243251800537109,0.6621751189231873,-0.5694345831871033,1.2756364345550537
0.36290717124938965,-0.12282562255859375,0.11776190996170044,-0.08445769548416138,-0.6882849104818444,-0.3287636996681425,2.655802391955745,-0.24936677515506744,0.6352134943008423,-0.7309719920158386,0.9385018944740295,-1.0156610012054443,0.9253960251808167
0.38207197189331055,-0.1672629415988922,0.07711195945739746,-0.012063860893249512,-0.6764104256270586,-0.3366161618325319,2.6801272482550784,-0.2575722634792328,0.6259978413581848,-0.7360592484474182,0.7496289610862732,-1.267632007598877,0.4650304317474365
0.4055330753326416,-0.18860381841659546,0.06175041198730469,0.048069119453430176,-0.6685639254958436,-0.3551691145578824,2.6908183092612044,-0.27288299798965454,0.6198596954345703,-0.7357369661331177,0.2577078938484192,-1.221662998199463,0.08049224317073822
0.4190959930419922,-0.18860381841659546,0.06175041198730469,0.048069119453430176,-0.6685639254958436,-0.3551691145578824,2.6908183092612044,-0.27288299798965454,0.6198596954345703,-0.7357369661331177,0.2577078938484192,-1.221662998199463,0.08049224317073822
0.44843196868896484,-0.11967799067497253,0.027186095714569092,0.052123427391052246,-0.668237427646653,-0.3978276845745528,2.6829231861187695,-0.30408909916877747,0.6196034550666809,-0.723616898059845,-0.25217610597610474,-0.6231344938278198,-0.3471694886684418
0.46752095222473145,-0.09207546710968018,-0.07759732007980347,0.17366623878479004,-0.6709636297618079,-0.4158152431092921,2.668894963486593,-0.3163717985153198,0.621740996837616,-0.716482400894165,-0.44330233335494995,-0.3065798878669739,-0.5491259098052979
0.4873831272125244,-0.03883001208305359,-0.1993924379348755,0.29254698753356934,-0.6765667854845313,-0.4316382298565077,2.6482996070570706,-0.3262060582637787,0.6261197328567505,-0.7082116603851318,-0.7537569403648376,0.005724634975194931,-0.6769132018089294
0.5075759887695312,0.046604812145233154,-0.3671799302101135,0.3634289503097534,-0.6870834012425759,-0.44457990472106346,2.6232801295276693,-0.33249348402023315,0.6342850923538208,-0.6979473829269409,-0.9698740839958191,0.2528766989707947,-0.6135342121124268
0.5276470184326172,0.07972171902656555,-0.5262352824211121,0.4199826717376709,-0.6985625560916682,-0.45083556171168276,2.601978366469592,-0.33365848660469055,0.6431176066398621,-0.6892545223236084,-0.7348068952560425,0.4522010385990143,-0.3805706799030304
0.5477478504180908,0.03824847936630249,-0.5617741942405701,0.4667232036590576,-0.7034160404414082,-0.4495555760541428,2.58821367063263,-0.3314156234264374,0.6468266844749451,-0.6868616938591003,-0.123819999396801,0.5688974857330322,-0.3985794186592102
0.567155122756958,-0.040884584188461304,-0.5440850853919983,0.43715131282806396,-0.6968462639003169,-0.44151570485281577,2.5799453402689436,-0.3276914954185486,0.6418023705482483,-0.6933311223983765,0.3955399990081787,0.7595224976539612,-0.4900225102901459
0.5870020389556885,-0.2098815143108368,-0.5978788137435913,0.3786150813102722,-0.6816298908076124,-0.43417424988758835,2.5692698556061213,-0.3266632854938507,0.630059540271759,-0.7044970393180847,0.5371500849723816,0.6004625558853149,-0.9318878054618835
0.6071579456329346,-0.517625093460083,-0.4289531111717224,0.4577362537384033,-0.6684034061960437,-0.4399223107382722,2.5413964988645397,-0.3342272937297821,0.6197337508201599,-0.7100860476493835,-0.430631548166275,0.6255440711975098,-1.6941959857940674
0.6273059844970703,-0.5197808742523193,-0.06719970703125,0.3347706198692322,-0.6702153669189085,-0.4657353214763383,2.4800429050364428,-0.35193854570388794,0.62115478515625,-0.7002186179161072,-1.7608143091201782,0.5280516147613525,-2.407458782196045
0.6473450660705566,-0.27631136775016785,0.26322513818740845,-0.14221566915512085,-0.6850673360337263,-0.5058930817424052,2.406903745413902,-0.37525418400764465,0.632725179195404,-0.6773796081542969,-1.9418303966522217,0.061842143535614014,-1.8899073600769043
0.6667740345001221,-0.3204689621925354,0.6626213788986206,-0.5348304510116577,-0.6897299091670837,-0.5384847914974675,2.354934160466401,-0.3956107497215271,0.6363288760185242,-0.6622521281242371,-0.2934793531894684,0.032267652451992035,-1.3489998579025269
0.6867799758911133,-0.25440335273742676,0.6672244668006897,-0.4576786160469055,-0.6716136708843511,-0.5497509171211827,2.3361406836362892,-0.40900301933288574,0.6222500205039978,-0.6674739122390747,0.7897969484329224,0.005401859991252422,-0.9252381324768066
0.706679105758667,-0.07832697033882141,0.362807035446167,-0.1923978328704834,-0.6505096269403149,-0.5562336099642122,2.3261094961372963,-0.42016246914863586,0.6055920124053955,-0.6758119463920593,0.4270879030227661,-0.047743115574121475,-0.8901339769363403
0.7268290519714355,0.11337459087371826,0.14902126789093018,-0.06370973587036133,-0.6407600434894367,-0.5701311509137864,2.3065342689100965,-0.43268007040023804,0.5978049039840698,-0.6748461723327637,-0.39379632472991943,-0.19853414595127106,-0.9984719753265381
0.7470109462738037,0.2617846727371216,0.09585481882095337,-0.10318589210510254,-0.6383698768404823,-0.5928863763797432,2.2772714919543686,-0.4487200975418091,0.5958871245384216,-0.6660096645355225,-0.5975996255874634,-0.33553895354270935,-1.072981357574463
0.7672441005706787,0.3161674737930298,0.19405794143676758,-0.1590336561203003,-0.6342370897551975,-0.6165602026102035,2.249199994436918,-0.4657799005508423,0.5925631523132324,-0.6572047472000122,-0.3190203309059143,-0.3479613661766052,-1.0165748596191406
0.7863490581512451,0.3682384788990021,0.20198440551757812,-0.142025887966156,-0.6252599027677315,-0.6339255480971754,2.2292631957568068,-0.4802532494068146,0.5853080153465271,-0.6532773971557617,0.07128618657588959,-0.19806239008903503,-0.7955738306045532
0.8062620162963867,0.40339791774749756,0.13473737239837646,-0.03848773241043091,-0.6161642600645185,-0.64258249981001,2.2173019653197095,-0.48906075954437256,0.5779090523719788,-0.6533305048942566,-0.00899568758904934,0.011730152182281017,-0.5715815424919128
0.826416015625,0.45414528250694275,0.04676175117492676,0.02439272403717041,-0.6126642691520405,-0.6475433787341935,2.2052574829902736,-0.49351295828819275,0.5750491619110107,-0.6525055170059204,-0.29399389028549194,0.1649041771888733,-0.43847399950027466
0.8465659618377686,0.5069143772125244,-0.02244669198989868,0.036747515201568604,-0.6143185300883031,-0.650494930605318,2.192491284708628,-0.4948599636554718,0.5764017701148987,-0.6502881646156311,-0.46686482429504395,0.26335465908050537,-0.29711294174194336
0.8652551174163818,0.5370931625366211,-0.0755200982093811,0.05081146955490112,-0.6198606077516523,-0.6523826021858196,2.1798986603150423,-0.4941396713256836,0.5809217095375061,-0.6468044519424438,-0.5852912664413452,0.25667670369148254,-0.19813698530197144
0.8860509395599365,0.561386227607727,-0.1341768503189087,0.08614128828048706,-0.627758881395639,-0.6551526378845631,2.1673723464347607,-0.4931184947490692,0.5873323678970337,-0.6417748332023621,-0.6523162722587585,0.19646546244621277,-0.12844428420066833
0.9059741497039795,0.6166473031044006,-0.19788271188735962,0.13476502895355225,-0.6371806319883272,-0.6590362356267243,2.1558828456910275,-0.49219658970832825,0.5949316620826721,-0.6354516744613647,-0.6591506600379944,0.07883213460445404,-0.03190156817436218
0.9259209632873535,0.6734799146652222,-0.25874489545822144,0.1856461763381958,-0.647694464399584,-0.6637736788995722,2.1474786954655576,-0.49132055044174194,0.6033493876457214,-0.6281510591506958,-0.564527690410614,-0.045819517225027084,0.16943475604057312
0.9460430145263672,0.6767939329147339,-0.3062230348587036,0.229680597782135,-0.6585600600703067,-0.6654104443334466,2.1482490352594223,-0.4882715940475464,0.6119786500930786,-0.6221519112586975,-0.2372918576002121,-0.13578961789608002,0.6089380979537964
0.9709808826446533,0.607850193977356,-0.23325055837631226,0.2001085877418518,-0.6710590091825522,-0.6581662776624517,2.163917023862747,-0.47903555631637573,0.6218157410621643,-0.6195726990699768,-0.05177076533436775,-0.07360809296369553,1.0707435607910156
0.9836180210113525,0.5361031293869019,-0.15263038873672485,0.2506977319717407,-0.6901718804865441,-0.6474825214674236,2.1831465074946013,-0.46513450145721436,0.6366697549819946,-0.6150623559951782,-0.6533430814743042,-0.17791816592216492,1.2476037740707397
1.0019700527191162,0.4627981185913086,-0.22688782215118408,0.19465720653533936,-0.7171800840150824,-0.6552384376693551,2.1955435601382005,-0.4592428207397461,0.6572620272636414,-0.5975807905197144,-0.6654003262519836,-1.6354480981826782,1.0929977893829346
1.0261991024017334,0.17461806535720825,0.3686530590057373,-0.39303404092788696,-0.7324390844429668,-0.6839468738983323,2.211339638256887,-0.46981459856033325,0.6686851978302002,-0.5763109922409058,0.44087421894073486,-1.9232436418533325,0.7935182452201843
1.0463039875030518,-0.49112388491630554,0.9561353921890259,-0.47420358657836914,-0.7132265637437395,-0.688789477444652,2.2552593977321056,-0.48067790269851685,0.6542772650718689,-0.5838407874107361,3.026444673538208,-1.5710179805755615,0.5008834004402161
1.0654261112213135,-0.3367301821708679,0.944288432598114,-0.22685503959655762,-0.6689138036598847,-0.6767548177268023,2.3194467673437713,-0.49130332469940186,0.6201342344284058,-0.6116001009941101,3.0935795307159424,-1.4113327264785767,0.6054545044898987
1.0857410430908203,-0.23838865756988525,0.48583948612213135,-0.07264196872711182,-0.6391865016693368,-0.6780144204230343,2.3679068528747647,-0.503417432308197,0.5965427160263062,-0.6250661611557007,1.6209734678268433,-1.7315223217010498,0.4287608861923218
1.107105016708374,-0.29505014419555664,0.3751864433288574,-0.17333656549453735,-0.6249030783398729,-0.7041344417624096,2.3881331444228104,-0.5250335335731506,0.5850186944007874,-0.6181368231773376,0.6949782371520996,-2.054988145828247,-0.04805436357855797
1.1259260177612305,-0.16276025772094727,0.4492496848106384,-0.10315901041030884,-0.6131409007528597,-0.741002960618989,2.3962537904388257,-0.5520682334899902,0.5754390358924866,-0.6033992171287537,0.7575241923332214,-2.0217061042785645,-0.15852150321006775
1.14577317237854,-0.07992905378341675,0.3072037696838379,0.08166760206222534,-0.5974819221578663,-0.7674997169700082,2.411343718706001,-0.574047327041626,0.5625624060630798,-0.5949732065200806,1.1211092472076416,-1.537333607673645,0.04982692003250122
1.1652920246124268,-0.0156632661819458,0.20647966861724854,0.19856619834899902,-0.585882618679956,-0.7800793832306693,2.4339082997981114,-0.5860365629196167,0.552935004234314,-0.592303991317749,1.017310380935669,-1.0811067819595337,0.34253862500190735
1.1842200756072998,0.019115805625915527,0.2082080841064453,0.1518426537513733,-0.5780598213137494,-0.7886783237188044,2.453415886402881,-0.5941585302352905,0.5464000105857849,-0.590273380279541,0.7110464572906494,-0.8611792325973511,0.2594403028488159
1.2052409648895264,0.11523938179016113,0.05727797746658325,0.12996411323547363,-0.5698170575790937,-0.7948296195797006,2.47047416722805,-0.6009724140167236,0.5394780039787292,-0.5897419452667236,0.9509506225585938,-0.6772650480270386,0.1192886009812355
1.2252519130706787,0.25444668531417847,-0.04156136512756348,0.25412875413894653,-0.5578033500710416,-0.7998179992626013,2.4866006735689865,-0.6085115671157837,0.5293238162994385,-0.5912106037139893,0.7635941505432129,-0.7130550742149353,-0.029635485261678696
1.2451961040496826,0.2908899188041687,-0.13545018434524536,0.2985811233520508,-0.5455678356032023,-0.8094698268296292,2.4971037115161616,-0.6188318729400635,0.5189035534858704,-0.5897340774536133,0.8168379664421082,-0.8087584376335144,-0.23402172327041626
1.2650768756866455,0.25698572397232056,-0.11386698484420776,0.3252902626991272,-0.5282456846417084,-0.8191664807015758,2.508816225388426,-0.6309939026832581,0.5040189027786255,-0.5897555351257324,1.1183953285217285,-0.7295553684234619,-0.29989853501319885
1.2854158878326416,0.21706581115722656,-0.05659952759742737,0.2962517738342285,-0.5076259507786561,-0.8242187390918486,2.5246758522268156,-0.6414585709571838,0.48610392212867737,-0.5934929251670837,1.2474292516708374,-0.5684564113616943,-0.31473568081855774
1.3048341274261475,0.15980088710784912,-0.028107136487960815,0.2914144992828369,-0.4855796217569594,-0.8268598691319228,2.538571839281183,-0.6507524251937866,0.4667210578918457,-0.5989096164703369,1.0861562490463257,-0.3436258137226105,-0.4799557626247406
1.3237240314483643,0.1580895185470581,-0.08592751622200012,0.397926926612854,-0.4663065609004735,-0.8287039189760288,2.5441281719696525,-0.6583642363548279,0.4495902359485626,-0.603676438331604,0.5054979920387268,-0.12837110459804535,-0.6313484907150269
1.3451268672943115,0.13903164863586426,-0.18175247311592102,0.44217371940612793,-0.45336530263850233,-0.8341853613749217,2.5344562484337896,-0.665917694568634,0.4379933476448059,-0.6039168238639832,-0.29529517889022827,-0.031689584255218506,-0.9197286367416382
1.3646519184112549,0.05453759431838989,-0.18833842873573303,0.42507755756378174,-0.4482391896424677,-0.8463185957006247,2.5063761860758897,-0.6748684048652649,0.4333793520927429,-0.5972729921340942,-1.2197177410125732,0.055580250918865204,-1.1530905961990356
1.3845040798187256,-0.028397560119628906,-0.09062308073043823,0.4533013701438904,-0.4501215357239073,-0.8629397318982795,2.4631755303932565,-0.6840810179710388,0.43507495522499084,-0.5854424238204956,-1.8466626405715942,0.16940544545650482,-1.2115517854690552
1.4046051502227783,-0.08930337429046631,0.002494603395462036,0.507966160774231,-0.4585689159417002,-0.8818377175567859,2.4114460777263074,-0.6921603083610535,0.44266533851623535,-0.5700541138648987,-2.2613728046417236,0.2358645349740982,-1.0967867374420166
1.424682855606079,-0.1524379849433899,-0.024459421634674072,0.5945450663566589,-0.47654215262904176,-0.8997583747271675,2.3528317569516313,-0.6959201693534851,0.45870932936668396,-0.5525223612785339,-2.9697067737579346,0.6300637722015381,-0.819833517074585
1.4444911479949951,-0.000998079776763916,-0.14822712540626526,0.5396814942359924,-0.5041704996463698,-0.9179489545070146,2.28582410775848,-0.6955199837684631,0.48308131098747253,-0.5318689942359924,-3.246854543685913,0.5442932844161987,-0.6697874665260315
1.4667770862579346,0.05571436882019043,-0.08909618854522705,0.3121352791786194,-0.5270733473918248,-0.9454649094123694,2.223041286039825,-0.7007339000701904,0.5030060410499573,-0.5059218406677246,-2.2897517681121826,-0.21179765462875366,-0.8152234554290771
1.4868419170379639,-0.29613322019577026,0.11326903104782104,-0.02024972438812256,-0.5283944108800511,-0.9754504668847365,2.1838700480252515,-0.7150362730026245,0.5041473507881165,-0.48431262373924255,-0.6593966484069824,-0.7238832116127014,-1.0109790563583374
1.5069868564605713,-0.47101473808288574,0.06450462341308594,0.16627949476242065,-0.5145418455232638,-1.003103004405626,2.1611309321527687,-0.7339719533920288,0.49213606119155884,-0.46806785464286804,-0.5051276087760925,-0.8947457075119019,-1.2573392391204834
1.52311110496521,-0.38523364067077637,-0.19535446166992188,0.34984448552131653,-0.5007846600660094,-1.0359910884167982,2.128787206398862,-0.7547199726104736,0.4801139831542969,-0.44708868861198425,-1.1738754510879517,-0.8692787289619446,-1.3267592191696167
1.5414259433746338,-0.29917651414871216,-0.1959521770477295,0.2574309706687927,-0.4926648827459217,-1.0725927361363496,2.0895801690423568,-0.7739741802215576,0.4729755222797394,-0.4210204482078552,-1.2195802927017212,-0.909907877445221,-1.127794623374939
1.5617480278015137,-0.2513861060142517,-0.06030961871147156,0.13239723443984985,-0.4797813839498241,-1.1042762961849963,2.06154757362298,-0.7922998666763306,0.46158525347709656,-0.39899879693984985,-0.35755789279937744,-0.9491531848907471,-1.1809766292572021
1.5799310207366943,-0.1406370997428894,-0.05568978190422058,0.09673702716827393,-0.4584867398823792,-1.127534626607565,2.0514723022300063,-0.8100618124008179,0.4425916373729706,-0.3845940828323364,0.3929131329059601,-0.9276219010353088,-1.125133752822876
1.5999200344085693,0.026527702808380127,-0.21428421139717102,0.16790488362312317,-0.43329760477095786,-1.1462179634428664,2.0502008628844157,-0.8270039558410645,0.4198659360408783,-0.37386801838874817,0.5209771990776062,-0.9158931374549866,-1.1517375707626343
1.6199219226837158,0.11180567741394043,-0.2524004280567169,0.11759468913078308,-0.40991769033966385,-1.163866608550198,2.0514756075674265,-0.8422591686248779,0.3985338509082794,-0.3630017340183258,0.49581485986709595,-0.8988308906555176,-0.9681611657142639
1.6399869918823242,0.09862023591995239,-0.1524355709552765,0.13669750094413757,-0.3890597225785952,-1.1795542094785327,2.0526455439204416,-0.8553495407104492,0.37931856513023376,-0.3528382182121277,0.44847381114959717,-0.7024033069610596,-0.9513483643531799
1.661452054977417,0.1353452205657959,-0.12331205606460571,0.1905125081539154,-0.368863670350068,-1.1905172974317852,2.0548182264184938,-0.866104006767273,0.3605557680130005,-0.3462132215499878,0.4344630837440491,-0.4901542663574219,-0.7991702556610107
1.6799330711364746,0.15205055475234985,-0.220781147480011,0.2128506898880005,-0.35516975440574416,-1.198339913477099,2.0555808684354573,-0.8733029961585999,0.3477495312690735,-0.3411923348903656,0.11969676613807678,-0.3551754951477051,-0.44458359479904175
1.69992995262146,0.13096082210540771,-0.2360323667526245,0.2128378450870514,-0.35004004683051543,-1.2062643187803865,2.052569182694921,-0.8776344060897827,0.3429354131221771,-0.3348928391933441,-0.19934961199760437,-0.34712332487106323,-0.16434700787067413
1.7207980155944824,0.16875481605529785,-0.16124507784843445,0.2481335997581482,-0.34789251901448304,-1.2165984888625556,2.0458770219258575,-0.8817370533943176,0.34091734886169434,-0.3260601758956909,-0.22209087014198303,-0.4726448655128479,-0.31691741943359375
1.7421419620513916,0.20580637454986572,-0.19512838125228882,0.18557733297348022,-0.340461722473113,-1.228751066145211,2.0440689142850994,-0.8879963755607605,0.3339223563671112,-0.31616199016571045,0.367132306098938,-0.6740051507949829,-0.39687463641166687
1.7605359554290771,0.21254926919937134,-0.18509316444396973,0.16101375222206116,-0.32936755958250824,-1.2389338109558683,2.055691174631404,-0.8946172595024109,0.3234446346759796,-0.30829158425331116,1.0741173028945923,-0.7206266522407532,-0.30159878730773926
1.7825250625610352,0.21796900033950806,-0.16908875107765198,0.15682640671730042,-0.31614400163898687,-1.2444131590679803,2.0797792518781373,-0.9002659320831299,0.31090396642684937,-0.3047298192977905,1.3270817995071411,-0.5799267888069153,-0.19940869510173798
1.8032200336456299,0.19605004787445068,-0.23133257031440735,0.2244369387626648,-0.306321618577991,-1.2492798225520017,2.099275557085489,-0.904591977596283,0.30155354738235474,-0.3012954294681549,0.6957777738571167,-0.4902513027191162,-0.18575362861156464
1.8231370449066162,0.08134573698043823,-0.2552623152732849,0.17900076508522034,-0.2995793342651939,-1.2548691738894544,2.109023265524585,-0.9081738591194153,0.2951183021068573,-0.29685965180397034,0.4883069396018982,-0.3618578016757965,-0.09823262691497803
1.843735933303833,-0.022199571132659912,-0.12302345037460327,0.12198436260223389,-0.2970505474679096,-1.2579527119583023,2.1204402668875355,-0.9097920656204224,0.29270121455192566,-0.2942866086959839,0.6785885095596313,-0.31355899572372437,0.15609030425548553
1.8631479740142822,-0.09043973684310913,-0.017262279987335205,0.16627654433250427,-0.2951973855703801,-1.2599329369125738,2.136556782014503,-0.9108878970146179,0.2909286916255951,-0.2926498353481293,0.859021008014679,-0.38340073823928833,0.11734198778867722
1.8832471370697021,-0.2375272512435913,0.020045489072799683,0.15600138902664185,-0.2928218172186077,-1.2637337763047134,2.1563398319270433,-0.9126498103141785,0.2886550724506378,-0.28939366340637207,0.9226738214492798,-0.5311799049377441,0.2961966395378113
1.903243064880371,-0.5026026964187622,0.0055189430713653564,0.1949702501296997,-0.296808704465315,-1.2676850202879435,2.1724330264892218,-0.9126805067062378,0.29246994853019714,-0.28543952107429504,0.3347478210926056,-0.2878728210926056,0.491504967212677
1.9230690002441406,-0.6735686659812927,-0.03962206840515137,0.28249093890190125,-0.3059224859929411,-1.268478300492673,2.1747300836577255,-0.9103241562843323,0.30117297172546387,-0.28391000628471375,-0.29111093282699585,0.17292623221874237,0.45945683121681213
1.9432079792022705,-0.5955594778060913,-0.061725467443466187,0.2612089216709137,-0.31729750580700633,-1.2622086055834414,2.172495814795969,-0.9052034616470337,0.3120001256465912,-0.2885526120662689,-0.1443035900592804,0.4626369774341583,0.5522593259811401
1.9618771076202393,-0.444879412651062,-0.05932581424713135,0.12418967485427856,-0.3253664519421428,-1.253220124720019,2.1783961311295443,-0.9001524448394775,0.31965604424476624,-0.2958815097808838,0.42695581912994385,0.1616155207157135,0.3446648120880127
1.9826910495758057,-0.2918857932090759,-0.1131780743598938,0.0679883062839508,-0.3249519654949638,-1.2514894759902204,2.1923375105938305,-0.8997645378112793,0.3192632794380188,-0.29748043417930603,0.8596147894859314,-0.4238407611846924,0.04494353011250496
2.0026450157165527,-0.35456085205078125,-0.06615263223648071,0.03875759243965149,-0.31792613401635905,-1.2551642458100538,2.2148527655867043,-0.9029616713523865,0.3125973045825958,-0.2948610484600067,1.3716992139816284,-0.5524371862411499,-0.013188057579100132
2.023390054702759,-0.45735639333724976,0.03985506296157837,0.09943526983261108,-0.306728894019946,-1.2530490636628462,2.2471132346818696,-0.9056044220924377,0.30194181203842163,-0.2978452742099762,1.9196003675460815,-0.22879084944725037,-0.10603319853544235
2.04184889793396,-0.41982656717300415,0.05581197142601013,0.0657338798046112,-0.29103742509369407,-1.2434468133991052,2.2889097024799274,-0.9070777297019958,0.286946177482605,-0.30801284313201904,2.2447805404663086,-0.04738004133105278,-0.11083976179361343
2.062628984451294,-0.33613282442092896,0.009149640798568726,0.03928759694099426,-0.27530547126601823,-1.234067921986146,2.3281918247737514,-0.9082977175712585,0.2718409299850464,-0.3179588317871094,1.7066208124160767,-0.1414354294538498,-0.13456258177757263
2.0818159580230713,-0.36549657583236694,-0.024527788162231445,0.03699609637260437,-0.26637524176064736,-1.2317697093890743,2.3494627282193634,-0.9098178148269653,0.26323625445365906,-0.3208400309085846,0.542451798915863,-0.1468597650527954,-0.011721793562173843
2.102648973464966,-0.50114905834198,0.047164320945739746,0.051379621028900146,-0.26736531608289915,-1.2289275621608522,2.3531078293655443,-0.9086562395095825,0.26419126987457275,-0.32333704829216003,-0.13530725240707397,0.33130815625190735,0.2086329609155655
2.1233370304107666,-0.45554792881011963,0.1796371340751648,-0.023026466369628906,-0.27289514920742686,-1.2226785634715605,2.35179120928319,-0.9052309393882751,0.2695205807685852,-0.3285055160522461,-0.10555727034807205,0.2348369061946869,0.3088616132736206
2.144479990005493,-0.35280609130859375,0.24098393321037292,0.007736086845397949,-0.2806452060708546,-1.2211340728932465,2.3549723031008027,-0.9027329087257385,0.2769756615161896,-0.32917773723602295,0.1388193964958191,-0.10817787796258926,0.5146822333335876
2.162415027618408,-0.5150867104530334,0.13287940621376038,0.09471836686134338,-0.29201413034189483,-1.2180531361671127,2.3643260816834513,-0.8987010717391968,0.28788167238235474,-0.3308480978012085,0.13193194568157196,0.18116028606891632,0.944500207901001
2.1821370124816895,-0.5923389792442322,0.08078920841217041,0.14625263214111328,-0.3146993588831857,-1.2104197101349474,2.3688876967681756,-0.8898082971572876,0.3095306158065796,-0.3353090286254883,-0.4128023684024811,0.45622718334198,1.2517508268356323
2.202122926712036,-0.5771811604499817,0.19944557547569275,-0.006902903318405151,-0.3438016466448652,-1.2032004875446012,2.3682193733073,-0.878583550453186,0.33706870675086975,-0.33834242820739746,-0.6373545527458191,0.238743856549263,1.3882110118865967
2.222245931625366,-0.5617383122444153,0.2473716139793396,-0.037314802408218384,-0.3737904195331996,-1.1981736075037375,2.3681958290850793,-0.867064356803894,0.3651467263698578,-0.3389211595058441,-0.4536125361919403,0.2592727243900299,1.481222152709961
2.24225115776062,-0.6032231450080872,0.1235395073890686,-0.058875054121017456,-0.4068486076554264,-1.1938150294302379,2.3701933427979895,-0.8538845181465149,0.39571714401245117,-0.33806711435317993,-0.5784964561462402,0.09361428022384644,1.616687297821045
2.261898994445801,-0.529125452041626,0.1280304193496704,-0.08848652243614197,-0.4410464794338099,-1.1941463248336603,2.3702563032201533,-0.8409156203269958,0.42688602209091187,-0.33261027932167053,-0.6186438798904419,-0.10193054378032684,1.5933512449264526
2.282238006591797,-0.5098515152931213,0.1092495322227478,-0.11327686905860901,-0.4747785877009917,-1.195589057113665,2.3709071497377967,-0.8275204300880432,0.45714154839515686,-0.3259321451187134,-0.5970906019210815,-0.024607792496681213,1.5710948705673218
2.3020119667053223,-0.5436036586761475,0.055011212825775146,-0.10228043794631958,-0.5075470012724372,-1.1973743776615877,2.36742552859487,-0.8137114644050598,0.48603492975234985,-0.31881633400917053,-0.8732960820198059,-0.004156758077442646,1.3272134065628052
2.321969985961914,-0.4916382431983948,0.04236394166946411,-0.14503955841064453,-0.5348881892553524,-1.2007587837805365,2.360684970701104,-0.802093505859375,0.5097448229789734,-0.3111371695995331,-0.55545574426651,0.004335352685302496,1.0455294847488403
2.3411848545074463,-0.391650915145874,0.04079216718673706,-0.2063889503479004,-0.5550698565946659,-1.2017529609901245,2.361257283455868,-0.792644739151001,0.5270026922225952,-0.30656567215919495,-0.30220308899879456,-0.13152270019054413,0.8332493901252747
2.3616878986358643,-0.40128493309020996,0.0024102330207824707,-0.10629037022590637,-0.5722438662977288,-1.2073520420813317,2.3565050481532244,-0.7857725620269775,0.541519820690155,-0.29886093735694885,-0.7469421625137329,-0.16717763245105743,0.6373037099838257
2.381510019302368,-0.44388508796691895,0.04545408487319946,-0.08721417188644409,-0.5895308259937259,-1.2227021765196457,2.336227674249502,-0.7813499569892883,0.555971086025238,-0.283528596162796,-1.3221677541732788,-0.27458807826042175,0.4203924536705017
2.400615930557251,-0.4025004506111145,0.0987851619720459,-0.142593652009964,-0.6054568212994536,-1.2433169725942779,2.3110751290951668,-0.778545081615448,0.5691377520561218,-0.26448026299476624,-1.0638178586959839,-0.36866796016693115,0.4154067635536194
2.4214630126953125,-0.3635439872741699,0.11551380157470703,-0.09578196704387665,-0.6185564433923674,-1.2615089960859907,2.293072685576989,-0.7760586738586426,0.5798596739768982,-0.24798324704170227,-0.8174129724502563,-0.40956950187683105,0.3698773682117462
2.441660165786743,-0.2860094904899597,0.014630258083343506,-0.059682831168174744,-0.6302643671450403,-1.279554848482651,2.2758787884729257,-0.7738507986068726,0.5893583297729492,-0.23197361826896667,-0.8849406242370605,-0.44494232535362244,0.31978869438171387
2.460329055786133,-0.24156010150909424,0.022461891174316406,-0.05711379647254944,-0.6402500195868314,-1.3011407982876466,2.2563519932512754,-0.7729664444923401,0.5973959565162659,-0.21363812685012817,-0.8361925482749939,-0.5428786873817444,0.2328636348247528
2.4811129570007324,-0.2296985387802124,0.03662317991256714,-0.0839829295873642,-0.6478811100727431,-1.3223418109241754,2.2406217672409547,-0.7728801369667053,0.6034982204437256,-0.19607685506343842,-0.5750155448913574,-0.5941083431243896,0.17607173323631287
2.4999921321868896,-0.24380618333816528,0.05062812566757202,-0.07726474106311798,-0.6534843192876786,-1.3414303608104154,2.227922027249794,-0.7731770277023315,0.6079565286636353,-0.18051724135875702,-0.5839472413063049,-0.5507318377494812,0.12746557593345642
2.521481990814209,-0.16085445880889893,-0.001999497413635254,-0.08797037601470947,-0.6585871639933604,-1.359526362338748,2.2149885712565487,-0.7732733488082886,0.6120001077651978,-0.16584429144859314,-0.5092951059341431,-0.4831339120864868,0.16018465161323547
2.5436880588531494,-0.0832105278968811,0.010698676109313965,-0.12019753456115723,-0.6632031141545436,-1.374851624996773,2.2049829198329642,-0.7729449272155762,0.6156441569328308,-0.15342304110527039,-0.3832716941833496,-0.4456472396850586,0.13236640393733978
2.562432050704956,-0.018863677978515625,-0.03919881582260132,-0.10432766377925873,-0.6670055123213057,-1.389226430724091,2.19579633678056,-0.7727622389793396,0.6186360716819763,-0.14187286794185638,-0.38543298840522766,-0.42244952917099,0.11196551471948624
2.5809271335601807,0.02905064821243286,-0.06117606163024902,-0.091258704662323,-0.6707262746913403,-1.4027601135219736,2.1874117915088642,-0.7723368406295776,0.6215550899505615,-0.13101601600646973,-0.3484996259212494,-0.4093506932258606,0.12790361046791077
2.5999820232391357,0.029368281364440918,-0.06135469675064087,-0.06965839117765427,-0.6743292004131336,-1.415482784916563,2.179571792170649,-0.7717236280441284,0.6243734955787659,-0.12083227932453156,-0.2998164892196655,-0.36283013224601746,0.1389942169189453
2.621479034423828,0.042340219020843506,-0.03601890802383423,-0.05575382709503174,-0.6781754931515637,-1.4248839531885453,2.1745853331992815,-0.7704439163208008,0.6273732781410217,-0.11322195827960968,-0.14780542254447937,-0.2758443057537079,0.17805811762809753
2.6413938999176025,0.08609127998352051,-0.03347653150558472,-0.05883908271789551,-0.6825604349716007,-1.4311202616792014,2.172570968845482,-0.7684034109115601,0.630781888961792,-0.1080310195684433,-0.08736959844827652,-0.22871556878089905,0.24457645416259766
2.6614301204681396,0.13219380378723145,-0.06417089700698853,-0.026607804000377655,-0.6883076136730354,-1.43639548563746,2.1712749850210984,-0.765357255935669,0.6352310180664062,-0.10348853468894958,-0.11467240750789642,-0.20310340821743011,0.30832958221435547
2.6807050704956055,0.11062085628509521,-0.04603058099746704,0.015453644096851349,-0.6954840363385323,-1.4413125482872422,2.1686242785891796,-0.7613166570663452,0.640757143497467,-0.09913279861211777,-0.12352907657623291,-0.11131703108549118,0.37568163871765137
2.7005929946899414,0.12705057859420776,-0.012571275234222412,-0.016992926597595215,-0.7036649934638779,-1.4411681161738807,2.169974397176518,-0.7560789585113525,0.6470165252685547,-0.0985618382692337,0.16655680537223816,0.02512354403734207,0.46248334646224976
2.7205798625946045,0.220969557762146,-0.054470598697662354,-0.06214039772748947,-0.7129051178580628,-1.4338386986211362,2.1791577501029162,-0.749381422996521,0.6540341377258301,-0.10328006744384766,0.3937665820121765,0.12229439616203308,0.5267154574394226
2.7406599521636963,0.2006770372390747,-0.1062210202217102,-0.03485943377017975,-0.7224762156557892,-1.422635237183992,2.190787520620203,-0.741952121257782,0.66124427318573,-0.11073993891477585,0.23957610130310059,0.25432807207107544,0.5433323383331299
2.7604448795318604,0.14068228006362915,-0.12467736005783081,-0.00030731409788131714,-0.7326628588318534,-1.4114200166368558,2.197235560446117,-0.7339745163917542,0.6688515543937683,-0.11797875910997391,0.12652145326137543,0.4082866311073303,0.5605326294898987
2.7803430557250977,0.20883435010910034,-0.04817122220993042,-0.0140828937292099,-0.7440535692937135,-1.396614922756582,2.2062384181334314,-0.7245966792106628,0.6772757768630981,-0.12750333547592163,0.4396231472492218,0.44361940026283264,0.6955606341362
2.8002898693084717,0.2849206328392029,-0.036669015884399414,-0.03353303670883179,-0.7572455486819886,-1.3730164751180773,2.228823748269211,-0.7125635147094727,0.6869223117828369,-0.14279751479625702,0.8741915225982666,0.3603280782699585,0.9042860269546509
2.820064067840576,0.2553296685218811,-0.1140403151512146,-0.024138376116752625,-0.771293653631159,-1.3443484469115328,2.261287368230521,-0.6987043023109436,0.6970633864402771,-0.1609811931848526,1.1529805660247803,0.29079684615135193,0.946470320224762
2.840545892715454,0.16434645652770996,-0.13240736722946167,-0.04572652280330658,-0.7832963821406901,-1.3093054578639418,2.3019878838831396,-0.6845033168792725,0.7056190371513367,-0.18318578600883484,1.3120943307876587,0.37801501154899597,0.8932631015777588
2.8601810932159424,0.12236011028289795,-0.19307756423950195,0.01715351641178131,-0.7925357445666165,-1.2736713215081055,2.3388386090514155,-0.6712798476219177,0.7121357321739197,-0.20553845167160034,0.8644457459449768,0.5731537938117981,0.7060794234275818
2.8800370693206787,0.1332300305366516,-0.26935476064682007,0.029223144054412842,-0.8006745697919787,-1.243694332502293,2.3622002276438487,-0.6593073010444641,0.7178258895874023,-0.22369641065597534,0.5310056209564209,0.7686148881912231,0.6071972846984863
2.899991035461426,0.17488855123519897,-0.17994338274002075,-0.020762383937835693,-0.8075883350179475,-1.2138883972027583,2.3812567165064866,-0.6476821899414062,0.7226222157478333,-0.24150565266609192,0.4888058006763458,0.8278592824935913,0.49602317810058594
2.9199819564819336,0.20152586698532104,-0.13814377784729004,-0.0005563497543334961,-0.812848159261685,-1.1825850308276349,2.4001271364569803,-0.6362793445587158,0.726248025894165,-0.2602163255214691,0.5576248168945312,0.9268651604652405,0.4891798794269562
2.939984083175659,0.21380597352981567,-0.15422159433364868,-0.0018762946128845215,-0.8171346954120039,-1.1476650906958556,2.4221331353460362,-0.6239622831344604,0.729188084602356,-0.2809911072254181,0.6562677025794983,0.9762841463088989,0.5046000480651855
2.95998215675354,0.23553025722503662,-0.14696502685546875,0.028544604778289795,-0.8206517172764484,-1.1110055586278034,2.4457966040451145,-0.6109423041343689,0.7315902709960938,-0.3025314211845398,0.6468192338943481,0.957476019859314,0.4945598840713501
2.9799699783325195,0.21757614612579346,-0.16025376319885254,0.06486344337463379,-0.8237655572894713,-1.0762541090460023,2.4670202486149653,-0.5980541110038757,0.7337095737457275,-0.3224928081035614,0.5025587677955627,0.9772467017173767,0.45699676871299744
2.9999911785125732,0.2040156126022339,-0.17129307985305786,0.07351899147033691,-0.8276469322059002,-1.0433662268113153,2.484539627063262,-0.5846614241600037,0.7363412976264954,-0.3405477702617645,0.38120463490486145,1.0418784618377686,0.46405571699142456
3.020076036453247,0.21069371700286865,-0.16711968183517456,0.0638185441493988,-0.8318169970367536,-1.0087770399968576,2.5024211788691795,-0.5699313879013062,0.7391564249992371,-0.35892346501350403,0.40297776460647583,1.083452820777893,0.4858417510986328
3.039990186691284,0.2060917615890503,-0.16212165355682373,0.08196836709976196,-0.8353227752732323,-0.9763740133661444,2.5170981509572643,-0.5558537244796753,0.7415131330490112,-0.3757457733154297,0.22791041433811188,1.0703669786453247,0.3641422390937805
3.059983015060425,0.23062413930892944,-0.18711835145950317,0.08770185708999634,-0.8401157026435233,-0.9493974265528122,2.5252292632575215,-0.5426207184791565,0.7447203397750854,-0.38852888345718384,-0.062760129570961,1.0195915699005127,0.33592820167541504
3.0799570083618164,0.2474813461303711,-0.17656797170639038,0.07764428853988647,-0.8473140477713489,-0.9294933932423514,2.5258540373456393,-0.5304708480834961,0.7495050430297852,-0.3960341513156891,-0.32683685421943665,0.9317216873168945,0.2690490484237671
3.0999948978424072,0.2445359230041504,-0.15720117092132568,0.04959416389465332,-0.8559021862036656,-0.9153581758777817,2.520667224780051,-0.5196976661682129,0.7551626563072205,-0.3995544910430908,-0.3872550129890442,0.8539491295814514,0.21033582091331482
3.1202139854431152,0.25168120861053467,-0.1305936574935913,-0.0072574615478515625,-0.8625440682604606,-0.9023302127989382,2.5169537058567624,-0.5105007886886597,0.7594999670982361,-0.40317341685295105,-0.19746854901313782,0.7591568827629089,0.18740014731884003
3.139975070953369,0.25265252590179443,-0.1009979248046875,-0.01661074161529541,-0.8667158071343393,-0.8878915713273956,2.5180359748944916,-0.5021643042564392,0.7622070908546448,-0.4084990918636322,-0.03090169094502926,0.6149316430091858,0.17192748188972473
3.1599860191345215,0.24614709615707397,-0.11062711477279663,0.008636057376861572,-0.8696216705954861,-0.8746699788325439,2.520940658899827,-0.49501800537109375,0.7640849351882935,-0.41368064284324646,-0.033618051558732986,0.48824334144592285,0.17309854924678802
3.1800310611724854,0.24802711606025696,-0.11099827289581299,0.010759204626083374,-0.8726146263781508,-0.8639064754664432,2.5239900228075625,-0.48879551887512207,0.7660123109817505,-0.417497456073761,-0.011135604232549667,0.3571707308292389,0.19983629882335663
3.199981927871704,0.24337729811668396,-0.07300931215286255,0.021283626556396484,-0.8762626396003974,-0.8548776845193599,2.5284850213560253,-0.48289451003074646,0.768352210521698,-0.4200567305088043,-0.003285469487309456,0.19894017279148102,0.25639697909355164
3.220005989074707,0.21034151315689087,-0.05023866891860962,0.008712083101272583,-0.8798394389038862,-0.8472519114144244,2.5350619952352167,-0.47761446237564087,0.7706365585327148,-0.4219047725200653,0.08561975508928299,0.06941350549459457,0.28895455598831177
3.2400410175323486,0.18165740370750427,-0.006014466285705566,-0.00844639539718628,-0.8821587418364635,-0.8395970781847653,2.545171844457899,-0.47303929924964905,0.7721125483512878,-0.42435386776924133,0.2628772556781769,-0.07089610397815704,0.3275054097175598
3.2600760459899902,0.16090145707130432,0.056049644947052,-0.020764172077178955,-0.8827728271709828,-0.8294304604945832,2.5611144180191667,-0.4683508276939392,0.772502601146698,-0.42882075905799866,0.4551568925380707,-0.14886033535003662,0.4003053605556488
3.2800638675689697,0.15017062425613403,0.08084350824356079,-0.01535499095916748,-0.8824632195133503,-0.8162285204761025,2.582824004304213,-0.4628232419490814,0.772305965423584,-0.43513023853302,0.5624062418937683,-0.2166411429643631,0.5133702754974365
3.300058126449585,0.13160407543182373,0.11694568395614624,-0.02326911687850952,-0.8822231658228769,-0.8014578960946356,2.6084649770089765,-0.4564789831638336,0.7721534371376038,-0.4420476257801056,0.6094377636909485,-0.27878421545028687,0.5932730436325073
3.3201370239257812,0.11427310109138489,0.13531708717346191,-0.012183189392089844,-0.8827519106784092,-0.7861533189558682,2.6355397628789783,-0.44937142729759216,0.7724893689155579,-0.44869324564933777,0.5648646950721741,-0.27763569355010986,0.6514415144920349
3.3400609493255615,0.1198834776878357,0.116432785987854,0.016047239303588867,-0.8853174089992027,-0.7718821483046976,2.661202386361711,-0.44153881072998047,0.7741159796714783,-0.4536387622356415,0.3873376250267029,-0.29201439023017883,0.6769875288009644
3.3600330352783203,0.14427611231803894,0.1110529899597168,0.030398011207580566,-0.8903360826169242,-0.7609254294181805,2.6835566375587736,-0.43385741114616394,0.777283251285553,-0.45562994480133057,0.24021486937999725,-0.3590748906135559,0.6960127949714661
3.3800580501556396,0.15918800234794617,0.11733168363571167,0.024021297693252563,-0.8960439598716475,-0.7527023356236696,2.7049075776209777,-0.42705607414245605,0.7808616757392883,-0.4559365510940552,0.2873305678367615,-0.4957530200481415,0.6740074753761292
3.3999931812286377,0.19114264845848083,0.11384260654449463,0.007158935070037842,-0.9002234063654901,-0.7459155898475565,2.728777637674102,-0.4217334985733032,0.7834657430648804,-0.45642343163490295,0.41576260328292847,-0.7197152972221375,0.7003823518753052
3.4200451374053955,0.21671563386917114,0.13779711723327637,-0.004220187664031982,-0.9039180026054232,-0.7423904501046185,2.7544294717739857,-0.41816216707229614,0.7857563495635986,-0.45577123761177063,0.4230416417121887,-0.9506650567054749,0.7195594906806946
3.4399678707122803,0.22124072909355164,0.13461565971374512,-0.01567518711090088,-0.9070201541318144,-0.7403315124123117,2.783511002299653,-0.415576696395874,0.7876713871955872,-0.4548295736312866,0.5438463687896729,-1.1258801221847534,0.8351965546607971
3.460057020187378,0.24204540252685547,0.13438743352890015,-0.0054586827754974365,-0.9096486828414768,-0.7372751289931213,2.817855352440474,-0.41279125213623047,0.7892880439758301,-0.4545632302761078,0.6929271221160889,-1.280950903892517,0.9096046686172485
3.47998309135437,0.2407165765762329,0.09871667623519897,0.00541919469833374,-0.9114580000460418,-0.7337772254960502,2.856807801262077,-0.4102417528629303,0.7903977632522583,-0.45494312047958374,0.7877973318099976,-1.4470453262329102,0.968512237071991
3.4999921321868896,0.23629450798034668,0.062251150608062744,-0.003142058849334717,-0.9120511679807488,-0.730317904489572,2.8993313087951176,-0.40835264325141907,0.7907609939575195,-0.4560101628303528,0.9110460877418518,-1.5779428482055664,1.0161021947860718
3.519984006881714,0.22835463285446167,0.061210453510284424,0.020099937915802002,-0.9108606623757074,-0.7265326526203189,2.945742881269121,-0.40724870562553406,0.7900316715240479,-0.4582560360431671,1.050295114517212,-1.7044286727905273,1.0430320501327515
3.5399839878082275,0.1936931014060974,0.05709254741668701,-0.005066812038421631,-0.908570984046136,-0.7221833034055546,2.995054265771452,-0.4064464271068573,0.7886258959770203,-0.46137911081314087,1.128291368484497,-1.7709214687347412,1.0682345628738403
3.5599870681762695,0.1516195833683014,0.03829747438430786,-0.02166309952735901,-0.9059140045781494,-0.718004803506441,3.0456148068988083,-0.4058920443058014,0.7869893908500671,-0.4646497368812561,1.1028592586517334,-1.8008893728256226,1.100564956665039
3.5799920558929443,0.13053786754608154,0.0626755952835083,-0.004029184579849243,-0.9042674191197804,-0.7155351461311402,3.0946891091784505,-0.40559279918670654,0.7859724164009094,-0.46662813425064087,1.023293137550354,-1.82368004322052,1.0852802991867065
3.600024938583374,0.10450968146324158,0.08468294143676758,-0.02873086929321289,-0.9032495627699471,-0.7146483236244363,-3.1409666836849706,-0.40570297837257385,0.7853427529335022,-0.4675917327404022,1.0053907632827759,-1.8364051580429077,1.0629619359970093
3.6199791431427,0.05777493119239807,0.10548019409179688,-0.08322292566299438,-0.9009367829699355,-0.7144614199227334,-3.0938610030461526,-0.40680453181266785,0.7839089035987854,-0.4690383970737457,1.0929597616195679,-1.8365669250488281,0.9973456859588623
3.639993906021118,-0.00258597731590271,0.1465320587158203,-0.1025136411190033,-0.8967360884193625,-0.7127806162620116,-3.0470247949471956,-0.4081653952598572,0.7812938690185547,-0.47220858931541443,1.0970097780227661,-1.6396621465682983,0.9437966346740723
3.6600229740142822,-0.022135257720947266,0.13427114486694336,-0.06027209758758545,-0.8944056234085129,-0.7093015091857864,-3.0045540515354023,-0.4077048599720001,0.7798371315002441,-0.47500619292259216,0.7795225977897644,-1.3081682920455933,0.9148547053337097
3.6799869537353516,-0.035026758909225464,0.09935706853866577,-0.019433587789535522,-0.8983183314790228,-0.7063865585293081,-2.9724405589642915,-0.40433481335639954,0.782280445098877,-0.4738677740097046,0.22078189253807068,-0.9280845522880554,0.8459499478340149
3.6999919414520264,-0.0323297381401062,0.03972524404525757,-0.03557524085044861,-0.9089477719367851,-0.7078222576038553,-2.9545415252156677,-0.3995855450630188,0.7888575196266174,-0.4669424295425415,-0.2735874056816101,-0.6404439806938171,0.6802842617034912
3.719982862472534,-0.00947493314743042,-0.0030228495597839355,-0.06446182727813721,-0.9223601832477695,-0.712687001122345,-2.947588761599022,-0.39489826560020447,0.7970292568206787,-0.4569462537765503,-0.41521310806274414,-0.40785887837409973,0.5219051241874695
3.7399861812591553,-0.008910566568374634,-0.02813023328781128,-0.07679760456085205,-0.9338019565186234,-0.7165743956239186,-2.944931757446485,-0.39065611362457275,0.8038870692253113,-0.44850143790245056,-0.34101933240890503,-0.19807331264019012,0.3463994562625885
3.759984016418457,-0.013118535280227661,-0.057749152183532715,-0.0614418089389801,-0.9419564084786638,-0.7186144783880062,-2.9452428542272875,-0.3872416019439697,0.8087103962898254,-0.442754328250885,-0.2919471859931946,0.010567859746515751,0.17358599603176117
3.7800180912017822,-0.01958605647087097,-0.08015459775924683,-0.01925593614578247,-0.9474342169048938,-0.7198184147861366,-2.9493527392517715,-0.3848481774330139,0.8119203448295593,-0.4389502704143524,-0.28425833582878113,0.21339447796344757,0.013473902828991413
3.799983024597168,-0.028937578201293945,-0.1089286208152771,-0.008770406246185303,-0.9512011539621219,-0.7199741060701379,-2.95713653450011,-0.38289716839790344,0.8141136169433594,-0.4365878403186798,-0.3025014400482178,0.3911605477333069,-0.10386591404676437
3.8199830055236816,-0.04269152879714966,-0.1332230567932129,-0.002858072519302368,-0.9536004323506247,-0.719662233100409,-2.9680748134956576,-0.3814723491668701,0.8155045509338379,-0.43523696064949036,-0.26228025555610657,0.522053599357605,-0.21255138516426086
3.839984178543091,-0.06391781568527222,-0.12641417980194092,-0.020473837852478027,-0.9519881604687697,-0.7149896798481229,-2.9764149161305724,-0.38029608130455017,0.8145703673362732,-0.4380069673061371,0.11296214908361435,0.6350714564323425,-0.25369030237197876
3.8600728511810303,-0.17806708812713623,-0.0401531457901001,-0.023447513580322266,-0.9435361756565709,-0.7024291712459808,-2.977990931518172,-0.37919920682907104,0.8096386194229126,-0.44798800349235535,0.40951648354530334,0.739505410194397,-0.416679710149765
3.879987955093384,-0.3113006353378296,0.07137978076934814,0.03310242295265198,-0.931791077710111,-0.6921328531886927,-2.984698090680731,-0.3806092143058777,0.8026894330978394,-0.4591582715511322,0.12393803894519806,0.853888988494873,-0.6181119680404663
3.8999850749969482,-0.3289356231689453,0.1115727424621582,0.07369235157966614,-0.9256482597071001,-0.6884311119246989,-3.003183914252023,-0.3820323944091797,0.7990107536315918,-0.46436306834220886,-0.27519646286964417,0.9581120610237122,-0.5947436094284058
3.919995069503784,-0.252636581659317,0.14421528577804565,-0.0208568274974823,-0.9220469081256054,-0.683199427191957,-3.0191997620450026,-0.3814118504524231,0.7968400120735168,-0.4685840606689453,0.07295609265565872,0.8508186936378479,-0.37348949909210205
3.9399960041046143,-0.3116401135921478,0.20941507816314697,-0.12627732753753662,-0.9104192157306037,-0.6665851465531704,-3.0182450481000487,-0.37927791476249695,0.789760947227478,-0.4821058213710785,0.8735464811325073,0.7322461009025574,-0.37546002864837646
3.960024118423462,-0.42200222611427307,0.22641491889953613,-0.11359751224517822,-0.8860218230161586,-0.6432542472313578,-3.007591557148185,-0.37937411665916443,0.7745617032051086,-0.5060924291610718,1.372952938079834,0.7932621240615845,-0.5996678471565247
3.979992151260376,-0.42296895384788513,0.21623575687408447,-0.0006835460662841797,-0.8571469629980977,-0.6201170909752797,-3.001022576503229,-0.38040629029273987,0.7559780478477478,-0.5327179431915283,1.0879863500595093,1.040031909942627,-0.7605905532836914
3.999993085861206,-0.31052547693252563,0.14311444759368896,0.09984660148620605,-0.8369628942184492,-0.6027843370495908,-3.0095196873789556,-0.37969064712524414,0.7426125407218933,-0.5516898036003113,0.19417411088943481,1.3251835107803345,-0.8621233105659485
4.020046949386597,-0.15636098384857178,0.022578001022338867,0.15159064531326294,-0.8317031405449358,-0.5942720122459311,-3.036373714977025,-0.3771626055240631,0.7390797138214111,-0.5581305027008057,-0.7316765785217285,1.4898275136947632,-0.9280557036399841
4.0399980545043945,0.014433354139328003,-0.0775265097618103,0.14291083812713623,-0.8377361038543827,-0.5939483970616669,-3.076152198714767,-0.3744797706604004,0.7431301474571228,-0.554547131061554,-1.1798079013824463,1.453355312347412,-0.9439738988876343
4.059983015060425,0.14174610376358032,-0.10997337102890015,0.11135584115982056,-0.845786088549459,-0.598697345317277,-3.118701485191175,-0.3737254738807678,0.7484926581382751,-0.5478029251098633,-0.9637805223464966,1.2585982084274292,-0.9514626264572144
4.0799829959869385,0.2150779366493225,-0.12023848295211792,0.08072513341903687,-0.846378467865682,-0.6007127938282445,3.130547424870001,-0.3745781183242798,0.7488853335380554,-0.5466827750205994,-0.3586607873439789,1.0874892473220825,-0.8644478917121887
4.0999839305877686,0.2739419937133789,-0.15415704250335693,0.10645073652267456,-0.839929232021436,-0.5976489465510518,3.1078616502112584,-0.3756113350391388,0.7445958852767944,-0.5518089532852173,-0.03486368805170059,0.909277617931366,-0.7594016790390015
4.119992017745972,0.32824647426605225,-0.19546306133270264,0.15042918920516968,-0.8325539797264752,-0.5954030872854585,3.089388480880234,-0.37744084000587463,0.7396525740623474,-0.5571827292442322,-0.07992816716432571,0.6959720849990845,-0.6890101432800293
4.140023946762085,0.3559405505657196,-0.20681113004684448,0.1665382981300354,-0.8280690680592317,-0.5955197175539687,3.0721342033055876,-0.3793628513813019,0.7366268634796143,-0.5598793625831604,-0.20770478248596191,0.5659494400024414,-0.5135355591773987
4.160003900527954,0.37727436423301697,-0.22343653440475464,0.15974169969558716,-0.8290072016468912,-0.5967629030904313,3.057124169493935,-0.3796699643135071,0.7372609972953796,-0.5588352680206299,-0.3508653938770294,0.4303950369358063,-0.3579683303833008
4.179995059967041,0.40095987915992737,-0.25005489587783813,0.10831987857818604,-0.8310072993757177,-0.6025375414895295,3.0418578596093084,-0.38205426931381226,0.7386108040809631,-0.5554175972938538,-0.412212610244751,0.10779028385877609,-0.31461530923843384
4.20002007484436,0.38244205713272095,-0.22359496355056763,0.07773727178573608,-0.8342026159642608,-0.6110872386518021,3.030636163661787,-0.38543280959129333,0.7407611012458801,-0.5501950979232788,-0.26510390639305115,-0.12397565692663193,-0.1322249174118042
4.219989061355591,0.33515411615371704,-0.15970957279205322,0.01948755979537964,-0.8361401828967139,-0.6186378626725182,3.0263853834174412,-0.38874301314353943,0.7420613169670105,-0.5460988879203796,-0.04439130797982216,-0.2960710823535919,0.0192098468542099
4.23999285697937,0.2749040722846985,-0.1025460958480835,-0.023767173290252686,-0.836452832225939,-0.6220596878906232,3.0304891140769112,-0.39047420024871826,0.742270827293396,-0.5445769429206848,0.1658143848180771,-0.3403416872024536,0.21901056170463562
4.259987115859985,0.2184886336326599,-0.06416118144989014,-0.048123717308044434,-0.836006796530875,-0.6208032711748607,3.041386658338332,-0.3899821937084198,0.7419718503952026,-0.5453363060951233,0.28333333134651184,-0.33593717217445374,0.3324366509914398
4.279985189437866,0.17418763041496277,-0.01811671257019043,-0.07195019721984863,-0.8352430074721181,-0.6166743697450555,3.055278134317634,-0.38805484771728516,0.7414596080780029,-0.5474039912223816,0.3130754232406616,-0.2803870141506195,0.3813791275024414
4.300026178359985,0.15282294154167175,0.00032836198806762695,-0.08896458148956299,-0.8347016185127725,-0.6114087841721593,3.0693474187195013,-0.38539746403694153,0.7410961985588074,-0.549768328666687,0.2614067494869232,-0.23808376491069794,0.35662734508514404
4.320008993148804,0.15056496858596802,0.009437859058380127,-0.09514141082763672,-0.8354746468623093,-0.607596493313707,3.0806941890161346,-0.3829716145992279,0.7416149973869324,-0.5507630705833435,0.1093539372086525,-0.23538385331630707,0.31466683745384216
4.339993953704834,0.16176575422286987,0.052084267139434814,-0.13141250610351562,-0.8383252982763683,-0.6066032516444486,3.0889419557291524,-0.38121768832206726,0.7435242533683777,-0.5494041442871094,-0.01846182718873024,-0.28063708543777466,0.3069887161254883
4.359982967376709,0.15536561608314514,0.10726159811019897,-0.169295072555542,-0.8421875763104425,-0.6073576915468056,3.0960007485749275,-0.3799903094768524,0.746101438999176,-0.5467541217803955,0.0025153744500130415,-0.3175794780254364,0.3020961880683899
4.379992961883545,0.15286722779273987,0.1726832389831543,-0.20323222875595093,-0.8448619040354551,-0.6073012053416104,3.1047592267584454,-0.37881937623023987,0.7478794455528259,-0.545134961605072,0.10679854452610016,-0.3262935280799866,0.33428075909614563
4.39998984336853,0.15364789962768555,0.22124618291854858,-0.19891488552093506,-0.846803736941057,-0.6046251938057775,3.1162713174257064,-0.37653303146362305,0.7491670846939087,-0.5449510216712952,0.15656350553035736,-0.27508795261383057,0.40621069073677063
4.419993162155151,0.17639607191085815,0.28139346837997437,-0.19233959913253784,-0.8495997620026119,-0.6002206834601042,3.129855868471086,-0.37294453382492065,0.7510161995887756,-0.5448734760284424,0.10038165748119354,-0.3203561007976532,0.49871256947517395
4.44002890586853,0.1551363468170166,0.3407459855079651,-0.21017718315124512,-0.8544029775200291,-0.5960739860524753,-3.138271968751583,-0.3686525821685791,0.7541790008544922,-0.5434238910675049,0.07630165666341782,-0.40268051624298096,0.5759132504463196
4.459986925125122,0.1225372850894928,0.3649851083755493,-0.2161887288093567,-0.8593773622526018,-0.592235955655773,-3.1214789157161906,-0.3644654452800751,0.7574361562728882,-0.5417153239250183,0.1430613398551941,-0.47455886006355286,0.6194331049919128
4.479990005493164,0.11732462048530579,0.3164489269256592,-0.16308873891830444,-0.8634972953480542,-0.5873404519965372,-3.102599037731355,-0.3600767254829407,0.7601196765899658,-0.5408907532691956,0.1782817542552948,-0.486656129360199,0.6252244710922241
4.499984979629517,0.1466209590435028,0.20738869905471802,-0.0538560152053833,-0.868286495073921,-0.5841505592619598,-3.0846867710556944,-0.3563377857208252,0.763222873210907,-0.5389936566352844,0.024698015302419662,-0.5814216732978821,0.6006361842155457
4.519994020462036,0.15615612268447876,0.13160455226898193,0.05759882926940918,-0.8769407457886796,-0.5879163042030024,-3.07202459811056,-0.35468822717666626,0.7687860727310181,-0.5321318507194519,-0.2860996723175049,-0.786647617816925,0.557149350643158
4.539986848831177,0.13598385453224182,0.10903197526931763,0.10051554441452026,-0.8884816302727268,-0.5988329916193948,-3.063435899099048,-0.3554510474205017,0.7761151790618896,-0.5208646655082703,-0.30667635798454285,-0.9641039967536926,0.5467122793197632
4.559631109237671,0.10008257627487183,0.10737669467926025,0.11966967582702637,-0.8984267974595934,-0.6111182097533667,-3.052592221639972,-0.3573762774467468,0.7823480367660522,-0.5101115107536316,-0.11418595165014267,-1.1318302154541016,0.5717489719390869
4.579993009567261,0.07174012064933777,0.05078256130218506,0.1395588517189026,-0.905290390860681,-0.6238183050889823,-3.0374412242213586,-0.36068055033683777,0.7866044640541077,-0.5011615753173828,0.07620619237422943,-1.3356302976608276,0.5794726610183716
4.599982976913452,0.03702044486999512,0.01907593011856079,0.14926084876060486,-0.9101969393890447,-0.6381287245568141,-3.0192922642859763,-0.3655116856098175,0.7896245718002319,-0.49284297227859497,0.18620920181274414,-1.531806230545044,0.614165186882019
4.619992971420288,-0.014911174774169922,0.0560988187789917,0.1347460150718689,-0.9123303845509471,-0.6502738945534301,-2.9946064030266344,-0.37044957280158997,0.7909318804740906,-0.487025648355484,0.6498810052871704,-1.6185030937194824,0.7385513782501221
4.639986038208008,-0.0845368504524231,0.14756232500076294,0.11024078726768494,-0.9057215733742289,-0.6464630730013712,-2.9511134684107985,-0.3717314600944519,0.7868706583976746,-0.49259549379348755,1.4830149412155151,-1.4088730812072754,0.9877694845199585
4.660078048706055,-0.12831944227218628,0.11721277236938477,0.18302637338638306,-0.8908044776998886,-0.6260977914278116,-2.892543352920415,-0.3684609532356262,0.777577817440033,-0.5095186233520508,1.7900402545928955,-1.1736558675765991,1.0041522979736328
4.679999113082886,-0.09051528573036194,-0.04622763395309448,0.2999151945114136,-0.8745203911427026,-0.6052749518406281,-2.8379955289716507,-0.36492908000946045,0.7672359943389893,-0.5274236798286438,1.4644174575805664,-0.9731294512748718,0.8822556734085083
4.70008111000061,-0.06871691346168518,-0.13324987888336182,0.34101349115371704,-0.8643304759737743,-0.5926469572448555,-2.7974099632483473,-0.3625880479812622,0.7606608271598816,-0.5384469628334045,0.8529964685440063,-0.8588830828666687,0.6908442974090576
4.720010995864868,-0.09618175029754639,-0.12767934799194336,0.33491963148117065,-0.8608570125764002,-0.5886020171893521,-2.772746409162601,-0.3618718683719635,0.7584014534950256,-0.5421034693717957,0.36482152342796326,-0.6131747364997864,0.4497683346271515
4.740094900131226,-0.05564069747924805,-0.0769660472869873,0.3003748655319214,-0.8607505776530415,-0.5890794235580215,-2.7593018756536067,-0.36217549443244934,0.7583320736885071,-0.5419977903366089,0.17825005948543549,-0.4764758050441742,0.3021697998046875
4.759987115859985,-0.006834954023361206,0.0023109912872314453,0.2456650733947754,-0.8608793105480254,-0.5900114792786476,-2.748806863066413,-0.3626261353492737,0.758415937423706,-0.5415787696838379,0.21055258810520172,-0.42665261030197144,0.2881682515144348
4.780042886734009,0.0022412538528442383,0.02722114324569702,0.20915287733078003,-0.8600248832797551,-0.590101548210285,-2.7376116174671647,-0.3630353510379791,0.7578588128089905,-0.542084276676178,0.26906850934028625,-0.45431992411613464,0.26872518658638
4.79998517036438,-0.007619231939315796,0.03713005781173706,0.18304824829101562,-0.8583568692571174,-0.5908803635436723,-2.726477971621564,-0.3641611933708191,0.7567694783210754,-0.5428504943847656,0.2747429609298706,-0.4517554044723511,0.2477875053882599
4.819983959197998,0.008803486824035645,0.013671398162841797,0.19295364618301392,-0.8564540415957937,-0.5907611497621487,-2.715447831019599,-0.3648979067802429,0.7555242776870728,-0.5440889000892639,0.2795500159263611,-0.3753664195537567,0.2551640570163727
4.839992046356201,0.03864169120788574,-0.039146482944488525,0.20962393283843994,-0.8550917826549737,-0.5894437722561684,-2.704532175835734,-0.3647525906562805,0.7546311616897583,-0.5454241037368774,0.23417754471302032,-0.3345797657966614,0.258352130651474
4.860035181045532,0.015179097652435303,-0.06668883562088013,0.1655462384223938,-0.8541623694441873,-0.5894385332136712,-2.69523689988497,-0.3651394546031952,0.7540209889411926,-0.546008825302124,0.18349309265613556,-0.37872371077537537,0.18024851381778717
4.879999876022339,-0.08802789449691772,-0.023210525512695312,0.1054772138595581,-0.852435905973934,-0.5932040585843296,-2.689576327278349,-0.36792001128196716,0.7528858184814453,-0.5457085371017456,0.17168687283992767,-0.4005754888057709,0.024113411083817482
4.899988889694214,-0.20626750588417053,0.07053196430206299,0.05970257520675659,-0.8489302984923782,-0.5989663170528057,-2.688177551147898,-0.37254416942596436,0.750573992729187,-0.5457559823989868,0.1674368530511856,-0.25013163685798645,-0.12372433394193649
4.919999837875366,-0.23618736863136292,0.10681110620498657,0.0392645001411438,-0.8447470462865764,-0.6035196000977358,-2.6901081121818096,-0.37680402398109436,0.7478032112121582,-0.5466344952583313,0.09623312950134277,-0.11408431828022003,-0.2314280867576599
4.940026044845581,-0.26910632848739624,0.15746569633483887,-0.02406853437423706,-0.8402835041078318,-0.6117844539299795,-2.697653900237679,-0.38322219252586365,0.7448323369026184,-0.5462286472320557,-0.03862729296088219,-0.13716398179531097,-0.4608064591884613
4.959985971450806,-0.35165321826934814,0.3239787220954895,-0.11728799343109131,-0.8355941503588781,-0.6263381878311517,-2.7140149849773447,-0.39317408204078674,0.7416951656341553,-0.5434175133705139,-0.20746858417987823,-0.04827263951301575,-0.6590352058410645
4.979985952377319,-0.3219572901725769,0.38272416591644287,-0.12371420860290527,-0.8340498488644822,-0.6370651412898404,-2.732677925625348,-0.3996613919734955,0.7406584620475769,-0.5400888323783875,-0.43041232228279114,0.3463965356349945,-0.3980907201766968
5.000005006790161,-0.15789350867271423,0.24624907970428467,-0.12751686573028564,-0.840775142132392,-0.6392545252711251,-2.7474163952011725,-0.39786213636398315,0.7451602816581726,-0.5352028012275696,-0.6835407614707947,0.5176912546157837,-0.008650402538478374
5.020007848739624,-0.14710980653762817,0.11804652214050293,-0.1219477653503418,-0.8530523930631542,-0.6345036581915706,-2.7571909976594458,-0.3898622989654541,0.7532914280891418,-0.5296787619590759,-0.6281939148902893,0.6794255375862122,0.15080370008945465
5.0399980545043945,-0.15191614627838135,-0.016572535037994385,-0.08890283107757568,-0.8618291899210689,-0.6240334816310309,-2.762537741823342,-0.38041725754737854,0.7590347528457642,-0.5283457040786743,-0.2751849889755249,0.7549139261245728,0.06185625120997429
5.059448003768921,-0.13782349228858948,-0.11886084079742432,-0.05259573459625244,-0.864283437647588,-0.6107729555226054,-2.7656180830662933,-0.3723083734512329,0.7606302499771118,-0.5318159461021423,-0.09453636407852173,0.8113366961479187,-0.12204673886299133
5.080018043518066,-0.15568742156028748,-0.14477628469467163,0.004964351654052734,-0.8636113240730096,-0.5995514915509315,-2.7743664051849004,-0.3666056990623474,0.7601937651634216,-0.5363821387290955,-0.20873218774795532,0.9961374402046204,-0.3925594687461853
5.10001015663147,-0.1283184289932251,-0.13890117406845093,0.05610543489456177,-0.8644799096861238,-0.5917436115090571,-2.7929341478946523,-0.3620380461215973,0.7607578039169312,-0.538679838180542,-0.5757883787155151,1.1902021169662476,-0.5590559840202332
5.119984865188599,-0.06531563401222229,-0.1443096399307251,0.09093856811523438,-0.8710517631892245,-0.5887840770241681,-2.822144656383223,-0.3576580286026001,0.7650067210197449,-0.5355796813964844,-1.0075939893722534,1.311887502670288,-0.6461909413337708
5.140021085739136,0.007768154144287109,-0.1387157440185547,0.08105838298797607,-0.8828244018429982,-0.5911271682412733,-2.8594467148564173,-0.3538680374622345,0.7725353837013245,-0.5272253155708313,-1.2743315696716309,1.3002887964248657,-0.6811215281486511
5.159998178482056,0.06705790758132935,-0.12660378217697144,0.06756001710891724,-0.8969129092226069,-0.5982833739522379,-2.9006194936149177,-0.35146650671958923,0.7814041972160339,-0.5156343579292297,-1.306878685951233,1.180568814277649,-0.6823256611824036
5.179986000061035,0.11437642574310303,-0.12859278917312622,0.059478700160980225,-0.9097152307912845,-0.607885363837944,-2.9406920617512124,-0.3506588339805603,0.789328932762146,-0.5039824843406677,-1.1352579593658447,1.0040931701660156,-0.639000654220581
5.199995040893555,0.15375927090644836,-0.11781865358352661,0.04054558277130127,-0.918913109902553,-0.617283089046438,-2.9752162164832674,-0.35116225481033325,0.7949426770210266,-0.49472343921661377,-0.8252655863761902,0.7970259189605713,-0.5590404272079468
5.21999192237854,0.17290738224983215,-0.08862060308456421,0.031011462211608887,-0.923617744078842,-0.6248765878815086,-3.0019251667557016,-0.35271701216697693,0.7977880835533142,-0.489003986120224,-0.518190860748291,0.5715922713279724,-0.49011626839637756
5.240023851394653,0.19082754850387573,-0.0804673433303833,0.03291541337966919,-0.9249264951128973,-0.6321935411258263,-3.0224098810334983,-0.3556682765483856,0.7985765337944031,-0.4855673909187317,-0.33457693457603455,0.33815887570381165,-0.4328227639198303
5.259992837905884,0.20666548609733582,-0.08766001462936401,0.04386064410209656,-0.9249866675243696,-0.6407313758006362,-3.038518978635875,-0.3597721755504608,0.7986127138137817,-0.48247450590133667,-0.2616950273513794,0.09942760318517685,-0.3481633961200714
5.280021905899048,0.21171465516090393,-0.0812537670135498,0.04473420977592468,-0.9252443449682489,-0.6510521447206488,-3.0510648065984154,-0.3646077513694763,0.7987678050994873,-0.4785720705986023,-0.21031855046749115,-0.12302189320325851,-0.24069935083389282
5.299983978271484,0.19972014427185059,-0.062152206897735596,0.028323471546173096,-0.9257051235213639,-0.6624127415455044,-3.05966826905149,-0.369794636964798,0.7990449070930481,-0.4741089642047882,-0.13560892641544342,-0.32555946707725525,-0.15283940732479095
5.319988012313843,0.19904696941375732,-0.040777385234832764,0.00012877583503723145,-0.9254050985575243,-0.6745743827984292,-3.0642393063735027,-0.3756827116012573,0.798864483833313,-0.46976375579833984,-0.0033474015071988106,-0.5273652672767639,-0.08155769109725952
5.339988946914673,0.21590957045555115,-0.030956923961639404,-0.030836641788482666,-0.9239203098247822,-0.6859264711154722,-3.0635538289168998,-0.38174211978912354,0.7979704737663269,-0.46638622879981995,0.1456838995218277,-0.6565789580345154,0.02880023792386055
5.360015153884888,0.24741271138191223,-0.042134881019592285,-0.03192329406738281,-0.9220884856256192,-0.6947035796402626,-3.056944527465981,-0.38675597310066223,0.7968651056289673,-0.4641399383544922,0.2291146069765091,-0.749855101108551,0.16390080749988556
5.380023002624512,0.27093982696533203,-0.04598325490951538,-0.02311331033706665,-0.9212356697004814,-0.7024249218474651,-3.0468778499207225,-0.3907671868801117,0.7963495850563049,-0.46165844798088074,0.22380316257476807,-0.8297464847564697,0.24221080541610718
5.399996042251587,0.2999371290206909,-0.04507333040237427,-0.03515362739562988,-0.921396129485172,-0.7110779067024637,-3.035426760083567,-0.3946637213230133,0.7964466214179993,-0.45816296339035034,0.21829845011234283,-0.9732487797737122,0.2961091101169586
5.419987916946411,0.3157155513763428,0.0032573342323303223,-0.08250421285629272,-0.9217899651163136,-0.7211001953725112,-3.021587182823219,-0.39902856945991516,0.796684741973877,-0.4539490044116974,0.3255343735218048,-1.128556489944458,0.36831140518188477
5.4399988651275635,0.3043444752693176,0.06580579280853271,-0.13185787200927734,-0.9211798055858024,-0.7305016494890381,-3.0033034299384274,-0.4036029577255249,0.7963157892227173,-0.45053958892822266,0.462917298078537,-1.2806165218353271,0.40816494822502136
5.459985017776489,0.26797202229499817,0.15780651569366455,-0.19854766130447388,-0.9191050334752001,-0.739287717879617,-2.980497650347895,-0.40865811705589294,0.795059084892273,-0.44819605350494385,0.5847721099853516,-1.3961691856384277,0.510625958442688
5.479984998703003,0.15302494168281555,0.32800328731536865,-0.232685387134552,-0.9188782244518918,-0.7441267220453983,-2.9527652231881296,-0.41094428300857544,0.7949215173721313,-0.4463459849357605,0.5615592002868652,-1.2892905473709106,0.7006036639213562
5.499293088912964,0.05053514242172241,0.4124186038970947,-0.22892847657203674,-0.9215930776762873,-0.7461228958907276,-2.9247764092796755,-0.4103679358959198,0.7965657114982605,-0.44393831491470337,0.3594847321510315,-1.1878383159637451,0.7379261255264282
5.520033121109009,0.054212361574172974,0.3168903589248657,-0.21583908796310425,-0.9301102316947258,-0.7544203535815351,-2.9014716272347028,-0.40937602519989014,0.8016858100891113,-0.43555861711502075,-0.004223381169140339,-1.5569769144058228,0.802869439125061
5.539990186691284,-0.003651440143585205,0.3880377411842346,-0.17777591943740845,-0.9381766138938776,-0.7652765665153133,-2.8804862183034032,-0.4095871150493622,0.8064813613891602,-0.4264110028743744,0.5289608240127563,-1.0758100748062134,0.6644861102104187
5.559287071228027,-0.04324427247047424,0.4057058095932007,-0.055751681327819824,-0.9373281517922218,-0.7562792103861241,-2.847584181165203,-0.40620341897010803,0.8059793710708618,-0.4305764436721802,0.8062474727630615,-0.7809063792228699,0.7045481204986572
5.580049991607666,-0.0667366087436676,0.17277878522872925,0.1059141755104065,-0.9357858837631895,-0.7453559666839371,-2.816113490273043,-0.4023186266422272,0.8050655126571655,-0.4359007179737091,0.4568760097026825,-0.8242090940475464,0.5519207119941711
5.599987030029297,-0.14627179503440857,0.06352633237838745,0.15128684043884277,-0.9383877831036421,-0.7488314726783183,-2.7941254344647537,-0.4024038016796112,0.8066061735153198,-0.4329640567302704,0.24990695714950562,-1.1631989479064941,0.5549901723861694
5.620020151138306,-0.18473294377326965,0.07279783487319946,0.18772923946380615,-0.9422801448997873,-0.759323855604381,-2.777544128432215,-0.40475988388061523,0.808900773525238,-0.42643770575523376,0.1816018968820572,-1.2659509181976318,0.43882596492767334
5.63999605178833,-0.18552783131599426,0.023880720138549805,0.2055734395980835,-0.945813938691274,-0.7719503378744711,-2.760381810675178,-0.408115416765213,0.8109734058380127,-0.4192422330379486,0.28024572134017944,-1.396554946899414,0.5161622762680054
5.659986972808838,-0.24434548616409302,-0.03989440202713013,0.20570695400238037,-0.9465071275780238,-0.7802918557954749,-2.736362375076179,-0.41120263934135437,0.8113787770271301,-0.4154236912727356,0.7193085551261902,-1.3666634559631348,0.516169011592865
5.680047988891602,-0.2539854347705841,-0.046009957790374756,0.19068989157676697,-0.939901160887508,-0.7763943365162774,-2.6995566421632553,-0.4133272171020508,0.8074998259544373,-0.4208381175994873,1.247566819190979,-1.2393248081207275,0.5482986569404602
5.699985027313232,-0.19788962602615356,-0.09177267551422119,0.2252173125743866,-0.9282014518608314,-0.763778066940266,-2.6547302901728123,-0.41449135541915894,0.8005434274673462,-0.43281301856040955,1.3623584508895874,-1.1080223321914673,0.5363860726356506
5.719990015029907,-0.1576780080795288,-0.17207306623458862,0.2766258716583252,-0.9174461895242666,-0.7520472148858011,-2.615177686735585,-0.4152437746524811,0.7940518856048584,-0.4439079463481903,1.014391541481018,-0.8814083337783813,0.4536597430706024
5.739392995834351,-0.1424543559551239,-0.17407554388046265,0.262248694896698,-0.9117497162307433,-0.745944460626015,-2.5881293788006077,-0.4155901372432709,0.7905763983726501,-0.449748694896698,0.5616592168807983,-0.644175112247467,0.3776123821735382
5.760059118270874,-0.1303575336933136,-0.1503434181213379,0.2403518557548523,-0.9104722738148268,-0.7422208720916744,-2.5707967138640404,-0.4145949184894562,0.7897934913635254,-0.4520370066165924,0.2734804153442383,-0.3710102140903473,0.31459295749664307
5.7800328731536865,-0.08811408281326294,-0.1604354977607727,0.23028039932250977,-0.9118764956967574,-0.7391351259482593,-2.560320486785392,-0.41245055198669434,0.7906540632247925,-0.4524940848350525,0.06696254014968872,-0.1602090299129486,0.2604520618915558
5.799987077713013,-0.05279824137687683,-0.15566128492355347,0.2062060832977295,-0.9150760231467036,-0.7369798115425856,-2.5549602034824765,-0.40977200865745544,0.792608916759491,-0.4515063166618347,-0.06130906939506531,-0.05997661501169205,0.19965824484825134
5.819993019104004,-0.05360892415046692,-0.11039167642593384,0.17000269889831543,-0.9184923516337582,-0.7352594629119933,-2.5523072933665456,-0.40717601776123047,0.7946873307228088,-0.45019978284835815,-0.07172396779060364,0.0178280808031559,0.14786772429943085
5.839985132217407,-0.04512467980384827,-0.08066505193710327,0.15221810340881348,-0.9209557087805154,-0.7331248466295293,-2.5506956913866077,-0.404902845621109,0.796180248260498,-0.4496118724346161,-0.05337335169315338,0.0595526248216629,0.09157402068376541
5.8600029945373535,-0.02479785680770874,-0.08093231916427612,0.14870938658714294,-0.9229382782165902,-0.7315749679316174,-2.550827748777871,-0.40315017104148865,0.7973782420158386,-0.44906336069107056,-0.1127452477812767,0.0962945744395256,0.038938287645578384
5.879985094070435,0.0094643235206604,-0.0795220136642456,0.12437218427658081,-0.9255617024125431,-0.7319869647949971,-2.553677752209439,-0.4019356966018677,0.7989587187767029,-0.4473396837711334,-0.1838327795267105,0.09352666139602661,0.018054183572530746
5.899994134902954,0.04752069711685181,-0.08016353845596313,0.0988612174987793,-0.9287921075068248,-0.733469492352031,-2.5576354580959277,-0.4008685052394867,0.8008972406387329,-0.4448237121105194,-0.2080724537372589,0.07696854323148727,0.021381305530667305
5.9200119972229,0.08023408055305481,-0.0873715877532959,0.07134577631950378,-0.9317381427826656,-0.7346250154543035,-2.5608316224638594,-0.3997988998889923,0.8026578426361084,-0.4426073133945465,-0.126250758767128,0.06179997697472572,0.029213491827249527
5.9400529861450195,0.09217172861099243,-0.09262388944625854,0.04022568464279175,-0.9323835450465143,-0.7345597021708918,-2.5619125137140917,-0.3994227647781372,0.8030426502227783,-0.4422489404678345,0.04846044257283211,0.04057147726416588,-0.040954750031232834
5.959984064102173,0.08725225925445557,-0.07828354835510254,0.013426929712295532,-0.929755642283579,-0.7328761303852473,-2.5601088442772406,-0.40008798241615295,0.80147385597229,-0.44448763132095337,0.20199130475521088,-0.05021337419748306,-0.04772524535655975
5.979995965957642,0.043491631746292114,0.0212516188621521,-0.0035586953163146973,-0.9251482455226777,-0.7321078194828441,-2.5559756872667307,-0.4022105634212494,0.7987099885940552,-0.447536826133728,0.35901889204978943,-0.17597468197345734,-0.08665049821138382
6.0000159740448,-0.10767680406570435,0.12327182292938232,-0.09280478954315186,-0.9163243468715138,-0.729223793858478,-2.549023337817402,-0.40559840202331543,0.793369472026825,-0.45393288135528564,0.5735487937927246,-0.09150408953428268,-0.20358283817768097
6.020005941390991,-0.19067272543907166,0.18966281414031982,-0.12519699335098267,-0.9032012455960653,-0.7239957760591044,-2.5414040158235367,-0.4100811183452606,0.785312831401825,-0.46380749344825745,0.6834830045700073,0.035749997943639755,-0.2932080626487732
6.03999400138855,-0.2037551999092102,0.2173759937286377,-0.1327858567237854,-0.8897545964149013,-0.7162797596632224,-2.5346539380263757,-0.41338658332824707,0.7769172787666321,-0.4748801290988922,0.5940377116203308,0.20597098767757416,-0.296760618686676
6.059115171432495,-0.277500182390213,0.2203359603881836,-0.14664149284362793,-0.8774396442734793,-0.7094757765630881,-2.532956775650605,-0.41634753346443176,0.7691050171852112,-0.4849044978618622,0.36904531717300415,0.3335694372653961,-0.4452165961265564
6.0799970626831055,-0.40991684794425964,0.23536282777786255,-0.10946297645568848,-0.8680192412459654,-0.7095953328806873,-2.5439293009357358,-0.42110732197761536,0.7630501985549927,-0.49032944440841675,-0.12587204575538635,0.518260657787323,-0.7173659205436707
6.099993944168091,-0.3416648507118225,0.20224601030349731,-0.11242702603340149,-0.8651755783346756,-0.7156412608598671,-2.568542511110917,-0.4254860281944275,0.7612091302871704,-0.48941007256507874,-0.7048121690750122,0.7696970105171204,-0.5857526659965515
6.12001895904541,-0.21348589658737183,0.12364226579666138,-0.1639043688774109,-0.872747546546118,-0.7171826819668404,-2.5942359037508154,-0.42243942618370056,0.7660977244377136,-0.4843957722187042,-0.8203580975532532,1.060370683670044,-0.15807753801345825
6.139986038208008,-0.24153029918670654,-0.0047806501388549805,-0.10796427726745605,-0.8825944688320135,-0.7028748319289104,-2.607619545690257,-0.41056936979293823,0.7723893523216248,-0.48461076617240906,-0.4871439039707184,1.3850175142288208,0.08206317573785782
6.15998911857605,-0.2878786623477936,-0.10779756307601929,0.024699628353118896,-0.8878561122163909,-0.6775091514590134,-2.6135904413878053,-0.3955930471420288,0.7757205963134766,-0.491694837808609,-0.17005616426467896,1.6261814832687378,-0.08835611492395401
6.179998159408569,-0.29423511028289795,-0.2233515977859497,0.1339634656906128,-0.8866226870862639,-0.6495646216676385,-2.6224940496849296,-0.3822786211967468,0.774941623210907,-0.503317654132843,-0.17175336182117462,1.8700034618377686,-0.45102980732917786
6.2000579833984375,-0.1993568241596222,-0.30072021484375,0.22303497791290283,-0.886150338776229,-0.6305648288749715,-2.6475724514850656,-0.3728630542755127,0.7746429443359375,-0.5107851624488831,-0.826760470867157,1.9414154291152954,-0.8410908579826355
6.219990015029907,-0.09760642051696777,-0.27241814136505127,0.2352272868156433,-0.8944491846563266,-0.6296764591701984,-2.695034688403545,-0.3686106204986572,0.7798644304275513,-0.505902886390686,-1.5226879119873047,1.8305853605270386,-1.052765965461731
6.239995002746582,-0.07850125432014465,-0.12248259782791138,0.11191666126251221,-0.9078674198983736,-0.6400878207676324,-2.7528838291001163,-0.36757421493530273,0.7881931066513062,-0.4935999810695648,-1.6034210920333862,1.6977261304855347,-1.0457665920257568
6.260035991668701,-0.05664873123168945,0.005182385444641113,0.01632872223854065,-0.9176566260770077,-0.6510367826355653,-2.8082758998902664,-0.36826276779174805,0.7941797971725464,-0.483384907245636,-1.1703808307647705,1.5841375589370728,-1.0568466186523438
6.279987096786499,0.02600434422492981,0.05123472213745117,-0.002693772315979004,-0.9202956099132144,-0.6564350691309742,-2.852677495839249,-0.3695865273475647,0.7957806587219238,-0.4797280430793762,-0.6950410008430481,1.4137134552001953,-0.9131931066513062
6.2999889850616455,0.08692976832389832,0.01954972743988037,5.677342414855957e-05,-0.9185214037610897,-0.6563520049309259,-2.8852196384618947,-0.3704076111316681,0.7947049736976624,-0.4808764159679413,-0.446974515914917,1.1812779903411865,-0.772102952003479
6.320016145706177,0.116961270570755,-0.021913588047027588,0.013674259185791016,-0.9169730876032788,-0.6573961619825405,-2.9128389989681773,-0.3716610074043274,0.7937642335891724,-0.48146292567253113,-0.4723047912120819,0.9221543669700623,-0.6529644131660461
6.34001088142395,0.12687382102012634,-0.04586285352706909,-0.0033710598945617676,-0.9171371199742793,-0.660851151132174,-2.937599685892588,-0.3732422888278961,0.7938639521598816,-0.48007312417030334,-0.44643235206604004,0.6992645263671875,-0.5301014184951782
6.359987020492554,0.09763526916503906,-0.04330199956893921,-0.030960828065872192,-0.917568015295504,-0.6645004257594683,-2.9574061298925485,-0.37478071451187134,0.7941259145736694,-0.47843849658966064,-0.3225427269935608,0.5311344265937805,-0.40518760681152344
6.379986047744751,0.040253788232803345,-0.06200671195983887,-0.03559049963951111,-0.917287723819944,-0.666812347446963,-2.9726456858589434,-0.37602347135543823,0.7939555644989014,-0.4777456223964691,-0.23813824355602264,0.4642016589641571,-0.34755346179008484
6.40003514289856,0.020264118909835815,-0.11776936054229736,-0.02788400650024414,-0.9164465326188687,-0.6684051227053722,-2.9855997789292137,-0.3771977722644806,0.7934438586235046,-0.47767019271850586,-0.20824120938777924,0.4145403802394867,-0.3307540714740753
6.419986009597778,0.02815040946006775,-0.16191810369491577,0.0003458261489868164,-0.9161540585395604,-0.6709433268059166,-2.999212605726152,-0.37855327129364014,0.7932658195495605,-0.47689300775527954,-0.29474878311157227,0.41073843836784363,-0.34191688895225525
6.439996957778931,0.0815313458442688,-0.19187045097351074,-0.008864879608154297,-0.916579128184424,-0.6746982228229109,-3.014106767364883,-0.3801306486129761,0.7935245633125305,-0.4752049148082733,-0.2861309349536896,0.3621121346950531,-0.3279822766780853
6.460057020187378,0.12737739086151123,-0.1915292739868164,-0.04056143760681152,-0.9166704608315593,-0.6792839556158359,-3.027115900541811,-0.3822602331638336,0.7935801148414612,-0.4734003245830536,-0.20347018539905548,0.23389388620853424,-0.29877153038978577
6.480061054229736,0.13793453574180603,-0.17388373613357544,-0.06884324550628662,-0.9148064631213715,-0.6830521359600377,-3.0369707785310616,-0.3849743902683258,0.7924445271492004,-0.4731031358242035,-0.014045080170035362,0.16035255789756775,-0.27806296944618225
6.5000059604644775,0.16720837354660034,-0.1394675374031067,-0.07720297574996948,-0.910901267171232,-0.6850974349576536,-3.042519473801104,-0.3878962993621826,0.790056586265564,-0.47470739483833313,0.04791730269789696,0.08777441084384918,-0.2400110363960266
6.51995587348938,0.19909363985061646,-0.1345202922821045,-0.055798739194869995,-0.9095527429983628,-0.6903541965819161,-3.0495384201993097,-0.39106449484825134,0.789229154586792,-0.47348281741142273,-0.2717590630054474,-0.047198232263326645,-0.20432063937187195
6.540022134780884,0.22578027844429016,-0.1320648193359375,-0.06155094504356384,-0.9143151155434999,-0.7053993118969503,-3.0643075300988354,-0.39570215344429016,0.792144775390625,-0.4646788537502289,-0.6691365242004395,-0.2583542466163635,-0.1758788377046585
6.559444189071655,0.2651067078113556,-0.062133967876434326,-0.12109619379043579,-0.9239765406087322,-0.7292445990490595,-3.086069140909013,-0.401550829410553,0.7980043888092041,-0.4493841528892517,-0.9169378280639648,-0.41776466369628906,-0.21199502050876617
6.58008599281311,0.32061561942100525,-0.004101991653442383,-0.25304919481277466,-0.9364307088744093,-0.7689345274806962,-3.1219171938925383,-0.4121226370334625,0.8054478168487549,-0.42592111229896545,-1.7007747888565063,-0.648482084274292,-0.6520246863365173
6.600045919418335,0.3316592276096344,0.08803880214691162,-0.4119063913822174,-0.9528199283439618,-0.8395660452166566,3.093020959138413,-0.4312686324119568,0.8150525689125061,-0.3869064152240753,-1.7032133340835571,-0.9635589718818665,-0.6213530898094177
6.620153188705444,0.20450878143310547,0.39914262294769287,-0.6036628484725952,-0.9638483735814992,-0.8805875863958829,3.0765150956988987,-0.43981456756591797,0.8213925957679749,-0.3631492257118225,0.007416456937789917,-1.4560781717300415,0.8246012926101685
6.640123128890991,-0.046739935874938965,0.7376120090484619,-0.38662928342819214,-0.968574993845809,-0.875765195843701,3.116801380031372,-0.4350716173648834,0.8240793347358704,-0.36277562379837036,1.607089638710022,-1.3069251775741577,0.8137028813362122
6.660072088241577,-0.11447310447692871,0.8949973583221436,-0.2413058876991272,-0.9496710166139642,-0.8295779618936052,-3.089628244996768,-0.42927390336990356,0.8132240772247314,-0.3929256200790405,2.6721279621124268,-0.5027743577957153,0.7225340604782104
6.680135011672974,-0.0805826485157013,0.3962538242340088,-0.038315773010253906,-0.9196868466067949,-0.7667400483102845,-3.0050143449589415,-0.4204855263233185,0.7954118847846985,-0.4364766776561737,2.522678852081299,-0.2287048101425171,0.7815295457839966
6.699979066848755,0.022113561630249023,-0.035709500312805176,0.23955285549163818,-0.9089898545991878,-0.733245805759065,-2.950632730568984,-0.4113042950630188,0.78888338804245,-0.4566091001033783,0.5906909704208374,-0.6146637797355652,0.800157368183136
6.7199790477752686,0.10640504956245422,-0.17716270685195923,0.28241315484046936,-0.9159552999363948,-0.7322276536554605,-2.9315007657941066,-0.40715575218200684,0.7931447625160217,-0.4529300928115845,-0.10071022808551788,-0.9110538363456726,0.5815282464027405
6.748450040817261,0.014002978801727295,0.2233451008796692,0.13690370321273804,-0.9125385262155776,-0.7432422191366039,-2.882642425331848,-0.41395115852355957,0.7910591959953308,-0.45041072368621826,1.4284790754318237,-1.3875792026519775,0.38948020339012146
6.767531156539917,-0.055266112089157104,0.24007177352905273,0.13669872283935547,-0.893607777319036,-0.7341900619844627,-2.8360258127099076,-0.4198163151741028,0.779337465763092,-0.46517467498779297,1.7951923608779907,-1.3755263090133667,0.4984577000141144
6.788294076919556,-0.08456721901893616,0.21057569980621338,0.20956027507781982,-0.8756665332340663,-0.721053862810863,-2.7854068663881835,-0.4228334128856659,0.7679705619812012,-0.4810751676559448,1.6425201892852783,-1.1767021417617798,0.7114177942276001
6.808121919631958,-0.09886312484741211,0.16989946365356445,0.26078033447265625,-0.8636914237221942,-0.7042656157563619,-2.737051123001261,-0.4206223785877228,0.7602458000183105,-0.49507901072502136,1.2986681461334229,-0.833109974861145,0.8343897461891174
6.82829213142395,-0.0698624849319458,0.06671243906021118,0.29571348428726196,-0.857383660282834,-0.6853448770216125,-2.695289351909467,-0.4142073690891266,0.756132960319519,-0.5066509246826172,0.9249094128608704,-0.47966107726097107,0.8512324094772339
6.848183870315552,-0.014898240566253662,-0.05853515863418579,0.3268809914588928,-0.856177352209866,-0.6668764179965686,-2.6613961001330213,-0.40534406900405884,0.7553430199623108,-0.5149301886558533,0.5961915850639343,-0.25019919872283936,0.8021660447120667
6.868129014968872,0.01606312394142151,-0.14748185873031616,0.311670184135437,-0.8575105771438096,-0.649335857840788,-2.633237976115218,-0.3956407904624939,0.7562160491943359,-0.5211580991744995,0.45616838335990906,-0.15309679508209229,0.7356287240982056
6.885914087295532,0.015646427869796753,-0.16972249746322632,0.29393553733825684,-0.8581535901139876,-0.6332584095489939,-2.608026914438702,-0.38692331314086914,0.7566366195678711,-0.5270593166351318,0.5152864456176758,-0.1502678096294403,0.6149792075157166
6.907961130142212,-0.01922053098678589,-0.14970272779464722,0.2785704731941223,-0.8543110116936944,-0.6173935564962397,-2.583525962750841,-0.3801935315132141,0.7541186213493347,-0.5354978442192078,0.7493414282798767,-0.09814433008432388,0.46381324529647827
6.92720103263855,-0.036580801010131836,-0.13374662399291992,0.2751805782318115,-0.8449813270760369,-0.6007004692353409,-2.559556883371081,-0.37516242265701294,0.7479587197303772,-0.5475499629974365,0.8963127136230469,-0.044490065425634384,0.2970510423183441
6.939067125320435,-0.036580801010131836,-0.13374662399291992,0.2751805782318115,-0.8449813270760369,-0.6007004692353409,-2.559556883371081,-0.37516242265701294,0.7479587197303772,-0.5475499629974365,0.8963127136230469,-0.044490065425634384,0.2970510423183441
6.967756986618042,-0.02715960144996643,-0.09902763366699219,0.2550753951072693,-0.821309379400869,-0.5757830594613278,-2.523241126176562,-0.37094220519065857,0.7320384979248047,-0.5714205503463745,0.6544255614280701,-0.0922510176897049,0.11237099021673203
6.986662149429321,-0.1277238428592682,-0.061234116554260254,0.2569200396537781,-0.8137507958610118,-0.569641191121364,-2.5139082953332617,-0.3703993558883667,0.726868212223053,-0.5783311128616333,0.3211963176727295,0.0523889884352684,-0.002061046427115798
7.006617069244385,-0.1462225317955017,-0.026983320713043213,0.26224708557128906,-0.8102101709819527,-0.5664600287125378,-2.5128313410980057,-0.36993658542633057,0.7244320511817932,-0.5816745162010193,0.03355691209435463,0.17347387969493866,-0.10698320716619492
7.026916027069092,-0.07816693186759949,-0.030827879905700684,0.24502944946289062,-0.8100764770061273,-0.5659536192153566,-2.5165497440051263,-0.3696938455104828,0.7243399024009705,-0.5819434523582458,-0.13616350293159485,0.12221360951662064,-0.11066235601902008
7.048024892807007,-0.049597352743148804,-0.02457737922668457,0.17832636833190918,-0.8104387231209242,-0.5680943642956338,-2.5211070018390855,-0.3707975745201111,0.7245895862579346,-0.5809294581413269,-0.025405019521713257,0.007023813668638468,-0.14707951247692108
7.067440986633301,-0.058306604623794556,0.018764138221740723,0.11796021461486816,-0.8064963982191309,-0.570861492109247,-2.5240236831533838,-0.37394440174102783,0.721867024898529,-0.5823004245758057,0.2533276379108429,-0.07087409496307373,-0.23943978548049927
7.087491035461426,-0.0440467894077301,0.027673184871673584,0.09822535514831543,-0.7976104081479737,-0.573989491120593,-2.525047035386071,-0.3792320191860199,0.7156891822814941,-0.5864912271499634,0.422906756401062,-0.16053101420402527,-0.2953484058380127
7.106503963470459,-0.04997125267982483,0.032147884368896484,0.07478916645050049,-0.7876493902464454,-0.5783298304239726,-2.5261274720326634,-0.38565197587013245,0.7086968421936035,-0.5907804369926453,0.336777001619339,-0.19157086312770844,-0.3206619918346405
7.127429962158203,-0.09004056453704834,0.05010032653808594,0.04674530029296875,-0.7800108822505322,-0.5851589746066186,-2.5308476966441966,-0.39265602827072144,0.7032871842384338,-0.5926284193992615,0.11070036888122559,-0.1487903743982315,-0.38115358352661133
7.1469340324401855,-0.13298508524894714,0.09415513277053833,0.013141512870788574,-0.7757020269396442,-0.5937502205913386,-2.540565864249272,-0.39942461252212524,0.7002174258232117,-0.5917394757270813,-0.1291513741016388,-0.013498683460056782,-0.4402845501899719
7.1668970584869385,-0.1386929154396057,0.12672442197799683,-0.002973318099975586,-0.7738771637885895,-0.602142798534479,-2.5544826465691584,-0.4050998389720917,0.6989134550094604,-0.5894185900688171,-0.24511049687862396,0.14395716786384583,-0.4774134159088135
7.186116933822632,-0.061960428953170776,0.1269233226776123,-0.03238797187805176,-0.771702552730754,-0.6084179743157517,-2.568629797894905,-0.4096582531929016,0.6973565220832825,-0.5881106853485107,-0.13442417979240417,0.17679233849048615,-0.47294044494628906
7.206035852432251,-0.05630069971084595,0.17451131343841553,-0.1060553789138794,-0.7675651926542308,-0.6148689357642195,-2.581123633902222,-0.41510435938835144,0.6943852305412292,-0.5878074765205383,-0.03144586831331253,0.046958889812231064,-0.5239229798316956
7.227146863937378,-0.150228351354599,0.26946449279785156,-0.19292885065078735,-0.7598363151404183,-0.6233016583903415,-2.5937107926397944,-0.42316654324531555,0.6888027787208557,-0.5886263251304626,0.14634716510772705,0.004487419035285711,-0.6542185544967651
7.247004985809326,-0.20150423049926758,0.3758566379547119,-0.24270516633987427,-0.7480619729220789,-0.6289858408390049,-2.603956516538722,-0.4312472641468048,0.6802194714546204,-0.5927287340164185,0.33174964785575867,0.1586732566356659,-0.60347980260849
7.264863014221191,-0.19602641463279724,0.3823544979095459,-0.2197718620300293,-0.7378507692158909,-0.6272697084907819,-2.610747016488194,-0.43428370356559753,0.6726992130279541,-0.5990605354309082,0.15463529527187347,0.5022838115692139,-0.3966677188873291
7.288254976272583,-0.11627298593521118,0.2158505916595459,-0.09527039527893066,-0.7363669630016743,-0.6184294504359898,-2.6181916426415492,-0.4295492172241211,0.6716005802154541,-0.6036888957023621,-0.39907926321029663,0.8604733943939209,-0.14686702191829681
7.306764841079712,0.01055002212524414,0.012878000736236572,0.015602052211761475,-0.7467963190504746,-0.6078313292415941,-2.629864872594014,-0.41910409927368164,0.6792911887168884,-0.6024244427680969,-0.9124709963798523,0.9579498767852783,0.03435780107975006
7.326009035110474,0.05980673432350159,-0.08500540256500244,0.01782357692718506,-0.764784524441519,-0.5993248109002184,-2.64365442651023,-0.407005250453949,0.6923815608024597,-0.5957807302474976,-1.050245761871338,0.8292937874794006,0.13308611512184143
7.345980882644653,0.022507190704345703,-0.08858329057693481,-0.0323675274848938,-0.7796196324440823,-0.5915288967875091,-2.6539915672760848,-0.396576464176178,0.7030089497566223,-0.5903436541557312,-0.4938236176967621,0.6975234150886536,0.07748834043741226
7.3664610385894775,-0.02733510732650757,-0.038238704204559326,-0.052529096603393555,-0.7813293242831767,-0.5778559662866604,-2.6537948399614852,-0.3878107964992523,0.7042238116264343,-0.594702959060669,0.33484166860580444,0.6715379953384399,0.027675719931721687
7.385890960693359,-0.032243967056274414,-0.01814335584640503,-0.007102906703948975,-0.771896065715932,-0.5594240210977333,-2.6453551398358583,-0.380292683839798,0.6974952220916748,-0.6073532700538635,0.716657280921936,0.5844733119010925,-0.027717968448996544
7.405498027801514,-0.038812875747680664,-0.015478014945983887,0.02813863754272461,-0.7588683380058103,-0.5411571379289295,-2.6349089082459867,-0.3737848103046417,0.6881007552146912,-0.6219343543052673,0.7256628274917603,0.5367562174797058,0.00491653336212039
7.426454067230225,-0.07315143942832947,-0.0070937275886535645,0.03979313373565674,-0.7487082147504901,-0.5242515287188849,-2.6259214669620543,-0.3666984736919403,0.6806930303573608,-0.6341840028762817,0.48443421721458435,0.5511371493339539,0.046002935618162155
7.444303035736084,-0.07514554262161255,-0.013105928897857666,0.0431901216506958,-0.7433064445699991,-0.5081429266509951,-2.619082950251414,-0.35821935534477234,0.6767259240150452,-0.6432115435600281,0.26194754242897034,0.6039848327636719,0.1426384598016739
7.4644739627838135,-0.051072150468826294,-0.010220587253570557,0.04220205545425415,-0.7412752582796364,-0.4907958486303568,-2.611149476887121,-0.3476552665233612,0.6752290725708008,-0.6505393385887146,0.2348106950521469,0.5770573019981384,0.2620360255241394
7.486429929733276,-0.04037269949913025,0.0026393532752990723,0.021483778953552246,-0.7385111912125151,-0.4725557339904506,-2.600171194927352,-0.33658045530319214,0.6731877326965332,-0.6584314107894897,0.4198525846004486,0.518132209777832,0.33816125988960266
7.50587010383606,-0.0454542338848114,-0.011495769023895264,0.01784515380859375,-0.7323454335746894,-0.4527796094191427,-2.584680405751822,-0.3253038823604584,0.6686155796051025,-0.6686782836914062,0.6501060724258423,0.4175311028957367,0.41416576504707336
7.525368928909302,-0.04789763689041138,-0.0312269926071167,0.03145134449005127,-0.7227038393150165,-0.4326516230948902,-2.5652747843078947,-0.314468115568161,0.6614150404930115,-0.6809111833572388,0.8332550525665283,0.3180757761001587,0.48876282572746277
7.5460898876190186,-0.07438239455223083,-0.022997140884399414,0.05393075942993164,-0.7110580484375687,-0.4128216503058417,-2.543494151644922,-0.30397453904151917,0.6526358127593994,-0.6940216422080994,0.8779276609420776,0.2481154352426529,0.5282353758811951
7.564849138259888,-0.0991896390914917,-0.0215761661529541,0.06642025709152222,-0.6998715738954715,-0.3944819981499525,-2.521975323674096,-0.2939836084842682,0.6441194415092468,-0.7061754465103149,0.787122368812561,0.20592591166496277,0.5502210855484009
7.58487606048584,-0.09773099422454834,-0.02903127670288086,0.08464652299880981,-0.6909796202246825,-0.3772366674781441,-2.5010706899772814,-0.28386086225509644,0.6372923851013184,-0.7164366841316223,0.6503440141677856,0.18633969128131866,0.6154746413230896
7.6057469844818115,-0.08341917395591736,-0.04539966583251953,0.09654343128204346,-0.6844573750114945,-0.36038688856959183,-2.47984506052305,-0.2732093036174774,0.6322526931762695,-0.7249918580055237,0.5746183395385742,0.1396869719028473,0.6863592267036438
7.6246631145477295,-0.07953622937202454,-0.046492159366607666,0.09205156564712524,-0.6790844648249862,-0.3440748927544698,-2.4574098007105274,-0.26248952746391296,0.6280808448791504,-0.732539176940918,0.5559732913970947,0.08775079250335693,0.758742094039917
7.64640998840332,-0.08731579780578613,-0.051769912242889404,0.09568023681640625,-0.6730767918025999,-0.32749913183329504,-2.433644489086454,-0.25152090191841125,0.6233947277069092,-0.740348756313324,0.6326457262039185,0.057265058159828186,0.800378143787384
7.6649720668792725,-0.05964323878288269,-0.048728227615356445,0.11838710308074951,-0.66532708724399,-0.31177163302476296,-2.408243570084663,-0.2413211315870285,0.617316484451294,-0.7487886548042297,0.7424082159996033,-0.09060429781675339,0.8531137108802795
7.6874001026153564,-0.03921616077423096,-0.0021079182624816895,0.06701904535293579,-0.6550439501869386,-0.3003287569601138,-2.3811606764904174,-0.23460282385349274,0.6091940999031067,-0.7575249671936035,0.9003795981407166,-0.41092416644096375,0.8641691207885742
7.706011056900024,-0.12254856526851654,0.06871610879898071,-0.01108694076538086,-0.6407196979917236,-0.2927683168845767,-2.353758326865851,-0.23136383295059204,0.5977725386619568,-0.7675538063049316,1.1068634986877441,-0.4525766372680664,0.8155689239501953
7.724881887435913,-0.14658629894256592,0.09137499332427979,-0.007967889308929443,-0.6230955594360049,-0.2857061629688238,-2.326807716851439,-0.22887147963047028,0.5835517644882202,-0.7791567444801331,1.1667059659957886,-0.4271469712257385,0.7824044823646545
7.745406866073608,-0.1167593002319336,0.05408376455307007,0.04257833957672119,-0.6068782357026936,-0.27827830475725945,-2.300471671075569,-0.22564797103405,0.5703059434890747,-0.7898317575454712,0.9495363235473633,-0.3419007956981659,0.8471889495849609
7.764405965805054,-0.11380936205387115,0.030628561973571777,0.07599568367004395,-0.5957966441229396,-0.2701098192711226,-2.2752315540339554,-0.22086167335510254,0.5611683130264282,-0.7976906299591064,0.71980881690979,-0.2573772370815277,0.8463082313537598
7.784330129623413,-0.09991011023521423,0.04560428857803345,0.0830456018447876,-0.5872407584184395,-0.2606974170267344,-2.2514515935999873,-0.21457354724407196,0.5540661215782166,-0.8043438196182251,0.6370426416397095,-0.13813453912734985,0.8443022966384888
7.8041510581970215,-0.0632939487695694,0.04670172929763794,0.0605393648147583,-0.579654553203335,-0.2503502731994973,-2.2284493312659652,-0.207274928689003,0.5477349758148193,-0.8105698823928833,0.6100472211837769,-0.10377567261457443,0.8187970519065857
7.825371980667114,-0.04114338755607605,0.03330439329147339,0.0367773175239563,-0.5711428679721464,-0.24052368461168577,-2.2062558972702186,-0.20040325820446014,0.5405938625335693,-0.817065954208374,0.6683803200721741,-0.13147486746311188,0.7927229404449463
7.84532904624939,-0.030399397015571594,0.05692005157470703,0.029319167137145996,-0.5615292326866254,-0.2317459758266661,-2.184541317982635,-0.1944083571434021,0.5324812531471252,-0.823813796043396,0.7188952565193176,-0.14996623992919922,0.7702241539955139
7.864125967025757,-0.042011454701423645,0.07675278186798096,0.013657808303833008,-0.5506283622332615,-0.22344554950552203,-2.1630973416525334,-0.18883879482746124,0.523222804069519,-0.831010103225708,0.7462121844291687,-0.15433470904827118,0.7629916071891785
7.884994983673096,-0.06186212599277496,0.09011012315750122,0.0018015503883361816,-0.5390952278772875,-0.21494316156815918,-2.142188188321484,-0.18304146826267242,0.5133597254753113,-0.8384256958961487,0.773171603679657,-0.06343499571084976,0.7474551796913147
7.904839992523193,-0.06852807104587555,0.07908755540847778,0.022971272468566895,-0.5277428374209079,-0.20487485907361613,-2.1215424616886884,-0.17576517164707184,0.5035845637321472,-0.8458777666091919,0.7097986936569214,0.008760550059378147,0.7561618685722351
7.925008058547974,-0.058129653334617615,0.05503624677658081,0.04665708541870117,-0.5171821380692183,-0.1944188359242408,-2.1015788376855187,-0.16792933642864227,0.4944327771663666,-0.8528399467468262,0.6900708675384521,0.036013033241033554,0.7324477434158325
7.942814111709595,-0.05135956406593323,0.05339589715003967,0.05396240949630737,-0.5060785778126915,-0.18420253704101985,-2.082173864795203,-0.16020357608795166,0.4847511053085327,-0.8598553538322449,0.7411148548126221,0.04253005236387253,0.7223721146583557
7.961802959442139,-0.051688164472579956,0.04623836278915405,0.041828155517578125,-0.4930597748232289,-0.17419645392601807,-2.0630942286864244,-0.15267282724380493,0.47332343459129333,-0.8675574660301208,0.8400841355323792,0.03727173060178757,0.6925122737884521
7.983647108078003,-0.04059597849845886,0.04127591848373413,0.04088491201400757,-0.47874088560616923,-0.16528317770432346,-2.0449377756345997,-0.14603430032730103,0.46066197752952576,-0.8754796385765076,0.8498561978340149,0.013181131333112717,0.6522929072380066
8.00283694267273,-0.034976527094841,0.03334870934486389,0.043975830078125,-0.4640377961089057,-0.15764668534245566,-2.0279038152923166,-0.1403927505016327,0.4475625455379486,-0.8831634521484375,0.8487852215766907,-0.01814589835703373,0.6232590079307556
8.02476191520691,-0.03596779704093933,0.04272991418838501,0.05086362361907959,-0.44967387544126364,-0.15088818726521377,-2.011597804158119,-0.13537319004535675,0.4346718490123749,-0.8903564214706421,0.808500349521637,-0.024789953604340553,0.6107488870620728
8.044345140457153,-0.03162996470928192,0.0561368465423584,0.04259049892425537,-0.43589976604853453,-0.14478105291197427,-1.995750973473139,-0.13078461587429047,0.4222261905670166,-0.8970063924789429,0.7979989051818848,-0.03887292742729187,0.6097984313964844
8.062582969665527,-0.03409840166568756,0.0740506649017334,0.03579753637313843,-0.4209030353055841,-0.139010920887363,-1.979817238691091,-0.12646986544132233,0.4085848331451416,-0.9039158225059509,0.9039199352264404,-0.04566824808716774,0.6165748238563538
8.08460783958435,-0.04264822602272034,0.07921704649925232,0.021926462650299072,-0.4042201499126766,-0.13316369695383254,-1.9635183591737913,-0.12207043915987015,0.3933018743991852,-0.9112697243690491,0.9319284558296204,-0.0120770875364542,0.6356068849563599
8.104171991348267,-0.053119346499443054,0.06109905242919922,0.03274524211883545,-0.38780327990308805,-0.12710717932455964,-1.9475728985776557,-0.11735186725854874,0.37815573811531067,-0.9182738065719604,0.9041286110877991,-0.0031901190523058176,0.6107891798019409
8.124762058258057,-0.039243586361408234,0.047680437564849854,0.03978985548019409,-0.3715616119308593,-0.12110584776631814,-1.9311432776238076,-0.11256613582372665,0.36307093501091003,-0.9249369502067566,0.8865697383880615,0.021346915513277054,0.7056455016136169
8.144499063491821,-0.022724874317646027,0.04458606243133545,0.039090752601623535,-0.35604703385663433,-0.11572613737899065,-1.9148083965230347,-0.10822608321905136,0.34857192635536194,-0.931012749671936,0.8598920702934265,-0.061557553708553314,0.6103363037109375
8.163125991821289,-0.023472048342227936,0.049671471118927,0.026904642581939697,-0.3398918603650774,-0.11248994812829823,-1.9002537738762046,-0.10583095252513885,0.3333851397037506,-0.9368319511413574,0.92056804895401,-0.09692148864269257,0.5981470346450806
8.184980154037476,-0.02899724245071411,0.06497514247894287,0.00855165719985962,-0.3224500609603999,-0.10915829083369948,-1.88481972869489,-0.10332699120044708,0.31689131259918213,-0.9428167343139648,0.977265477180481,-0.06638391315937042,0.6423279643058777
8.202132940292358,-0.024385079741477966,0.04613050818443298,0.010742545127868652,-0.3042127102913941,-0.10566975809552423,-1.8692990263902776,-0.10063020884990692,0.2995421290397644,-0.9487613439559937,0.9577584862709045,-0.06816068291664124,0.6267392635345459
8.222498178482056,-0.017043255269527435,0.034108489751815796,0.01149284839630127,-0.2872542748912552,-0.10306196418111563,-1.8545681531815372,-0.09866416454315186,0.2833200693130493,-0.9539366364479065,0.8918070793151855,-0.10032616555690765,0.6045348644256592
8.242092847824097,-0.030798695981502533,0.03391695022583008,0.0021289587020874023,-0.2714522294325053,-0.10099449784088271,-1.8402666519800182,-0.09713101387023926,0.2681307792663574,-0.9584735035896301,0.8452419638633728,-0.07135160267353058,0.6003669500350952
8.26375699043274,-0.04970530420541763,0.03582829236984253,0.012659013271331787,-0.25610085566323054,-0.09811724518644532,-1.8263713176708056,-0.09476493299007416,0.25331050157546997,-0.9627322554588318,0.8198235630989075,0.012588134035468102,0.586436927318573
8.282932996749878,-0.049662284553050995,0.03061710298061371,0.032875776290893555,-0.24149889974150343,-0.09411879042858985,-1.8131212425114662,-0.0912526547908783,0.23915830254554749,-0.9666831493377686,0.7561682462692261,0.059827107936143875,0.5422798991203308
8.303682088851929,-0.03934817761182785,0.02085977792739868,0.0382763147354126,-0.2277156986392942,-0.08970211889911009,-1.8014291313108022,-0.08726928383111954,0.2257527858018875,-0.9702678918838501,0.7307139039039612,0.09722472727298737,0.4719453454017639
8.324018001556396,-0.011120602488517761,0.03009338676929474,0.03250759840011597,-0.21374855526902298,-0.08517183847944897,-1.790747218729025,-0.08313295245170593,0.21212463080883026,-0.9737001657485962,0.7705422043800354,0.12807771563529968,0.45594799518585205
8.34354305267334,-0.0276094451546669,0.048213765025138855,0.02342742681503296,-0.19861874182512276,-0.08014466351351254,-1.780126241458859,-0.07848493754863739,0.19731540977954865,-0.977193295955658,0.8098610639572144,0.17478404939174652,0.44947975873947144
8.362483978271484,-0.039890266954898834,0.07360747456550598,0.01891225576400757,-0.18332279308908006,-0.07359080537282582,-1.770392812749373,-0.07229238003492355,0.1822976917028427,-0.9805821776390076,0.7946213483810425,0.29399940371513367,0.3814215362071991
