timestamp,acceleration_x,acceleration_y,acceleration_z,attitude_pitch,attitude_roll,attitude_yaw,gravity_x,gravity_y,gravity_z,rotation_x,rotation_y,rotation_z
0.0,0.2591455578804016,1.0708997249603271,-0.14876484870910645,0.17590082445519897,-1.5275351956788303,-2.5311407983827863,-0.9836481213569641,-0.17499513924121857,-0.042580295354127884,-0.04748358204960823,-0.4768638610839844,1.250697135925293
0.019989013671875,0.2157764434814453,1.0174657106399536,-0.1578383445739746,0.14686888470653292,-1.5373196501246613,-2.528919435964708,-0.9886798858642578,-0.1463414430618286,-0.033110085874795914,0.16599956154823303,-0.48030591011047363,1.657799482345581
0.03920483589172363,0.18329614400863647,0.9431428909301758,-0.16592466831207275,0.1106814012628497,-1.54828802791413,-2.521674797068807,-0.9936294555664062,-0.11045555770397186,-0.02236868627369404,0.4596438705921173,-0.5247603058815002,1.9787771701812744
0.060018062591552734,0.14580655097961426,0.860335111618042,-0.15075182914733887,0.06897745118905081,-1.5603293063735235,-2.5082656396463285,-0.9975674748420715,-0.06892276555299759,-0.010441940277814865,0.815609872341156,-0.5665827989578247,2.2076187133789062
0.0799858570098877,0.0916367769241333,0.7899309396743774,-0.1311734914779663,0.023636764094190344,-1.5731711142003184,-2.487718141496526,-0.9997180104255676,-0.023634562268853188,0.002374122152104974,1.2385947704315186,-0.6221508979797363,2.3247201442718506
0.1001119613647461,0.014847159385681152,0.7218817472457886,-0.11349260807037354,-0.02326802469469839,-1.5856608109672976,-2.458699365042412,-0.9996188879013062,0.02326592430472374,0.014859913848340511,1.715021014213562,-0.6285207867622375,2.3425774574279785
0.11994290351867676,-0.06587642431259155,0.6551454663276672,-0.08965277671813965,-0.07046825293063763,-1.5965204860536963,-2.420852595133401,-0.997188150882721,0.07040994614362717,0.02565748617053032,2.1665172576904297,-0.6551810503005981,2.31589674949646
0.14002299308776855,-0.1652216911315918,0.6086592674255371,-0.07269513607025146,-0.11780936712454816,-1.6057310795913706,-2.3749027502839573,-0.992462694644928,0.11753704398870468,0.03468555212020874,2.550889730453491,-0.6789569854736328,2.2874791622161865
0.15995383262634277,-0.29030686616897583,0.5542328953742981,-0.04409479722380638,-0.16516014001425774,-1.6108075307612217,-2.3224072215071083,-0.9856027960777283,0.1644102931022644,0.039456211030483246,2.808589458465576,-0.5652653574943542,2.2661755084991455
0.17998385429382324,-0.38854289054870605,0.46382248401641846,0.032285090535879135,-0.2131728781831502,-1.6103549481979287,-2.266497741953577,-0.9765998721122742,0.21156202256679535,0.03865310922265053,2.8547797203063965,-0.4348316490650177,2.334501028060913
0.19997501373291016,-0.5132850408554077,0.38919055461883545,0.09150266647338867,-0.26236882932833233,-1.6030373423048248,-2.2099617006260543,-0.9652764201164246,0.25936904549598694,0.031132280826568604,2.8476991653442383,-0.15113617479801178,2.3699915409088135
0.21998095512390137,-0.6298788189888,0.33527594804763794,0.12337028980255127,-0.3109299873284457,-1.5870617137962446,-2.151600747637392,-0.9519236087799072,0.30594417452812195,0.015484771691262722,2.8766543865203857,0.06733455508947372,2.377361297607422
0.2397148609161377,-0.6829787492752075,0.3082807660102844,0.12835919857025146,-0.35937835051942213,-1.5651704391412082,-2.090590351635794,-0.9361007809638977,0.3516923785209656,-0.005266453605145216,2.9248850345611572,0.1345132440328598,2.432650566101074
0.2599761486053467,-0.7162768840789795,0.25191229581832886,0.18390518426895142,-0.4075126012981887,-1.5366126572311178,-2.0274744904875734,-0.9175732731819153,0.39632683992385864,-0.03137824311852455,2.8113250732421875,0.3585951626300812,2.5213372707366943
0.27948498725891113,-0.6609220504760742,0.11699098348617554,0.30644911527633667,-0.4572652299048171,-1.5012294577439522,-1.9673476953046096,-0.8950929641723633,0.44149595499038696,-0.062369462102651596,2.345632791519165,0.6606433391571045,2.7604780197143555
0.3000359535217285,-0.5766167044639587,-0.031481653451919556,0.4066812992095947,-0.5114517172931515,-1.4615274859284597,-1.9156068972560194,-0.866834282875061,0.48944371938705444,-0.09509675204753876,1.774358868598938,0.89786696434021,3.0538642406463623
0.3199770450592041,-0.49696534872055054,-0.13909167051315308,0.43794262409210205,-0.5703115965316454,-1.4185697270859026,-1.8693300671325985,-0.8319990634918213,0.5398943424224854,-0.12763984501361847,1.4336148500442505,0.976911723613739,3.3094730377197266
0.3399820327758789,-0.42698895931243896,-0.1873607635498047,0.40592139959335327,-0.6319593240203668,-1.3739405553744348,-1.8225277567657623,-0.7912879586219788,0.5907267928123474,-0.1578134298324585,1.3568389415740967,0.8119429349899292,3.407301664352417
0.3600151538848877,-0.4163063168525696,-0.20903736352920532,0.34075456857681274,-0.690244854440006,-1.3272585057992075,-1.7694475855851814,-0.7483360767364502,0.6367260217666626,-0.18593880534172058,1.4839447736740112,0.5969744324684143,3.184053897857666
0.38003993034362793,-0.38776326179504395,-0.22635459899902344,0.3188054859638214,-0.7401496366726975,-1.277665657059363,-1.7081177845351405,-0.706871747970581,0.6743984222412109,-0.21335187554359436,1.6582475900650024,0.3454744815826416,2.879424810409546
0.3999769687652588,-0.33889079093933105,-0.2719733715057373,0.35060399770736694,-0.7813731282352294,-1.2254111278444888,-1.6404414567213772,-0.6680215001106262,0.7042549252510071,-0.24035917222499847,1.677477240562439,0.23474405705928802,2.596341609954834
0.41997408866882324,-0.3078272342681885,-0.33141839504241943,0.3668743968009949,-0.81496915312823,-1.1718852163518614,-1.5709285201844876,-0.6320379376411438,0.7277044653892517,-0.2664104700088501,1.6277732849121094,0.153850719332695,2.313103437423706
0.43999600410461426,-0.2925087809562683,-0.3782670497894287,0.3857489824295044,-0.8416058072334947,-1.1171581524774177,-1.5014097058158478,-0.5988792181015015,0.7457139492034912,-0.29198363423347473,1.5435965061187744,0.20388804376125336,2.0780179500579834
0.4599931240081787,-0.28456634283065796,-0.42073214054107666,0.41800153255462646,-0.8637063119811458,-1.0628514410243848,-1.4351433669455147,-0.5676065683364868,0.7602555155754089,-0.3159659504890442,1.287683129310608,0.2469109743833542,1.91288423538208
0.47998690605163574,-0.2966712713241577,-0.47348552942276,0.46059155464172363,-0.8838697496750431,-1.0113378981890535,-1.376340055344145,-0.5374809503555298,0.7731987237930298,-0.33656808733940125,0.9248816967010498,0.4045471251010895,1.750861406326294
0.5000431537628174,-0.3113664984703064,-0.5247617959976196,0.48787954449653625,-0.9037073141984405,-0.9643280345484199,-1.3277882888935795,-0.5083661675453186,0.7856260538101196,-0.352640837430954,0.5439264178276062,0.5109657645225525,1.5857645273208618
0.5200631618499756,-0.3175951838493347,-0.5609464049339294,0.47834280133247375,-0.9229939419447575,-0.9223672712889444,-1.2887487329576284,-0.4809582829475403,0.7974118590354919,-0.3644358217716217,0.27983230352401733,0.5886202454566956,1.3728989362716675
0.5399730205535889,-0.29923906922340393,-0.6003525257110596,0.4676247537136078,-0.9403253695899944,-0.8861356010463277,-1.2582732257180067,-0.45666608214378357,0.8077499270439148,-0.37282177805900574,0.06422653049230576,0.5820651650428772,1.1131781339645386
0.5595190525054932,-0.25943315029144287,-0.6451367139816284,0.48973748087882996,-0.9561829449234067,-0.859362292441916,-1.2388667107136788,-0.43676435947418213,0.8169964551925659,-0.3765019178390503,-0.21238437294960022,0.511419951915741,0.8278443813323975
0.5799939632415771,-0.23427751660346985,-0.6779044270515442,0.4946872293949127,-0.9706057989721609,-0.8448557109228403,-1.2318067803214388,-0.42239975929260254,0.8252280354499817,-0.37493616342544556,-0.42330580949783325,0.35620594024658203,0.5160995125770569
0.5999760627746582,-0.23434481024742126,-0.6664985418319702,0.4695652723312378,-0.9818976888992542,-0.8433281277702146,-1.2364039387799204,-0.41484037041664124,0.8315529227256775,-0.3693607449531555,-0.4930814802646637,0.17666104435920715,0.14319004118442535
0.6199729442596436,-0.249453604221344,-0.6380929350852966,0.4272015392780304,-0.9869275172323904,-0.8535393050260092,-1.250697902446541,-0.415432870388031,0.8343362212181091,-0.36235156655311584,-0.4294774532318115,-0.016413068398833275,-0.28913065791130066
0.6399710178375244,-0.24004092812538147,-0.616844654083252,0.39828261733055115,-0.9847023463269825,-0.8754834653269042,-1.2736884669819135,-0.42470821738243103,0.8331074714660645,-0.354337215423584,-0.40173977613449097,-0.27086764574050903,-0.7018219828605652
0.6600639820098877,-0.22788652777671814,-0.6006413102149963,0.38370025157928467,-0.9760711369947698,-0.9103002289706049,-1.3054585878604428,-0.44244736433029175,0.8283025026321411,-0.3437374234199524,-0.4384409189224243,-0.5818191170692444,-1.079203486442566
0.6799919605255127,-0.27090543508529663,-0.5700771808624268,0.37828728556632996,-0.9619459402551247,-0.9574591235767324,-1.3452695482758354,-0.46768102049827576,0.8203060626983643,-0.3291996717453003,-0.5699678659439087,-0.8304941058158875,-1.394697904586792
0.6999719142913818,-0.39168667793273926,-0.5272014737129211,0.42142999172210693,-0.9442957947865079,-1.0161569432415374,-1.3965376364936344,-0.49841955304145813,0.8100842237472534,-0.30877429246902466,-0.9838503003120422,-0.7805719971656799,-1.7352230548858643
0.7199981212615967,-0.5372656583786011,-0.5224233865737915,0.5159977078437805,-0.9241164901056054,-1.0819350616746415,-1.4666727970126332,-0.5319635272026062,0.7980887293815613,-0.28296539187431335,-1.6635528802871704,-0.11087547987699509,-2.0855538845062256
0.7400679588317871,-0.5235402584075928,-0.5495179891586304,0.5476809740066528,-0.9018950961269968,-1.1507899007785292,-1.557267935813519,-0.5662272572517395,0.7845035195350647,-0.25286591053009033,-2.308257818222046,0.2776373624801636,-2.338747024536133
0.7599718570709229,-0.37555229663848877,-0.4462983012199402,0.46389269828796387,-0.8746400933064461,-1.2253549872528144,-1.657681670045076,-0.603390634059906,0.76731276512146,-0.2171427607536316,-2.4521515369415283,-0.019149910658597946,-2.577340602874756
0.779973030090332,-0.3785567283630371,-0.26438772678375244,0.3247150182723999,-0.8355755975377368,-1.298684328027039,-1.748466473851531,-0.6460710167884827,0.7416827082633972,-0.18027527630329132,-2.0111756324768066,-0.42995405197143555,-3.0267183780670166
0.8005468845367432,-0.5975543856620789,-0.14926791191101074,0.26561176776885986,-0.7786338174419586,-1.3634085652440675,-1.8224141817269541,-0.6966198682785034,0.7023075222969055,-0.14657790958881378,-1.6513899564743042,-0.6260582208633423,-3.7830910682678223
0.819990873336792,-0.905559241771698,-0.0669354796409607,0.31501251459121704,-0.7017616688493524,-1.4160614045481328,-1.8855732975072321,-0.7545818090438843,0.645564079284668,-0.11770102381706238,-1.6285014152526855,-0.32644525170326233,-4.605351448059082
0.8399741649627686,-0.9534701108932495,0.0400506854057312,0.31887656450271606,-0.6096983813286828,-1.4570177162839226,-1.9447094723946914,-0.814520001411438,0.5726202130317688,-0.09307694435119629,-1.8043296337127686,-0.26616793870925903,-5.104507923126221
0.8599710464477539,-0.6816450953483582,0.2223350703716278,0.17666085064411163,-0.510976917504751,-1.495913992062217,-1.9997452826661726,-0.8698226809501648,0.4890296161174774,-0.06525637209415436,-1.8848292827606201,-0.7224071025848389,-5.120591640472412
0.8800151348114014,-0.556793212890625,0.4006233513355255,0.008187830448150635,-0.4137880113419913,-1.5361324290776501,-2.0475308100515703,-0.9150543808937073,0.4020805358886719,-0.03173206374049187,-1.867824673652649,-1.1736191511154175,-4.815759181976318
0.8999700546264648,-0.5485612750053406,0.4278792142868042,-0.17698490619659424,-0.32226861027850845,-1.5781463036052743,-2.089234122578492,-0.9484938383102417,0.3167192041873932,0.006971533410251141,-1.8677693605422974,-1.4814296960830688,-4.334411144256592
0.9202558994293213,-0.5749330520629883,0.5781382322311401,-0.2632443904876709,-0.24102208347791892,-1.6161594329559013,-2.1230426271895,-0.970095694065094,0.23869529366493225,0.04403676465153694,-1.5740810632705688,-1.3852931261062622,-3.7763075828552246
0.9399888515472412,-0.507860541343689,0.7342553734779358,-0.17054641246795654,-0.16932355229483673,-1.6460690758705463,-2.147802009300036,-0.9829078912734985,0.16851560771465302,0.074126236140728,-1.2657415866851807,-1.092566728591919,-3.212913751602173
0.959975004196167,-0.3411216735839844,0.7079783082008362,-0.08124291896820068,-0.11163514493773732,-1.6674233437426629,-2.1670461978736393,-0.9891396164894104,0.11140341311693192,0.09587618708610535,-1.2090023756027222,-0.769791305065155,-2.3836259841918945
0.9800050258636475,-0.24076080322265625,0.6705583333969116,-0.07304740697145462,-0.06791242697636858,-1.6813871266103717,-2.1891792381702833,-0.9916000366210938,0.06786023825407028,0.11011110246181488,-1.4639495611190796,-0.45428887009620667,-1.79642653465271
0.9999730587005615,-0.16615146398544312,0.6531171202659607,-0.13059377670288086,-0.033030841484944576,-1.68914208079724,-2.217857827649,-0.9924637079238892,0.03302483633160591,0.11800529807806015,-1.7864114046096802,-0.18835961818695068,-1.357491135597229
1.020003080368042,-0.05364280939102173,0.6816601753234863,-0.15666164457798004,-0.0052752491221026996,-1.6917283173215796,-2.252349279268322,-0.9926828145980835,0.0052752248011529446,0.12063576281070709,-1.9330883026123047,-0.04195384681224823,-1.0175864696502686
1.03997802734375,0.042778968811035156,0.6979914307594299,-0.16490674018859863,0.01767923680465633,-1.6919354835365412,-2.287200960202973,-0.9925165772438049,-0.017678316682577133,0.12082421779632568,-1.790040373802185,0.00631337147206068,-0.8682124018669128
1.0594761371612549,0.10151785612106323,0.7320072650909424,-0.1775277704000473,0.03856594085463983,-1.690317034204437,-2.3183744512247766,-0.9921277761459351,-0.038556382060050964,0.11914771050214767,-1.557359218597412,0.060758326202631,-0.8501755595207214
1.07993483543396,0.15303117036819458,0.7613987922668457,-0.20153892040252686,0.059147528761995874,-1.687676361984632,-2.3446000079716884,-0.9914405941963196,-0.059113048017024994,0.11641018837690353,-1.2923613786697388,0.06601868569850922,-0.8899205327033997
1.100041151046753,0.20783519744873047,0.7980023622512817,-0.24438391625881195,0.07958051681873148,-1.685714820541323,-2.3650578483189406,-0.9902603030204773,-0.07949654757976532,0.11430283635854721,-0.9528042674064636,-0.029342448338866234,-0.9009286165237427
1.1199779510498047,0.24486202001571655,0.8424133658409119,-0.3032197952270508,0.09852363252077954,-1.6864793417359072,-2.378084477790472,-0.9884991645812988,-0.09836431592702866,0.11486542224884033,-0.5631894469261169,-0.161865696310997,-0.8122444152832031
1.1399760246276855,0.2648806571960449,0.8659529685974121,-0.32454967498779297,0.11349572759301559,-1.6898791627950387,-2.384991908964967,-0.9865300059318542,-0.11325222253799438,0.11803726851940155,-0.3361506164073944,-0.22745642066001892,-0.5857475996017456
1.1600611209869385,0.2617456316947937,0.8565178513526917,-0.30637311935424805,0.12272536734785856,-1.693662019527778,-2.3897503034366565,-0.984997034072876,-0.12241752445697784,0.12163502722978592,-0.25892001390457153,-0.19047585129737854,-0.2597618103027344
1.1799960136413574,0.2380664348602295,0.8431578874588013,-0.29646217823028564,0.12453112945068764,-1.6959442212767466,-2.3938613239230606,-0.9844959378242493,-0.12420950829982758,0.1238548755645752,-0.1522839069366455,-0.08498094975948334,0.137177512049675
1.199970006942749,0.21306538581848145,0.8473377823829651,-0.29958319664001465,0.11772058525549778,-1.6959412701596903,-2.396082241283951,-0.9853127002716064,-0.11744887381792068,0.1239546686410904,0.017387984320521355,0.06387893110513687,0.577478289604187
1.2200250625610352,0.2028447389602661,0.8220065236091614,-0.3192373812198639,0.1016461660682309,-1.6939883638780893,-2.3960947553769336,-0.9872989654541016,-0.10147122293710709,0.12224641442298889,0.15974168479442596,0.11383121460676193,1.0130811929702759
1.2400660514831543,0.18494606018066406,0.7734309434890747,-0.30851805210113525,0.07732575594476741,-1.6916446842508062,-2.3954005243410452,-0.9897404313087463,-0.0772487223148346,0.1201941967010498,0.2094649374485016,0.12021961063146591,1.3860392570495605
1.2600760459899902,0.1253073811531067,0.7221238613128662,-0.289486289024353,0.04637449938945539,-1.689592532122265,-2.393727930952163,-0.991884708404541,-0.04635787755250931,0.11838959157466888,0.35224246978759766,0.09609615802764893,1.660393476486206
1.279968023300171,0.029834449291229248,0.7043264508247375,-0.29745566844940186,0.010219602380392651,-1.6877076518881795,-2.3879348192407495,-0.9931219816207886,-0.010219424031674862,0.11663911491632462,0.6774539947509766,0.10539423674345016,1.8594114780426025
1.299988031387329,-0.06612968444824219,0.6923593878746033,-0.300113320350647,-0.030225130961431472,-1.6856984095133891,-2.3747883006031403,-0.9929523468017578,0.030220529064536095,0.11459705978631973,1.0967856645584106,0.08474533259868622,2.018146514892578
1.3199689388275146,-0.14218997955322266,0.6358839273452759,-0.2379734367132187,-0.07475696112982466,-1.6826668835847713,-2.3546781945461004,-0.9909736514091492,0.07468734681606293,0.11132557690143585,1.377860426902771,0.10200003534555435,2.210663318634033
1.3400790691375732,-0.23627042770385742,0.541598379611969,-0.14187157154083252,-0.12389474101680467,-1.6787918849772834,-2.331015132716593,-0.9865536689758301,0.1235780194401741,0.10695956647396088,1.503812313079834,0.07011010497808456,2.4170613288879395
1.3599669933319092,-0.46373236179351807,0.4868198335170746,-0.08439481258392334,-0.17556444595654186,-1.6706997203293,-2.30410288549314,-0.9797186255455017,0.17466393113136292,0.09820414334535599,1.7301783561706543,0.3957711160182953,2.4140286445617676
1.3800060749053955,-0.7168137431144714,0.47305092215538025,-0.05321049690246582,-0.22540131076833667,-1.651195241773631,-2.2696424400474475,-0.9715560674667358,0.22349753975868225,0.07828079164028168,2.1028213500976562,0.829917311668396,2.2581419944763184
1.3999669551849365,-0.7050686478614807,0.4204280376434326,0.005584709346294403,-0.2732045528257129,-1.6213842170362578,-2.2271605666620817,-0.9616793394088745,0.269818514585495,0.04869087040424347,2.241046905517578,1.062681794166565,2.323604106903076
1.4200260639190674,-0.5332467555999756,0.2837890684604645,0.15035545825958252,-0.32449085683585993,-1.587577195491084,-2.186196906799351,-0.9476796984672546,0.31882625818252563,0.01590438187122345,1.770599126815796,1.1632673740386963,2.6784517765045166
1.4400219917297363,-0.5182387828826904,0.09362110495567322,0.2894987463951111,-0.38136092399910215,-1.5508274107651183,-2.156307217908049,-0.9279740452766418,0.37218397855758667,-0.018533099442720413,1.0349928140640259,1.491377830505371,3.0224554538726807
1.4599721431732178,-0.522975742816925,-0.039559245109558105,0.3270695209503174,-0.4439870484834685,-1.5109989315575514,-2.1366024775295744,-0.90143221616745,0.4295433461666107,-0.053967636078596115,0.6062821745872498,1.6710433959960938,3.310612678527832
1.4799699783325195,-0.3998981714248657,-0.10890668630599976,0.3161415457725525,-0.5112790280172805,-1.4698530134309047,-2.117736116190096,-0.8676801323890686,0.48929309844970703,-0.08788521587848663,0.5707593560218811,1.5066819190979004,3.5428810119628906
1.4999921321868896,-0.28971201181411743,-0.14032262563705444,0.2743750810623169,-0.5806365549259017,-1.4317159523603427,-2.091065916691823,-0.8280401229858398,0.5485562682151794,-0.11591247469186783,0.9305557012557983,0.9236765503883362,3.5850963592529297
1.5193068981170654,-0.34571540355682373,-0.19861853122711182,0.23261100053787231,-0.6446472576350216,-1.3923841052351709,-2.0481975384946347,-0.7866241335868835,0.6009165048599243,-0.14185164868831635,1.5314282178878784,0.6015970706939697,3.265368700027466
1.5397899150848389,-0.3986048102378845,-0.29824239015579224,0.27569305896759033,-0.6968552119356097,-1.3444262556680862,-1.988698703210202,-0.7472997307777405,0.6418092250823975,-0.17211632430553436,1.9466215372085571,0.5049418807029724,2.7996788024902344
1.559175968170166,-0.3335998058319092,-0.4139134883880615,0.33944201469421387,-0.7368452780099993,-1.2905686901978586,-1.9209878619474645,-0.7117035984992981,0.671954870223999,-0.20482885837554932,1.940660834312439,0.393600195646286,2.3710248470306396
1.5800089836120605,-0.2737811207771301,-0.4814234972000122,0.35342127084732056,-0.767211993959733,-1.2413842835988633,-1.8558102784215098,-0.6811444163322449,0.6941310167312622,-0.23286151885986328,1.7102391719818115,0.0032759471796453,1.9782079458236694
1.5999071598052979,-0.3370409607887268,-0.4661250114440918,0.3315347135066986,-0.788597388986964,-1.1995526748228784,-1.7953945997944756,-0.6568250060081482,0.7093653678894043,-0.25569844245910645,1.6080273389816284,0.10048168152570724,1.516842246055603
1.6199049949645996,-0.3520885109901428,-0.5309030413627625,0.4131894111633301,-0.8021183547464085,-1.1562383241043874,-1.7423813395710932,-0.6362995505332947,0.7188303470611572,-0.2800106406211853,1.2500998973846436,0.42445290088653564,1.189590573310852
1.6399619579315186,-0.24879395961761475,-0.6532714366912842,0.4895482063293457,-0.8138566012866848,-1.1170661388582794,-1.7036853052248364,-0.6172186732292175,0.726940929889679,-0.3009953200817108,0.6684426665306091,0.6745255589485168,1.03505539894104
1.6599161624908447,-0.14677506685256958,-0.7024108171463013,0.4995323419570923,-0.8289408619986012,-1.0853443739321904,-1.679833008712857,-0.5975944995880127,0.7372161746025085,-0.3152671158313751,0.1285199075937271,0.7147186398506165,1.0622833967208862
1.6799750328063965,-0.07933229207992554,-0.6809812188148499,0.4661753475666046,-0.847388314829734,-1.06217983084144,-1.6658288910379278,-0.5781536102294922,0.7495541572570801,-0.32234594225883484,-0.12468735128641129,0.5346907377243042,0.9712081551551819
1.6999859809875488,-0.0843159556388855,-0.597334623336792,0.4013441503047943,-0.8622938808028929,-1.046887933955253,-1.6561688152919711,-0.5634196400642395,0.7593371868133545,-0.32552310824394226,-0.030431004241108894,0.25571200251579285,0.6109219193458557
1.7199161052703857,-0.12706857919692993,-0.5010677576065063,0.3717304766178131,-0.8690755621570097,-1.0388278559708108,-1.6489242162859297,-0.5563268065452576,0.7637324929237366,-0.32743412256240845,0.09893172979354858,0.014485813677310944,0.23509657382965088
1.7399749755859375,-0.15934211015701294,-0.49998581409454346,0.3838531970977783,-0.8696927453813769,-1.0358294612139622,-1.6439352925662596,-0.5549370646476746,0.7641307711601257,-0.32886046171188354,0.0968456119298935,-0.08777415752410889,-0.008144387044012547
1.7600171566009521,-0.16068869829177856,-0.540151834487915,0.41567111015319824,-0.8677627961297886,-1.039529378998756,-1.6461030939613808,-0.5574204921722412,0.7628844380378723,-0.3275515139102936,-0.12349259853363037,-0.10651233792304993,-0.2315240055322647
1.7799320220947266,-0.1448994278907776,-0.5305442810058594,0.39500367641448975,-0.864073984757976,-1.050769409977787,-1.6567815551707563,-0.5635051131248474,0.7604942917823792,-0.3226616680622101,-0.27870193123817444,-0.23176948726177216,-0.4330891966819763
1.8000481128692627,-0.1241334080696106,-0.46005725860595703,0.3362717032432556,-0.8582790968595115,-1.0715779907288883,-1.6750651882764507,-0.5739562511444092,0.756718635559082,-0.31297144293785095,-0.506925106048584,-0.47621509432792664,-0.6757071018218994
1.8201110363006592,-0.15058457851409912,-0.3937991261482239,0.2829468846321106,-0.8492168344881602,-1.1046475716126467,-1.7034046588254825,-0.5900923013687134,0.7507632970809937,-0.2968933582305908,-0.7091681361198425,-0.6540298461914062,-0.9850790500640869
1.840029001235962,-0.20647192001342773,-0.3583797216415405,0.21187320351600647,-0.8364143998971217,-1.1459661997428343,-1.7416828529249153,-0.6105599403381348,0.742245078086853,-0.2762041985988617,-1.0643558502197266,-0.5910506844520569,-1.2818598747253418
1.8599631786346436,-0.2119004726409912,-0.3023185729980469,0.1448759138584137,-0.8193602013333575,-1.1922318340433073,-1.7907911194949662,-0.6343520283699036,0.7307091951370239,-0.2523129880428314,-1.2764369249343872,-0.44623130559921265,-1.5836068391799927
1.87996506690979,-0.14764904975891113,-0.23107647895812988,0.01703190803527832,-0.796440550287951,-1.2394474679797423,-1.8406334099533113,-0.6612194180488586,0.7148716449737549,-0.22748109698295593,-1.134378433227539,-0.7861669063568115,-1.7472891807556152
1.8999731540679932,-0.20956158638000488,-0.0634651780128479,-0.03592050075531006,-0.767565756942572,-1.291171330490283,-1.885849683933311,-0.6916530132293701,0.6943855881690979,-0.19860702753067017,-1.100560188293457,-1.0375922918319702,-2.0525314807891846
1.9199910163879395,-0.5256731510162354,0.06009727716445923,-0.014285311102867126,-0.7275351459452987,-1.3351305962792388,-1.9324094699771266,-0.7261731624603271,0.665030837059021,-0.1743742972612381,-1.1751803159713745,-0.04517911747097969,-2.7054030895233154
1.9399640560150146,-0.518497884273529,0.050434112548828125,-0.08126305043697357,-0.6763586927994013,-1.3571494899377616,-1.978593662254236,-0.7621264457702637,0.6259574890136719,-0.16534937918186188,-1.129038691520691,0.5853154063224792,-2.960874557495117
1.9599909782409668,-0.042875051498413086,0.18538445234298706,-0.11470289528369904,-0.6268020969458197,-1.3769664087848221,-2.0186041608000815,-0.7947410941123962,0.5865577459335327,-0.1560031920671463,-0.92393958568573,-0.3007427752017975,-2.4625611305236816
1.980017900466919,0.061247825622558594,0.30866461992263794,-0.15086835622787476,-0.5874804913719425,-1.4075428330887993,-2.0446417485227117,-0.8212729096412659,0.5542656779289246,-0.13527962565422058,-0.5162062048912048,-1.0894705057144165,-1.8831820487976074
2.000056028366089,-0.30957573652267456,0.27000582218170166,-0.13447344303131104,-0.5525626681708244,-1.4335656902497516,-2.062629209418964,-0.8431800007820129,0.5248702764511108,-0.1164420023560524,-0.5406883955001831,-0.3635275363922119,-1.8377149105072021
2.019965887069702,-0.425101637840271,0.19591456651687622,-0.005723893642425537,-0.5207387700007575,-1.4429734247079091,-2.08368398535394,-0.8603751063346863,0.49752113223075867,-0.11057853698730469,-0.8275941014289856,0.3670642077922821,-1.4650359153747559
2.040022134780884,-0.07145929336547852,0.21099629998207092,-0.03213578462600708,-0.5011742857798319,-1.4473375458125113,-2.1060633866977985,-0.8703437447547913,0.4804557263851166,-0.10800085961818695,-0.75897616147995,0.15221579372882843,-0.7308966517448425
2.0590829849243164,0.12582284212112427,0.23706293106079102,-0.18436437845230103,-0.4928713196628399,-1.4554213977273776,-2.1184122758475517,-0.8751209378242493,0.4731574058532715,-0.1014174148440361,-0.2036525309085846,-0.3006305992603302,-0.28542396426200867
2.080034017562866,0.1463528275489807,0.07938945293426514,-0.1889316439628601,-0.4885512248271049,-1.4611024803390733,-2.1188704225062347,-0.8777065873146057,0.4693470895290375,-0.09666705131530762,0.13982266187667847,-0.17188601195812225,-0.20587003231048584
2.1003060340881348,0.1589856743812561,-0.13252273201942444,-0.14310163259506226,-0.48247622553390357,-1.4601983072991356,-2.117322601789409,-0.8804365396499634,0.46397414803504944,-0.09777351468801498,-0.0008412739261984825,0.1685890108346939,-0.429219126701355
2.120262861251831,0.2573683261871338,-0.19393134117126465,-0.1269274353981018,-0.4700877607308914,-1.4566344856129745,-2.119628934197039,-0.8857252597808838,0.45296451449394226,-0.10155761241912842,0.00019356422126293182,0.21824879944324493,-0.8330751061439514
2.140071153640747,0.382138729095459,-0.15236219763755798,-0.13690398633480072,-0.4503779688739993,-1.4551531745399722,-2.1189080583526736,-0.8942693471908569,0.4353058338165283,-0.10387961566448212,0.3094639480113983,-0.14592835307121277,-1.0615167617797852
2.159963846206665,0.44248878955841064,-0.10947012901306152,-0.1022149920463562,-0.4287613158999323,-1.4588882546247368,-2.112643375462361,-0.9037925601005554,0.4157445728778839,-0.10156602412462234,0.4511527121067047,-0.44126278162002563,-0.9971539378166199
2.1800549030303955,0.4064396619796753,-0.13816618919372559,-0.039204180240631104,-0.40921149758471687,-1.4663619311225873,-2.1079588228235884,-0.9124364852905273,0.3978860378265381,-0.09563769400119781,0.14646141231060028,-0.4496315121650696,-0.9151538014411926
2.2000930309295654,0.3614218831062317,-0.14245140552520752,-0.0035080909729003906,-0.3921236337781876,-1.4751764907653209,-2.1102559071854503,-0.919878363609314,0.38215172290802,-0.08822767436504364,-0.1494787633419037,-0.38017457723617554,-0.7952842712402344
2.2201290130615234,0.3658159375190735,-0.08272704482078552,0.009429149329662323,-0.37797913084189677,-1.4854202103559542,-2.1153692909221937,-0.9260272979736328,0.3690429925918579,-0.07925326377153397,-0.15371926128864288,-0.47302091121673584,-0.6868349313735962
2.240007162094116,0.34332478046417236,-0.042400091886520386,0.023459605872631073,-0.3648482124931102,-1.4966631995901056,-2.118076852415381,-0.9316123127937317,0.35680750012397766,-0.0691901296377182,-0.013493658043444157,-0.532204806804657,-0.6345700025558472
2.268893003463745,0.26016557216644287,-0.17152810096740723,0.07658791542053223,-0.3446791425627242,-1.521405453297745,-2.1247145143073136,-0.9400362372398376,0.3378947079181671,-0.04646700248122215,-0.36616280674934387,-0.6639253497123718,-0.46586763858795166
2.2884271144866943,0.17754918336868286,-0.2372547686100006,0.2041034698486328,-0.33379673938226606,-1.5386984852978391,-2.1342478827103357,-0.9443185329437256,0.3276325464248657,-0.03032100200653076,-0.49852868914604187,-0.7060757279396057,-0.6590276956558228
2.3082540035247803,0.017207682132720947,-0.27409628033638,0.256925106048584,-0.3197707761748195,-1.5536957811661372,-2.145504940089049,-0.9491686820983887,0.314348965883255,-0.016232885420322418,-0.3993512690067291,-0.427157998085022,-0.7799809575080872
2.328268051147461,-0.15432500839233398,-0.20059308409690857,-0.007084548473358154,-0.3014514935946657,-1.5616767760148431,-2.1436364914759736,-0.9548669457435608,0.29690656065940857,-0.008708198554813862,0.7255627512931824,-0.5471534729003906,-1.1046960353851318
2.3482470512390137,-0.04385155439376831,0.014181584119796753,-0.17211830615997314,-0.2749602615375685,-1.5693844857564923,-2.1164102007243994,-0.9624350070953369,0.27150869369506836,-0.0013588061556220055,1.7194041013717651,-1.01680588722229,-1.465043544769287
2.3682868480682373,0.14984017610549927,0.059256941080093384,-0.041985511779785156,-0.24609121218934565,-1.5840840689368603,-2.082935829021223,-0.9697866439819336,0.2436148077249527,0.012887033633887768,1.293640375137329,-1.225693941116333,-1.4150177240371704
2.38811993598938,0.11786907911300659,-0.10421080887317657,0.08752655982971191,-0.2205107337162506,-1.6021524331508445,-2.0688698642160275,-0.9753062129020691,0.21872802078723907,0.030591830611228943,0.007574701681733131,-0.8686046600341797,-1.1226435899734497
2.407984972000122,-0.018878161907196045,-0.11734889447689056,0.05805349349975586,-0.20323298129556988,-1.6173085180964868,-2.07696346305377,-0.9783600568771362,0.20183682441711426,0.045538514852523804,-0.7166840434074402,-0.5023214221000671,-0.5744588971138
2.4280519485473633,-0.16041749715805054,0.08453600108623505,-0.009766928851604462,-0.19439605148018888,-1.627327156648891,-2.0925003392082213,-0.9795973300933838,0.19317400455474854,0.05543651804327965,-0.8193828463554382,-0.1998043805360794,-0.3306479752063751
2.4481539726257324,-0.26461517810821533,0.2530753016471863,0.05956697463989258,-0.18682181613324633,-1.6293776322352103,-2.109331214045535,-0.9809140563011169,0.18573695421218872,0.05752905085682869,-0.8945713639259338,0.3417951464653015,-0.28554567694664
2.467741012573242,-0.16548240184783936,0.12216529250144958,0.17234432697296143,-0.18344249503549168,-1.6220047829579936,-2.1302944283205605,-0.9819328188896179,0.18241538107395172,0.05032726377248764,-1.220084547996521,0.7128233313560486,0.09258970618247986
2.4880430698394775,0.046261608600616455,-0.029704496264457703,0.18361878395080566,-0.1876023221411364,-1.6144432545497853,-2.1558348143919046,-0.9815186858177185,0.1865038275718689,0.042867500334978104,-1.1111869812011719,0.41989773511886597,0.3719578981399536
2.5078840255737305,0.122184157371521,-0.06474918127059937,-0.007483478635549545,-0.19406253717190536,-1.6141254561378406,-2.169802774003744,-0.9803081154823303,0.19284676015377045,0.042502496391534805,-0.1848209947347641,-0.11513840407133102,0.2894115149974823
2.527631998062134,0.1402585506439209,-0.018820390105247498,-0.07429766654968262,-0.19680031853172522,-1.6187862673269429,-2.1650141865863612,-0.9795683026313782,0.1955324113368988,0.047045547515153885,0.5796500444412231,-0.3898628354072571,-0.06015126779675484
2.5466690063476562,0.13924020528793335,-0.02869054675102234,-0.033874280750751495,-0.1931117953212214,-1.6235743111904772,-2.1500196438756736,-0.9800451993942261,0.19191376864910126,0.051772892475128174,0.7901901602745056,-0.3403337895870209,-0.3214058578014374
2.5682871341705322,0.16155129671096802,-0.13069477677345276,0.023338325321674347,-0.18827798341369642,-1.626379845209198,-2.1365513541642343,-0.9808111190795898,0.18716758489608765,0.05457314848899841,0.4748552143573761,-0.2123083621263504,-0.20499750971794128
2.5867578983306885,0.13278228044509888,-0.17351436614990234,0.019669771194458008,-0.18601405978609822,-1.6298929539531652,-2.1310104429462973,-0.9810336828231812,0.18494319915771484,0.05804336816072464,0.06955447047948837,-0.24284860491752625,-0.05848732963204384
2.607377052307129,0.00473254919052124,-0.0556151419878006,-0.014639146625995636,-0.1856003946929572,-1.6353865929603657,-2.1325306428766724,-0.9807761907577515,0.1845366507768631,0.0634368360042572,-0.19060611724853516,-0.26419997215270996,-0.015826670452952385
2.6263959407806396,-0.1776677966117859,0.06113539636135101,-0.014791615307331085,-0.18427524837623868,-1.6392905501970754,-2.1381082598771273,-0.9807641506195068,0.1832340955734253,0.06728192418813705,-0.39952605962753296,0.04533720016479492,-0.058346059173345566
2.647397994995117,-0.23409563302993774,0.014684915542602539,0.06598091125488281,-0.18319163153293003,-1.6358005385246086,-2.1498130553900636,-0.9811906814575195,0.18216872215270996,0.06387151777744293,-0.7426554560661316,0.4738159477710724,0.04181802645325661
2.6673171520233154,-0.14170360565185547,-0.07545602321624756,0.05795704945921898,-0.18495289159126338,-1.628431998224509,-2.1648579477835566,-0.9813127517700195,0.18390022218227386,0.05662132799625397,-0.6439281105995178,0.4568157196044922,0.2373291552066803
2.6873080730438232,-0.0677996277809143,-0.026421159505844116,-0.03754901885986328,-0.18965008539723807,-1.6234740151774074,-2.173819236906259,-0.9807081818580627,0.18851526081562042,0.05170927941799164,-0.1596859097480774,0.19990938901901245,0.23077432811260223
2.707172155380249,-0.08618313074111938,0.04796740412712097,-0.07703149318695068,-0.19308299058559814,-1.6207616466245813,-2.172750896483792,-0.9801926612854004,0.19188550114631653,0.04901643469929695,0.2153831422328949,0.09374991804361343,0.11741631478071213
2.728754997253418,-0.09994351863861084,-0.0019253194332122803,-0.02012801170349121,-0.19600322291756664,-1.6171579939517962,-2.167175741698115,-0.9797989726066589,0.19475065171718597,0.045457687228918076,0.3153100311756134,0.17047107219696045,0.18052569031715393
2.745755910873413,-0.08332151174545288,-0.07600446045398712,0.03905380144715309,-0.2014643071821106,-1.611838143635802,-2.160829760176881,-0.978949785232544,0.2001042366027832,0.040200453251600266,0.3270074725151062,0.22250522673130035,0.3102204203605652
2.7658870220184326,-0.09491771459579468,-0.06350672245025635,0.05622721090912819,-0.20690176741690838,-1.6055735493626424,-2.151813766594763,-0.9780805110931396,0.20542873442173004,0.03402864560484886,0.6731300354003906,0.22115865349769592,0.21295836567878723
2.7867720127105713,-0.11752432584762573,-0.08199183642864227,0.045135498046875,-0.21085488435931268,-1.5973582149460168,-2.134328502315583,-0.977507472038269,0.20929592847824097,0.02597055211663246,1.002272367477417,0.1818864345550537,0.08802434056997299
2.8069679737091064,-0.12554478645324707,-0.043473392724990845,0.07419061660766602,-0.21127085866113932,-1.5905677519023749,-2.1126092767827154,-0.9775742888450623,0.20970267057418823,0.019330555573105812,1.03891122341156,0.07879103720188141,-0.06040646508336067
2.8268520832061768,-0.1966240406036377,-0.07874640822410583,0.086509108543396,-0.2098767047753804,-1.5843313879850827,-2.0955866228274536,-0.9779670238494873,0.20833931863307953,0.013237652368843555,0.5682008862495422,0.19709210097789764,-0.06947541236877441
2.8466899394989014,-0.2560170292854309,-0.1215764582157135,0.13944625854492188,-0.20886132961375908,-1.5766027089227113,-2.090328744007832,-0.9782512187957764,0.207346111536026,0.005680164322257042,-0.058776821941137314,0.4805874526500702,-0.031182879582047462
2.866670846939087,-0.2890858054161072,-0.06605203449726105,0.09710878133773804,-0.20900405964201704,-1.5675500817870642,-2.0950584215027224,-0.9782329201698303,0.20748573541641235,-0.0031755948439240456,-0.3217582106590271,0.503819465637207,0.03218274936079979
2.886608839035034,-0.3753923773765564,0.052732840180397034,0.007067562080919743,-0.20953933107933634,-1.5580168368473648,-2.1001696429505605,-0.9780469536781311,0.20800933241844177,-0.012499622069299221,-0.12533758580684662,0.5613235831260681,0.024709505960345268
2.906597852706909,-0.46010148525238037,0.09517134726047516,0.037092506885528564,-0.21106450804259833,-1.5465297726367762,-2.1035150765636144,-0.9775206446647644,0.20950090885162354,-0.023725714534521103,-0.2696406841278076,0.6879568099975586,0.13710258901119232
2.926530122756958,-0.47424542903900146,0.04595683515071869,0.13984328508377075,-0.2158940105400799,-1.5329871544097267,-2.1106684979879855,-0.9760872721672058,0.2142207771539688,-0.036922648549079895,-0.40035271644592285,0.7763189673423767,0.3306497037410736
2.946532964706421,-0.4975505471229553,0.036088451743125916,0.11101973056793213,-0.22331616226586673,-1.519485225109418,-2.1167512594157363,-0.9738850593566895,0.22146464884281158,-0.05001501739025116,-0.16963645815849304,0.6861112117767334,0.35465362668037415
2.9665169715881348,-0.4835737943649292,0.05815647542476654,0.07543712854385376,-0.23043758722138272,-1.5066676295016743,-2.11524856018833,-0.9715653657913208,0.22840356826782227,-0.0623907707631588,0.3392382562160492,0.6331691741943359,0.37248823046684265
2.986248016357422,-0.5274783372879028,0.04185125231742859,0.06793297082185745,-0.23800787253559236,-1.4879701307262696,-2.1025319686326425,-0.9684781432151794,0.23576712608337402,-0.0803992971777916,0.8151392936706543,0.984190046787262,0.5069525241851807
3.0059168338775635,-0.5928499102592468,0.027306243777275085,-0.009349159896373749,-0.24470568242858098,-1.4649854715772244,-2.0864054049679477,-0.9647825360298157,0.24227078258991241,-0.10246715694665909,0.5576905608177185,0.7752234935760498,0.289770245552063
3.0259530544281006,-0.481073796749115,-0.03873346745967865,-0.028964996337890625,-0.24975702852198411,-1.4519111527286082,-2.0796902482225335,-0.9621330499649048,0.24716854095458984,-0.1149253100156784,-0.031183971092104912,0.36061152815818787,0.2419988512992859
3.0459558963775635,-0.45901191234588623,-0.03303724527359009,0.0072089433670043945,-0.25304478647886763,-1.4492909494104056,-2.0856191619116236,-0.961016833782196,0.2503529489040375,-0.11734677106142044,-0.5099607706069946,0.11582192778587341,0.0752253606915474
3.0656449794769287,-0.4238942861557007,0.016992896795272827,0.06592875719070435,-0.2557916372829959,-1.4497396896280874,-2.096446523317841,-0.9603831171989441,0.2530113756656647,-0.11683202534914017,-0.468750536441803,0.13372530043125153,0.08376835286617279
3.082291841506958,-0.39461618661880493,0.0790642499923706,0.0591278076171875,-0.25800181805689454,-1.4496485084389203,-2.1038804648413914,-0.9598150253295898,0.2551490068435669,-0.11685172468423843,-0.2968044877052307,0.02206827700138092,0.024906005710363388
3.105618953704834,-0.34014129638671875,0.10629728436470032,0.06461717188358307,-0.259631636856798,-1.4529869276661203,-2.107412168758662,-0.9597854018211365,0.2567245662212372,-0.11359777301549911,-0.08308012783527374,-0.28843599557876587,0.11973659694194794
3.1262969970703125,-0.3158281445503235,0.06277254223823547,0.09329402446746826,-0.2632715381104556,-1.4614390269834352,-2.108671111802827,-0.9597761631011963,0.260240763425827,-0.10537894070148468,-0.10600008815526962,-0.501440167427063,0.20982445776462555
3.1464450359344482,-0.37652862071990967,0.04383406043052673,0.13917887210845947,-0.26781233286688894,-1.4733281059185106,-2.111837116809168,-0.9597751498222351,0.26462239027023315,-0.0938449427485466,-0.25323009490966797,-0.6073790788650513,0.1825799196958542
3.165735960006714,-0.354492723941803,0.053717613220214844,0.12362610548734665,-0.27224976630356607,-1.488768819774051,-2.1184658198024904,-0.9599300622940063,0.26889902353286743,-0.07891774922609329,-0.44967690110206604,-0.7612375020980835,0.22228331863880157
3.1856629848480225,-0.28736263513565063,0.0060693323612213135,0.14581018686294556,-0.27765087434271846,-1.508387803779991,-2.1307347305959863,-0.9598297476768494,0.2740972340106964,-0.05997944623231888,-0.7645232081413269,-0.88676917552948,0.22918452322483063
3.2045891284942627,-0.2657996416091919,-0.07095363736152649,0.16432303190231323,-0.28318916659541715,-1.5321050046890867,-2.1477444626203983,-0.9594506621360779,0.2794192135334015,-0.03714095056056976,-0.850925624370575,-1.0351316928863525,0.23147203028202057
3.225649118423462,-0.28240734338760376,-0.12474584579467773,0.12427747249603271,-0.2875833247541316,-1.5589311989809485,-2.163082318325362,-0.958864688873291,0.28363561630249023,-0.011377586051821709,-0.6077643036842346,-1.1922136545181274,0.15074042975902557
3.245396852493286,-0.3348037004470825,-0.07973581552505493,0.09313404560089111,-0.2865209001133405,-1.5857078739220916,-2.173466977918483,-0.9591264128684998,0.28261667490005493,0.014303118921816349,-0.43847763538360596,-1.1749508380889893,-0.3282153606414795
3.2644100189208984,-0.3593195676803589,0.08457833528518677,0.08914768695831299,-0.2744289128931645,-1.6106209990782563,-2.1842501937044987,-0.9618170857429504,0.2709972560405731,0.03832431510090828,-0.6806677579879761,-0.9977357387542725,-0.7741729021072388
3.285443067550659,-0.2851228713989258,0.051645487546920776,0.050400376319885254,-0.25853709055706026,-1.6320260428480489,-2.2006867970658015,-0.9649534821510315,0.2556665241718292,0.05915777385234833,-0.9619821310043335,-0.7384031414985657,-0.6789575219154358
3.3051910400390625,-0.16438990831375122,0.09756319224834442,-0.0229489803314209,-0.2453606207708646,-1.6516415733343788,-2.221009866387302,-0.966881513595581,0.24290616810321808,0.07833851873874664,-1.059000849723816,-0.7835978269577026,-0.5237241387367249
3.325206995010376,-0.08724099397659302,0.19887147843837738,-0.10568703711032867,-0.23539477595815247,-1.6730842108961144,-2.2396106580537407,-0.9673396348953247,0.23322689533233643,0.09929366409778595,-0.7814090251922607,-0.9054418206214905,-0.25182583928108215
3.34550404548645,-0.039092183113098145,0.21919924020767212,-0.16529607772827148,-0.23285038574393913,-1.69361025706949,-2.2504183315216406,-0.9656838774681091,0.2307519167661667,0.11919934302568436,-0.29736608266830444,-0.8705542683601379,0.09999626874923706
3.3650519847869873,-0.02635025978088379,0.25028178095817566,-0.201914444565773,-0.2370862778605941,-1.710723255386703,-2.253924358092236,-0.9625260829925537,0.23487141728401184,0.1355692744255066,-0.011974592693150043,-0.760253369808197,0.37312597036361694
3.3850810527801514,0.015404164791107178,0.19369138777256012,-0.24206839501857758,-0.2486833001458942,-1.7256845618083971,-2.2547058372547,-0.9576345682144165,0.24612797796726227,0.14952395856380463,0.06262273341417313,-0.7459601163864136,0.7968688011169434
3.4055299758911133,0.025693655014038086,0.1361607015132904,-0.24249327182769775,-0.2677851318382789,-1.7410158777366407,-2.2579570986485415,-0.9504221081733704,0.264596164226532,0.16336126625537872,-0.0748634934425354,-0.6736739277839661,1.1139804124832153
3.4235219955444336,-0.016408801078796387,0.10028982162475586,-0.23270559310913086,-0.291453211385148,-1.7557457055278338,-2.264954897120005,-0.9414922595024109,0.28734445571899414,0.1761413812637329,-0.13371561467647552,-0.6248313188552856,1.3261874914169312
3.4409990310668945,-0.023624062538146973,0.11524644494056702,-0.25401055812835693,-0.31805196595757484,-1.7705152108500117,-2.2726395767060312,-0.9309658408164978,0.3127168118953705,0.18844367563724518,0.007824731990695,-0.652972400188446,1.3997517824172974
3.467646837234497,-0.054546892642974854,0.09892889857292175,-0.19524741172790527,-0.3500722112627879,-1.779894771078517,-2.2759640562448546,-0.9188876152038574,0.34296563267707825,0.19498805701732635,0.24967920780181885,-0.11612866073846817,1.8617358207702637
3.4862170219421387,-0.10855776071548462,0.026464104652404785,-0.12884914875030518,-0.3888721901340069,-1.7799306070831622,-2.280093313113514,-0.9051752090454102,0.3791450560092926,0.19211217761039734,0.23656363785266876,0.16588172316551208,1.9679869413375854
3.5038390159606934,-0.10700201988220215,0.014149725437164307,-0.2374945878982544,-0.4295911060647439,-1.777934304859579,-2.281294400618648,-0.8897021412849426,0.4164991080760956,0.18697288632392883,0.5016982555389404,0.05433424934744835,2.06892728805542
3.5246951580047607,-0.05416232347488403,0.028915435075759888,-0.2143552303314209,-0.47293978031825823,-1.7769941507621436,-2.278208081552779,-0.8713748455047607,0.4555053412914276,0.18226611614227295,0.5834056735038757,-0.0759681835770607,2.1009361743927
3.544240951538086,-0.08005452156066895,-0.026183992624282837,-0.07453060150146484,-0.5156879828536757,-1.7771654067576121,-2.2769601393650345,-0.8514946103096008,0.4931334853172302,0.1782599538564682,0.47593241930007935,0.06351203471422195,2.103505849838257
3.5644309520721436,-0.11923295259475708,-0.11009687185287476,-0.03628957271575928,-0.5601889493900862,-1.769203746100343,-2.271174670869081,-0.8305351734161377,0.5313462615013123,0.16698122024536133,1.0168193578720093,0.4136066734790802,2.127925157546997
3.584380865097046,-0.034509241580963135,-0.05433309078216553,-0.13047051429748535,-0.6057865185477517,-1.7474853099665038,-2.246679313064065,-0.8092560768127441,0.5694088339805603,0.14449341595172882,1.8260877132415771,0.3263493478298187,1.9883613586425781
3.6042988300323486,0.1110416054725647,-0.08909803628921509,-0.13751614093780518,-0.6509133797160556,-1.7191509185659726,-2.2057772311461776,-0.7867923378944397,0.6059132814407349,0.11758819967508316,1.9770219326019287,0.15590782463550568,1.9164446592330933
3.624145030975342,0.14414608478546143,-0.22036784887313843,0.03436969965696335,-0.6941207511652614,-1.6931041971457723,-2.167468293094871,-0.7628747224807739,0.6397098898887634,0.09377364814281464,1.6586662530899048,0.07845405489206314,1.987282395362854
3.6442530155181885,0.11457401514053345,-0.3080539107322693,0.00034248828887939453,-0.7356383039947201,-1.6668214901231846,-2.131508052440149,-0.7379871606826782,0.6710605621337891,0.07108395546674728,1.632387399673462,0.12559182941913605,1.8095463514328003
3.6640210151672363,0.12202882766723633,-0.23274201154708862,-0.08969604969024658,-0.7721290093186737,-1.6365564293618444,-2.087736684205584,-0.7148786187171936,0.6976621150970459,0.04707837104797363,1.769338846206665,-0.10217573493719101,1.5642516613006592
3.684358835220337,0.14750230312347412,-0.20331913232803345,0.018670912832021713,-0.8029187887234255,-1.6066414044963169,-2.041406573349648,-0.6941635608673096,0.7193865776062012,0.024893010035157204,1.5733717679977417,-0.12994398176670074,1.3807793855667114
3.70415997505188,0.1380334496498108,-0.21115463972091675,0.13273334503173828,-0.830003662725853,-1.5746217132949631,-1.9970036555275676,-0.6748681664466858,0.7379338145256042,0.0025816443376243114,1.6509621143341064,0.10931245237588882,1.3181921243667603
3.724017858505249,0.17200332880020142,-0.16540056467056274,0.057202041149139404,-0.8550263613985051,-1.5297476733750783,-1.9405583546538905,-0.6556459665298462,0.7545881867408752,-0.026928510516881943,2.115327835083008,0.08086483925580978,1.2310632467269897
3.743912935256958,0.211523175239563,-0.13772660493850708,-0.03731381893157959,-0.8740322442158597,-1.4728298254811591,-1.8657103830662143,-0.6386625170707703,0.7669228315353394,-0.06276846677064896,2.5335676670074463,-0.030097369104623795,0.9813769459724426
3.7638418674468994,0.2001124620437622,-0.22096580266952515,0.03964237868785858,-0.8842036441403386,-1.4093737218687004,-1.7876016538086619,-0.6256648898124695,0.773410439491272,-0.1018829345703125,2.162214994430542,0.42518794536590576,0.6762464642524719
3.783750057220459,0.23831063508987427,-0.34357476234436035,0.16053837537765503,-0.8884583164002593,-1.3506196126082886,-1.7284212346958243,-0.615385890007019,0.7761004567146301,-0.13772642612457275,1.4278736114501953,0.7936246395111084,0.4585264027118683
3.8028039932250977,0.317483127117157,-0.3707529306411743,0.15894858539104462,-0.8917838211233886,-1.3021158125689187,-1.686599599021353,-0.6054928302764893,0.7781932950019836,-0.16671524941921234,1.1395421028137207,0.7706963419914246,0.553824245929718
3.8240091800689697,0.29646873474121094,-0.32568854093551636,0.048195093870162964,-0.8911198421760856,-1.2509024716969226,-1.6447271078821113,-0.596655011177063,0.7777761220932007,-0.1976548582315445,1.391714334487915,0.9917083382606506,0.16082900762557983
3.843618154525757,0.3137313723564148,-0.18915331363677979,0.04211723804473877,-0.8825955647296618,-1.1970595802254629,-1.6000305889665636,-0.5913040637969971,0.7723900675773621,-0.2318907231092453,1.5485477447509766,0.9728622436523438,0.0431976318359375
3.8636250495910645,0.35488784313201904,-0.1601315140724182,0.08669674396514893,-0.8719027945640384,-1.1433824860197954,-1.5547391321306607,-0.5854939818382263,0.7655545473098755,-0.26668936014175415,1.4689087867736816,0.926106870174408,0.11993827670812607
3.883417844772339,0.36829495429992676,-0.15119779109954834,0.14447665214538574,-0.8620120880428166,-1.098109046228658,-1.5165645799631993,-0.5795376896858215,0.7591537833213806,-0.2963472902774811,1.2776228189468384,0.6902469992637634,0.07787168771028519
3.902323007583618,0.351487398147583,-0.1830562949180603,0.14211970567703247,-0.851269512414832,-1.057303863118329,-1.4784023528235208,-0.5740368962287903,0.7521176338195801,-0.3237297534942627,1.4744629859924316,0.4831666350364685,0.1610937863588333
3.9236271381378174,0.3436492681503296,-0.046733975410461426,0.07251274585723877,-0.8377813537817314,-1.0189811014543615,-1.4334069590329102,-0.5697998404502869,0.7431604266166687,-0.350771963596344,1.797511339187622,-0.05201873183250427,0.18615446984767914
3.943472146987915,0.29704707860946655,0.00025331974029541016,0.016698867082595825,-0.8205375403644636,-0.9876813013483264,-1.383529174367732,-0.569157063961029,0.7315124273300171,-0.37543290853500366,1.953527808189392,-0.46766048669815063,0.1666267216205597
3.963531970977783,0.2321453094482422,-0.06803727149963379,0.11218529939651489,-0.802263861283845,-0.9621231220979355,-1.3355493129260165,-0.570249617099762,0.7189314961433411,-0.3974330723285675,1.723412275314331,-0.39023688435554504,0.1925402283668518
3.983114004135132,0.22003138065338135,-0.1642301082611084,0.2514498233795166,-0.7883813355523053,-0.9412770718193395,-1.2971468070593097,-0.5698543787002563,0.7092130780220032,-0.4150697886943817,1.3509521484375,-0.3086651563644409,0.22953470051288605
4.002011060714722,0.20687758922576904,-0.15556800365447998,0.1804104447364807,-0.7746522097237741,-0.9255158148198233,-1.2632128704237298,-0.5709676146507263,0.6994675397872925,-0.42981529235839844,1.4893074035644531,-0.5454240441322327,0.08510079234838486
4.0228941440582275,0.17680680751800537,-0.07682138681411743,0.1123582124710083,-0.7548217840704454,-0.9151180392502752,-1.226024512398569,-0.5773501396179199,0.6851588487625122,-0.4440995454788208,1.8007584810256958,-0.9691116213798523,-0.08431443572044373
4.0417890548706055,0.09259319305419922,-0.0495491623878479,0.0525834858417511,-0.7300672470441223,-0.9145007207317825,-1.187396868753597,-0.5903348922729492,0.6669197678565979,-0.4546677768230438,1.8311580419540405,-1.6387523412704468,-0.07892102003097534
4.06324315071106,0.028528153896331787,0.05642884969711304,0.015458345413208008,-0.7081966339686762,-0.9264939205197537,-1.1556728299654682,-0.6072635054588318,0.6504651308059692,-0.45620840787887573,1.4174741506576538,-1.6083863973617554,-0.28676727414131165
4.084808111190796,-0.12806403636932373,0.12125551700592041,0.1350865662097931,-0.6920652544846096,-0.9394738147617953,-1.1324565262942135,-0.6215239763259888,0.6381286382675171,-0.4544224441051483,1.1933996677398682,-1.5290355682373047,0.21591845154762268
4.102982997894287,0.03380453586578369,0.1016162633895874,-0.3686867952346802,-0.6784291136881441,-0.9604870338085908,-1.0953325225590764,-0.638006865978241,0.6275707483291626,-0.44620880484580994,1.5405668020248413,-2.762928009033203,0.2791979908943176
4.1227240562438965,0.12414759397506714,0.4125198721885681,-0.047774702310562134,-0.6627431583082677,-0.9947774195921033,-1.065044413787473,-0.6611043810844421,0.6152816414833069,-0.4293828308582306,1.6909903287887573,-2.4781620502471924,-0.1386847048997879
4.142719030380249,0.06325125694274902,0.18266505002975464,0.03687942028045654,-0.6446702074729175,-1.0199428460631408,-1.0268847787110555,-0.6810644268989563,0.6009348630905151,-0.41836434602737427,1.7203125953674316,-2.252558946609497,0.2110988050699234
4.162595987319946,-0.023466885089874268,0.1718398928642273,0.19888728857040405,-0.6349397433233588,-1.0319527767046697,-0.9852331854056703,-0.6910259127616882,0.5931289792060852,-0.4131358861923218,1.4944514036178589,-1.1932780742645264,0.7813335657119751
4.182456016540527,-0.4266331195831299,0.14556318521499634,-0.4119417369365692,-0.6280408544304921,-1.0296058834485533,-0.9476177715049913,-0.6935451030731201,0.5875605940818787,-0.4168545603752136,1.733924388885498,-0.37379002571105957,0.2182883769273758
4.202554941177368,-0.4833630919456482,-0.04192912578582764,-0.17717844247817993,-0.6100824505987442,-1.004463374411118,-0.9097894402218399,-0.6916400194168091,0.5729350447654724,-0.4397495985031128,1.9179116487503052,0.5857027769088745,-0.003985411021858454
4.222243070602417,-0.08886873722076416,0.11115121841430664,-0.02312663197517395,-0.5908066857975908,-0.9720755000095888,-0.8682319166007294,-0.6860336065292358,0.5570311546325684,-0.4680536985397339,1.8989273309707642,0.17311398684978485,0.35457277297973633
4.242385149002075,0.1823732852935791,0.067302405834198,0.07760593295097351,-0.5809301046628151,-0.9516040460616852,-0.8260349361139969,-0.6807558536529541,0.5488017201423645,-0.48516809940338135,1.6092596054077148,-0.407946914434433,0.7843860387802124
4.262594938278198,0.12630963325500488,0.0968468189239502,0.09958851337432861,-0.5742055345557383,-0.9365709028318224,-0.7821736531919738,-0.6763432025909424,0.5431678891181946,-0.4975224435329437,1.8256224393844604,-0.383032888174057,0.8046590685844421
4.282498121261597,-0.031436383724212646,0.13074851036071777,0.020355224609375,-0.562152734183384,-0.9152567021861758,-0.7353505149659073,-0.6707273125648499,0.533008873462677,-0.515777587890625,2.0564749240875244,-0.0072196596302092075,0.5980271697044373
4.302134037017822,-0.0396273136138916,-0.0003839731216430664,0.02795732021331787,-0.5441815107399929,-0.8887267547742274,-0.6880798954721061,-0.6641386151313782,0.5177180171012878,-0.5393403768539429,2.1343069076538086,0.11145559698343277,0.5272665023803711
4.322139024734497,0.04719656705856323,-0.10274845361709595,0.101654052734375,-0.5278277570420649,-0.8666443377465399,-0.6469054497243288,-0.658433198928833,0.5036579370498657,-0.5592803955078125,1.6136455535888672,-0.015020857565104961,0.4758925139904022
4.341392993927002,0.020574986934661865,-0.18460038304328918,0.10225993394851685,-0.5173195266220276,-0.8524803261227272,-0.6154321176752029,-0.6543945670127869,0.4945521950721741,-0.5720016360282898,1.1665476560592651,-0.09703361243009567,0.5098318457603455
4.361912965774536,-0.049581825733184814,-0.14060106873512268,0.08976519107818604,-0.5111062077421317,-0.841475268328049,-0.590917756529964,-0.650338888168335,0.48914238810539246,-0.5812049508094788,0.8526884317398071,0.008073010481894016,0.4242421090602875
4.3819260597229,-0.10311520099639893,-0.17013871669769287,0.12855291366577148,-0.5082355649319171,-0.8312896168699161,-0.5738532166427287,-0.6454200148582458,0.48663657903671265,-0.588742733001709,0.4275254011154175,0.17706559598445892,0.38984039425849915
4.401815176010132,-0.09201139211654663,-0.21409723162651062,0.1624031662940979,-0.5123425117721555,-0.8216978098415205,-0.5633264911441118,-0.6382742524147034,0.490220308303833,-0.5935401916503906,-0.03618819639086723,0.2753039002418518,0.5487634539604187
4.420691013336182,-0.07053416967391968,-0.2100246548652649,0.18356257677078247,-0.5242362787330819,-0.8131516101803729,-0.5578815627624207,-0.6288982033729553,0.5005519986152649,-0.5949242115020752,-0.41085466742515564,0.2971631586551666,0.6285190582275391
4.440023183822632,-0.07128196954727173,-0.23512166738510132,0.19023936986923218,-0.5412371976405642,-0.8067246642010144,-0.5571596109587921,-0.6188273429870605,0.5151967406272888,-0.5929797887802124,-0.7139073014259338,0.3131404221057892,0.6288396716117859
4.460834980010986,-0.08356231451034546,-0.23045307397842407,0.18175172805786133,-0.5608495396871446,-0.8031912256225738,-0.562080686271412,-0.6093392968177795,0.5319057703018188,-0.5880321860313416,-0.9389263391494751,0.3115920424461365,0.4822271764278412
4.48166298866272,-0.1009100079536438,-0.239141047000885,0.17260587215423584,-0.5810958214612681,-0.8026945370965752,-0.5735045119064806,-0.6011773943901062,0.5489402413368225,-0.5807325839996338,-1.1557486057281494,0.36463239789009094,0.3026992976665497
4.500004053115845,-0.09505146741867065,-0.2478073239326477,0.1689355969429016,-0.6014408154459334,-0.805294598604668,-0.5917272972462263,-0.5945085287094116,0.5658310651779175,-0.5713098049163818,-1.374834418296814,0.3860001564025879,0.10944849997758865
4.520716905593872,-0.06963938474655151,-0.24155193567276,0.18522429466247559,-0.622338575483598,-0.812521125150378,-0.617508273906309,-0.5899065732955933,0.5829368829727173,-0.5587441325187683,-1.6018372774124146,0.3864624798297882,-0.04760441184043884
4.54169487953186,-0.053850412368774414,-0.2573200464248657,0.1957768201828003,-0.6442284817131358,-0.8234943063559402,-0.6513214954323738,-0.5864998698234558,0.6005817651748657,-0.5434329509735107,-1.9218835830688477,0.5080686211585999,-0.22865281999111176
4.560700178146362,-0.05777108669281006,-0.31269127130508423,0.15432995557785034,-0.6671920952666622,-0.8381611260251464,-0.691318181614654,-0.5839983820915222,0.618782639503479,-0.5254083871841431,-1.9230494499206543,0.4237046539783478,-0.19454078376293182
4.581418991088867,-0.07153528928756714,-0.2566317319869995,0.09266644716262817,-0.6869869489130106,-0.8553270538372403,-0.7303858919138729,-0.5835703611373901,0.634210467338562,-0.5071713924407959,-1.7063772678375244,0.3225615322589874,-0.4362380802631378
4.601253986358643,-0.12853622436523438,-0.1407579779624939,0.046767204999923706,-0.6960815391572498,-0.8786896906311851,-0.7760193257471402,-0.5907935500144958,0.6412157416343689,-0.48969927430152893,-1.5847384929656982,0.2559298574924469,-1.1493111848831177
4.621193170547485,-0.1515396237373352,-0.22589409351348877,0.01968473196029663,-0.6950973316614448,-0.9093565734724547,-0.830979197093213,-0.6060287356376648,0.640460193157196,-0.47174155712127686,-1.7052650451660156,0.22544768452644348,-1.5130378007888794
4.641229867935181,-0.09430402517318726,-0.2956357002258301,0.05325525999069214,-0.6921521802304398,-0.9472533394886329,-0.8961120461665297,-0.6249953508377075,0.6381955742835999,-0.44954124093055725,-2.1995625495910645,0.12394563853740692,-1.7320172786712646
4.660032033920288,-0.04305469989776611,-0.3147575259208679,0.04704061150550842,-0.692571726701173,-0.9997488127290665,-0.9792293060189166,-0.6474970579147339,0.6385185122489929,-0.41598281264305115,-3.182274103164673,-0.09034668654203415,-1.8133630752563477
4.681066989898682,-0.04735654592514038,-0.2077847719192505,-0.07371634244918823,-0.697029848806065,-1.0690982626451626,-1.0811872598573558,-0.6722632646560669,0.6419431567192078,-0.3687427043914795,-3.5768043994903564,-0.26530706882476807,-1.82648766040802
4.701205015182495,-0.1498759388923645,0.15068703889846802,-0.2480001449584961,-0.6955221862496163,-1.1335918965226044,-1.177225110175499,-0.6955068111419678,0.6407864093780518,-0.3250589072704315,-2.7071878910064697,0.017171788960695267,-1.7179276943206787
4.720886945724487,-0.2143625020980835,0.4577144980430603,-0.3043258786201477,-0.6762701658578226,-1.1715479872536358,-1.2398259720388842,-0.7185751795768738,0.625888466835022,-0.30317223072052,-1.0640153884887695,0.13620248436927795,-2.004879951477051
4.740879058837891,-0.1769276261329651,0.4431399703025818,-0.19663017988204956,-0.646418367868692,-1.1914064961044233,-1.2775899489302123,-0.7414836883544922,0.6023312211036682,-0.29563355445861816,-0.7580517530441284,0.1979214996099472,-1.8462716341018677
4.760784864425659,-0.13987833261489868,0.21220076084136963,-0.09827935695648193,-0.6214911296396847,-1.2106868851881982,-1.3172856642105462,-0.7608633041381836,0.5822480916976929,-0.2864861786365509,-1.4346187114715576,0.26381319761276245,-1.679678201675415
4.7808380126953125,-0.21297287940979004,0.12090075016021729,-0.06635841727256775,-0.6036142050246083,-1.2341011139427962,-1.3749790614777422,-0.7770633101463318,0.5676217079162598,-0.27198994159698486,-2.3862743377685547,0.7683497071266174,-1.6129047870635986
4.800848007202148,-0.22508752346038818,0.12930095195770264,-0.062061429023742676,-0.59125767933539,-1.2547440767315965,-1.449564525845902,-0.7891184687614441,0.5574056506156921,-0.25805264711380005,-3.0369317531585693,1.3228214979171753,-1.5364289283752441
4.820781946182251,-0.08087760210037231,0.14758944511413574,-0.02984672784805298,-0.5823968023934338,-1.2712267552152563,-1.5319633661896166,-0.79795241355896,0.5500271916389465,-0.24645933508872986,-3.1089847087860107,1.5652687549591064,-1.3872435092926025
4.839972019195557,0.08438622951507568,0.1266424059867859,-0.01921585202217102,-0.5741203315751523,-1.2806995402848487,-1.6072024628702943,-0.8045857548713684,0.5430963635444641,-0.24018347263336182,-2.7113964557647705,1.5719631910324097,-1.250747799873352
4.860383987426758,0.18718653917312622,0.10431826114654541,0.019175946712493896,-0.5650250770215323,-1.2858034527236695,-1.6732215908444883,-0.810508131980896,0.5354369878768921,-0.23745283484458923,-2.4203672409057617,1.5006332397460938,-1.2166521549224854
4.880597829818726,0.22735393047332764,0.029841721057891846,0.04885530471801758,-0.5548481300345017,-1.2893657227481279,-1.7360741716101986,-0.8165416121482849,0.5268142223358154,-0.2360653281211853,-2.4861903190612793,1.5110243558883667,-1.2511670589447021
4.900467157363892,0.2415100336074829,-0.04784119129180908,0.09184616804122925,-0.5455938493886245,-1.2941679645551663,-1.8039978277290258,-0.8223206400871277,0.5189258456230164,-0.23346292972564697,-2.886601209640503,1.556261420249939,-1.223585605621338
4.919952154159546,0.23750263452529907,-0.12233597040176392,0.12524934113025665,-0.5398397718290092,-1.3032372145573685,-1.8820796147651973,-0.8272700905799866,0.5139985680580139,-0.22678124904632568,-3.4160594940185547,1.599851131439209,-1.133849859237671
4.940050840377808,0.19893550872802734,-0.1552247405052185,0.1510445773601532,-0.537909015380554,-1.3154621971463707,-1.9711291215597126,-0.8309392333030701,0.5123414397239685,-0.21690143644809723,-3.9210550785064697,1.7504360675811768,-1.0283548831939697
4.960849046707153,0.15020817518234253,-0.12949228286743164,0.16897621750831604,-0.5389505001668713,-1.3294569039986546,-2.0691523762720205,-0.8333746194839478,0.5132355690002441,-0.205124169588089,-4.247398853302002,1.8750765323638916,-0.9458538889884949
4.980108022689819,0.09964960813522339,-0.10943758487701416,0.20155252516269684,-0.5418633938768229,-1.345157070443313,-2.1715913501681623,-0.8350316882133484,0.5157333612442017,-0.19168002903461456,-4.371546268463135,1.81138277053833,-0.8036810159683228
5.0,-0.0042912960052490234,-0.05336195230484009,0.2562069296836853,-0.5460903112643833,-1.3632591128623133,-2.275241447237697,-0.8362239003181458,0.5193501114845276,-0.17608293890953064,-4.376500129699707,1.7689766883850098,-0.7136710286140442
5.019927978515625,-0.196713387966156,0.007189631462097168,0.3059224486351013,-0.5491767428932758,-1.3805984475786872,-2.377447109818957,-0.8375731110572815,0.5219852328300476,-0.16125380992889404,-4.273197650909424,1.8566995859146118,-0.7270591259002686
5.039945840835571,-0.4289509654045105,0.053852736949920654,0.3619442582130432,-0.5488885174700402,-1.3926504508950683,-2.478179858330219,-0.8396037817001343,0.5217393636703491,-0.15117456018924713,-4.195431709289551,2.2411742210388184,-0.8920454978942871
5.0600268840789795,-0.5276947021484375,0.07999300956726074,0.38688158988952637,-0.5435290000869463,-1.3966349243940641,-2.5775034774939547,-0.8429412841796875,0.517159640789032,-0.14831039309501648,-4.058344841003418,2.442063570022583,-1.1390358209609985
5.07993483543396,-0.3768177032470703,0.147161602973938,0.30325257778167725,-0.5315567150852398,-1.3984019388543352,-2.6704671963369377,-0.849241316318512,0.5068758726119995,-0.14787225425243378,-3.533550500869751,2.0538697242736816,-1.4123026132583618
5.100043058395386,-0.13340795040130615,0.25074267387390137,0.11709631979465485,-0.5119267134412573,-1.4028935862534515,-2.7435648538630955,-0.8595424890518188,0.48985788226127625,-0.1456911861896515,-2.2765491008758545,1.0857915878295898,-1.5998889207839966
5.119995832443237,0.052319884300231934,0.3078855574131012,-0.06534762680530548,-0.4837927890193001,-1.4106820617267133,-2.7812613641646147,-0.8739143013954163,0.46514004468917847,-0.14113427698612213,-0.5084607005119324,-0.041558638215065,-1.7027114629745483
5.140007972717285,0.1278185248374939,0.322904497385025,-0.13606755435466766,-0.44912287970238846,-1.4202251521429876,-2.7799819155342544,-0.8906359672546387,0.434175580739975,-0.13512682914733887,1.0678430795669556,-0.9000961780548096,-1.7138787508010864
5.160185098648071,0.10728985071182251,0.31412631273269653,-0.07304047048091888,-0.410285453918693,-1.4311979792225022,-2.751940380170987,-0.908086359500885,0.3988710939884186,-0.12759728729724884,1.9082903861999512,-1.288095235824585,-1.7777743339538574
5.179929971694946,0.08270156383514404,0.29039448499679565,0.01346723735332489,-0.3694743685349007,-1.4427236324242478,-2.7146906389218137,-0.9248800873756409,0.36112532019615173,-0.11910380423069,1.9222359657287598,-1.2461148500442505,-1.8047608137130737
5.199944972991943,0.09350669384002686,0.2622285485267639,0.061928316950798035,-0.33032433230200264,-1.4551785048822985,-2.684931839974236,-0.9396219849586487,0.32434985041618347,-0.10912372171878815,1.2851753234863281,-1.0176241397857666,-1.7283965349197388
5.219943046569824,0.12037014961242676,0.21441304683685303,0.001983821392059326,-0.2956268229284637,-1.4683890727688078,-2.669273542849052,-0.9516080617904663,0.29133954644203186,-0.09779366850852966,0.6109683513641357,-0.8039077520370483,-1.5581904649734497
5.239971876144409,0.1504421830177307,0.2383505403995514,-0.11282355338335037,-0.26588511414417787,-1.4818967888495675,-2.66471337036201,-0.961050271987915,0.2627633810043335,-0.08566271513700485,0.14841397106647491,-0.6938666701316833,-1.3630017042160034
5.2599451541900635,0.1918114423751831,0.3045821189880371,-0.1507256031036377,-0.24100275500764548,-1.494860773166773,-2.665720738165238,-0.9683006405830383,0.238676518201828,-0.07367009669542313,0.0012478167191147804,-0.5837732553482056,-1.1364156007766724
5.279939889907837,0.19273948669433594,0.3638550341129303,-0.1887112855911255,-0.2200078086263713,-1.5055866812971803,-2.666712920468475,-0.9738216996192932,0.2182372361421585,-0.06359273195266724,0.08679130673408508,-0.4775308072566986,-0.9859951138496399
5.29994797706604,0.17059028148651123,0.4526270627975464,-0.25783389806747437,-0.20100643809044483,-1.5136835169903617,-2.6625920704233272,-0.9782685041427612,0.19965560734272003,-0.05593248829245567,0.47702836990356445,-0.4241248369216919,-0.8957467079162598
5.3207480907440186,0.18843555450439453,0.5050577521324158,-0.31742990016937256,-0.18350087842078877,-1.519608141099003,-2.6494154166517183,-0.9819231629371643,0.18247278034687042,-0.050306811928749084,0.883445143699646,-0.4337242841720581,-0.7723151445388794
5.33989691734314,0.25256747007369995,0.48257917165756226,-0.32536226511001587,-0.16912002919075173,-1.5253316789956195,-2.6300492400748725,-0.9847148060798645,0.16831499338150024,-0.04480058327317238,1.0628786087036133,-0.47832193970680237,-0.5702127814292908
5.36005711555481,0.3038431406021118,0.44068583846092224,-0.30861276388168335,-0.15898201666949816,-1.5315377747264571,-2.6084701415982834,-0.9866282343864441,0.15831314027309418,-0.03875350579619408,1.1073659658432007,-0.49263375997543335,-0.35971397161483765
5.3801000118255615,0.3187149167060852,0.43956929445266724,-0.31872010231018066,-0.15262103572301558,-1.5379632385140503,-2.5851630576566422,-0.98784339427948,0.15202921628952026,-0.03244560956954956,1.2590227127075195,-0.5190178751945496,-0.20714116096496582
5.400002956390381,0.30114054679870605,0.4768320322036743,-0.347198486328125,-0.14857666853549048,-1.5444873017814291,-2.556604524914289,-0.988640546798706,0.14803063869476318,-0.026016172021627426,1.5964007377624512,-0.562371015548706,-0.11589498817920685
5.420001029968262,0.26020413637161255,0.5082639455795288,-0.33304160833358765,-0.14598631167852114,-1.5506561371085579,-2.5211731160566395,-0.9891623258590698,0.1454683244228363,-0.01992461085319519,1.9004764556884766,-0.5651376843452454,-0.07287895679473877
5.439949035644531,0.17877238988876343,0.5076680779457092,-0.27146804332733154,-0.1439053679973033,-1.555530732778163,-2.4816945916956152,-0.9895482659339905,0.14340919256210327,-0.015107215382158756,1.9860341548919678,-0.4973621964454651,-0.07120253890752792
5.459959030151367,0.06839340925216675,0.5019555687904358,-0.19830679893493652,-0.14178376923521344,-1.5594862908520883,-2.4418326851803847,-0.9899023175239563,0.1413092017173767,-0.011196307837963104,1.9704704284667969,-0.47654321789741516,-0.0879373699426651
5.4800450801849365,-0.10552585124969482,0.5453776717185974,-0.1553594470024109,-0.13936868726495125,-1.5623778209721222,-2.402005978093594,-0.9902688264846802,0.1389179527759552,-0.008336780592799187,2.00909423828125,-0.3333463668823242,-0.1329641491174698
5.499976873397827,-0.30992764234542847,0.6309860944747925,-0.14492589235305786,-0.13588061178558009,-1.5606604676045006,-2.360066191119824,-0.9907315373420715,0.13546286523342133,-0.010042259469628334,2.164837598800659,-0.06110845506191254,-0.16351985931396484
5.5199480056762695,-0.3908817172050476,0.698885440826416,-0.11169731616973877,-0.13306508640022718,-1.55283265207864,-2.314847218609898,-0.9909999370574951,0.1326727569103241,-0.017803916707634926,2.3245139122009277,0.23752181231975555,-0.021752452477812767
5.5399439334869385,-0.29359304904937744,0.7051839232444763,-0.016488011926412582,-0.13480833841641718,-1.5392482570846922,-2.2677621000319834,-0.9904340505599976,0.1344003975391388,-0.03125665336847305,2.318593740463257,0.489871084690094,0.3517284095287323
5.559952974319458,-0.12444394826889038,0.6388959288597107,0.09584343433380127,-0.14575350675700063,-1.5212212021657021,-2.2215090194025913,-0.9881812334060669,0.1452379822731018,-0.049029380083084106,2.2442288398742676,0.6247026920318604,0.9473944902420044
5.579975843429565,-0.030373334884643555,0.5412653684616089,0.1544179916381836,-0.16806659935403526,-1.5014829387050976,-2.1741034623757804,-0.9835427403450012,0.1672765016555786,-0.06828206777572632,2.337698459625244,0.5922162532806396,1.5341018438339233
5.599941968917847,-0.05955839157104492,0.47543153166770935,0.17758822441101074,-0.19853865338698698,-1.4803142547206127,-2.122242955372484,-0.9763455986976624,0.19723689556121826,-0.08858364820480347,2.522334098815918,0.6073914766311646,1.8685730695724487
5.619986057281494,-0.1335049271583557,0.42854851484298706,0.2124490737915039,-0.2315503402969835,-1.4552484964675594,-2.0649603596282655,-0.9668216705322266,0.22948676347732544,-0.11221399158239365,2.716740608215332,0.6625829339027405,1.9849339723587036
5.639992952346802,-0.14490294456481934,0.38051778078079224,0.263705849647522,-0.2644293148813724,-1.4273792670306407,-2.002907497917166,-0.9553321599960327,0.26135846972465515,-0.1379580795764923,2.8313028812408447,0.5806335210800171,2.0518970489501953
5.6599440574646,-0.172279953956604,0.3447462022304535,0.31316202878952026,-0.2957462446190931,-1.3981218146953276,-1.9375388038316372,-0.9423593878746033,0.2914537787437439,-0.1643582284450531,2.8786988258361816,0.5690454840660095,2.0225765705108643
5.679944038391113,-0.22605043649673462,0.2940431833267212,0.3653562068939209,-0.3243135631649965,-1.365772113996402,-1.8713528293429333,-0.9280175566673279,0.3186582028865814,-0.19297760725021362,2.7629528045654297,0.6571018695831299,1.984674334526062
5.699948072433472,-0.2330319881439209,0.22049862146377563,0.4204620122909546,-0.35172647660607753,-1.3305617965512393,-1.8082895265803198,-0.9118197560310364,0.34451910853385925,-0.2233641892671585,2.420916795730591,0.7742856740951538,2.0256972312927246
5.719944000244141,-0.21917122602462769,0.14302614331245422,0.4708118736743927,-0.3807065477171166,-1.2937946719034872,-1.7517523361461027,-0.8930114507675171,0.3715765178203583,-0.25389283895492554,1.9433858394622803,0.8848200440406799,2.1439900398254395
5.739943027496338,-0.2242908477783203,0.07926160097122192,0.5054807662963867,-0.4132341512602077,-1.2562499426048288,-1.70312321656754,-0.8708934783935547,0.4015733599662781,-0.28334322571754456,1.405085802078247,0.9901066422462463,2.2842090129852295
5.759942054748535,-0.26242560148239136,0.02774447202682495,0.5531307458877563,-0.4498787020498412,-1.2184538929213757,-1.662758555176264,-0.845179557800293,0.4348562955856323,-0.31076011061668396,0.8762867450714111,1.1259654760360718,2.378718852996826
5.779979944229126,-0.30794376134872437,-0.024584829807281494,0.5868276357650757,-0.4900217217551108,-1.1799668971840582,-1.62980462229764,-0.8157898187637329,0.4706450402736664,-0.3361256420612335,0.4260651767253876,1.226581335067749,2.4262969493865967
5.7999489307403564,-0.333015501499176,-0.08158361911773682,0.6187059879302979,-0.5325668151618104,-1.1416708297444866,-1.6029517628160517,-0.7833937406539917,0.5077463388442993,-0.3584519922733307,0.03640474006533623,1.285794973373413,2.41371488571167
5.819962024688721,-0.3234480023384094,-0.1448580026626587,0.652955174446106,-0.5765947355497711,-1.1046447021347017,-1.5812401879511344,-0.7488787174224854,0.545172393321991,-0.37678632140159607,-0.2644210159778595,1.2742069959640503,2.3621485233306885
5.839944124221802,-0.290829598903656,-0.24321579933166504,0.6699182391166687,-0.6208753151042625,-1.0697275420249994,-1.5634441660886682,-0.7133818864822388,0.5817473530769348,-0.3907128572463989,-0.4682021141052246,1.212379813194275,2.24381160736084
5.859943151473999,-0.2393365502357483,-0.3571324348449707,0.663353681564331,-0.663342057738463,-1.0371646327330417,-1.5478501174284,-0.6783880591392517,0.6157536506652832,-0.4007956385612488,-0.5313147306442261,1.1104216575622559,2.0633299350738525
5.879967927932739,-0.1836039423942566,-0.4347839951515198,0.6371696591377258,-0.7008293846868208,-1.0083059258914882,-1.5328079010677733,-0.6465505361557007,0.644851803779602,-0.40760114789009094,-0.420183926820755,0.8391209840774536,1.7420709133148193
5.899940013885498,-0.12998145818710327,-0.45736193656921387,0.5759809613227844,-0.7305879660801755,-0.9853145290770766,-1.517830373287893,-0.620735764503479,0.6673076748847961,-0.41156741976737976,-0.17630618810653687,0.3710336983203888,1.364720106124878
5.919949054718018,-0.10934728384017944,-0.4288577437400818,0.4856190085411072,-0.7479529153772566,-0.9719754442421444,-1.4974419036782165,-0.6055270433425903,0.6801394820213318,-0.4132159948348999,0.541527271270752,-0.42238864302635193,0.9099557399749756
5.939983129501343,-0.1450212597846985,-0.3791933059692383,0.39391016960144043,-0.747623970493461,-0.9634989894459511,-1.4629245511379008,-0.6021864414215088,0.6798983216285706,-0.41846147179603577,1.5438066720962524,-1.051449179649353,0.5072801113128662
5.959943056106567,-0.20476025342941284,-0.3947262763977051,0.4005548059940338,-0.7306106468930024,-0.9570009584543752,-1.4155246443988536,-0.6088231205940247,0.6673245429992676,-0.42896658182144165,2.240504026412964,-1.457747220993042,0.1087932214140892
5.979942083358765,-0.2559323310852051,-0.45251208543777466,0.4532073438167572,-0.7023640550466175,-0.9546654562941592,-1.3656535983756615,-0.6229586601257324,0.6460239887237549,-0.4411070644855499,2.379734754562378,-1.5514265298843384,-0.2422092705965042
5.999966859817505,-0.26919418573379517,-0.465351402759552,0.4768199920654297,-0.6696561297876041,-0.958574764774006,-1.3240002532541988,-0.6416335105895996,0.620716392993927,-0.4505747854709625,2.12099289894104,-1.4964916706085205,-0.5590333342552185
6.019952058792114,-0.23399317264556885,-0.4396144151687622,0.3999096751213074,-0.6362342320650904,-0.9715687259135366,-1.2929587335322836,-0.6642002463340759,0.5941706895828247,-0.4536510705947876,1.8440327644348145,-1.791988492012024,-0.7602002620697021
6.03990912437439,-0.2833443284034729,-0.3588971495628357,0.3479793071746826,-0.603707407287056,-0.997774295780176,-1.2692393246658262,-0.6917381286621094,0.5676984190940857,-0.44633740186691284,1.50711989402771,-2.0962071418762207,-0.895289957523346
6.059890031814575,-0.5374938249588013,-0.3195992708206177,0.45227229595184326,-0.5757002749991467,-1.027147489514476,-1.2612172330841653,-0.7178773283958435,0.5444223284721375,-0.4338853657245636,0.4349111020565033,-1.1053030490875244,-1.135955810546875
6.079882860183716,-0.6223694086074829,-0.4774760603904724,0.5062611699104309,-0.557841379300676,-1.0472606092559937,-1.281387965735284,-0.7347626686096191,0.529356062412262,-0.4241536259651184,-1.023614525794983,0.008880658075213432,-1.2195826768875122
6.099941968917847,-0.2688356637954712,-0.5605055093765259,0.3586099147796631,-0.5538429942710836,-1.071283714288603,-1.327634511408753,-0.7465909719467163,0.5259596109390259,-0.4073921740055084,-2.081188678741455,-0.1505993753671646,-1.0639305114746094
6.119211912155151,-0.09758180379867554,-0.3730194568634033,0.13694724440574646,-0.555546736648274,-1.1110597331564025,-1.3854915451047796,-0.7613964676856995,0.5274078845977783,-0.3769831955432892,-2.247319459915161,-0.7191897630691528,-1.1198474168777466
6.140031099319458,-0.22132885456085205,-0.16348981857299805,0.036343783140182495,-0.5511394243723556,-1.1558955905754682,-1.4430196699667501,-0.7796476483345032,0.523658275604248,-0.34341156482696533,-2.052029609680176,-0.6350746750831604,-1.37156081199646
6.159945011138916,-0.37024426460266113,-0.18418288230895996,0.10812410712242126,-0.5400567452691083,-1.1952562915556055,-1.5028915540327958,-0.7979075908660889,0.5141846537590027,-0.3145754039287567,-2.314833879470825,-0.1657874584197998,-1.599427342414856
6.179940938949585,-0.375319242477417,-0.19423508644104004,0.16351857781410217,-0.5274332995086367,-1.2285843285533815,-1.5706331833087248,-0.8139965534210205,0.50331711769104,-0.2899680435657501,-2.7080886363983154,0.25305506587028503,-1.6208733320236206
6.199940919876099,-0.33723050355911255,-0.0626419186592102,0.10337638854980469,-0.513502260219494,-1.259104149413341,-1.6446023916584638,-0.8290598392486572,0.4912308156490326,-0.267118364572525,-2.8839633464813232,0.33150574564933777,-1.8123862743377686
6.219940900802612,-0.29336267709732056,0.0475316047668457,0.006287306547164917,-0.49301214621026274,-1.2897392997176063,-1.7199299678249313,-0.8463469743728638,0.47328147292137146,-0.24433960020542145,-2.852586030960083,0.2115301787853241,-2.071260929107666
6.239938020706177,-0.20642238855361938,0.11389705538749695,-0.05365924537181854,-0.46629454321234015,-1.3227615865217093,-1.7941705129989514,-0.8659042716026306,0.44957950711250305,-0.2192898839712143,-2.7798590660095215,-0.09355401992797852,-2.237701416015625
6.259958028793335,-0.12415474653244019,0.16808658838272095,-0.11696046590805054,-0.4333975445451485,-1.3558712075671844,-1.8617818118104472,-0.8866637945175171,0.41995665431022644,-0.1935558319091797,-2.3819966316223145,-0.2972069978713989,-2.3651363849639893
6.279939889907837,-0.06482827663421631,0.28901275992393494,-0.1775943636894226,-0.3943466109346129,-1.3865982037756568,-1.9159714799146361,-0.907629668712616,0.38420504331588745,-0.16910049319267273,-1.6723047494888306,-0.5849228501319885,-2.4653408527374268
6.29998517036438,-0.01560366153717041,0.39080438017845154,-0.21670478582382202,-0.34925443372563936,-1.414557168973523,-1.9527635718159815,-0.9281830191612244,0.34219735860824585,-0.146210178732872,-0.9630971550941467,-0.8724139928817749,-2.5641205310821533
6.319936990737915,0.00754934549331665,0.45247411727905273,-0.23636925220489502,-0.2998952724391365,-1.4406871156792327,-1.9734295269185114,-0.9472923874855042,0.29542016983032227,-0.12395169585943222,-0.2956281900405884,-1.0638760328292847,-2.616534471511841
6.339945077896118,0.014736950397491455,0.526532769203186,-0.3109970688819885,-0.24789470739901576,-1.465356078314486,-1.9803750219455516,-0.9640473127365112,0.24536356329917908,-0.1020277738571167,0.23227989673614502,-1.210207462310791,-2.630211353302002
6.359937906265259,0.055288732051849365,0.590391993522644,-0.37121790647506714,-0.19590818651868003,-1.4897545674496775,-1.977225854190432,-0.9776520729064941,0.19465743005275726,-0.0794045552611351,0.5086463689804077,-1.2833609580993652,-2.512590169906616
6.37996506690979,0.10204082727432251,0.6304727792739868,-0.367658793926239,-0.14745042579233886,-1.5137331111841827,-1.9698586869363894,-0.9875388741493225,0.1469167023897171,-0.05641338974237442,0.5306975841522217,-1.2228702306747437,-2.270787000656128
6.399939060211182,0.12081855535507202,0.6559363603591919,-0.3736506700515747,-0.10498331746016921,-1.534802086326012,-1.9609566183843106,-0.9938501715660095,0.1047905758023262,-0.035788338631391525,0.555188775062561,-0.9711112976074219,-1.9136278629302979
6.419940948486328,0.14729022979736328,0.7049638628959656,-0.3949947953224182,-0.07109700399648633,-1.5503787398566746,-1.9508461867508284,-0.9972658753395081,0.07103712111711502,-0.020364591851830482,0.5370564460754395,-0.6898295283317566,-1.448289394378662
6.439935922622681,0.20162314176559448,0.7389059066772461,-0.39662569761276245,-0.04706118510021606,-1.561436294529073,-1.9413274096983582,-0.9988491535186768,0.0470438152551651,-0.00934953335672617,0.4490762948989868,-0.4879414439201355,-0.9423875212669373
6.459942102432251,0.2554019093513489,0.7341727614402771,-0.3815983533859253,-0.033564275362800516,-1.5693067828416893,-1.932985046979453,-0.9994357824325562,0.03355797380208969,-0.001488704583607614,0.41862282156944275,-0.3375447690486908,-0.40643155574798584
6.479938983917236,0.27529048919677734,0.7151926159858704,-0.3718864917755127,-0.030310700875973675,-1.57455104171562,-1.9238016364639678,-0.9995337724685669,0.03030605986714363,0.003752982011064887,0.5313164591789246,-0.22838479280471802,0.06385001540184021
6.499938011169434,0.26136672496795654,0.7099690437316895,-0.364879846572876,-0.03552180696180547,-1.5780607039438923,-1.9104111744757986,-0.9993428587913513,0.035514336079359055,0.0072597311809659,0.835620641708374,-0.18440188467502594,0.43500226736068726
6.519947052001953,0.2288811206817627,0.7032983303070068,-0.34928035736083984,-0.04708529277607485,-1.581007510769608,-1.8895699487535873,-0.9988395571708679,0.04706789553165436,0.01019968930631876,1.2807289361953735,-0.1962699145078659,0.6957426071166992
6.5392820835113525,0.15554243326187134,0.6791998744010925,-0.31761491298675537,-0.06312110524843716,-1.5829854625958728,-1.85926724927847,-0.9979344606399536,0.06307920068502426,0.012164561077952385,1.748220443725586,-0.157029926776886,0.8595311641693115
6.55997109413147,0.06718593835830688,0.6508266925811768,-0.27055275440216064,-0.08170129704120548,-1.582262892506931,-1.821654190120248,-0.9965989589691162,0.08161043375730515,0.01142806839197874,2.006877899169922,-0.034517593681812286,0.9547053575515747
6.579930067062378,0.00681614875793457,0.5840312838554382,-0.19971489906311035,-0.10228897909636214,-1.578121063347556,-1.7812393001783302,-0.9947465062141418,0.10211069881916046,0.007286386098712683,2.010397434234619,0.0636364072561264,1.0806776285171509
6.600008010864258,-0.04455333948135376,0.524411678314209,-0.1298583745956421,-0.12554556783389653,-1.5720021552141208,-1.742169629204899,-0.9921287894248962,0.1252160221338272,0.0011963376309722662,1.8898249864578247,0.10153904557228088,1.2305495738983154
6.619956970214844,-0.16410142183303833,0.5163851976394653,-0.11090326309204102,-0.1508426838400208,-1.5642701976141389,-1.704545539664911,-0.988623857498169,0.15027129650115967,-0.00645197881385684,1.8756341934204102,0.16614529490470886,1.2981867790222168
6.639886140823364,-0.32037168741226196,0.5578566789627075,-0.13206446170806885,-0.1762545214601397,-1.5527078273602966,-1.6643607357881507,-0.9843462705612183,0.1753433644771576,-0.017807288095355034,2.1047253608703613,0.3729912340641022,1.297568917274475
6.659886121749878,-0.3300861716270447,0.5570924282073975,-0.08075284957885742,-0.20199947083493816,-1.5337684742771036,-1.618529579501896,-0.9789958596229553,0.20062854886054993,-0.036266691982746124,2.3152713775634766,0.632240355014801,1.4421533346176147
6.679883003234863,-0.17549872398376465,0.46934986114501953,0.036712050437927246,-0.23158238219438226,-1.5097116195519145,-1.5692648971026124,-0.9714892506599426,0.22951795160770416,-0.059417057782411575,2.3384451866149902,0.6870175004005432,1.7591884136199951
6.699886083602905,-0.12708932161331177,0.4159320890903473,0.11505020409822464,-0.26544252425468057,-1.4833531492144159,-1.5169030663485277,-0.9612895846366882,0.2623363137245178,-0.08427312225103378,2.567101240158081,0.6634239554405212,1.94674813747406
6.719948053359985,-0.22663241624832153,0.4143144190311432,0.13031062483787537,-0.2985672247595709,-1.4533903699803918,-1.4557828672846274,-0.9491792321205139,0.2941511273384094,-0.11195416748523712,2.943298816680908,0.6233117580413818,1.9430240392684937
6.73994517326355,-0.323028028011322,0.38865745067596436,0.17070992290973663,-0.3277018933360354,-1.4200753309779224,-1.3865185844396435,-0.9360508918762207,0.32186806201934814,-0.14216063916683197,3.187396764755249,0.5743905901908875,1.812624454498291
6.75988507270813,-0.39153939485549927,0.36242276430130005,0.2346177101135254,-0.3511391200681304,-1.384566719516592,-1.31373846640258,-0.922745943069458,0.34396764636039734,-0.17385715246200562,3.149627208709717,0.5657622814178467,1.6740778684616089
6.779903173446655,-0.40710246562957764,0.32903140783309937,0.32692790031433105,-0.3716497819338903,-1.3475220939492325,-1.2438077202954796,-0.9086019396781921,0.3631530702114105,-0.2063070833683014,2.805285930633545,0.6970017552375793,1.7049716711044312
6.799903154373169,-0.3776795268058777,0.2356313169002533,0.39346325397491455,-0.39470039885912855,-1.308787909860326,-1.1820510184191988,-0.8916075825691223,0.3845316469669342,-0.23910529911518097,2.19832444190979,0.8776374459266663,1.942055344581604
6.819938898086548,-0.3303508758544922,0.13785740733146667,0.43941357731819153,-0.4248916340085922,-1.268547049760116,-1.1306058796661862,-0.8697835803031921,0.4122220575809479,-0.27120065689086914,1.5086658000946045,1.1291515827178955,2.284984827041626
6.839937925338745,-0.3050304651260376,0.053251564502716064,0.4709436595439911,-0.4640317612213696,-1.225389605930142,-1.088591980944562,-0.8414386510848999,0.44755715131759644,-0.30277642607688904,0.8745911717414856,1.363559603691101,2.6362600326538086
6.859946012496948,-0.26128512620925903,-0.04546314477920532,0.49323347210884094,-0.5118942879154678,-1.1804878899380664,-1.052522116336559,-0.8062502145767212,0.4898295998573303,-0.3317038416862488,0.399170845746994,1.4199137687683105,2.9804489612579346
6.8799378871917725,-0.22160756587982178,-0.09782183170318604,0.52150559425354,-0.5662080356151556,-1.1352421760274618,-1.0188232267013693,-0.7651478052139282,0.5364357233047485,-0.3560696840286255,0.13233785331249237,1.3762794733047485,3.131047010421753
6.899935007095337,-0.21991455554962158,-0.17345023155212402,0.5477821826934814,-0.6211350156953066,-1.0894656078560843,-0.984035064497026,-0.7208203077316284,0.581958532333374,-0.3764868974685669,0.04526052251458168,1.2791649103164673,3.0555152893066406
6.9199378490448,-0.22278892993927002,-0.34013450145721436,0.5936480760574341,-0.6711513814808594,-1.040242700938087,-0.9464873181088824,-0.6754502058029175,0.6218880414962769,-0.39626026153564453,0.1599445343017578,1.3997238874435425,2.7581136226654053
6.939936876296997,-0.18616026639938354,-0.5762573480606079,0.6052957773208618,-0.7121957241213892,-0.9881590061943406,-0.9081165622121596,-0.6320464611053467,0.6534973382949829,-0.41648346185684204,0.18378476798534393,1.3199312686920166,2.260241985321045
6.959996938705444,-0.14679360389709473,-0.6760488748550415,0.539729118347168,-0.7409179982383002,-0.9420963891438113,-0.8740348270537242,-0.596767246723175,0.6749655604362488,-0.4339246451854706,0.28354519605636597,0.9936925768852234,1.534537672996521
6.979936838150024,-0.10497856140136719,-0.5470913052558899,0.4784511923789978,-0.7535155728817372,-0.9098667698133838,-0.8470855298191741,-0.5757160186767578,0.6842068433761597,-0.4476741850376129,0.6183112859725952,0.3571718633174896,0.6635411381721497
6.9999449253082275,-0.08395630121231079,-0.4104245901107788,0.4367515742778778,-0.7473903187443475,-0.8910669009506003,-0.8208755666989106,-0.5704473257064819,0.6797269582748413,-0.46104350686073303,1.2626971006393433,-0.21438251435756683,0.12087234854698181
7.0199830532073975,-0.09161204099655151,-0.4450746178627014,0.5069475173950195,-0.7286584911315073,-0.8780553672509117,-0.7910495458707617,-0.5740984678268433,0.6658693552017212,-0.47647568583488464,1.5434356927871704,-0.46677953004837036,-0.16805529594421387
7.039933919906616,-0.16163724660873413,-0.5396510362625122,0.5930655002593994,-0.7054013476158815,-0.8708409056120675,-0.7660191679141616,-0.5823355913162231,0.6483394503593445,-0.4904501140117645,1.3431639671325684,-0.41007915139198303,-0.3888700306415558
7.059941053390503,-0.2097623348236084,-0.5615181922912598,0.6210939288139343,-0.6848187542121954,-0.8697495868241787,-0.7523428029167843,-0.5918734669685364,0.6325326561927795,-0.49958813190460205,0.7806648015975952,-0.391880601644516,-0.480598509311676
7.0799009799957275,-0.223910391330719,-0.5321439504623413,0.5980103611946106,-0.6706552241398798,-0.8781873122084223,-0.7509471248917405,-0.602902352809906,0.6214994192123413,-0.5002472400665283,0.2252267301082611,-0.54266756772995,-0.5666606426239014
7.099936008453369,-0.2674912214279175,-0.4547421932220459,0.5701096653938293,-0.6604010515765492,-0.8964393790843043,-0.7614455002609083,-0.6168776750564575,0.6134336590766907,-0.49311378598213196,-0.1993718296289444,-0.6206828951835632,-0.7488850951194763
7.119933843612671,-0.3044465184211731,-0.41671913862228394,0.5593438148498535,-0.6523330029144182,-0.9212458210454901,-0.7815715724196204,-0.6328397989273071,0.6070420145988464,-0.48063892126083374,-0.5606849193572998,-0.642186164855957,-0.8602599501609802
7.139932870864868,-0.30148768424987793,-0.42900073528289795,0.5398804545402527,-0.6462197816723542,-0.9518561961991503,-0.8095050660081214,-0.6502640247344971,0.6021727323532104,-0.4631896913051605,-0.8293529152870178,-0.7572022080421448,-0.9728466868400574
7.15995717048645,-0.29979538917541504,-0.386238694190979,0.4509776830673218,-0.6380180829154433,-0.988311989206709,-0.8410666336930138,-0.6708162426948547,0.5956045985221863,-0.4418834149837494,-0.7510425448417664,-1.0381773710250854,-1.1522663831710815
7.179934024810791,-0.32808810472488403,-0.2623828053474426,0.3270491361618042,-0.6229428840090998,-1.0303569461085667,-0.8703495544157577,-0.6964175701141357,0.5834277868270874,-0.41786935925483704,-0.4301435351371765,-1.451646327972412,-1.3996069431304932
7.199933052062988,-0.4155493974685669,-0.1462787389755249,0.23336803913116455,-0.5991888812814791,-1.0772515026808307,-0.8940110064115693,-0.7272424101829529,0.5639728307723999,-0.3912201523780823,-0.09909849613904953,-1.8732783794403076,-1.64115571975708
7.219163179397583,-0.5731598138809204,-0.10813450813293457,0.24762794375419617,-0.5680868596996822,-1.1270188909574068,-0.9151530939677293,-0.7612822651863098,0.5380203723907471,-0.361916184425354,-0.19629210233688354,-1.7994520664215088,-1.9337565898895264
7.239950895309448,-0.6370003819465637,-0.16226232051849365,0.38196298480033875,-0.5358530241576781,-1.1721526879593602,-0.9465069007896255,-0.7924124002456665,0.5105746984481812,-0.33376041054725647,-1.0200115442276,-1.066290259361267,-2.070498466491699
7.259907960891724,-0.41565370559692383,-0.28037214279174805,0.3692161738872528,-0.5095854249721843,-1.2149667321125488,-0.9973062615551972,-0.8182635307312012,0.48781538009643555,-0.30410683155059814,-2.087787628173828,-0.8377209305763245,-1.9616918563842773
7.279905080795288,-0.17483824491500854,-0.21677833795547485,0.21392205357551575,-0.488890995738002,-1.265705614563199,-1.0621481829412174,-0.8420838713645935,0.469647079706192,-0.26519152522087097,-2.451383113861084,-1.1512242555618286,-1.888673186302185
7.299936056137085,-0.19047337770462036,-0.005170166492462158,0.019310027360916138,-0.4638736434420438,-1.3179599568029372,-1.1213947249917895,-0.865892767906189,0.4474157691001892,-0.22371673583984375,-1.8378677368164062,-1.3217377662658691,-1.999918818473816
7.319934129714966,-0.2902945280075073,0.18755170702934265,-0.10858798027038574,-0.42958992112618677,-1.362901730506427,-1.1621758756499898,-0.889560878276825,0.41649800539016724,-0.18764609098434448,-0.9634504914283752,-1.426652431488037,-2.1979167461395264
7.339941024780273,-0.32066255807876587,0.2656113803386688,-0.15823669731616974,-0.3877552204820994,-1.401090707913818,-1.183376391812348,-0.9124614000320435,0.37811124324798584,-0.15635371208190918,-0.214535191655159,-1.553281545639038,-2.2525312900543213
7.359933137893677,-0.3170996308326721,0.30079135298728943,-0.1478971242904663,-0.34523159004392806,-1.4362162977393018,-1.1939551186632051,-0.9324884414672852,0.33841460943222046,-0.1262574940919876,-0.42168328166007996,-1.473068356513977,-2.0583887100219727
7.379957914352417,-0.37629902362823486,0.2513044476509094,-0.09079134464263916,-0.3161618289365705,-1.4633956550331326,-1.2320257957896952,-0.9449595808982849,0.31092092394828796,-0.10188132524490356,-3.2022705078125,0.21716603636741638,-1.0995723009109497
7.399944067001343,-0.47853946685791016,0.04954195022583008,-0.20395886898040771,-0.29760516972374196,-1.4621101507366179,-1.295191404828222,-0.9504003524780273,0.2932314872741699,-0.1037040427327156,-2.6829965114593506,0.6899880170822144,-1.963599443435669
7.419934034347534,-0.3979130983352661,0.8363530039787292,-0.47715264558792114,-0.25292881203543294,-1.4847921003757991,-1.358139324097462,-0.9646052718162537,0.25024065375328064,-0.08316528052091599,-2.2428224086761475,-0.579356849193573,-2.4848344326019287
7.439942121505737,0.23331165313720703,0.38652849197387695,-0.3675113320350647,-0.21667980338588683,-1.513443491851641,-1.3896889124685827,-0.975010871887207,0.21498826146125793,-0.05598102882504463,-0.8750771880149841,-1.6306591033935547,-1.5678995847702026
7.4599339962005615,0.21575987339019775,0.49587181210517883,-0.27525144815444946,-0.18457195854525682,-1.5524615383675409,-1.4027649460568656,-0.9828497171401978,0.18352578580379486,-0.018022362142801285,-0.1620893031358719,-1.8570326566696167,-1.7412943840026855
7.479935884475708,0.042230308055877686,0.6381967067718506,-0.4129199981689453,-0.14939143539197686,-1.5849024866374013,-1.3927464243298664,-0.9887635707855225,0.14883637428283691,0.013948582112789154,1.142323613166809,-1.539043664932251,-1.768012285232544
7.4999330043792725,0.11641710996627808,0.6999585628509521,-0.40554332733154297,-0.11603657080478447,-1.6091140411580596,-1.3607336362035942,-0.9925464391708374,0.11577635258436203,0.038050733506679535,1.811618685722351,-1.3515254259109497,-1.6229013204574585
7.5199339389801025,0.21826684474945068,0.6246501803398132,-0.36414802074432373,-0.08858513548550716,-1.6311096894782842,-1.3228995426134629,-0.9942678809165955,0.08846931904554367,0.06004045903682709,1.7237027883529663,-1.22411048412323,-1.3196722269058228
7.5399370193481445,0.17281407117843628,0.5415059924125671,-0.39560437202453613,-0.06652952776406516,-1.6502844216949344,-1.2911833359743983,-0.9946372509002686,0.06648045778274536,0.07922875881195068,1.2686796188354492,-0.8909592628479004,-1.1230307817459106
7.5599329471588135,0.08540445566177368,0.5280374884605408,-0.4672563076019287,-0.04809188448669482,-1.661849296063218,-1.2691294427050326,-0.9947062730789185,0.04807334765791893,0.09082209318876266,0.7752768397331238,-0.4141833484172821,-0.8913823962211609
7.5800158977508545,0.12155336141586304,0.5373662710189819,-0.5094965696334839,-0.03501332667258877,-1.666818162423567,-1.2564094491100004,-0.9947835206985474,0.03500617295503616,0.09581559896469116,0.4174697995185852,-0.1737794429063797,-0.5221878290176392
7.599816083908081,0.18076038360595703,0.5748238563537598,-0.5087316036224365,-0.029749022552875877,-1.668072781941631,-1.248086840899602,-0.9948320388793945,0.02974463440477848,0.09708014130592346,0.4072094261646271,0.03288816660642624,-0.08420644700527191
7.619943857192993,0.17335987091064453,0.6177318096160889,-0.4872335195541382,-0.032725689688482794,-1.6645405081307567,-1.2388302056839169,-0.9950762391090393,0.032719846814870834,0.09355682879686356,0.5653393864631653,0.28689494729042053,0.27313128113746643
7.640014886856079,0.1729450225830078,0.6072019934654236,-0.4544309377670288,-0.042331521753524684,-1.6566504721324835,-1.2259987689269813,-0.9954241514205933,0.042318880558013916,0.08567188680171967,0.8162891864776611,0.43017274141311646,0.5715348720550537
7.6599509716033936,0.1956668496131897,0.5717953443527222,-0.428752064704895,-0.05802845342518885,-1.6471203291645697,-1.2075686276892514,-0.9954103827476501,0.05799589306116104,0.07612157613039017,1.1641489267349243,0.41872045397758484,0.8451205492019653
7.679959058761597,0.17926019430160522,0.5420256853103638,-0.4224412441253662,-0.07878333933653471,-1.6378285492846913,-1.1819733835197503,-0.9946593642234802,0.07870186865329742,0.06677427142858505,1.5401184558868408,0.3470432758331299,1.0282669067382812
7.699931859970093,0.09963732957839966,0.5133334994316101,-0.38949716091156006,-0.10233882084004908,-1.6279053677322972,-1.1492158493359337,-0.9931462407112122,0.10216027498245239,0.056779369711875916,1.8521087169647217,0.37786373496055603,1.111910343170166
7.71993088722229,-0.001919865608215332,0.47713467478752136,-0.3204331398010254,-0.1266121635514482,-1.6142009446444874,-1.1112084102240611,-0.9910611510276794,0.12627415359020233,0.04304366558790207,2.020556926727295,0.571378231048584,1.1297509670257568
7.739933013916016,-0.08556979894638062,0.42927348613739014,-0.22714102268218994,-0.1508574126794425,-1.5953840013189884,-1.0715367278174073,-0.9883437752723694,0.15028585493564606,0.024305973201990128,1.9615691900253296,0.7455553412437439,1.1756107807159424
7.759974002838135,-0.17979490756988525,0.3842850923538208,-0.12991619110107422,-0.17560656763666588,-1.5729224466804181,-1.0343756545244527,-0.984618604183197,0.1747054159641266,0.0020934203639626503,1.728596806526184,0.9247092008590698,1.2467567920684814
7.779932975769043,-0.33579230308532715,0.36300963163375854,-0.051634013652801514,-0.20054197558974957,-1.545800851351892,-1.0022411118913497,-0.9796527028083801,0.19920048117637634,-0.024491986259818077,1.420792818069458,1.2014944553375244,1.2843406200408936
7.799932956695557,-0.4844488501548767,0.35745489597320557,-0.007615678012371063,-0.22516182009239746,-1.5127519556897988,-0.9748703952912156,-0.973116397857666,0.22326409816741943,-0.05654745176434517,1.1569911241531372,1.5423790216445923,1.2874070405960083
7.819929838180542,-0.4646310806274414,0.3352835476398468,0.06161236763000488,-0.25025187306300395,-1.4737725351395852,-0.9527748498170479,-0.9642935395240784,0.24764800071716309,-0.09385409951210022,0.7539673447608948,1.7952096462249756,1.413957118988037
7.839976072311401,-0.25879913568496704,0.24881905317306519,0.1686069816350937,-0.2803994130262825,-1.4340206214539646,-0.9389653904599191,-0.9519706964492798,0.2767394781112671,-0.1310245394706726,0.22289684414863586,1.8130978345870972,1.7652268409729004
7.85993218421936,-0.1252906322479248,0.1617426872253418,0.24903081357479095,-0.3194471034246173,-1.396981368385818,-0.9325447741962032,-0.9351038336753845,0.3140416741371155,-0.16419187188148499,-0.1791718602180481,1.6926072835922241,2.192772626876831
7.87992787361145,-0.12597870826721191,0.11816740036010742,0.2769177556037903,-0.3662050395764472,-1.3632133620502533,-0.9275600429587525,-0.9136484265327454,0.35807469487190247,-0.1924297958612442,-0.18963870406150818,1.5284802913665771,2.465071439743042
7.899976015090942,-0.20351296663284302,0.11305615305900574,0.27630746364593506,-0.4148716268859696,-1.3306672658503804,-0.9164667706344612,-0.8889095783233643,0.40307244658470154,-0.21765261888504028,0.17047537863254547,1.2954133749008179,2.481639862060547
7.9199299812316895,-0.2700960636138916,0.11636999249458313,0.2616603374481201,-0.4587912444622881,-1.2975573213812648,-0.8926654531895435,-0.8633268475532532,0.44286468625068665,-0.24194593727588654,0.8310120105743408,0.9853625893592834,2.314347982406616
7.939954996109009,-0.29783737659454346,0.1097666323184967,0.2601012885570526,-0.49385009790508316,-1.2629707336103222,-0.8523131214594427,-0.8391256332397461,0.47401946783065796,-0.2667846083641052,1.6128957271575928,0.620155394077301,2.0839474201202393
7.959941148757935,-0.3143831491470337,0.08712148666381836,0.2935451865196228,-0.5184335901688669,-1.2261855207853352,-0.7959006164952738,-0.8175290822982788,0.4955201745033264,-0.29343828558921814,2.236625909805298,0.3379066586494446,1.8448173999786377
7.979935884475708,-0.33476126194000244,0.03476136922836304,0.3616068363189697,-0.5342718352521088,-1.1879256206633422,-0.7302925063240906,-0.7983258962631226,0.509214460849762,-0.32152196764945984,2.4508514404296875,0.22177037596702576,1.6743967533111572
7.9999589920043945,-0.3461120128631592,-0.04701477289199829,0.43512406945228577,-0.5453053850752957,-1.1488612177531232,-0.6639714202721333,-0.779986560344696,0.5186792016029358,-0.3501325249671936,2.3185720443725586,0.3058372139930725,1.5925294160842896
8.019941091537476,-0.31930023431777954,-0.11024981737136841,0.4907073378562927,-0.5561239133179161,-1.109658406938624,-0.6033583456685098,-0.7605948448181152,0.5278981924057007,-0.37791430950164795,1.8691602945327759,0.4352632164955139,1.6247506141662598
8.0399329662323,-0.2609645128250122,-0.16869711875915527,0.5109941959381104,-0.5710045270574865,-1.072317967875777,-0.551940706322288,-0.7389744520187378,0.5404775142669678,-0.4022447466850281,1.2856202125549316,0.5616199970245361,1.7133524417877197
8.059941053390503,-0.2003229260444641,-0.2254866361618042,0.5334985256195068,-0.5922018663739924,-1.0375872244380897,-0.5109690679486845,-0.7145329713821411,0.5581892728805542,-0.4217430353164673,0.6585536599159241,0.6546958088874817,1.8328579664230347
8.079903841018677,-0.13880836963653564,-0.2933064103126526,0.5557684302330017,-0.6202889673927879,-1.0064059221039678,-0.4795309485922185,-0.6875161528587341,0.5812703371047974,-0.4352544844150543,0.11952384561300278,0.6605745553970337,1.9058923721313477
8.09964394569397,-0.10889691114425659,-0.32599008083343506,0.5599499344825745,-0.6524671104373486,-0.9791348893599691,-0.45473526835088074,-0.6595204472541809,0.6071485877037048,-0.4431743919849396,-0.1752820909023285,0.5870797038078308,1.864139199256897
8.119987964630127,-0.09711343050003052,-0.34836602210998535,0.5526578426361084,-0.6841857624062582,-0.9555185528510747,-0.4336064775924841,-0.6328213214874268,0.6320422291755676,-0.4472805857658386,-0.22678259015083313,0.462632954120636,1.6795510053634644
8.139956951141357,-0.0892324447631836,-0.396619975566864,0.5413597822189331,-0.7114759556805215,-0.9356196804492184,-0.41430036330217473,-0.6096811294555664,0.6529523730278015,-0.44937974214553833,-0.163420170545578,0.2828841507434845,1.395162582397461
8.159929990768433,-0.09016638994216919,-0.4324367046356201,0.5302711129188538,-0.7321973939596943,-0.9208658641409748,-0.3972015681997399,-0.5920846462249756,0.6685054898262024,-0.45004037022590637,-0.04380161687731743,0.06700583547353745,1.0220248699188232
8.179972887039185,-0.1013372540473938,-0.44622236490249634,0.5196686387062073,-0.7451053004620347,-0.9125522697264818,-0.3840886449386672,-0.5814477801322937,0.6780492067337036,-0.4496307373046875,0.022959237918257713,-0.12294599413871765,0.5913800001144409
8.19996190071106,-0.1042325496673584,-0.4605715274810791,0.5128709673881531,-0.7509209438962079,-0.912154088358511,-0.37727684097619035,-0.5781404972076416,0.6823123097419739,-0.4474411904811859,-0.018827304244041443,-0.3021303117275238,0.1868389993906021
8.21993088722229,-0.0929378867149353,-0.4758153557777405,0.4931972622871399,-0.7519863183373124,-0.9213197468184662,-0.3790022390388654,-0.581637978553772,0.6830908060073853,-0.4416835308074951,-0.12296624481678009,-0.5018886923789978,-0.17543870210647583
8.23996615409851,-0.08613365888595581,-0.48120367527008057,0.4422885775566101,-0.7482349104591841,-0.9387138405191473,-0.38692852268234756,-0.591295599937439,0.6803461909294128,-0.43301117420196533,-0.11798404902219772,-0.6973910927772522,-0.45863622426986694
8.259958982467651,-0.08285915851593018,-0.4510646462440491,0.4107711613178253,-0.7402446822369251,-0.9629169628521003,-0.39885560137564235,-0.6060446500778198,0.6744685769081116,-0.42166584730148315,-0.12919071316719055,-0.9322447776794434,-0.7079001069068909
8.279932022094727,-0.13496100902557373,-0.41518527269363403,0.3684447407722473,-0.7275989199327477,-0.9940953821588654,-0.41469444660545923,-0.6259948015213013,0.6650785207748413,-0.40718671679496765,-0.1426614373922348,-1.112396001815796,-1.0153087377548218
8.299949884414673,-0.23259377479553223,-0.36321330070495605,0.32833898067474365,-0.7093557841959032,-1.0300150509259471,-0.4347519831501777,-0.6505086421966553,0.6513450741767883,-0.39062532782554626,-0.18902671337127686,-1.1282178163528442,-1.339325189590454
8.319937944412231,-0.29063189029693604,-0.34051722288131714,0.3231467604637146,-0.6867801380917882,-1.0690145666668884,-0.46045146989495084,-0.6779655814170837,0.6340506076812744,-0.37194427847862244,-0.43735837936401367,-1.1309033632278442,-1.5986825227737427
8.339982986450195,-0.3146100640296936,-0.3458285927772522,0.3256649076938629,-0.6624552751834638,-1.1124987060516478,-0.4953217628991221,-0.7071184515953064,0.6150546669960022,-0.34884294867515564,-0.8798385858535767,-1.01052987575531,-1.8205205202102661
