timestamp,acceleration_x,acceleration_y,acceleration_z,attitude_pitch,attitude_roll,attitude_yaw,gravity_x,gravity_y,gravity_z,rotation_x,rotation_y,rotation_z
0.0,-0.044766902923583984,0.2850995659828186,-0.020044028759002686,-0.20164628647133093,-1.4353622656482077,1.8926985641047205,-0.9707664251327515,0.2002825289964676,-0.13228464126586914,0.035798683762550354,-1.86984384059906,-1.8330806493759155
0.019191265106201172,0.020499467849731445,0.30868685245513916,-0.05464811623096466,-0.16508444936523098,-1.4717934251136915,1.8855408275073915,-0.9815742373466492,0.16433563828468323,-0.09749744832515717,-0.2879069745540619,-1.5705630779266357,-1.869841456413269
0.03942728042602539,0.0925525426864624,0.3511407673358917,-0.09042830020189285,-0.12862956321056288,-1.5035137729874752,1.8735211529958424,-0.9894946217536926,0.12827514111995697,-0.06667637079954147,-0.5764970779418945,-1.3572092056274414,-1.848459005355835
0.06009721755981445,0.13340157270431519,0.4227197766304016,-0.09074395895004272,-0.09319267120350805,-1.5308631162382087,1.8574059443621893,-0.9948669075965881,0.09305783361196518,-0.03974936157464981,-0.8187048435211182,-1.1386899948120117,-1.7853052616119385
0.07993507385253906,0.14213818311691284,0.47967520356178284,-0.0830727219581604,-0.05893313642523836,-1.5524107654299157,1.8381405566079587,-0.9980950951576233,0.05889903008937836,-0.018352607265114784,-0.9842242002487183,-0.8242007493972778,-1.695926547050476
0.099945068359375,0.15087765455245972,0.5227790474891663,-0.10616534948348999,-0.026754173760106623,-1.5664099830249476,1.817762395541611,-0.9996322989463806,0.02675098180770874,-0.00438475888222456,-1.0144915580749512,-0.4901396632194519,-1.5534069538116455
0.11913919448852539,0.1581016182899475,0.5984225273132324,-0.11977767944335938,0.0022463420741165303,-1.5746681030790313,1.7973359368434338,-0.9999898672103882,-0.0022463402710855007,0.003871756372973323,-1.0251737833023071,-0.3436668813228607,-1.3437128067016602
0.14002609252929688,0.058056533336639404,0.7060936689376831,-0.12030816078186035,0.026470255349556698,-1.5821913157665508,1.7782704409267314,-0.9995847344398499,-0.02646716497838497,0.011390749365091324,-0.8712822198867798,-0.42811518907546997,-1.0789743661880493
0.15989208221435547,-0.27925634384155273,0.848541259765625,-0.10678279399871826,0.04647970640835404,-1.5878918583053268,1.7627357389257765,-0.9987738728523254,-0.04646297171711922,0.01707623340189457,-0.7840160131454468,-0.10583408176898956,-0.9712303280830383
0.179948091506958,-0.5208956003189087,0.9342448711395264,-0.0547710657119751,0.06790296236352757,-1.5823812315565173,1.7434888050209036,-0.9976282119750977,-0.06785079091787338,0.011557945050299168,-1.2518551349639893,0.5975920557975769,-1.1459159851074219
0.19970130920410156,-0.05155438184738159,0.8489430546760559,-0.07410794496536255,0.08678383308712631,-1.5611579751495703,1.7105914237295903,-0.9961903691291809,-0.08667493611574173,-0.009601930156350136,-2.0887107849121094,1.260595440864563,-0.6749868988990784
0.22027015686035156,0.42381036281585693,0.7791112661361694,-0.12185090780258179,0.08901264216858316,-1.5313785486801534,1.6613150263278809,-0.9952672123908997,-0.08889514207839966,-0.039251554757356644,-2.712900161743164,1.1756739616394043,0.27553048729896545
0.24024724960327148,0.595234215259552,0.7344448566436768,-0.22188067436218262,0.07100657706187745,-1.5115787801127905,1.6097007823741838,-0.9957315325737,-0.07094692438840866,-0.059033799916505814,-2.377594470977783,0.36244168877601624,1.23134183883667
0.25935912132263184,0.519680380821228,0.8053019642829895,-0.3215782642364502,0.0373510040071454,-1.5096184661839986,1.57655779622996,-0.9974328279495239,-0.03734232112765312,-0.061097048223018646,-0.9802032709121704,-0.31612303853034973,1.8331468105316162
0.2799363136291504,0.28253304958343506,0.9147173762321472,-0.36245739459991455,0.0005022740768791968,-1.5192903690661663,1.579044175907315,-0.9986737370491028,-0.000502274080645293,-0.05148318037390709,1.0818196535110474,-0.5925137400627136,1.785197377204895
0.2999401092529297,0.06536006927490234,0.8821519017219543,-0.36457687616348267,-0.030847369778932286,-1.5311842795127435,1.6226788467362108,-0.9987400770187378,0.030842477455735207,-0.03958284482359886,3.039677858352661,-0.6766639351844788,1.560128092765808
0.31997013092041016,-0.0350305438041687,0.7110798358917236,-0.2637626528739929,-0.058515324498097196,-1.5417499051091308,1.696412639556796,-0.997867226600647,0.058481935411691666,-0.028992626816034317,4.073238849639893,-0.6751763820648193,1.496864914894104
0.3400540351867676,-0.1524507999420166,0.5203486084938049,-0.15664178133010864,-0.08741342033196561,-1.5468020486901888,1.7796488660117378,-0.9958949685096741,0.08730214089155197,-0.023900367319583893,4.011242389678955,-0.3834317922592163,1.6158405542373657
0.3600001335144043,-0.262656033039093,0.33325791358947754,-0.06217658147215843,-0.1193875601288992,-1.5414972232300064,1.8532598161094564,-0.9924553632736206,0.11910414695739746,-0.02908637560904026,3.1753954887390137,0.17529675364494324,1.784962773323059
0.3799619674682617,-0.24966001510620117,0.20275279879570007,-0.029259081929922104,-0.15617286665980887,-1.5252513646915484,1.908641945016318,-0.9868052005767822,0.15553879737854004,-0.04497510939836502,2.214820146560669,0.650955319404602,2.11846661567688
0.3999652862548828,-0.18223750591278076,0.17123667895793915,-0.044296689331531525,-0.19996639634067412,-1.5030818223754336,1.949465007673225,-0.9778271317481995,0.19863639771938324,-0.0663144662976265,1.6295455694198608,0.8288371562957764,2.453217029571533
0.4200282096862793,-0.19056636095046997,0.19468602538108826,-0.04558033496141434,-0.24850718669443134,-1.4779267511340997,1.9841106658541718,-0.9651037454605103,0.24595728516578674,-0.0898873433470726,1.4455333948135376,0.8762222528457642,2.62336802482605
0.4401121139526367,-0.26761943101882935,0.1778649091720581,-0.025761418044567108,-0.297720469962205,-1.4498575331871713,2.021131322710279,-0.9490246772766113,0.293341726064682,-0.11533676087856293,1.5866279602050781,0.9634893536567688,2.629539728164673
0.4599642753601074,-0.2898951768875122,0.11667972803115845,0.026331663131713867,-0.34537648515007846,-1.4157686642862755,2.063127033933473,-0.929663360118866,0.33855095505714417,-0.145289346575737,1.7069425582885742,1.0777009725570679,2.5845999717712402
0.4799952507019043,-0.2861364483833313,0.04958009719848633,0.03825974464416504,-0.3912324497409565,-1.376213026436716,2.1090601757673806,-0.9069939255714417,0.3813280165195465,-0.1787475347518921,1.7443625926971436,1.137656331062317,2.5661168098449707
0.49996423721313477,-0.29914432764053345,0.008811891078948975,0.012731194496154785,-0.4329642067207427,-1.3338283542006313,2.1600158105352305,-0.8823587894439697,0.41956332325935364,-0.21309447288513184,1.91423761844635,1.062836766242981,2.483238697052002
0.5200490951538086,-0.2945858836174011,-0.017485499382019043,0.092466801404953,-0.4705916591848483,-1.2883664217235489,2.2136598867282062,-0.8559876084327698,0.453413724899292,-0.24839647114276886,1.754835844039917,1.14602792263031,2.3866634368896484
0.5393431186676025,-0.28524523973464966,-0.11354565620422363,0.15546318888664246,-0.5057937772281312,-1.2407598510733104,2.2638342289845257,-0.827578067779541,0.48450198769569397,-0.2834998071193695,1.3893109560012817,1.260407567024231,2.3230175971984863
0.5599861145019531,-0.25513243675231934,-0.17374277114868164,0.20429152250289917,-0.5416016660659178,-1.1931965151247126,2.3074958439413504,-0.7965184450149536,0.5155090689659119,-0.3159249424934387,0.9250598549842834,1.309697151184082,2.3531076908111572
0.5799732208251953,-0.22677916288375854,-0.20333272218704224,0.2248132824897766,-0.5789844733757578,-1.1467651939832928,2.345475749593734,-0.7628905177116394,0.5471742153167725,-0.3443812429904938,0.6158240437507629,1.3090416193008423,2.3328661918640137
0.599973201751709,-0.18785476684570312,-0.2187308669090271,0.21745604276657104,-0.6154518969929683,-1.1007161933012588,2.382113767223981,-0.7279471158981323,0.57732754945755,-0.3698456883430481,0.5819154381752014,1.2139434814453125,2.270615577697754
0.6199641227722168,-0.13731521368026733,-0.24099034070968628,0.22014695405960083,-0.6488129129734482,-1.0547444991961175,2.422005340930389,-0.6930374503135681,0.6042409539222717,-0.393181711435318,0.7000221014022827,1.014646291732788,2.188753128051758
0.6399881839752197,-0.12261438369750977,-0.2740739583969116,0.24107065796852112,-0.6770035930045198,-1.0091635889070765,2.4668024015969756,-0.6597188115119934,0.6264602541923523,-0.4151124954223633,0.875860869884491,0.7762537598609924,2.0408647060394287
0.6600151062011719,-0.15293371677398682,-0.3020121455192566,0.297680139541626,-0.6993460634161325,-0.9657951077163829,2.5141940093285124,-0.6294301152229309,0.6437174081802368,-0.43525347113609314,0.9435324668884277,0.5570055842399597,1.8276093006134033
0.6794331073760986,-0.2475760579109192,-0.3376244306564331,0.34468239545822144,-0.7155862646252683,-0.9259611653580072,2.5600003197949763,-0.6031623482704163,0.656059980392456,-0.453630268573761,0.9270811080932617,0.46417754888534546,1.5059471130371094
0.6999750137329102,-0.32093513011932373,-0.3602091670036316,0.36638981103897095,-0.725763002813492,-0.890219158140141,2.600437680575722,-0.5813475251197815,0.663706362247467,-0.4706684947013855,0.8470479846000671,0.403349369764328,1.127689003944397
0.7202053070068359,-0.32623738050460815,-0.37109464406967163,0.3779478967189789,-0.730513728040198,-0.8629539640263689,2.632481150012674,-0.565898060798645,0.6672523617744446,-0.48428648710250854,0.6837501525878906,0.1311013251543045,0.737281084060669
0.7399652004241943,-0.3773481249809265,-0.35928040742874146,0.4027903079986572,-0.7313692076332254,-0.8502721011694437,2.6530711975022805,-0.5592820048332214,0.6678892970085144,-0.4910472631454468,0.40696123242378235,-0.21821413934230804,0.3119608759880066
0.7599830627441406,-0.5003604292869568,-0.35123610496520996,0.39750176668167114,-0.7289690879666176,-0.8518992053322437,2.6589328141389608,-0.5612849593162537,0.6661010980606079,-0.4911908507347107,0.06967616826295853,-0.2968822419643402,-0.2133381962776184
0.7800681591033936,-0.4652482867240906,-0.35130494832992554,0.33395063877105713,-0.7235101611609173,-0.8638313556563831,2.6496420790992246,-0.5698621273040771,0.6620195508003235,-0.4868133068084717,-0.20431940257549286,-0.29071781039237976,-0.6272674798965454
0.7999672889709473,-0.23471808433532715,-0.33083921670913696,0.2899302840232849,-0.7161387667083073,-0.8822771942672385,2.6311071407604922,-0.5824967622756958,0.6564768552780151,-0.4793071746826172,-0.40891796350479126,-0.3455624282360077,-0.800912082195282
0.8197741508483887,-0.03544813394546509,-0.32119715213775635,0.33471566438674927,-0.7104909032695742,-0.90666478176768,2.6061447889473124,-0.5969218015670776,0.6522060036659241,-0.4672383666038513,-0.720639705657959,-0.4998878538608551,-0.7954506874084473
0.8399620056152344,0.031988441944122314,-0.3648274540901184,0.3863741159439087,-0.7098741614128536,-0.9383102827936011,2.5768327725205147,-0.6117308139801025,0.6517383456230164,-0.44835540652275085,-1.0127923488616943,-0.7402285933494568,-0.5819334983825684
0.8599691390991211,-0.06799137592315674,-0.40189099311828613,0.3702930808067322,-0.7143086783322858,-0.974462385500492,2.5454559830199575,-0.6251389980316162,0.6550952196121216,-0.42432454228401184,-1.1457030773162842,-0.8021285533905029,-0.48079565167427063
0.8800041675567627,-0.20829039812088013,-0.3326393961906433,0.30203938484191895,-0.715956365354969,-1.012177023693434,2.5123134087192027,-0.6397777199745178,0.6563392877578735,-0.3998788595199585,-1.0023540258407593,-0.8132403492927551,-0.808297336101532
0.8999481201171875,-0.22999894618988037,-0.22095078229904175,0.24461641907691956,-0.7060157046386245,-1.0515153946265237,2.4798334198612415,-0.6606411933898926,0.6488070487976074,-0.3776274025440216,-0.5681045055389404,-1.0483760833740234,-1.3047951459884644
0.9201171398162842,-0.17402130365371704,-0.16585564613342285,0.2193583846092224,-0.6830636902910356,-1.092980070665905,2.4539808120777375,-0.6887715458869934,0.6311722993850708,-0.3566723167896271,-0.08620111644268036,-1.4378005266189575,-1.6459916830062866
0.939979076385498,-0.18713921308517456,-0.15959298610687256,0.21156054735183716,-0.6503946110955822,-1.1347273124448336,2.4369751602539105,-0.7213689684867859,0.6055005192756653,-0.3361486792564392,0.31359103322029114,-1.6503061056137085,-1.8662734031677246
0.9599781036376953,-0.209733784198761,-0.14473843574523926,0.2028598189353943,-0.612126233839854,-1.1736973738448462,2.427693603266747,-0.7547436356544495,0.5746089220046997,-0.3165226876735687,0.5031698346138,-1.6943480968475342,-1.9354743957519531
0.979978084564209,-0.19081664085388184,-0.12124061584472656,0.19098475575447083,-0.5723995299899297,-1.211016095948123,2.421360997021437,-0.7867832779884338,0.541650652885437,-0.2959500849246979,0.46783024072647095,-1.6920640468597412,-1.9481196403503418
0.9999880790710449,-0.1575700044631958,-0.09483397006988525,0.15139836072921753,-0.5337782377675565,-1.2478369619805885,2.415505271335858,-0.8163831233978271,0.508789598941803,-0.2732246518135071,0.34612220525741577,-1.6906380653381348,-1.8515454530715942
1.019963264465332,-0.13064169883728027,-0.07137405872344971,0.11496561765670776,-0.49827829315173305,-1.2845121382150275,2.4091359509618346,-0.8426553010940552,0.47791388630867004,-0.24805289506912231,0.18551206588745117,-1.6698442697525024,-1.7077738046646118
1.0390911102294922,-0.12882304191589355,-0.04533398151397705,0.09319478273391724,-0.46630074697680624,-1.3208705219698662,2.4014181586920276,-0.8654852509498596,0.44958505034446716,-0.22092626988887787,0.0009316587820649147,-1.6043202877044678,-1.5721334218978882
1.060002088546753,-0.14564263820648193,-0.01464131474494934,0.0805874764919281,-0.437171180545444,-1.3556857372222186,2.3916666736006134,-0.8850730657577515,0.4233783781528473,-0.19338056445121765,-0.17876704037189484,-1.4451061487197876,-1.4822981357574463
1.080045223236084,-0.14997214078903198,0.01958644390106201,0.04947556555271149,-0.4093364871930379,-1.3874839505160432,2.3803268264153687,-0.9020143747329712,0.39800071716308594,-0.16722774505615234,-0.2621448338031769,-1.2793303728103638,-1.461629033088684
1.0999631881713867,-0.12028646469116211,0.07172894477844238,-0.007987797260284424,-0.3815042953876937,-1.416304538665806,2.369642578634424,-0.9170516133308411,0.37231704592704773,-0.1428149789571762,-0.23521097004413605,-1.2121738195419312,-1.4534553289413452
1.1199650764465332,-0.06869494915008545,0.106893390417099,-0.07020693272352219,-0.3532421579209908,-1.4438827104808774,2.3610108803596517,-0.9307097792625427,0.34594160318374634,-0.11875803768634796,-0.17488107085227966,-1.2426121234893799,-1.4644898176193237
1.13997220993042,-0.023591339588165283,0.12465605139732361,-0.10971170663833618,-0.324699213911265,-1.471392734930879,2.3539289876258476,-0.9430680871009827,0.3190237283706665,-0.09405434131622314,-0.18847723305225372,-1.2722434997558594,-1.442154049873352
1.1593523025512695,-0.004681825637817383,0.13222846388816833,-0.1315280795097351,-0.2967921858048885,-1.498975606127179,2.346121858316639,-0.9538140892982483,0.29245415329933167,-0.06862164288759232,-0.3320070505142212,-1.23177170753479,-1.4135444164276123
1.179995059967041,-0.012460649013519287,0.1472267210483551,-0.15959793329238892,-0.2696490673073198,-1.52527324495257,2.334438998945943,-0.9628656506538391,0.2663932144641876,-0.04386291652917862,-0.6545378565788269,-1.0558496713638306,-1.3645660877227783
1.1999921798706055,-0.021638035774230957,0.15741349756717682,-0.19536679983139038,-0.24397113472605586,-1.548851825747124,2.314514420371185,-0.9701526761054993,0.24155806005001068,-0.02129293605685234,-1.1958956718444824,-0.8081405162811279,-1.267143964767456
1.219966173171997,-0.03997349739074707,0.17419332265853882,-0.20845580101013184,-0.22014332713020363,-1.569363214403856,2.2842634801370507,-0.9758650064468384,0.2183694988489151,-0.0013985252007842064,-1.705146074295044,-0.5699601173400879,-1.1443945169448853
1.2400312423706055,-0.12159901857376099,0.2259502112865448,-0.17970049381256104,-0.19858549895594407,-1.5856741841150617,2.2441692726619844,-0.9802380800247192,0.1972828209400177,0.0145849185064435,-2.2258527278900146,-0.20259444415569305,-0.9965603351593018
1.2599601745605469,-0.22028106451034546,0.2987775206565857,-0.13661372661590576,-0.17834746941395208,-1.5949567236370132,2.1957516136601427,-0.9838507771492004,0.1774034947156906,0.023774851113557816,-2.5558929443359375,0.1791461706161499,-0.9411918520927429
1.2799961566925049,-0.19994604587554932,0.3840864896774292,-0.11243140697479248,-0.158785717901672,-1.5964095300210601,2.144125051239941,-0.9870960712432861,0.1581193208694458,0.02528822235763073,-2.527329683303833,0.4769657850265503,-0.9016269445419312
1.300140142440796,-0.040229737758636475,0.40993088483810425,-0.08200347423553467,-0.14127401817349686,-1.5934107623631708,2.0924581592364926,-0.9897841811180115,0.14080455899238586,0.022387227043509483,-2.699005365371704,0.5225003361701965,-0.6768751740455627
1.3202810287475586,-0.07300460338592529,0.39478427171707153,-0.07712805271148682,-0.12867232140562346,-1.5941028120982417,2.038253714595294,-0.9914637207984924,0.12831754982471466,0.023111719638109207,-2.6287546157836914,0.22208458185195923,-0.4935154914855957
1.3400192260742188,-0.37694454193115234,0.5414984822273254,-0.09083688259124756,-0.11695583167953558,-1.5941371677793525,1.987948169292863,-0.9928978681564331,0.11668938398361206,0.023179279640316963,-2.3865346908569336,0.44770270586013794,-0.6514995098114014
1.3599872589111328,-0.37623733282089233,0.5962004661560059,-0.09795892238616943,-0.09902964310345153,-1.58646557799201,1.9444759528520943,-0.9949783682823181,0.09886786341667175,0.015591842122375965,-1.9871588945388794,0.8263311386108398,-0.9811550378799438
1.380263090133667,0.05136138200759888,0.598878800868988,-0.10503506660461426,-0.0819532440099142,-1.5716776406364832,1.9064806851745986,-0.9966431856155396,0.08186154067516327,0.0008783556986600161,-1.855647325515747,0.927217960357666,-0.6108630895614624
1.3997712135314941,0.29790669679641724,0.5503997206687927,-0.14146625995635986,-0.07682732833743591,-1.559626101230099,1.8709474614399066,-0.9969879984855652,0.07675177603960037,-0.011137044057250023,-1.6848907470703125,0.5372924208641052,0.11515334248542786
1.420091152191162,0.2897377610206604,0.45391908288002014,-0.19047558307647705,-0.08830993231678844,-1.554787781004194,1.8390227489130742,-0.9959755539894104,0.08819519728422165,-0.01594548299908638,-1.5461885929107666,0.30355846881866455,0.9380503296852112
1.4448320865631104,0.07766318321228027,0.4095158576965332,-0.18120574951171875,-0.1407222821288484,-1.5391749365190284,1.780598143710981,-0.989619791507721,0.1402582973241806,-0.031303588300943375,-1.235399842262268,0.8236252069473267,1.4244056940078735
1.4635710716247559,0.14936864376068115,0.43867212533950806,-0.19348925352096558,-0.1707532326045646,-1.5259629396090677,1.762961727737947,-0.9844667911529541,0.16992467641830444,-0.044166576117277145,-0.5794979929924011,0.7205188274383545,1.5066778659820557
1.4795022010803223,0.14936864376068115,0.43867212533950806,-0.19348925352096558,-0.1707532326045646,-1.5259629396090677,1.762961727737947,-0.9844667911529541,0.16992467641830444,-0.044166576117277145,-0.5794979929924011,0.7205188274383545,1.5066778659820557
1.5026612281799316,0.1286454200744629,0.25867122411727905,-0.18044769763946533,-0.23144181651664136,-1.504604650861788,1.7684974934027335,-0.9712050557136536,0.22938112914562225,-0.0643797367811203,0.47330009937286377,0.35859954357147217,1.498280644416809
1.5223722457885742,0.11225587129592896,0.17841175198554993,-0.12620997428894043,-0.2595196326407464,-1.4942200076996208,1.7819205780292569,-0.9636808633804321,0.2566162943840027,-0.0739397183060646,0.5835101008415222,0.3630358576774597,1.394579291343689
1.5390782356262207,0.11225587129592896,0.17841175198554993,-0.12620997428894043,-0.2595196326407464,-1.4942200076996208,1.7819205780292569,-0.9636808633804321,0.2566162943840027,-0.0739397183060646,0.5835101008415222,0.3630358576774597,1.394579291343689
1.563157081604004,0.16017073392868042,0.1285366714000702,-0.09515804052352905,-0.30882892315558885,-1.4746172664701485,1.8155185756297414,-0.9482870101928711,0.3039431571960449,-0.09148763120174408,0.9433929920196533,0.06377803534269333,1.1939337253570557
1.586778163909912,0.12627053260803223,0.1407339870929718,-0.11004828661680222,-0.32894162724326476,-1.4672795533898184,1.8423056610583617,-0.9413185715675354,0.3230415880680084,-0.09779181331396103,1.4160386323928833,-0.16930022835731506,1.0540717840194702
1.6045851707458496,0.07389211654663086,0.14050793647766113,-0.10283422470092773,-0.34479916224037155,-1.4598554685389966,1.8794484129374176,-0.9353574514389038,0.3380076587200165,-0.1041971892118454,1.9008989334106445,-0.31155136227607727,0.9007992148399353
1.6270160675048828,0.036985158920288086,0.12114456295967102,-0.07794994115829468,-0.3566927469216924,-1.4507332644106674,1.9263597204461482,-0.9303107857704163,0.3491770625114441,-0.11223578453063965,2.323554515838623,-0.38730454444885254,0.803896963596344
1.6443920135498047,0.007475376129150391,0.09437984228134155,-0.04364307224750519,-0.3663674718515378,-1.439231384798578,1.9804659566190057,-0.9255661368370056,0.35822635889053345,-0.12247955054044724,2.5556771755218506,-0.365460604429245,0.7977163195610046
1.667959213256836,-0.020547568798065186,0.0625530481338501,-0.012594521045684814,-0.3752867310293626,-1.4251629842534184,2.037634847437097,-0.9205533862113953,0.36653932929039,-0.13501915335655212,2.588143825531006,-0.3082584738731384,0.8289852142333984
1.6882591247558594,-0.03827357292175293,0.020889639854431152,0.02167719602584839,-0.38462678633187053,-1.4088215727035982,2.094183574169904,-0.9148054718971252,0.3752132058143616,-0.14948497712612152,2.436943531036377,-0.13905835151672363,0.9033365845680237
1.7077322006225586,-0.02149444818496704,-0.03321734070777893,0.07100003957748413,-0.3956802113165046,-1.3898762601412242,2.1458922591015988,-0.9076741337776184,0.38543593883514404,-0.16603195667266846,2.0677788257598877,0.06843403726816177,0.9968208074569702
1.7278211116790771,0.019401371479034424,-0.08090579509735107,0.12699741125106812,-0.4096502832847409,-1.369893350118974,2.1887199673474598,-0.8988109827041626,0.3982885777950287,-0.18304312229156494,1.5380566120147705,0.2284134179353714,1.124175786972046
1.7478489875793457,0.03939104080200195,-0.11280718445777893,0.16134703159332275,-0.42719643500993465,-1.351166484285336,2.221817235845194,-0.8882678747177124,0.41432082653045654,-0.1982887238264084,1.0935405492782593,0.27796614170074463,1.2186626195907593
1.7665910720825195,0.010264158248901367,-0.0986187756061554,0.1564226746559143,-0.4466334526036783,-1.3347768088093594,2.2491519643161797,-0.8769022226333618,0.43193167448043823,-0.21089667081832886,0.9358512759208679,0.19233538210391998,1.2057996988296509
1.7880210876464844,-0.05853527784347534,-0.06277552247047424,0.12459374964237213,-0.4634507533710326,-1.32013012748603,2.276818683340135,-0.8665591478347778,0.4470375180244446,-0.22188392281532288,1.1168519258499146,0.03628071770071983,1.0007845163345337
1.807969093322754,-0.11604803800582886,-0.03153333067893982,0.10844618082046509,-0.4734637271225315,-1.3066516741748957,2.3096942188494647,-0.8591257929801941,0.45597171783447266,-0.23236295580863953,1.4636427164077759,-0.16854584217071533,0.6997983455657959
1.8278212547302246,-0.15569937229156494,-0.017207086086273193,0.15866664052009583,-0.47557574756240906,-1.294402667003892,2.3463187565141226,-0.8552868962287903,0.4578503668308258,-0.24260538816452026,1.5660423040390015,-0.2755020260810852,0.3760640323162079
1.8474149703979492,-0.20813322067260742,-0.04710376262664795,0.24762001633644104,-0.47252819421349335,-1.285864066616923,2.3794764475766965,-0.8545191287994385,0.4551388919353485,-0.2502903938293457,1.3156753778457642,-0.3879621624946594,0.16856446862220764
1.8663320541381836,-0.39616692066192627,-0.04976552724838257,0.2438884675502777,-0.46779479101791677,-1.2822468966139402,2.4043305307050353,-0.8556641340255737,0.45091909170150757,-0.25398996472358704,0.9596065282821655,-0.3560377061367035,-0.013804781250655651
1.887585163116455,-0.507425844669342,0.005726993083953857,0.19697999954223633,-0.4608361046436595,-1.281097050129085,2.4210678576309523,-0.8583576679229736,0.44469714164733887,-0.25586381554603577,0.698755145072937,-0.29505062103271484,-0.22499632835388184
1.9087841510772705,-0.3499026894569397,0.052438884973526,0.1347595453262329,-0.452449415729746,-1.280989264294949,2.4324740666154048,-0.8618739247322083,0.43716979026794434,-0.25701311230659485,0.5132448673248291,-0.2248930037021637,-0.2483580857515335
1.9261081218719482,-0.1085737943649292,0.054706066846847534,0.2035224437713623,-0.4484056276352516,-1.283259510516564,2.4394839626976514,-0.8641433715820312,0.4335293471813202,-0.25555503368377686,0.19088013470172882,-0.28889286518096924,0.0487220473587513
1.947275161743164,-0.058871328830718994,0.001997530460357666,0.2795943021774292,-0.4533611116256285,-1.2867520854623897,2.441866023994194,-0.8629577159881592,0.43798956274986267,-0.25193023681640625,-0.08695778250694275,-0.1588577926158905,0.5035902261734009
1.9672951698303223,-0.12313961982727051,-0.06861895322799683,0.2892323136329651,-0.4684714352849633,-1.2869290647981682,2.4440265198683067,-0.8565508127212524,0.45152294635772705,-0.24989531934261322,-0.10648684203624725,0.0498429536819458,0.9822872877120972
1.986976146697998,-0.19016355276107788,-0.08991622924804688,0.2738381624221802,-0.4904982432951065,-1.283600425983875,2.450206909464159,-0.8459691405296326,0.4710654318332672,-0.24986673891544342,0.029785530641674995,-0.005358071532100439,1.197109580039978
2.0068671703338623,-0.20329958200454712,-0.17413818836212158,0.33196821808815,-0.5120140605763226,-1.277964561450321,2.460254319386121,-0.834648847579956,0.4899340271949768,-0.2516460716724396,0.1946335732936859,0.10606122016906738,1.1272594928741455
2.0270233154296875,-0.15472441911697388,-0.34373974800109863,0.3485807180404663,-0.5321357198248866,-1.2691392837487716,2.4720862824535046,-0.8228144645690918,0.5073748826980591,-0.25602102279663086,0.16391140222549438,0.1751156598329544,1.0736472606658936
2.0467400550842285,-0.10524934530258179,-0.42461222410202026,0.3404045104980469,-0.5508333784647642,-1.2623090875355558,2.4796618237584656,-0.8118647933006287,0.5233975052833557,-0.2587091028690338,-0.06416935473680496,0.13013558089733124,0.8876477479934692
2.0665831565856934,-0.08052432537078857,-0.4358586072921753,0.28049007058143616,-0.5659834279477505,-1.2588508601892314,2.483438526254812,-0.8033257722854614,0.536246120929718,-0.2590516209602356,-0.07332157343626022,0.028218086808919907,0.646320641040802
2.0870132446289062,-0.03571510314941406,-0.4140322208404541,0.23219344019889832,-0.5759321888992938,-1.2589086222825634,2.485151549915871,-0.7982233166694641,0.5446168184280396,-0.25735530257225037,-0.11575168371200562,-0.14242787659168243,0.3430790603160858
2.106722116470337,0.00894927978515625,-0.4390150308609009,0.21790239214897156,-0.5806383263640108,-1.264825130146188,2.4830725079960025,-0.7972791790962219,0.5485577583312988,-0.2518533170223236,-0.1843888759613037,-0.3197186589241028,0.08236806094646454
2.125533103942871,0.01097095012664795,-0.4913567900657654,0.22965820133686066,-0.5827251556563399,-1.274946140571942,2.477537561500705,-0.7986904978752136,0.5503013730049133,-0.2434369921684265,-0.33246996998786926,-0.34632766246795654,-0.008947635069489479
2.1456241607666016,-0.020412087440490723,-0.5004720687866211,0.234852135181427,-0.5844143306205365,-1.2872182061882271,2.4666631852577137,-0.8007242679595947,0.5517110228538513,-0.23335692286491394,-0.5789362788200378,-0.27428460121154785,-0.10807112604379654
2.166388988494873,-0.059006690979003906,-0.420097291469574,0.19512465596199036,-0.5833088807117974,-1.300821292113895,2.4512030503967406,-0.8044116497039795,0.5507887005805969,-0.2226058542728424,-0.5895915627479553,-0.2616415321826935,-0.3695911467075348
2.186333179473877,-0.08411091566085815,-0.30862438678741455,0.1348942220211029,-0.5754590156930526,-1.3151243486729878,2.436509871417141,-0.8116713166236877,0.5442199110984802,-0.21216483414173126,-0.3705279529094696,-0.36131972074508667,-0.7108792066574097
2.2060680389404297,-0.06952577829360962,-0.25483542680740356,0.10068473219871521,-0.5600373653035484,-1.329179402530377,2.4255769786165144,-0.8226251006126404,0.5312178730964661,-0.20272043347358704,-0.16118140518665314,-0.4587939977645874,-0.9997115135192871
2.226605176925659,-0.024614334106445312,-0.2426990270614624,0.08522558212280273,-0.5393437585847254,-1.3440001402907422,2.416901270583685,-0.8360727429389954,0.5135729908943176,-0.19293752312660217,-0.10066743195056915,-0.5726056098937988,-1.1808840036392212
2.2462801933288574,-0.004388153553009033,-0.19701850414276123,0.06963032484054565,-0.5154390015238283,-1.3606950801304385,2.4082009080203735,-0.8509430885314941,0.49291685223579407,-0.18146216869354248,-0.11566608399152756,-0.6536738872528076,-1.3213975429534912
2.2652320861816406,-0.0022482872009277344,-0.1455898880958557,0.06073899567127228,-0.4886245271682797,-1.3784391731288657,2.399007935179626,-0.8666937947273254,0.46941182017326355,-0.16880185902118683,-0.14123958349227905,-0.6761721968650818,-1.470757246017456
2.284271240234375,-0.009969830513000488,-0.10790848731994629,0.05552804470062256,-0.4588985750871878,-1.396414189234865,2.3892233220551327,-0.882943868637085,0.4429609179496765,-0.155549556016922,-0.17415212094783783,-0.6800979971885681,-1.617531657218933
2.3059120178222656,-0.05017530918121338,-0.049257129430770874,0.040419235825538635,-0.4262607888127498,-1.4146462193392315,2.378958780988239,-0.8994399905204773,0.4134690761566162,-0.14160040020942688,-0.2002929151058197,-0.7119075655937195,-1.7700237035751343
2.3257710933685303,-0.1400812864303589,0.04498860239982605,0.0330544114112854,-0.38986136093512885,-1.4328718159289027,2.3689421422671626,-0.9161776900291443,0.38006019592285156,-0.12717078626155853,-0.1793459802865982,-0.6722285151481628,-1.9781259298324585
2.34567928314209,-0.2237662672996521,0.13112792372703552,-0.011665776371955872,-0.3492406689864657,-1.4496245926469449,2.3572022674767545,-0.9327431321144104,0.3421844244003296,-0.11357852071523666,-0.38978156447410583,-0.5987793803215027,-2.2067317962646484
2.365699291229248,-0.19386309385299683,0.22540611028671265,-0.06376545876264572,-0.30672445489806105,-1.4647016411781577,2.3433390974720707,-0.9479671716690063,0.3019375801086426,-0.10095334053039551,-0.6025943160057068,-0.477194219827652,-2.21905517578125
2.3860011100769043,-0.06496250629425049,0.27318552136421204,-0.13572603464126587,-0.2641783428288273,-1.4804925369048523,2.322251432873616,-0.9613739848136902,0.2611162066459656,-0.08705247193574905,-0.8988303542137146,-0.5141471028327942,-2.173637866973877
2.405679225921631,0.02858024835586548,0.34866172075271606,-0.226889967918396,-0.22522857801124824,-1.496816931102525,2.302673001691971,-0.9720767736434937,0.22332917153835297,-0.07204513251781464,-0.6514670848846436,-0.6616955995559692,-1.8483141660690308
2.4272141456604004,-0.10164231061935425,0.4878312647342682,-0.25607138872146606,-0.19177839171149744,-1.5151035136053743,2.2898179900526667,-0.9801446199417114,0.19060498476028442,-0.05464351922273636,-0.4064745306968689,-0.8463045954704285,-1.6358120441436768
2.445974111557007,-0.4390786290168762,0.5769880414009094,-0.2301618456840515,-0.15853849365792994,-1.5304831436551665,2.279764214751471,-0.986656665802002,0.157875195145607,-0.03979683294892311,-0.5199721455574036,-0.40897220373153687,-1.785116195678711
2.465528964996338,-0.315423846244812,0.5663949251174927,-0.17888015508651733,-0.12317103204284222,-1.5331345859339418,2.264069284018855,-0.9917201399803162,0.12285982817411423,-0.037367574870586395,-0.958706796169281,0.3217829465866089,-1.6747914552688599
2.4859211444854736,0.11737966537475586,0.5709442496299744,-0.2317689061164856,-0.09835792149652857,-1.5291124608973978,2.237742789491255,-0.9943022727966309,0.09819940477609634,-0.04147038236260414,-1.4899846315383911,0.20110437273979187,-0.8782615661621094
2.506110191345215,0.18632769584655762,0.6038498878479004,-0.25894695520401,-0.0896294265892978,-1.5325373503380741,2.205485051093879,-0.9952569007873535,0.08950947225093842,-0.038096100091934204,-1.6105204820632935,-0.10321813821792603,-0.16487903892993927
2.525832176208496,0.07167863845825195,0.573405385017395,-0.2795757055282593,-0.09246726173524457,-1.5347038940902331,2.175033767951413,-0.9950793385505676,0.09233555197715759,-0.035930436104536057,-1.395020842552185,0.17805391550064087,0.27830156683921814
2.546915054321289,0.13395339250564575,0.5434916019439697,-0.25924599170684814,-0.10139639818305976,-1.5309991399554863,2.1538381658708325,-0.9940758943557739,0.10122273862361908,-0.03958232328295708,-0.6842406392097473,0.36122196912765503,0.549003541469574
2.5654683113098145,0.26711171865463257,0.5170556306838989,-0.2187519669532776,-0.11609373715130977,-1.5249412870429853,2.1506306967989515,-0.992224395275116,0.11583313345909119,-0.04553040489554405,0.31958016753196716,0.2285257875919342,0.8964130282402039
2.585216999053955,0.28296709060668945,0.3827815055847168,-0.14433127641677856,-0.13511577847300082,-1.5198783668680136,2.1676362990768023,-0.9896014928817749,0.13470503687858582,-0.05043208226561546,1.2027720212936401,0.11598939448595047,1.084364891052246
2.6052770614624023,0.21988892555236816,0.20860788226127625,-0.05494612082839012,-0.15614632280561574,-1.5124818297222884,2.195454395546496,-0.9861545562744141,0.15551257133483887,-0.0575723834335804,1.3374603986740112,0.27457237243652344,1.1243911981582642
2.625452995300293,0.21483063697814941,0.07218794524669647,0.02333974838256836,-0.1757707887260369,-1.5001211745177458,2.221476128664723,-0.9821339249610901,0.17486710846424103,-0.06952826678752899,1.078126072883606,0.5090586543083191,1.008578896522522
2.64479398727417,0.311933696269989,0.020870178937911987,0.03427595645189285,-0.19404459914381023,-1.4857980615973367,2.2415812615389457,-0.9776897430419922,0.19282914698123932,-0.08330263942480087,0.7973745465278625,0.478017121553421,0.972124457359314
2.6647021770477295,0.3924432396888733,-0.009741991758346558,0.07146100699901581,-0.2116201026518887,-1.474661187867461,2.258660658594707,-0.973177433013916,0.21004413068294525,-0.09384583681821823,0.6963328719139099,0.2977922260761261,0.9506593942642212
2.683788299560547,0.38988322019577026,-0.07646508514881134,0.08215266466140747,-0.2285816227016433,-1.467544928509345,2.2746552928893102,-0.9688015580177307,0.22659626603126526,-0.1003871038556099,0.7325015068054199,0.08212783187627792,0.8979352116584778
2.7052202224731445,0.34594041109085083,-0.08714744448661804,0.10269707441329956,-0.24368095216512875,-1.4625443962187266,2.292301692820659,-0.9647756814956665,0.24127645790576935,-0.1048487052321434,0.8481285572052002,0.030803129076957703,0.7689892053604126
2.725259304046631,0.33144789934158325,-0.05018070340156555,0.0978623628616333,-0.2546607439389713,-1.4570816852006538,2.3141841793927007,-0.9614984393119812,0.2519170939922333,-0.10981018096208572,1.1609174013137817,-0.03465062379837036,0.577289342880249
2.74514102935791,0.36356496810913086,-0.08534017205238342,0.12555402517318726,-0.26212937829315164,-1.4513873189833297,2.3436073049331836,-0.9589627981185913,0.2591377794742584,-0.11505615711212158,1.5681166648864746,-0.15911416709423065,0.5283348560333252
2.7637453079223633,0.35735511779785156,-0.1589268147945404,0.13843703269958496,-0.2679568348381994,-1.4458518776825595,2.3794932358205703,-0.9567964673042297,0.264761745929718,-0.1201724037528038,1.8067336082458496,-0.21210165321826935,0.44837507605552673
2.784675121307373,0.3414953947067261,-0.1932397484779358,0.125127375125885,-0.27024770012342947,-1.4396783368336827,2.421368423507949,-0.9554325938224792,0.266970157623291,-0.12599727511405945,2.124520778656006,-0.27289655804634094,0.3097413182258606
2.8035712242126465,0.33707505464553833,-0.19506627321243286,0.10176651179790497,-0.2695147832822487,-1.4353443778942558,2.466262503979915,-0.955071210861206,0.2662637531757355,-0.1301632821559906,2.149064302444458,-0.4839727580547333,0.19056202471256256
2.824331283569336,0.28858739137649536,-0.20778149366378784,0.1566525101661682,-0.26746220675480864,-1.4338242422220948,2.5080447117519817,-0.9554115533828735,0.26428472995758057,-0.13168929517269135,1.8172974586486816,-0.4255441427230835,0.1761401891708374
2.8426401615142822,0.21271824836730957,-0.20538386702537537,0.181523859500885,-0.266953900535595,-1.4307453717781158,2.53983148755217,-0.9551345109939575,0.2637944519519806,-0.13464899361133575,1.2208647727966309,-0.11002438515424728,0.18235108256340027
2.8644371032714844,0.1783280372619629,-0.20164981484413147,0.10866065323352814,-0.2682557652666694,-1.4252458740805007,2.5613164981640217,-0.9540389180183411,0.2650499939918518,-0.13984976708889008,0.8978522419929504,0.05826236307621002,0.2528924345970154
2.8846871852874756,0.19312530755996704,-0.15373381972312927,0.10355651378631592,-0.2718621317691794,-1.4195817315533406,2.578978397601048,-0.9522804617881775,0.268525630235672,-0.14510639011859894,0.6745782494544983,0.051237739622592926,0.3302333950996399
2.9059081077575684,0.12158942222595215,-0.16954034566879272,0.15793496370315552,-0.27564839208334846,-1.414930748848316,2.5910322893938313,-0.9505839943885803,0.27217090129852295,-0.14937493205070496,0.5007811188697815,0.0815630704164505,0.23121359944343567
2.9242241382598877,0.009779572486877441,-0.18406400084495544,0.14174574613571167,-0.27788218270104204,-1.4085149128354235,2.602709506063141,-0.9490036964416504,0.27431967854499817,-0.15537197887897491,0.6155640482902527,0.21840791404247284,0.18287557363510132
2.9439730644226074,-0.056282222270965576,-0.13665330410003662,0.09863239526748657,-0.2789913562348133,-1.4004876768133216,2.619201404185977,-0.9474254846572876,0.27538615465164185,-0.1629331111907959,0.9850576519966125,0.1274806708097458,0.19673575460910797
2.9641079902648926,-0.16903525590896606,-0.06918233633041382,0.07940363883972168,-0.2791219181195516,-1.3928769864100412,2.642731912641254,-0.9461227059364319,0.27551165223121643,-0.17013251781463623,1.1552835702896118,0.021899469196796417,0.15506485104560852
2.9855570793151855,-0.28242945671081543,-0.0615825355052948,0.12784230709075928,-0.2758208957928639,-1.3855249129095022,2.664291342667034,-0.9457350969314575,0.2723369002342224,-0.17725040018558502,0.8602712750434875,0.18358281254768372,-0.07794589549303055
3.004115104675293,-0.2460053563117981,-0.11068424582481384,0.19426856935024261,-0.27201587387279924,-1.3756215218532084,2.673928020442944,-0.9449431300163269,0.26867374777793884,-0.18680715560913086,0.17061960697174072,0.5230515003204346,-0.10576576739549637
3.0237841606140137,-0.2229069471359253,-0.12679362297058105,0.12261666357517242,-0.2715523497358469,-1.3654127366582636,2.674684071839404,-0.9431084990501404,0.268227219581604,-0.19646932184696198,0.01603204756975174,0.478898286819458,0.12331192195415497
3.0436840057373047,-0.29541248083114624,-0.05660372972488403,0.15788835287094116,-0.2755784174273992,-1.3544325185019952,2.676805436786393,-0.9398320913314819,0.27210357785224915,-0.2065793126821518,0.0795954018831253,0.5234196186065674,0.20301394164562225
3.0628600120544434,-0.38006120920181274,-0.05572241544723511,0.25890082120895386,-0.27572492494948553,-1.3401945978664123,2.680004984303022,-0.9367568492889404,0.27224454283714294,-0.21993005275726318,0.21590062975883484,0.7739924192428589,-0.07972413301467896
3.0838680267333984,-0.29982733726501465,-0.1401614248752594,0.2789052724838257,-0.2726783504314075,-1.3231089563094656,2.683412534063783,-0.9336625337600708,0.269311785697937,-0.23610453307628632,0.14224012196063995,0.7820121645927429,-0.11124249547719955
3.10355806350708,-0.23662853240966797,-0.18698254227638245,0.25258392095565796,-0.26977159986473115,-1.3100970157009542,2.6854988039957983,-0.93126380443573,0.26651129126548767,-0.2484336942434311,0.152265727519989,0.4825696051120758,-0.13130947947502136
3.123504161834717,-0.2840748429298401,-0.12403082847595215,0.23798954486846924,-0.26469952371404676,-1.3000874651771854,2.6921331834296227,-0.9300211071968079,0.2616192698478699,-0.25810080766677856,0.6242736577987671,0.3841504454612732,-0.20946674048900604
3.145127296447754,-0.299277663230896,-0.0837956964969635,0.20288008451461792,-0.25439258915435187,-1.289194780857219,2.707106475141679,-0.9296956062316895,0.2516576051712036,-0.26895081996917725,1.0775108337402344,0.263209730386734,-0.38614553213119507
3.163361072540283,-0.3398211598396301,-0.10881388187408447,0.12404772639274597,-0.2413534654015084,-1.281524114733948,2.7288512686764594,-0.9306713342666626,0.2390170842409134,-0.2769867479801178,1.160967469215393,-0.016108985990285873,-0.21962250769138336
3.183316230773926,-0.43906641006469727,-0.1455690562725067,0.19581088423728943,-0.2340651640276961,-1.2791175968142134,2.7444258807149553,-0.9316456913948059,0.23193374276161194,-0.2797190845012665,0.40214473009109497,-0.012045979499816895,-0.08273430913686752
3.203238010406494,-0.4728121757507324,-0.1372174322605133,0.21888068318367004,-0.2327424639006564,-1.2761996959086437,2.744300030761248,-0.9311183094978333,0.23064690828323364,-0.2825251817703247,-0.2265608310699463,0.2698434293270111,-0.0333702526986599
3.222442150115967,-0.2994922995567322,-0.09128351509571075,0.13730847835540771,-0.2342117502523022,-1.271482314166078,2.740316460620169,-0.9294504523277283,0.23207633197307587,-0.28681427240371704,-0.0908542275428772,0.26566606760025024,0.06043935939669609
3.2433199882507324,-0.22163808345794678,-0.028582081198692322,0.09703287482261658,-0.23430269529803321,-1.2677056636191022,2.7429053498863656,-0.9283403158187866,0.23216478526592255,-0.29031607508659363,0.2706945538520813,0.05919774994254112,0.023038435727357864
3.26314115524292,-0.14278876781463623,-0.11936520040035248,0.0847940742969513,-0.23145734835248982,-1.265058851746904,2.7521461908629306,-0.9281948804855347,0.229396253824234,-0.29296985268592834,0.6998031139373779,-0.042857155203819275,-0.02708178572356701
3.2821011543273926,-0.07890647649765015,-0.09964016079902649,0.0798686146736145,-0.2260726359995005,-1.2631024968805677,2.7690009794108352,-0.9287837743759155,0.2241518348455429,-0.29515501856803894,1.0768951177597046,-0.13479188084602356,-0.017730453982949257
3.3028311729431152,-0.16324061155319214,-0.07053536176681519,0.06808075308799744,-0.21847897182655077,-1.2604568746282723,2.7923667222535227,-0.9295936226844788,0.21674500405788422,-0.298122376203537,1.0422077178955078,-0.12174886465072632,-0.06603693962097168
3.3228859901428223,-0.19331330060958862,-0.13505680859088898,0.2217055857181549,-0.20996024613182931,-1.2599536060055094,2.806034392185535,-0.9311676621437073,0.2084210216999054,-0.29914408922195435,0.2803162634372711,-0.03710579127073288,-0.28382861614227295
3.342895984649658,-0.10089552402496338,-0.07790507376194,0.24723726511001587,-0.2066617395667632,-1.2616468439313338,2.7988660091383535,-0.9323226809501648,0.20519381761550903,-0.2977745234966278,-0.48561352491378784,-0.05934984236955643,-0.4153655171394348
3.3617420196533203,-0.0953335165977478,0.04814067482948303,0.18173101544380188,-0.20190069358130416,-1.2610954190758548,2.7886745158143116,-0.9330783486366272,0.20053178071975708,-0.2985829710960388,-0.31547820568084717,0.24803753197193146,-0.24207940697669983
3.382808208465576,-0.163100004196167,-0.034212008118629456,0.08943364024162292,-0.20204189347144483,-1.2574175263655032,2.783998927097143,-0.9319468140602112,0.20067010819911957,-0.3020039200782776,-0.26170027256011963,0.1472311168909073,0.08570018410682678
3.402653217315674,-0.23172783851623535,0.12702421844005585,0.19003745913505554,-0.20654876336202987,-1.257488912473161,2.7788750133904077,-0.9310985207557678,0.20508325099945068,-0.3016555905342102,0.06785022467374802,0.10312703996896744,0.17649738490581512
3.4225451946258545,-0.2831663489341736,0.22536581754684448,0.16805142164230347,-0.2115728028726884,-1.252560294346489,2.785444708135651,-0.9286102056503296,0.20999789237976074,-0.3059147298336029,0.2517998516559601,0.2672557830810547,0.34388840198516846
3.4425292015075684,-0.29795998334884644,0.032458484172821045,0.16453775763511658,-0.22267299546374122,-1.2431604181073144,2.788071987907035,-0.9234297275543213,0.22083741426467896,-0.3138604164123535,-0.6181901693344116,0.5909827351570129,0.9277729392051697
3.462534189224243,-0.5027151703834534,0.0199650377035141,0.023960202932357788,-0.23903382580373955,-1.2295922233746512,2.7832667999337075,-0.9155585765838623,0.23676402866840363,-0.32510772347450256,-0.6696219444274902,0.5170727372169495,0.4420166313648224
3.4816322326660156,-0.08795821666717529,0.022793889045715332,-0.06704947352409363,-0.25742953226105253,-1.2359026009835816,2.7885510521701855,-0.9133235216140747,0.25459563732147217,-0.3178383708000183,-0.5971441268920898,-0.5741845965385437,1.1014103889465332
3.5024821758270264,-0.7402527332305908,-0.02832973003387451,-0.07664284110069275,-0.2802440696244811,-1.2392662285011573,2.802459391402361,-0.9086577892303467,0.2765901982784271,-0.3127921521663666,0.24980510771274567,-0.003533096518367529,0.9234755039215088
3.521383285522461,-0.7398777008056641,-0.06297504901885986,-0.08574181795120239,-0.287945893109573,-1.2356835858413642,2.8108008775462783,-0.9054926037788391,0.2839832901954651,-0.31533557176589966,0.30278271436691284,0.309999018907547,0.49389734864234924
3.5422801971435547,-0.44159018993377686,-0.24987712502479553,-0.20214790105819702,-0.2971858306813311,-1.2323755412861492,2.8141051345772894,-0.9019307494163513,0.29283055663108826,-0.31744450330734253,-0.3024244010448456,-0.041412122547626495,0.4321219325065613
3.5621871948242188,-0.5192182660102844,-0.1094147264957428,-0.15964069962501526,-0.3073778257399941,-1.2358226725209744,2.807274591335118,-0.9001541137695312,0.302560418844223,-0.3133360743522644,-0.6240492463111877,-0.14919939637184143,0.29190024733543396
3.58198618888855,-0.5084530711174011,-0.04267027974128723,-0.09301018714904785,-0.3176379387905297,-1.2424198708765835,2.7952488259001,-0.8992158770561218,0.31232354044914246,-0.3063735067844391,-0.7498231530189514,-0.13747598230838776,0.3244973123073578
3.601983070373535,-0.5875888466835022,0.050269901752471924,-0.10147881507873535,-0.32772709320394877,-1.2488892366744893,2.7837571248033495,-0.8981440663337708,0.3218919336795807,-0.2995375692844391,-0.5351634621620178,-0.17601539194583893,0.2734980583190918
3.6220192909240723,-0.5601856708526611,0.08847871422767639,-0.189555823802948,-0.3358118149968822,-1.2543804737346396,2.7792568396169974,-0.8972726464271545,0.32953575253486633,-0.29378175735473633,-0.2342156022787094,-0.1546705961227417,0.38211092352867126
3.641930103302002,-0.6079291701316833,0.011421442031860352,-0.12496250867843628,-0.3452176752143853,-1.25829819312702,2.77242185795746,-0.8954276442527771,0.33840152621269226,-0.28929850459098816,-0.6354024410247803,-0.06251990050077438,0.3188478946685791
3.6608831882476807,-0.5123305916786194,0.07270747423171997,-0.1150769591331482,-0.356308018362566,-1.2627669008475981,2.7635852430629932,-0.8930800557136536,0.34881651401519775,-0.28413885831832886,-0.42031970620155334,-0.07405325025320053,0.4647374451160431
3.682169198989868,-0.4909937381744385,0.08509436249732971,-0.09592762589454651,-0.36647424498939335,-1.2649205329367634,2.7630463647791643,-0.8902623057365417,0.3583260476589203,-0.28113245964050293,0.06985903531312943,-0.14347529411315918,0.4741933345794678
3.7008931636810303,-0.429690957069397,-0.020997941493988037,-0.018006831407546997,-0.374509467252618,-1.2648855589972716,2.7703780555407986,-0.8874781727790833,0.36581602692604065,-0.28028738498687744,0.3589097559452057,-0.14103777706623077,0.4804421663284302
3.7215890884399414,-0.36298370361328125,-0.06810551881790161,-0.0560302734375,-0.37973247742727684,-1.2642815463552146,2.7826181950090496,-0.8854750394821167,0.3706720173358917,-0.28024303913116455,0.4735393226146698,-0.2153950035572052,0.3465133011341095
3.742321014404297,-0.27976155281066895,-0.13529935479164124,-0.024746596813201904,-0.3832608930441759,-1.2660380682610852,2.7916659462768294,-0.884712815284729,0.37394675612449646,-0.27829307317733765,0.25894102454185486,-0.2784556448459625,0.31690341234207153
3.763446092605591,-0.17693454027175903,-0.10032346844673157,-0.040466129779815674,-0.38811615623750945,-1.2694108440127296,2.798151453700339,-0.8839021325111389,0.3784453570842743,-0.27476537227630615,0.163747638463974,-0.28133079409599304,0.30795636773109436
3.783905029296875,-0.12045031785964966,-0.12127086520195007,0.0267905592918396,-0.3937738649056617,-1.2721319303752536,2.801732646742426,-0.8825860023498535,0.3836761713027954,-0.27172479033470154,-0.02755962312221527,-0.12314639985561371,0.32471904158592224
3.8018670082092285,-0.0743609070777893,-0.13791418075561523,0.04311564564704895,-0.3998412285948694,-1.2742441533072772,2.8021284711751386,-0.8809154033660889,0.3892720937728882,-0.269174724817276,-0.053997159004211426,-0.10975043475627899,0.2871449291706085
3.8199620246887207,-0.03502476215362549,-0.1363714039325714,0.0524219274520874,-0.4060431141750369,-1.2761458351942698,2.8030803271955294,-0.879098653793335,0.39497727155685425,-0.26679280400276184,-0.051498591899871826,-0.1708967089653015,0.3327987492084503
3.8409981727600098,0.04030853509902954,-0.13774365186691284,0.07210147380828857,-0.4122122862045408,-1.2805907969758703,2.804672612536108,-0.877924382686615,0.40063729882240295,-0.262180358171463,0.0009175711311399937,-0.2717852294445038,0.3240516185760498
3.861480236053467,0.06283533573150635,-0.11652770638465881,0.09950292110443115,-0.418242129867732,-1.2851814778560557,2.806816367840994,-0.8767848014831543,0.40615472197532654,-0.2574620246887207,-0.01657770574092865,-0.3174208998680115,0.302590012550354
3.881606101989746,0.13853085041046143,-0.1303272843360901,0.1255406141281128,-0.4247030687276586,-1.2913681957922971,2.808979914360542,-0.8758201599121094,0.4120502471923828,-0.25130370259284973,0.07804006338119507,-0.29892081022262573,0.42652443051338196
3.903050184249878,0.10092735290527344,-0.06458726525306702,0.11284226179122925,-0.4307679869224997,-1.292900457916163,2.815914394503713,-0.8737848997116089,0.41756874322891235,-0.2492712438106537,0.3896107077598572,-0.1702687293291092,0.2924324572086334
3.91995906829834,0.17453712224960327,-0.09072399139404297,0.07878682017326355,-0.4341611448100029,-1.2908061189928415,2.828682739856952,-0.8718942999839783,0.42064952850341797,-0.250707745552063,0.5701918005943298,-0.19179825484752655,0.38048097491264343
3.941030979156494,0.19584310054779053,-0.11041203141212463,0.09037977457046509,-0.4380039030233037,-1.2879269616207167,2.8432311564579336,-0.869610071182251,0.42413264513015747,-0.25276392698287964,0.534772515296936,-0.1265704333782196,0.3569922149181366
3.9608871936798096,0.19687211513519287,-0.14263981580734253,0.11712580919265747,-0.4415972462439872,-1.2841843960069887,2.8545315218506744,-0.8671905994415283,0.42738401889801025,-0.2555842399597168,0.33903470635414124,0.0514836385846138,0.28827133774757385
3.9826812744140625,0.23548543453216553,-0.1378251612186432,0.09663820266723633,-0.4451862602025498,-1.278577475743915,2.860968416533053,-0.864269495010376,0.4306260049343109,-0.2599989175796509,0.1391514092683792,0.19954358041286469,0.17434607446193695
3.9999852180480957,0.27639275789260864,-0.08627554774284363,0.04368969798088074,-0.4443350778952398,-1.274320588874948,2.8629606639885887,-0.8635050058364868,0.42985761165618896,-0.2637825906276703,0.09387222677469254,0.1396312415599823,-0.14653198421001434
4.019934177398682,0.31663650274276733,-0.14753511548042297,0.03739801049232483,-0.4400419163283741,-1.2715773169534592,2.863237229749988,-0.8645336627960205,0.4259773790836334,-0.26669198274612427,0.04978581890463829,0.14713355898857117,-0.2573184669017792
4.03992223739624,0.34370720386505127,-0.15304014086723328,0.00334891676902771,-0.43399200406271204,-1.2684413593668196,2.86248296974447,-0.8661373853683472,0.4204960763454437,-0.27016422152519226,0.04294688627123833,0.179596409201622,-0.3482125699520111
4.059916019439697,0.4038228392601013,-0.15194761753082275,0.05338919162750244,-0.42795273445830223,-1.2645176777506884,2.8584676593655463,-0.8674762845039368,0.4150090217590332,-0.2743213176727295,-0.276617169380188,0.4396972358226776,-0.2766859531402588
4.0799360275268555,0.4269082546234131,-0.15790367126464844,0.07830184698104858,-0.42608086074085433,-1.2587063309800268,2.846250390329569,-0.8666054010391235,0.41330525279045105,-0.2795959413051605,-0.681986391544342,0.5838882327079773,-0.2654868960380554
4.099922180175781,0.4713338017463684,-0.07878974080085754,0.06548750400543213,-0.4251960386464379,-1.256243941270735,2.8283618810199984,-0.8662616610527039,0.4124993681907654,-0.28184202313423157,-0.7752313613891602,0.3945377469062805,-0.2868414521217346
4.119960308074951,0.43672341108322144,-0.055349141359329224,-0.001925736665725708,-0.4241042150351079,-1.255365548396776,2.8153648772141793,-0.8664413690567017,0.41150450706481934,-0.28274238109588623,-0.21722003817558289,0.2453356683254242,-0.19588202238082886
4.140523195266724,0.4004473090171814,-0.021788209676742554,-0.044783711433410645,-0.4202326056187802,-1.2512312238625782,2.8159895268752684,-0.8667710423469543,0.4079728424549103,-0.2868204414844513,0.3335704505443573,0.18852829933166504,-0.14078004658222198
4.160746097564697,0.3153148293495178,-0.10993179678916931,0.023010671138763428,-0.41676864191684243,-1.2418128888921567,2.822879439081463,-0.8653635382652283,0.40480780601501465,-0.2954259514808655,0.2261318415403366,0.5140191316604614,-0.019243577495217323
4.180598258972168,0.2379857897758484,-0.12739968299865723,0.06082591414451599,-0.4154136197006583,-1.232905892914288,2.8166042869480448,-0.8632144927978516,0.40356841683387756,-0.30330345034599304,-0.7638731002807617,0.666472315788269,-0.24388103187084198
4.199956178665161,0.20731836557388306,-0.13009536266326904,0.024923384189605713,-0.4197816773819038,-1.2298300008129492,2.788664273044574,-0.8606080412864685,0.4075610935688019,-0.30536481738090515,-1.7596139907836914,0.7968710660934448,-0.23724913597106934
4.2203450202941895,0.15156465768814087,-0.025516241788864136,-0.08110299706459045,-0.4260783708932962,-1.2339504286682117,2.7439844941792155,-0.8594197034835815,0.4133029878139496,-0.3009619414806366,-2.1978509426116943,0.7240797281265259,-0.4067109525203705
4.240131139755249,0.14211523532867432,0.043478578329086304,-0.06550434231758118,-0.431587531187298,-1.2390918121515455,2.6967955087425475,-0.8587897419929504,0.41831329464912415,-0.2957933843135834,-1.9068210124969482,0.8576488494873047,-0.386377215385437
4.259937286376953,0.07687598466873169,0.16853588819503784,-0.04184460639953613,-0.4337767036858102,-1.2347995017468678,2.6614885181850045,-0.8566457033157349,0.4203007221221924,-0.2991742193698883,-1.2397055625915527,1.0058187246322632,-0.5459870100021362
4.2801899909973145,0.15325945615768433,0.14930325746536255,-0.020202964544296265,-0.4287952256269264,-1.227498395450211,2.6355435677508865,-0.8563995361328125,0.4157753884792328,-0.3061215877532959,-0.8955919742584229,0.8334654569625854,-0.6042841076850891
4.299957275390625,0.17318826913833618,0.0797731876373291,0.04221642017364502,-0.4236458565469254,-1.2220045929346552,2.611966814640873,-0.8567056059837341,0.4110867381095886,-0.31154942512512207,-0.9675658941268921,0.7542971968650818,-0.6041707992553711
4.319955110549927,0.16531240940093994,0.10127964615821838,0.03438544273376465,-0.4195579268844468,-1.2179602073320488,2.586104988790496,-0.8570084571838379,0.40735676884651184,-0.3155898153781891,-1.1509298086166382,0.6663437485694885,-0.612701952457428
4.340007305145264,0.216985821723938,0.11272382736206055,-0.05116686224937439,-0.41503449115920227,-1.2191553235041892,2.558583728076062,-0.8591060042381287,0.4032214879989624,-0.31519678235054016,-0.999363124370575,0.4514550268650055,-0.7063848376274109
4.359929084777832,0.0770006775856018,0.12993499636650085,-0.030261188745498657,-0.4069459868002649,-1.214653821497841,2.5384325221635007,-0.8607073426246643,0.39580658078193665,-0.32018759846687317,-0.33454954624176025,0.8481929302215576,-0.6554539799690247
4.380037307739258,0.026401102542877197,0.3094122111797333,0.032740771770477295,-0.39300986701969376,-1.1946115122830971,2.544161124228258,-0.8591646552085876,0.38297054171562195,-0.33936625719070435,1.2530343532562256,0.4084136486053467,-0.16262470185756683
4.399954319000244,0.47227638959884644,0.30372369289398193,-0.5314934253692627,-0.3813397291524422,-1.2029010315836886,2.573165878824628,-0.8660597801208496,0.3721643090248108,-0.33381739258766174,1.451032042503357,-1.9828732013702393,-0.41633522510528564
4.420056104660034,0.4353638291358948,0.08829554915428162,0.008300334215164185,-0.36685353184095043,-1.2476038562262481,2.589531313670137,-0.8851318955421448,0.3586800992488861,-0.296462744474411,0.15559329092502594,-2.688072919845581,-0.22254343330860138
4.439984083175659,0.14586710929870605,-0.2797284722328186,0.2537602186203003,-0.36928740827282125,-1.2992615954653417,2.570063695803908,-0.8984151482582092,0.3609509766101837,-0.25012877583503723,-1.6956723928451538,-1.6627572774887085,-0.36445358395576477
4.459954261779785,-0.17179596424102783,0.06566080451011658,-0.05522739887237549,-0.36986944456995924,-1.3329014343849168,2.5307396664912445,-0.9061152935028076,0.36149370670318604,-0.21972088515758514,-1.722218632698059,-0.46671441197395325,-0.4199962317943573
4.480010032653809,-0.050647199153900146,0.23193398118019104,-0.07666105031967163,-0.3654074432841486,-1.3464869414452914,2.5009417567854633,-0.9105800986289978,0.3573298752307892,-0.2077476531267166,-0.8955468535423279,0.11171271651983261,-0.6705552935600281
4.500054121017456,0.056794822216033936,0.21754276752471924,-0.07386040687561035,-0.3574491213315754,-1.34925072237153,2.4835410359801573,-0.9138961434364319,0.3498857319355011,-0.2058486044406891,-0.7025416493415833,0.16400165855884552,-0.3953368067741394
4.519954204559326,0.030968964099884033,0.04999041557312012,-0.05101203918457031,-0.3551650276577209,-1.3537039974867835,2.463847357749496,-0.9155818223953247,0.3477450907230377,-0.201948344707489,-1.0540688037872314,0.09246223419904709,-0.22655639052391052
4.539964199066162,-0.0006207823753356934,0.16589704155921936,-0.024300038814544678,-0.3577204576060916,-1.3599022755627947,2.439446718604452,-0.91594398021698,0.35013991594314575,-0.19608281552791595,-1.144225001335144,0.13792860507965088,-0.05012993887066841
4.559040069580078,-0.010580062866210938,0.22515052556991577,-0.05789363384246826,-0.36061780711162844,-1.3641966636274232,2.419388451943977,-0.9157808423042297,0.35285237431526184,-0.19193868339061737,-0.7549665570259094,0.14342989027500153,-0.031231705099344254
4.579965114593506,-0.017865896224975586,0.22604870796203613,-0.12339222431182861,-0.36226761269825014,-1.3653081725148526,2.409249096536218,-0.9154224991798401,0.3543955683708191,-0.19080163538455963,-0.1838531643152237,0.09678924828767776,-0.009732496924698353
4.599956035614014,-0.010429322719573975,0.18565145134925842,-0.14240305125713348,-0.36211214971283545,-1.3637016463730751,2.4100345449769827,-0.9151686429977417,0.3542501926422119,-0.19228334724903107,0.19302427768707275,0.031516943126916885,0.015220408327877522
4.620115280151367,0.020617008209228516,0.11978617310523987,-0.09719139337539673,-0.3617458352883861,-1.3621469131673334,2.414048762415368,-0.914995551109314,0.35390761494636536,-0.1937328428030014,0.11541835218667984,-0.03580457344651222,0.015230786986649036
4.639955043792725,0.03317248821258545,0.0480312705039978,-0.07100830972194672,-0.36188499075727865,-1.364204361256562,2.414826461382484,-0.9153438806533813,0.3540377616882324,-0.19183975458145142,-0.019096950069069862,-0.20851518213748932,0.018811728805303574
4.659975051879883,0.021259069442749023,0.04918906092643738,-0.039746999740600586,-0.36304567832153795,-1.3700666513852713,2.413089422128109,-0.9160495400428772,0.35512304306030273,-0.18638843297958374,-0.16284984350204468,-0.30462998151779175,0.0302781630307436
4.681082248687744,-0.0027027130126953125,0.06361523270606995,0.017566680908203125,-0.3629080159204999,-1.3767668110808562,2.409450019569527,-0.9173258543014526,0.35499435663223267,-0.18025603890419006,-0.18835969269275665,-0.17419077455997467,-0.09095488488674164
4.70003604888916,-0.004602372646331787,0.036775946617126465,0.020522013306617737,-0.3605250780058409,-1.3797735485828773,2.404046882924198,-0.9186915159225464,0.35276558995246887,-0.17765715718269348,-0.23199547827243805,0.049705710262060165,-0.2518164813518524
4.72130012512207,0.019434034824371338,-0.024594664573669434,0.0007178783416748047,-0.3561744431204205,-1.3800367162821066,2.398205458872639,-0.9202364683151245,0.34869134426116943,-0.17770472168922424,-0.32607486844062805,0.07525634765625,-0.2356090098619461
4.739981174468994,0.03138226270675659,-0.040142446756362915,0.026649057865142822,-0.35306561292120814,-1.3828513588752422,2.387170654997115,-0.921793520450592,0.34577593207359314,-0.17531557381153107,-0.6427795886993408,0.008870754390954971,-0.3063247799873352
4.760043144226074,0.01911109685897827,-0.04744362831115723,0.07848405838012695,-0.3491897871439528,-1.3898432733609893,2.3685629797418035,-0.9243080615997314,0.34213659167289734,-0.1691061556339264,-0.9542739391326904,-0.019016802310943604,-0.40544790029525757
4.780040264129639,0.03630000352859497,-0.04707831144332886,0.13092024624347687,-0.34587996646536445,-1.3970907944375386,2.3446704666607614,-0.9266196489334106,0.3390246629714966,-0.1625976413488388,-1.183328628540039,0.11063919216394424,-0.3101368248462677
4.799955129623413,0.06133300065994263,-0.05240565538406372,0.1175919771194458,-0.3453145285650672,-1.4045876860727557,2.3167260962877303,-0.9280015230178833,0.33849266171455383,-0.15567807853221893,-1.3530986309051514,0.10332588106393814,-0.22161166369915009
4.8199663162231445,0.065265953540802,-0.019171178340911865,0.11602403223514557,-0.34505412945380065,-1.4120097880026286,2.287792986251228,-0.9292183518409729,0.3382476270198822,-0.1488000452518463,-1.3274705410003662,0.1359439194202423,-0.24033834040164948
4.839970111846924,0.05965787172317505,-0.049893081188201904,0.13173359632492065,-0.34313165142196106,-1.4175895868545239,2.260066201734823,-0.9306751489639282,0.33643782138824463,-0.1437118947505951,-1.2713418006896973,0.25408098101615906,-0.34915652871131897
4.859955310821533,0.09125250577926636,-0.11247080564498901,0.16057217121124268,-0.3400076757071268,-1.420675927157766,2.232169479096675,-0.9321489334106445,0.3334943354129791,-0.1409953385591507,-1.2434515953063965,0.33209842443466187,-0.35325753688812256
4.879954099655151,0.09207826852798462,-0.14832767844200134,0.164669468998909,-0.3370782690971321,-1.4227526428139399,2.2076021422098213,-0.933401882648468,0.33073118329048157,-0.13920271396636963,-1.0757291316986084,0.2661101818084717,-0.27673494815826416
4.899963140487671,-0.04077976942062378,-0.12071248888969421,0.1571723371744156,-0.33401124524377473,-1.4273740491614906,2.1828537855206207,-0.9350348114967346,0.32783523201942444,-0.13503196835517883,-1.226908802986145,0.08475619554519653,-0.39958655834198
4.919976234436035,-0.2885822057723999,-0.08269849419593811,0.17754942178726196,-0.327746671106701,-1.4371803747558478,2.1524399986732465,-0.938331127166748,0.32191047072410583,-0.12612749636173248,-1.5593401193618774,0.014975428581237793,-0.6455317139625549
4.940214157104492,-0.4830290675163269,-0.06427186727523804,0.2260691523551941,-0.31613941634099013,-1.4441309333083756,2.1131844660387764,-0.9428282380104065,0.31089961528778076,-0.12006651610136032,-1.9921830892562866,0.5799182057380676,-0.9697306752204895
4.959427118301392,-0.21098285913467407,-0.03260982036590576,0.1331978589296341,-0.30154812258604763,-1.4426831655383063,2.0669759917743527,-0.9470521211624146,0.2969988286495209,-0.12199802696704865,-2.121133327484131,0.8875314593315125,-0.968310534954071
4.9799981117248535,0.16527974605560303,0.01463472843170166,-0.017846763134002686,-0.2896931989995156,-1.4386650946909714,2.024148392482881,-0.9499781131744385,0.28565821051597595,-0.12625738978385925,-1.7384841442108154,0.7166241407394409,-0.7342469692230225
4.999924182891846,0.34496456384658813,-0.0008422434329986572,-0.055779024958610535,-0.28220680818901145,-1.4394689997189947,1.9930238494641546,-0.9521726369857788,0.2784758508205414,-0.12577016651630402,-1.1603102684020996,0.056532636284828186,-0.38421332836151123
5.019956111907959,0.1956283450126648,-0.0743831992149353,-0.019992664456367493,-0.2795480635147312,-1.448015635995254,1.9710727053084813,-0.9539443850517273,0.2759212851524353,-0.11771807819604874,-0.969118595123291,-0.17804640531539917,-0.18818669021129608
5.039940118789673,-0.18264228105545044,-0.1074400246143341,0.04209757596254349,-0.2786180657547609,-1.4529060439526569,1.947844475421376,-0.954762876033783,0.2750272750854492,-0.11308162659406662,-1.329691767692566,0.43055459856987,-0.22243919968605042
5.059755086898804,-0.3474065661430359,-0.12288257479667664,0.08659051358699799,-0.27560463476798286,-1.447418651800177,1.912595732559709,-0.9549463391304016,0.27212879061698914,-0.11842053383588791,-2.06471586227417,1.0039353370666504,-0.48491552472114563
5.079959154129028,-0.17960095405578613,-0.08676236867904663,0.07210522890090942,-0.27116458906606583,-1.4403293985776653,1.860313292346766,-0.955271303653717,0.26785364747047424,-0.12534330785274506,-2.8537819385528564,1.03480863571167,-0.5617853999137878
5.099959135055542,-0.06908237934112549,0.01477387547492981,0.02345384657382965,-0.26769340519365065,-1.4383869929972335,1.796444857666398,-0.9559417963027954,0.2645077109336853,-0.1273205578327179,-3.1118650436401367,0.898486852645874,-0.5938971042633057
5.119991302490234,-0.02773737907409668,0.16437119245529175,-0.03316384553909302,-0.26383467442770825,-1.437402553793029,1.7345719812604148,-0.9568206071853638,0.26078444719314575,-0.12839637696743011,-2.650843620300293,0.7744061350822449,-0.5883168578147888
5.139965057373047,0.03406643867492676,0.2583655118942261,-0.09895366430282593,-0.2557980346047498,-1.436489043086406,1.6881974062237246,-0.9587488770484924,0.2530175447463989,-0.12954683601856232,-1.7186734676361084,0.4974398910999298,-0.7947787046432495
5.160017013549805,0.1303008794784546,0.28945374488830566,-0.12735474109649658,-0.24325744836642063,-1.4379876070142164,1.6576611628026539,-0.9620115756988525,0.24086543917655945,-0.12852002680301666,-1.1049010753631592,0.09712160378694534,-0.8333982229232788
5.179959297180176,0.16595923900604248,0.24378450214862823,-0.15150125324726105,-0.2296333730411173,-1.4447377608914893,1.6378191009228986,-0.9660232663154602,0.22762054204940796,-0.1224246695637703,-0.6810859441757202,-0.26764047145843506,-0.7539475560188293
5.1999831199646,0.13082635402679443,0.2764430046081543,-0.1732475757598877,-0.21692292546120487,-1.4545024486890976,1.6243712830847983,-0.9699680805206299,0.2152256816625595,-0.11331263184547424,-0.49423322081565857,-0.38045650720596313,-0.6914106607437134
5.219964981079102,0.11549466848373413,0.28890833258628845,-0.20417869091033936,-0.20450323660575423,-1.4646297360720573,1.613441356714812,-0.973648726940155,0.20308077335357666,-0.10375909507274628,-0.46104198694229126,-0.4119443893432617,-0.6573704481124878
5.239955186843872,0.15137428045272827,0.29511749744415283,-0.23081374168395996,-0.1932504287862374,-1.4752096596927968,1.602400533892366,-0.9769051671028137,0.19204983115196228,-0.09366454929113388,-0.5145392417907715,-0.4131760895252228,-0.5762396454811096
5.260004043579102,0.1685270071029663,0.3083457946777344,-0.301946759223938,-0.18363609051675864,-1.4856355013733855,1.5915640403246187,-0.9796229004859924,0.18260572850704193,-0.08362776041030884,-0.4379640817642212,-0.42724236845970154,-0.4746437668800354
5.279989242553711,0.18798750638961792,0.32438498735427856,-0.316215455532074,-0.17609648170138884,-1.495145653097906,1.5826059826958563,-0.9817190170288086,0.17518776655197144,-0.07440970838069916,-0.3999129831790924,-0.3736362159252167,-0.35628819465637207
5.299959182739258,0.19288337230682373,0.3173196315765381,-0.33569347858428955,-0.17056676698566436,-1.5035007650956267,1.5738338096393352,-0.9832580089569092,0.16974091529846191,-0.06626896560192108,-0.4303753077983856,-0.29964473843574524,-0.257696270942688
5.319960117340088,0.2093372344970703,0.3154602646827698,-0.3668253421783447,-0.16725199562562892,-1.5102571171155545,1.5652755883405731,-0.9842395186424255,0.16647332906723022,-0.059657983481884,-0.34242233633995056,-0.24434970319271088,-0.1251186579465866
5.339996099472046,0.24567967653274536,0.32510462403297424,-0.43680310249328613,-0.16677145770657964,-1.5154707935100045,1.5605969407809948,-0.9846166968345642,0.16599947214126587,-0.05453009530901909,-0.09616951644420624,-0.24683816730976105,0.040506262332201004
5.359957218170166,0.27676570415496826,0.3181954026222229,-0.42973244190216064,-0.16823858237281497,-1.5211546756849315,1.560858745029865,-0.9846665263175964,0.1674460619688034,-0.04892066493630409,0.08170808851718903,-0.3020493984222412,0.09988325089216232
5.379976272583008,0.25490349531173706,0.30011117458343506,-0.3870964050292969,-0.17105876801852163,-1.5258712988532335,1.5634367012531492,-0.9844108819961548,0.17022575438022614,-0.04425446316599846,0.15800656378269196,-0.2103661596775055,0.19129131734371185
5.399966239929199,0.17427939176559448,0.29070258140563965,-0.42959165573120117,-0.17546746733719262,-1.52834898788938,1.5684545096558156,-0.9837581515312195,0.17456844449043274,-0.041783012449741364,0.35111552476882935,-0.13637521862983704,0.2771034836769104
5.419987201690674,0.1421319842338562,0.3412753939628601,-0.4647684693336487,-0.18164877631824272,-1.5291143817801878,1.5793140520400704,-0.9826926589012146,0.1806514710187912,-0.04098428040742874,0.703247606754303,-0.16696932911872864,0.36876627802848816
5.439956188201904,0.11441737413406372,0.36011797189712524,-0.4692040681838989,-0.18762704945872963,-1.529700319487117,1.5973903730090624,-0.9816198945045471,0.18652811646461487,-0.040363382548093796,1.0208572149276733,-0.22771604359149933,0.3116076588630676
5.459964275360107,0.07989281415939331,0.33571094274520874,-0.43609780073165894,-0.1941471847811161,-1.530618861438277,1.6200702761986319,-0.9804206490516663,0.19292981922626495,-0.03941202536225319,1.1832756996154785,-0.3385593593120575,0.4644571542739868
5.479984283447266,-0.1505361795425415,0.36944580078125,-0.4660945534706116,-0.20479777747586977,-1.5333531072973587,1.6471042514585852,-0.978415846824646,0.2033691704273224,-0.03665217012166977,1.470428228378296,-0.42671722173690796,0.6301579475402832
5.500010967254639,-0.503523588180542,0.4577380120754242,-0.4273589849472046,-0.21343442655740613,-1.5301660095651457,1.681059450407392,-0.9765024781227112,0.2118176370859146,-0.03969745337963104,1.80747389793396,0.07883572578430176,0.32061946392059326
5.519955158233643,-0.4215407967567444,0.39884400367736816,-0.2716327905654907,-0.21728745391375495,-1.5137564882927093,1.717716319703531,-0.9748976826667786,0.21558165550231934,-0.05566839128732681,1.6343605518341064,0.7560126781463623,0.3372534215450287
5.539956092834473,-0.17325949668884277,0.2337561994791031,-0.09005481004714966,-0.22713021736403632,-1.4886059388676558,1.7442319730186981,-0.9710274934768677,0.22518238425254822,-0.07998932152986526,0.8713750243186951,1.0798171758651733,0.7968958616256714
5.559972286224365,-0.22831189632415771,0.1476752758026123,-0.04363398998975754,-0.24702603886178406,-1.4592069826240648,1.759350105703091,-0.963612973690033,0.244521364569664,-0.107977494597435,0.5123367309570312,1.2226128578186035,1.2018280029296875
5.580080032348633,-0.3380126953125,0.1569978892803192,-0.03938679397106171,-0.2659724570304752,-1.4294510444640567,1.7957407103550875,-0.9552152156829834,0.2628476619720459,-0.13592153787612915,2.9673070907592773,0.9773504734039307,1.1692153215408325
5.59996223449707,-0.2790849804878235,0.33557790517807007,0.07759903371334076,-0.27749743892527445,-1.3957688548978315,1.8688741715061163,-0.9470502138137817,0.27394968271255493,-0.16747348010540009,3.623204469680786,0.3425743281841278,0.8237581849098206
5.619961261749268,-0.20322608947753906,0.017292559146881104,0.21799379587173462,-0.2758501161128705,-1.3703967612844927,1.9374241546078095,-0.9429376721382141,0.272365003824234,-0.19153520464897156,2.767800807952881,0.3423883616924286,0.41707921028137207
5.639953136444092,-0.23203539848327637,-0.2651408016681671,0.2733491063117981,-0.28034964237551663,-1.3463898497135667,1.9806389443418395,-0.9368639588356018,0.27669164538383484,-0.21383999288082123,1.1167821884155273,0.7828696966171265,0.905264675617218
5.659954071044922,-0.20434361696243286,-0.25097790360450745,0.28923529386520386,-0.2972678720823222,-1.3198639124032294,2.0029621769794934,-0.9261950850486755,0.29290899634361267,-0.2374165654182434,0.7201321125030518,1.2889686822891235,1.2883440256118774
5.679984092712402,-0.10439884662628174,0.05815774202346802,0.23773816227912903,-0.31751161384759835,-1.28639041121416,2.0269324356997003,-0.9118515253067017,0.3122035264968872,-0.2665621340274811,1.0599724054336548,1.28913414478302,1.08658766746521
5.699954032897949,-0.03899526596069336,0.08925819396972656,0.2124406099319458,-0.32656473550316484,-1.252957563522589,2.061526789457285,-0.8997099995613098,0.32079121470451355,-0.29599788784980774,1.746139645576477,0.9515095353126526,0.8953879475593567
5.719954013824463,-0.026890873908996582,-0.10031375288963318,0.3232283890247345,-0.3328186945361295,-1.2216536418555926,2.1022714117573384,-0.8881022334098816,0.3267083466053009,-0.32332006096839905,1.5661289691925049,0.9062135815620422,0.918754518032074
5.740000247955322,-0.05325472354888916,-0.24069711565971375,0.4033815860748291,-0.34061371656447925,-1.191425274567321,2.1341780661027103,-0.8755323886871338,0.33406561613082886,-0.34906041622161865,0.9818300604820251,1.096767544746399,0.9186193943023682
5.75995397567749,-0.0014390945434570312,-0.2557607889175415,0.37476295232772827,-0.352882888086439,-1.161648595022977,2.1570236708918893,-0.8609265089035034,0.34560447931289673,-0.3733134865760803,0.5822479724884033,1.0094913244247437,1.007941484451294
5.779956102371216,-0.015424907207489014,-0.20770999789237976,0.3520037531852722,-0.3660203399416626,-1.13716914286747,2.1750064151658943,-0.8473374843597412,0.3579022288322449,-0.39233291149139404,0.426435649394989,0.8512638211250305,0.8618308901786804
5.799965143203735,-0.06729722023010254,-0.2281893491744995,0.41931530833244324,-0.37706007661346896,-1.1148119418124447,2.1880912606101246,-0.8347564339637756,0.36818867921829224,-0.4094124138355255,0.1668148636817932,0.9460943937301636,0.6636775135993958
5.819955110549927,-0.059919774532318115,-0.3151420056819916,0.4700883626937866,-0.3880394487834972,-1.0922909892363486,2.193948056293331,-0.8216870427131653,0.3783743679523468,-0.4262193739414215,-0.1749352365732193,1.044913411140442,0.5749821662902832
5.839951992034912,-0.010753154754638672,-0.3457844853401184,0.47595906257629395,-0.4004375318774884,-1.0718642847991402,2.1936750974456993,-0.8086283802986145,0.38982129096984863,-0.4406350553035736,-0.4217631220817566,0.95424485206604,0.49548593163490295
5.85996413230896,-0.00766068696975708,-0.31282344460487366,0.4478267431259155,-0.4122627511762419,-1.0573562837960564,2.188594394336551,-0.7980794906616211,0.40068352222442627,-0.4500241279602051,-0.5285363793373108,0.6801795363426208,0.28545504808425903
5.88004207611084,-0.030894994735717773,-0.2686435580253601,0.41081470251083374,-0.4200974683891205,-1.0500249200747376,2.181115628950098,-0.7920113801956177,0.4078494608402252,-0.4542870819568634,-0.45138123631477356,0.3532972037792206,0.07165060192346573
5.899919033050537,-0.05550181865692139,-0.24027755856513977,0.414364218711853,-0.42401158249722976,-1.0492352969999152,2.172637130429869,-0.7902622222900391,0.4114201068878174,-0.4541134834289551,-0.4457312226295471,0.10099322348833084,-0.11620001494884491
5.920006275177002,-0.09307670593261719,-0.23917672038078308,0.4402347803115845,-0.4258180363981376,-1.0533124355948436,2.160940878134769,-0.7914599776268005,0.41306591033935547,-0.4505193531513214,-0.5920950174331665,0.011171991005539894,-0.24161386489868164
5.939963102340698,-0.10880112648010254,-0.2376725673675537,0.44695591926574707,-0.42822233324465286,-1.0598669896296338,2.1443537581119605,-0.7935272455215454,0.41525429487228394,-0.4448350667953491,-0.8524874448776245,0.0121330376714468,-0.28867870569229126
5.959957122802734,-0.08750730752944946,-0.22909623384475708,0.4174969494342804,-0.43216659436039045,-1.0694523444548454,2.1225187484537713,-0.7963120937347412,0.4188391864299774,-0.43641793727874756,-1.046203851699829,-0.08341167867183685,-0.3272224962711334
5.979956150054932,-0.0871133804321289,-0.22081929445266724,0.36215513944625854,-0.4359771040393532,-1.083248490729004,2.098694646914577,-0.800841212272644,0.42229631543159485,-0.4246399998664856,-1.0243456363677979,-0.3101006746292114,-0.36822253465652466
5.999965190887451,-0.15980345010757446,-0.1866893470287323,0.3138697147369385,-0.4375475603656048,-1.1021656953299097,2.0744178802529962,-0.8081376552581787,0.4237193465232849,-0.40911516547203064,-1.0184015035629272,-0.5278717875480652,-0.5289663672447205
6.019956111907959,-0.22077083587646484,-0.18217584490776062,0.3165678381919861,-0.4360858839796782,-1.124746486846835,2.0469504637303566,-0.8177269101142883,0.42239490151405334,-0.39103081822395325,-1.1983578205108643,-0.5322455167770386,-0.692164421081543
6.039964199066162,-0.2057967185974121,-0.20951256155967712,0.311348021030426,-0.4340421546688207,-1.1485948654631744,2.0132202145945715,-0.8276046514511108,0.42054155468940735,-0.3717729449272156,-1.490077257156372,-0.44668594002723694,-0.7615110874176025
6.059966087341309,-0.15485155582427979,-0.17781683802604675,0.24121606349945068,-0.4322566221441404,-1.1738271946523247,1.9753707467972657,-0.8374121189117432,0.41892093420028687,-0.35106420516967773,-1.558265209197998,-0.5059931874275208,-0.7732498049736023
6.079962253570557,-0.155864417552948,-0.09555479884147644,0.14017412066459656,-0.4282922479110137,-1.2010806471483317,1.9379282899632124,-0.8482095003128052,0.4153178930282593,-0.3287118077278137,-1.430395483970642,-0.6764635443687439,-0.8877841234207153
6.0999932289123535,-0.21459555625915527,-0.03500849008560181,0.0775330662727356,-0.4203062343542647,-1.232019066943898,1.9027847167947707,-0.8610726594924927,0.40804004669189453,-0.30340903997421265,-1.3409446477890015,-0.9684320092201233,-0.9681814312934875
6.119962215423584,-0.4060346484184265,-0.004213154315948486,0.0805654227733612,-0.40971466700435827,-1.2671606305656338,1.8662688579304005,-0.8752762079238892,0.3983476161956787,-0.27424535155296326,-1.5409948825836182,-1.0166150331497192,-1.114790439605713
6.139954090118408,-0.5419079661369324,0.010563969612121582,0.09151774644851685,-0.39595715427449774,-1.3010930166283134,1.823423867789272,-0.8892747163772583,0.38569146394729614,-0.2458299994468689,-1.8718606233596802,-0.6341477036476135,-1.307956337928772
6.159988164901733,-0.30735886096954346,-0.0048667192459106445,0.025122106075286865,-0.38044856764473683,-1.3266119044200142,1.7747480514241556,-0.9009539484977722,0.37133699655532837,-0.2244783341884613,-2.067432165145874,-0.0897802785038948,-1.2811205387115479
6.179996013641357,0.04216510057449341,0.001985013484954834,-0.07545435428619385,-0.3676129055381112,-1.3434233370879118,1.7259674589660188,-0.9091693758964539,0.3593888580799103,-0.21035818755626678,-2.0110204219818115,0.12106342613697052,-1.0033632516860962
6.199963092803955,0.22088515758514404,0.012032747268676758,-0.13489864766597748,-0.3593442281192898,-1.3579744820063562,1.6829711682287405,-0.9150072336196899,0.35166043043136597,-0.19772781431674957,-1.7367815971374512,-0.07630415260791779,-0.6826401352882385
6.219998121261597,0.138927161693573,0.0005151629447937012,-0.10219156742095947,-0.35486254881802576,-1.3746798921507615,1.6459924702891373,-0.9197192192077637,0.3474614918231964,-0.18272066116333008,-1.6169744729995728,-0.2272229939699173,-0.49059200286865234
6.239960193634033,-0.15859460830688477,-0.028887659311294556,0.03745073080062866,-0.35206417370306153,-1.388182443482063,1.607858496809095,-0.9230549931526184,0.34483611583709717,-0.1704617291688919,-1.9385035037994385,0.3233122229576111,-0.4754524827003479
6.25996208190918,-0.3960237503051758,-0.06883537769317627,0.16413189470767975,-0.34969204899769074,-1.389826000311898,1.5589214136002632,-0.9241359829902649,0.3426085114479065,-0.1690911501646042,-2.5748720169067383,1.1810904741287231,-0.5847391486167908
6.279961109161377,-0.32136356830596924,-0.038802653551101685,0.21176671981811523,-0.3478375007335084,-1.3837121540681003,1.49512665900986,-0.9237076640129089,0.3408656120300293,-0.17485587298870087,-3.27795147895813,1.533930778503418,-0.6817560791969299
6.299980163574219,-0.17970716953277588,0.06201496720314026,0.19892604649066925,-0.3465850094191879,-1.3794128061811186,1.4188734232892741,-0.9233657717704773,0.33968785405158997,-0.17890664935112,-3.697848081588745,1.5013459920883179,-0.7802261710166931
6.319964170455933,-0.11066406965255737,0.141023188829422,0.1652693748474121,-0.34397620655180916,-1.3780544067819267,1.3373765756733218,-0.9239885210990906,0.3372330367565155,-0.18032991886138916,-3.7387449741363525,1.4247817993164062,-0.9037404656410217
6.340046167373657,-0.009051740169525146,0.17401421070098877,0.13682270050048828,-0.3386633111073992,-1.3782127448151962,1.2576438487661319,-0.9257625341415405,0.33222663402557373,-0.18052399158477783,-3.5177769660949707,1.2510615587234497,-0.9848621487617493
6.359944105148315,0.08371728658676147,0.19851219654083252,0.12024378776550293,-0.33057781407135034,-1.380493931907353,1.1847778877783852,-0.9287793636322021,0.3245896100997925,-0.17891396582126617,-3.062520742416382,0.9571349620819092,-1.0430805683135986
6.38001012802124,0.1254248023033142,0.24893641471862793,0.10274003446102142,-0.3194096158755607,-1.3843442194731208,1.1233939565956779,-0.9329656958580017,0.31400609016418457,-0.17599764466285706,-2.45548677444458,0.6317469477653503,-1.113463044166565
6.399985313415527,0.14139020442962646,0.2695987820625305,0.06227441132068634,-0.30412921162675455,-1.390881065780983,1.0746023509941263,-0.9387074708938599,0.2994624674320221,-0.1707339882850647,-1.8651630878448486,0.23011037707328796,-1.2154090404510498
6.419919967651367,0.1612703800201416,0.2643192708492279,0.01946909725666046,-0.28508959483456686,-1.4014426864440666,1.0362098284945491,-0.9459075927734375,0.2812434434890747,-0.16174215078353882,-1.4547698497772217,-0.1663951724767685,-1.2831370830535889
6.439894199371338,0.18185937404632568,0.2557363212108612,-0.047522589564323425,-0.2638709125142991,-1.41715114453099,1.0049675671241123,-0.9540148973464966,0.2608194351196289,-0.14774422347545624,-1.1986359357833862,-0.5386506915092468,-1.2866945266723633
6.459902286529541,0.17785727977752686,0.2679141163825989,-0.11399631202220917,-0.2419468031140448,-1.4371832703508707,0.9779808414038866,-0.962219774723053,0.23959317803382874,-0.1293357014656067,-1.082215666770935,-0.7717848420143127,-1.2610621452331543
6.479178190231323,0.1568654179573059,0.295632541179657,-0.1696566343307495,-0.21942980643737678,-1.4590114062996091,0.9539343003125852,-0.9699298739433289,0.2176731377840042,-0.10887742042541504,-0.9818013310432434,-0.8205905556678772,-1.2609919309616089
6.499906063079834,0.15466076135635376,0.33174312114715576,-0.20317202806472778,-0.19690100475422595,-1.4787892489926953,0.932386756879106,-0.9765295386314392,0.19563116133213043,-0.09010201692581177,-0.8805637955665588,-0.7001000046730042,-1.1902735233306885
6.519954204559326,0.1657264232635498,0.35041674971580505,-0.2527480125427246,-0.17622019677027,-1.4948424261541025,0.9134431144578393,-0.9816746711730957,0.17530956864356995,-0.07470573484897614,-0.8188486099243164,-0.5672932267189026,-1.0196460485458374
6.539903163909912,0.1710681915283203,0.38143324851989746,-0.300459086894989,-0.15887663331870303,-1.5082600681220455,0.8955251493517167,-0.9854753017425537,0.15820908546447754,-0.06170840188860893,-0.8223809599876404,-0.48153650760650635,-0.8434181213378906
6.559919118881226,0.1763063669204712,0.4090491533279419,-0.32218658924102783,-0.14514036136891462,-1.519434563819851,0.8781829107950958,-0.9881806969642639,0.1446313112974167,-0.050799380987882614,-0.8021050691604614,-0.37514597177505493,-0.6197155714035034
6.579920291900635,0.19187122583389282,0.4145406484603882,-0.3449159264564514,-0.13641922219558592,-1.5279259343587772,0.862722437164747,-0.9897990822792053,0.1359964907169342,-0.04245908930897713,-0.6744778752326965,-0.27704256772994995,-0.3152913749217987
6.5999531745910645,0.18702346086502075,0.4462394118309021,-0.3896099328994751,-0.13330238393677515,-1.5349092316691721,0.8518749809600554,-0.990490198135376,0.1329079419374466,-0.03556108474731445,-0.3461000621318817,-0.2915482819080353,-0.05879773572087288
6.6199891567230225,0.14740240573883057,0.4899090528488159,-0.4443197250366211,-0.13398085564101309,-1.5411674925395922,0.8505465791051481,-0.9906030297279358,0.13358037173748016,-0.029359005391597748,0.24595195055007935,-0.321159690618515,0.10645469278097153
6.639953136444092,0.11003422737121582,0.49262213706970215,-0.47376370429992676,-0.13715623032920787,-1.5463881966127222,0.8616410173579353,-0.9903135895729065,0.13672660291194916,-0.024176504462957382,0.814732015132904,-0.35401955246925354,0.2330787032842636
6.6599531173706055,0.07324230670928955,0.43838876485824585,-0.4506344795227051,-0.1428152410275574,-1.5501805236986979,0.8812532099243773,-0.9896087646484375,0.14233025908470154,-0.020404469221830368,1.0567667484283447,-0.27242597937583923,0.376016229391098
6.679964065551758,0.02756822109222412,0.3846626281738281,-0.41429203748703003,-0.15179305335083182,-1.5509753372894621,0.9027993610639258,-0.9883071780204773,0.15121081471443176,-0.019591791555285454,1.030705213546753,-0.13690881431102753,0.5763195157051086
6.699961185455322,-0.07298451662063599,0.36612987518310547,-0.41879743337631226,-0.16459585297118234,-1.548989558214664,0.9233792410270246,-0.9862498641014099,0.16385366022586823,-0.021510330960154533,1.0058465003967285,0.01431993581354618,0.7289213538169861
6.719954013824463,-0.175356924533844,0.3739023804664612,-0.4007643461227417,-0.17969063378585795,-1.5429469580499635,0.944504679874317,-0.9835174083709717,0.1787251979112625,-0.02739742211997509,1.0395684242248535,0.22280505299568176,0.8311334848403931
6.739999294281006,-0.2490987777709961,0.3594338595867157,-0.3702591061592102,-0.19653160167269493,-1.532004325267246,0.9669583279226934,-0.9800117015838623,0.1952688843011856,-0.038035694509744644,1.121738076210022,0.4634532630443573,0.915632963180542
6.759953022003174,-0.22140109539031982,0.3131985068321228,-0.2679750919342041,-0.2147077122602518,-1.5132614607393662,0.9902421443713824,-0.9754218459129333,0.2130618542432785,-0.05618277192115784,1.021712064743042,0.926832914352417,1.0183351039886475
6.779962062835693,-0.09001582860946655,0.2071315348148346,-0.1407541036605835,-0.23719451578477363,-1.4859148445753203,1.0100923842960605,-0.9685015082359314,0.2349766194820404,-0.08240584284067154,0.7225221991539001,1.2144564390182495,1.3336831331253052
6.799983978271484,-0.08067762851715088,0.14172202348709106,-0.06812536716461182,-0.2661325378099295,-1.4553179493575916,1.027012692914022,-0.9583694934844971,0.26300209760665894,-0.11116553097963333,0.6905367970466614,1.3070091009140015,1.6293662786483765
6.82001519203186,-0.16651862859725952,0.16681531071662903,-0.06125609576702118,-0.2970525081659319,-1.4218633557512608,1.0509834429848817,-0.9456180334091187,0.2927030920982361,-0.14188429713249207,1.2712273597717285,1.3006460666656494,1.6845771074295044
6.83997106552124,-0.23022794723510742,0.16677585244178772,-0.02729557454586029,-0.323180330318168,-1.384746197459849,1.0923972395974286,-0.931865930557251,0.3175838589668274,-0.17540229856967926,2.210324287414551,1.1332937479019165,1.501935601234436
6.859954118728638,-0.2945455312728882,0.08486577868461609,0.03739732503890991,-0.34070941875216154,-1.3441874117358519,1.149691592575645,-0.9184212684631348,0.3341558277606964,-0.21175964176654816,2.5846054553985596,1.0220081806182861,1.384040355682373
6.879955291748047,-0.3395346403121948,-0.012264013290405273,0.14674611389636993,-0.3530812030159882,-1.304843752835437,1.2073708678836697,-0.9053229093551636,0.3457905650138855,-0.2466149926185608,2.3637712001800537,0.9854995608329773,1.1416469812393188
6.899922132492065,-0.3316262364387512,-0.050895869731903076,0.2229764759540558,-0.3625750524335783,-1.266301982652047,1.2581913111164063,-0.8919758796691895,0.3546830415725708,-0.28031906485557556,1.9384926557540894,1.110541820526123,1.1182457208633423
6.919954299926758,-0.24456071853637695,-0.0632287859916687,0.26141083240509033,-0.37235669370117064,-1.22698641594898,1.3020376801512072,-0.8769601583480835,0.3638116419315338,-0.31397745013237,1.6702488660812378,1.2348203659057617,1.1444240808486938
6.939996242523193,-0.15451538562774658,-0.04213601350784302,0.25702035427093506,-0.38300505639386295,-1.1868834637777408,1.3443293435232977,-0.8600261211395264,0.37370947003364563,-0.3474135100841522,1.666178584098816,1.2182303667068481,1.2484747171401978
6.959951162338257,-0.09591364860534668,-0.05227828025817871,0.2821049690246582,-0.39284057238871684,-1.1460942439992585,1.3882932663991032,-0.8417540788650513,0.3828141391277313,-0.38066160678863525,1.7154786586761475,1.198428988456726,1.245674729347229
6.979953289031982,-0.048140525817871094,-0.1094197928905487,0.31452757120132446,-0.4003977832536515,-1.1050834510261969,1.4339666046603103,-0.8228309154510498,0.38978469371795654,-0.41354185342788696,1.745935082435608,1.1236469745635986,1.2614883184432983
6.999953269958496,-0.022966504096984863,-0.12829181551933289,0.34485018253326416,-0.4064500723394408,-1.065939545206145,1.4790230499132422,-0.8039376735687256,0.3953511118888855,-0.4442765414714813,1.6347380876541138,1.0189179182052612,1.2033956050872803
7.019974231719971,-0.025940120220184326,-0.1375468671321869,0.3697006106376648,-0.41108186251382894,-1.030186766035585,1.5207114812432827,-0.7859646677970886,0.3996012806892395,-0.47178199887275696,1.4496185779571533,0.9191420078277588,1.1201003789901733
7.039955139160156,-0.029215574264526367,-0.15878334641456604,0.4284008741378784,-0.41552642942905,-0.9968727282589349,1.5580619838172707,-0.7683154344558716,0.40367162227630615,-0.4967298209667206,1.2093594074249268,0.9238200187683105,1.0806039571762085
7.059953212738037,-0.03167015314102173,-0.184734046459198,0.4750325083732605,-0.4210988978550078,-0.9650312686700566,1.590005101728244,-0.7502512335777283,0.408763587474823,-0.5196493268013,0.9198917150497437,0.9553552269935608,0.9997304677963257
7.079972267150879,-0.03531002998352051,-0.18378683924674988,0.47772306203842163,-0.4274767634131044,-0.9361770841356261,1.6160271518562999,-0.7328324913978577,0.4145759344100952,-0.5395212173461914,0.6484643220901489,0.8302301168441772,0.8901994228363037
7.10001802444458,-0.05285364389419556,-0.17713138461112976,0.4609876871109009,-0.4336867710018674,-0.9134130236534274,1.6359797137187584,-0.7183101773262024,0.4202191233634949,-0.5544784069061279,0.43795323371887207,0.5991506576538086,0.6873147487640381
7.119949102401733,-0.05469942092895508,-0.16873133182525635,0.4568246603012085,-0.4384086169189804,-0.897862254267795,1.6503425527614475,-0.7080415487289429,0.42449912428855896,-0.5643381476402283,0.31233957409858704,0.3480479419231415,0.49215054512023926
7.139952182769775,-0.03937697410583496,-0.1697230041027069,0.45902806520462036,-0.44124152056217986,-0.8891642105811134,1.6602864495519905,-0.7021694779396057,0.42706239223480225,-0.5697153210639954,0.22280293703079224,0.09702049940824509,0.2924583852291107
7.159978151321411,-0.033398985862731934,-0.17812186479568481,0.47769778966903687,-0.4419070173948739,-0.8864159757307892,1.666626319398288,-0.700380802154541,0.4276640713214874,-0.5714631080627441,0.17295771837234497,-0.07257848232984543,0.1351451575756073
7.179965019226074,-0.05787003040313721,-0.17312020063400269,0.46714746952056885,-0.44152237724941723,-0.8880973142863303,1.6692294017843112,-0.7014682292938232,0.4273163378238678,-0.5703884959220886,0.034742191433906555,-0.20131079852581024,-0.02856321632862091
7.199960231781006,-0.05388456583023071,-0.15952107310295105,0.4137384295463562,-0.4401180455710272,-0.8946662067746988,1.668024723335187,-0.70566725730896,0.4260462522506714,-0.566143274307251,-0.01992661878466606,-0.4038614332675934,-0.12174089252948761
7.219992160797119,-0.05721026659011841,-0.14742115139961243,0.37762969732284546,-0.4386178556419275,-0.9062076739502883,1.665157007171705,-0.712656557559967,0.42468854784965515,-0.5583548545837402,-0.09811653941869736,-0.633819043636322,-0.1683090478181839
7.239960193634033,-0.1192823052406311,-0.13586533069610596,0.3399638533592224,-0.4368939620599991,-0.9230837458389869,1.6594979580432314,-0.7225601673126221,0.4231272339820862,-0.5466899871826172,-0.20305006206035614,-0.8092948198318481,-0.28567034006118774
7.259951114654541,-0.18508267402648926,-0.12919765710830688,0.29878610372543335,-0.4344371258450827,-0.9441922326275445,1.6503487155453036,-0.7347779870033264,0.4208998680114746,-0.5319251418113708,-0.3327104151248932,-0.910420835018158,-0.4106527268886566
7.279952049255371,-0.21398872137069702,-0.12413352727890015,0.2882002592086792,-0.4312957918215774,-0.967622577756708,1.6373592577582137,-0.7481235861778259,0.41804829239845276,-0.515312135219574,-0.449239581823349,-0.8454013466835022,-0.5182830095291138
7.299982070922852,-0.1972942352294922,-0.11327776312828064,0.2372416853904724,-0.4275122312128018,-0.9901956452137369,1.6216244784906273,-0.7608811855316162,0.4146082103252411,-0.4991588592529297,-0.5005471706390381,-0.7844864726066589,-0.5981302261352539
7.319961071014404,-0.16585183143615723,-0.07644230127334595,0.13566488027572632,-0.421533463787331,-1.013528437899188,1.6061575191483393,-0.774409830570221,0.40916016697883606,-0.4825735092163086,-0.3252996504306793,-0.9472798705101013,-0.6623163223266602
7.339961051940918,-0.22631019353866577,-0.032511889934539795,0.0895250141620636,-0.4117548488755803,-1.0399943259724533,1.5941323748562672,-0.7903216481208801,0.40021812915802,-0.46391475200653076,-0.1403668075799942,-1.204695224761963,-0.7668648362159729
7.359953165054321,-0.46414268016815186,-0.02582019567489624,0.07739454507827759,-0.39824838933649054,-1.0700915755438118,1.5811705093688289,-0.8085927367210388,0.38780441880226135,-0.44247645139694214,-0.2872871160507202,-1.2523404359817505,-1.039806842803955
7.38003396987915,-0.5423221588134766,-0.023609399795532227,0.07069218158721924,-0.3811441707035041,-1.1012865032223753,1.5597004865319761,-0.8277949094772339,0.37198278307914734,-0.4199812412261963,-0.6970367431640625,-0.9932751655578613,-1.3509007692337036
7.3999950885772705,-0.2682045102119446,-0.04638746380805969,0.010382354259490967,-0.36584983615479444,-1.1282405219273857,1.5290389502517368,-0.8438557982444763,0.3577430248260498,-0.39990878105163574,-1.1940946578979492,-0.5904008150100708,-1.2342138290405273
7.420041084289551,-0.0088883638381958,-0.05094060301780701,-0.07484322786331177,-0.3576499762589946,-1.1499921694253545,1.4923608741312187,-0.8550031185150146,0.3500738739967346,-0.3826458752155304,-1.529601812362671,-0.3066226541996002,-0.9403963685035706
7.439953088760376,0.0941726565361023,-0.04337555170059204,-0.1401483714580536,-0.3554227293101269,-1.1669162416648062,1.4571830129150956,-0.8620710372924805,0.34798669815063477,-0.3684271275997162,-1.3431787490844727,-0.16484306752681732,-0.578010082244873
7.459986209869385,0.014957606792449951,-0.022894978523254395,-0.14243116974830627,-0.35600522711715527,-1.1784553859137823,1.430048277647815,-0.8660773634910583,0.3485327363014221,-0.3583776354789734,-1.0695066452026367,-0.012174521572887897,-0.4226866662502289
7.479952096939087,-0.16921782493591309,-0.0676882266998291,-0.07268178462982178,-0.35575407870542686,-1.185089552180416,1.404113320611145,-0.8685170412063599,0.3482973277568817,-0.3526570796966553,-1.228924036026001,0.2698816657066345,-0.5421670079231262
7.4999611377716064,-0.2749457359313965,-0.11159586906433105,0.007494449615478516,-0.3547699783347614,-1.1874419660760318,1.371960920085543,-0.8696616888046265,0.34737467765808105,-0.35074102878570557,-1.5558748245239258,0.6116028428077698,-0.6749111413955688
7.5192060470581055,-0.27995866537094116,-0.09467887878417969,0.0858621895313263,-0.35451491625036535,-1.187358871978061,1.3299124252568342,-0.869714617729187,0.3471354842185974,-0.35084640979766846,-2.159268856048584,0.8815475106239319,-0.8378271460533142
7.539980173110962,-0.24214529991149902,-0.10910803079605103,0.16730231046676636,-0.35669004570188284,-1.1878886351131488,1.2709794192600898,-0.8691979646682739,0.34917452931404114,-0.3501026928424835,-3.0687742233276367,1.1302907466888428,-1.014076590538025
7.559961318969727,-0.17069655656814575,-0.11974528431892395,0.19819357991218567,-0.36275646871688366,-1.190442521943376,1.1942569498724427,-0.8681063055992126,0.35485267639160156,-0.34708887338638306,-3.7727887630462646,1.3208022117614746,-1.0680692195892334
7.579893112182617,-0.08908545970916748,-0.0593777596950531,0.1890137493610382,-0.3721374723975837,-1.1949477501674788,1.1067219490677587,-0.8665265440940857,0.3636074364185333,-0.341937392950058,-4.095428943634033,1.3984074592590332,-1.0933587551116943
7.59996223449707,-0.04344964027404785,0.016549497842788696,0.14367645978927612,-0.3795197235574252,-1.1984076076420587,1.0205321450967193,-0.8651806116104126,0.3704743981361389,-0.3379514813423157,-3.5630431175231934,1.4361391067504883,-1.1014546155929565
7.620009183883667,0.03331255912780762,0.08042055368423462,0.12239387631416321,-0.3822505895199006,-1.199070802067025,0.9468633036382995,-0.8644585609436035,0.3730095624923706,-0.33700883388519287,-2.956792116165161,1.2175556421279907,-1.1556533575057983
7.639952182769775,0.07394164800643921,0.03488647937774658,0.13057586550712585,-0.38018129216395574,-1.2022806826006665,0.8824894097155858,-0.8662540316581726,0.37108883261680603,-0.33450961112976074,-2.608570098876953,0.8950965404510498,-1.1627808809280396
7.65994930267334,0.04849308729171753,-0.02041056752204895,0.16332685947418213,-0.37683052618415336,-1.2090596313257562,0.8226647809004718,-0.869659960269928,0.36797523498535156,-0.3290679454803467,-2.4814398288726807,0.6759668588638306,-1.1156383752822876
7.679987192153931,0.025445997714996338,-0.014651715755462646,0.16500142216682434,-0.37413391739803425,-1.2182488249868044,0.7655755953912216,-0.8735750317573547,0.36546650528907776,-0.3214040994644165,-2.436972141265869,0.49774590134620667,-1.0227388143539429
7.699951171875,-0.022566258907318115,0.008373349905014038,0.16806793212890625,-0.37031775280224727,-1.229812995638249,0.7095088750885054,-0.8785413503646851,0.3619116544723511,-0.3117448091506958,-2.336760997772217,0.41764411330223083,-1.099447250366211
7.719962120056152,-0.02387380599975586,0.029590249061584473,0.16287651658058167,-0.3639995358211442,-1.2411379990880889,0.6569200086748226,-0.8841612935066223,0.35601454973220825,-0.30250972509384155,-2.089411973953247,0.3377493917942047,-1.0987858772277832
7.740015983581543,0.0024167895317077637,0.04291564226150513,0.16348496079444885,-0.35603836175174075,-1.2529630527608548,0.6091557107599357,-0.8903408050537109,0.3485637903213501,-0.29291006922721863,-1.9311550855636597,0.18393896520137787,-1.1039481163024902
7.759951114654541,-0.017254889011383057,0.04888656735420227,0.1422826647758484,-0.3462505669640775,-1.266976260793116,0.5633903705861976,-0.8975703716278076,0.33937329053878784,-0.28141239285469055,-1.8854504823684692,-0.0064621297642588615,-1.1408720016479492
7.779955148696899,-0.0029376745223999023,0.06105399131774902,0.1347535252571106,-0.33588146707943944,-1.2838772560375855,0.5165023018863274,-0.9055246710777283,0.3296014964580536,-0.26718464493751526,-2.119370222091675,-0.12044249475002289,-1.123178243637085
7.7999961376190186,0.039605140686035156,0.053827255964279175,0.10113483667373657,-0.3267903289774154,-1.305397613069842,0.463237826488216,-0.9139183759689331,0.32100486755371094,-0.24841277301311493,-2.427004814147949,-0.28460693359375,-1.137511134147644
7.8200249671936035,0.041443049907684326,0.10576087236404419,0.03738999366760254,-0.31733948502533393,-1.32770072608652,0.41089689301297444,-0.9221344590187073,0.3120400011539459,-0.228689506649971,-2.0756115913391113,-0.30092358589172363,-0.991821825504303
7.839954137802124,0.03844785690307617,0.22147652506828308,-0.02728646993637085,-0.30614078389633564,-1.3463691155130808,0.3716627626099225,-0.9295915365219116,0.30138111114501953,-0.212200328707695,-1.2619168758392334,-0.3613564074039459,-0.9831728339195251
7.859951019287109,0.004227280616760254,0.28835734724998474,-0.1322433352470398,-0.2909244577925767,-1.362575164716816,0.3488680035570152,-0.9372868537902832,0.28683796525001526,-0.19803324341773987,-0.6125319004058838,-0.5760945677757263,-0.9733374714851379
7.880001068115234,-0.03145843744277954,0.2468559443950653,-0.19471560418605804,-0.27349326427285736,-1.3792616143256717,0.33399981394170314,-0.9452259540557861,0.2700965106487274,-0.18329045176506042,-0.5360279083251953,-0.639393150806427,-0.9826516509056091
7.900045156478882,-0.0015801191329956055,0.20413222908973694,-0.22254282236099243,-0.2577894659363757,-1.3954256066069948,0.3174263823781362,-0.9521245956420898,0.25494369864463806,-0.16870786249637604,-0.7610587477684021,-0.49973514676094055,-0.8417741656303406
7.919919967651367,0.04669147729873657,0.20700596272945404,-0.21852503716945648,-0.24656501593236155,-1.4080312988572778,0.2942465081637879,-0.9569390416145325,0.24407431483268738,-0.1571463942527771,-1.3198342323303223,-0.14841172099113464,-0.6487552523612976
7.9399800300598145,0.0805019736289978,0.1894124299287796,-0.21209841966629028,-0.24070049218166448,-1.4153010243676678,0.26057742586133703,-0.959453821182251,0.2383829802274704,-0.15040472149848938,-1.739942193031311,0.2082294076681137,-0.420724481344223
7.960148096084595,0.11820220947265625,0.24121125042438507,-0.24306368827819824,-0.23948005571038475,-1.416720432117053,0.22935093382015423,-0.9599531888961792,0.23719754815101624,-0.14908726513385773,-1.0260778665542603,0.3538968563079834,-0.1634998768568039
7.97999119758606,0.12881547212600708,0.40418097376823425,-0.28393077850341797,-0.23856313273979285,-1.4129282811318715,0.22109759841175394,-0.9595953226089478,0.23630669713020325,-0.1527606099843979,0.21083597838878632,0.17604582011699677,-0.06998220831155777
8.000040054321289,0.1277802586555481,0.33944302797317505,-0.2276294231414795,-0.2353399216030265,-1.409686569310947,0.2327343616378717,-0.9598418474197388,0.23317354917526245,-0.15599189698696136,0.8248434066772461,-0.08668258041143417,-0.0441511832177639
8.019951105117798,0.07182002067565918,0.1585935801267624,-0.13986845314502716,-0.23289516683583827,-1.4081207837266796,0.2495189901677127,-0.9601562023162842,0.2307954877614975,-0.157586470246315,0.7747992277145386,-0.0913776382803917,0.07754404097795486
8.039999008178711,0.006076514720916748,0.07313111424446106,-0.10257911682128906,-0.23348901044107817,-1.4048893923960826,0.2634345090812051,-0.9595065712928772,0.23137326538562775,-0.1606656163930893,0.5547744035720825,0.08968384563922882,0.19549432396888733
8.060262203216553,-0.011878728866577148,0.07653477787971497,-0.09521198272705078,-0.23628078877751454,-1.3993991923414513,0.2737308140427434,-0.9579697847366333,0.23408837616443634,-0.16582022607326508,0.41726401448249817,0.1994272917509079,0.25064900517463684
8.080103158950806,-0.0048920512199401855,0.09162992238998413,-0.07495331764221191,-0.24046911945788785,-1.392511398480429,0.2827098979311485,-0.9558316469192505,0.23815827071666718,-0.17223915457725525,0.37839093804359436,0.2666354477405548,0.30510595440864563
8.100037097930908,-0.00900113582611084,0.05101306736469269,-0.039605990052223206,-0.24540325880821987,-1.384380705990921,0.2911100336788962,-0.9532333612442017,0.242947518825531,-0.17978498339653015,0.31936702132225037,0.32141250371932983,0.3351116180419922
8.119980096817017,-0.020154118537902832,0.01076604425907135,-0.007585108280181885,-0.25182046689933696,-1.3758808349449942,0.2977287361914361,-0.9501216411590576,0.24916742742061615,-0.18757492303848267,0.20938201248645782,0.34982115030288696,0.41182607412338257
8.139953136444092,-0.027589619159698486,0.0009534060955047607,0.027674198150634766,-0.259439295731299,-1.3668418425495301,0.30348568309331736,-0.9465007781982422,0.25653865933418274,-0.19576507806777954,0.18112364411354065,0.3814065158367157,0.4470616579055786
8.166519165039062,-0.03268176317214966,-0.012570470571517944,0.057495251297950745,-0.2740602022887789,-1.3499701062669571,0.31913784047119786,-0.939302921295166,0.27064234018325806,-0.21086139976978302,0.46686848998069763,0.19053144752979279,0.4577086567878723
8.189234256744385,-0.05611664056777954,-0.02315261960029602,0.11667999625205994,-0.2799855097147213,-1.3428208793905017,0.3315119235175007,-0.9361928701400757,0.2763417363166809,-0.2172050178050995,0.5806571841239929,0.1743791103363037,0.43203988671302795
8.208294153213501,-0.010923027992248535,-0.08443760871887207,0.14346948266029358,-0.2860936318716404,-1.3353208130148893,0.3455982146486156,-0.9328787922859192,0.28220680356025696,-0.22382238507270813,0.5304169058799744,0.13668116927146912,0.3999791741371155
8.228162288665771,0.04417777061462402,-0.10896062850952148,0.13016700744628906,-0.2913964548703342,-1.3307427192628463,0.3584213561458872,-0.9303776025772095,0.287290096282959,-0.22773179411888123,0.5805562138557434,-0.058768920600414276,0.42260172963142395
8.24722409248352,0.04308730363845825,-0.09676253795623779,0.09942230582237244,-0.29556623775111146,-1.3296930773121065,0.37328608242552774,-0.928966760635376,0.2912815809249878,-0.22842024266719818,0.7140910029411316,-0.2700827717781067,0.32140618562698364
8.26821231842041,0.003336608409881592,-0.07691147923469543,0.09275129437446594,-0.2972580271894902,-1.331392970556304,0.3906651175788639,-0.9288734197616577,0.29289957880973816,-0.2267235368490219,0.8372923731803894,-0.39828068017959595,0.2510145902633667
8.287158012390137,-0.04732775688171387,-0.10289451479911804,0.09159904718399048,-0.29829273532763534,-1.3336238663210658,0.4099946047535345,-0.9290820360183716,0.29388877749443054,-0.22457946836948395,0.9029135704040527,-0.38232871890068054,0.26081910729408264
8.307098150253296,-0.08885425329208374,-0.12993726134300232,0.09272366762161255,-0.2981853757521542,-1.3352950701998971,0.4280229813884248,-0.9294866323471069,0.2937861382961273,-0.2230338156223297,0.7609753608703613,-0.3076014816761017,0.13740012049674988
8.326282024383545,-0.07435166835784912,-0.12373223900794983,0.08810555934906006,-0.29766415023948417,-1.336164773543399,0.4420496602678487,-0.9298291206359863,0.29328787326812744,-0.22226093709468842,0.5619388818740845,-0.1981472223997116,0.13915103673934937
8.347732067108154,-0.07525688409805298,-0.13457655906677246,0.08295013010501862,-0.29828176668915507,-1.336593216809806,0.4519187358890157,-0.9297478199005127,0.2938782870769501,-0.2218204289674759,0.3257666528224945,-0.11650412529706955,0.13076257705688477
