timestamp,acceleration_x,acceleration_y,acceleration_z,attitude_pitch,attitude_roll,attitude_yaw,gravity_x,gravity_y,gravity_z,rotation_x,rotation_y,rotation_z
0.0,0.3098636865615845,0.048749566078186035,-0.17146062850952148,-0.7464246701449092,-0.9465311946353839,2.245122702540848,-0.5956608057022095,0.6790183782577515,-0.42909476161003113,-0.2162075638771057,-0.10461119562387466,-0.24489636719226837
0.020088911056518555,0.31524211168289185,0.03141587972640991,-0.1419793963432312,-0.7446589833528462,-0.9525487677791734,2.2392197456361886,-0.5992081761360168,0.6777210831642151,-0.4261968433856964,-0.06871811300516129,-0.09303168207406998,-0.1608700454235077
0.03952908515930176,0.3098214864730835,0.007935643196105957,-0.11378395557403564,-0.7430582726298177,-0.9561638495419812,2.2359401124856295,-0.6016306281089783,0.6765431761741638,-0.42465296387672424,-0.051698099821805954,-0.04324503615498543,-0.11676467210054398
0.06003594398498535,0.29470008611679077,0.0018346905708312988,-0.12745699286460876,-0.7424125365870508,-0.9590651723596544,2.2323777763367385,-0.6032175421714783,0.6760675311088562,-0.42315635085105896,-0.13404597342014313,0.006313193589448929,-0.08752395957708359
0.08005595207214355,0.28796112537384033,0.022486448287963867,-0.13663619756698608,-0.7435016808484117,-0.962172194037747,2.2272202197951865,-0.6039249300956726,0.6768696308135986,-0.42085888981819153,-0.23031456768512726,0.024119265377521515,-0.04097231104969978
0.10010004043579102,0.2835268974304199,0.03563988208770752,-0.14340132474899292,-0.7458876096242302,-0.9650248471736014,2.2219189806483826,-0.6037936210632324,0.6786240339279175,-0.4182136058807373,-0.21475450694561005,0.05058496072888374,0.02065502665936947
0.1200859546661377,0.2715437412261963,0.06537473201751709,-0.15631717443466187,-0.7489103770589933,-0.9662099930481549,2.2185263021864174,-0.6025984883308411,0.6808410882949829,-0.41632986068725586,-0.15935328602790833,0.06403428316116333,0.09020856022834778
0.14009499549865723,0.24920254945755005,0.07818901538848877,-0.16796725988388062,-0.7528593165810933,-0.9652217762029196,2.2176516088084743,-0.5999716520309448,0.6837280988693237,-0.4153915047645569,-0.15162058174610138,0.07120892405509949,0.1731182038784027
0.16008305549621582,0.2185928225517273,0.07388991117477417,-0.1666952669620514,-0.7585146955413454,-0.962712734926346,2.2178126861001837,-0.5957443118095398,0.6878440976142883,-0.41467979550361633,-0.18718717992305756,0.11497895419597626,0.2464459240436554
0.18017315864562988,0.17953288555145264,0.09140366315841675,-0.16743722558021545,-0.765310159239627,-0.9595898270905228,2.218102620014887,-0.5906046628952026,0.692760705947876,-0.4138462543487549,-0.23337161540985107,0.07778213918209076,0.23520280420780182
0.20010709762573242,0.09651178121566772,0.12484568357467651,-0.17703425884246826,-0.7707270854110172,-0.9602239189305999,2.2166867532832915,-0.5877837538719177,0.6966570615768433,-0.41131412982940674,-0.12736980617046356,-0.0002306370297446847,0.11921174824237823
0.22009491920471191,-0.021819353103637695,0.24766933917999268,-0.245394766330719,-0.772507324713751,-0.9597671229855075,2.217192182056659,-0.5865791440010071,0.6979330778121948,-0.4108704626560211,0.05442693829536438,0.012487909756600857,0.046437524259090424
0.24013304710388184,-0.10537177324295044,0.33315062522888184,-0.2867162525653839,-0.772547778614235,-0.9545803197839909,2.2216546128363976,-0.5844169855117798,0.6979620456695557,-0.4138910174369812,0.18127848207950592,0.25412511825561523,0.182334765791893
0.260174036026001,-0.12379640340805054,0.367504358291626,-0.2417660653591156,-0.775697325684909,-0.940094404140746,2.2296079170548566,-0.5765820145606995,0.7002140879631042,-0.4210146367549896,0.07281806319952011,0.5923205614089966,0.3687773644924164
0.28008604049682617,-0.143146812915802,0.25542449951171875,-0.13522076606750488,-0.7817698266099429,-0.9226402137187433,2.235267387696302,-0.5657460689544678,0.704536497592926,-0.4284389317035675,-0.17953620851039886,0.7225632071495056,0.3523074686527252
0.2992680072784424,-0.1149250864982605,0.1412762999534607,-0.07898667454719543,-0.7914883942556551,-0.9109702799983334,2.2327299671409246,-0.5552714467048645,0.7114000916481018,-0.4307941496372223,-0.5224409103393555,0.6141642332077026,0.31070560216903687
0.31940197944641113,-0.07736027240753174,0.12282460927963257,-0.0612298846244812,-0.8031571428871614,-0.9052257388939643,2.226114394348177,-0.5462207198143005,0.7195520997047424,-0.4288213551044464,-0.505026638507843,0.43693727254867554,0.3420150578022003
0.33928513526916504,-0.03973418474197388,0.13521438837051392,-0.03498998284339905,-0.8143186754673692,-0.8997753611121213,2.224196289066549,-0.5375515222549438,0.7272581458091736,-0.42677146196365356,-0.2660672068595886,0.24321618676185608,0.46915292739868164
0.36007189750671387,-0.023008763790130615,0.09795314073562622,-0.020959675312042236,-0.8242407391572523,-0.8912286141193131,2.2318710531580823,-0.5282455682754517,0.734032392501831,-0.4267942011356354,0.09562879055738449,0.03124881535768509,0.6140111684799194
0.3804891109466553,-0.02455204725265503,0.07546913623809814,-0.014472901821136475,-0.8309044867559303,-0.8782944626998479,2.2511269556701605,-0.518904983997345,0.7385414838790894,-0.430458128452301,0.4862360954284668,-0.159611776471138,0.7342604994773865
0.40171003341674805,-0.026271462440490723,0.02210557460784912,-0.0012167692184448242,-0.8335844264863271,-0.8600868264902275,2.282144440222122,-0.5094799399375916,0.7403456568717957,-0.43854156136512756,0.885859489440918,-0.29722803831100464,0.8251362442970276
0.4198191165924072,-0.021132677793502808,-0.03038918972015381,0.047719210386276245,-0.833341352577574,-0.8377926899714463,2.3210979882951626,-0.4997108280658722,0.7401822209358215,-0.44991031289100647,1.061394453048706,-0.34541916847229004,0.8845149278640747
0.4393961429595947,-0.008183717727661133,-0.10281860828399658,0.10564526915550232,-0.831770934090455,-0.8133078076113341,2.362965214603767,-0.48939013481140137,0.7391253709793091,-0.46280771493911743,1.101298213005066,-0.2936383783817291,0.9141996502876282
0.4592249393463135,0.00674787163734436,-0.15367674827575684,0.13936620950698853,-0.8299387338256162,-0.7881435000464881,2.4040351838349845,-0.47854965925216675,0.7378900051116943,-0.47592929005622864,0.993385910987854,-0.23153167963027954,0.8731755018234253
0.48012709617614746,0.0317251980304718,-0.2020866870880127,0.16080114245414734,-0.8285514157127926,-0.7655219745776037,2.4405226379186447,-0.4683707058429718,0.7369529604911804,-0.48736968636512756,0.8387596607208252,-0.20635370910167694,0.7862241864204407
0.5001111030578613,0.048603355884552,-0.22766929864883423,0.18219932913780212,-0.8271660397349895,-0.7460949232492685,2.4722123107105856,-0.4595073163509369,0.7360158562660217,-0.49712544679641724,0.7713112831115723,-0.1952633261680603,0.6836326122283936
0.5200741291046143,0.04245954751968384,-0.198624849319458,0.17392343282699585,-0.8232871196335091,-0.7280454162274117,2.5021813313952492,-0.4523564577102661,0.7333844304084778,-0.5074653029441833,0.900679886341095,-0.19021211564540863,0.5651798248291016
0.5396101474761963,0.031929612159729004,-0.14742505550384521,0.17874056100845337,-0.8154322368977196,-0.7090804887278909,2.5324011819193175,-0.4463888704776764,0.7280219793319702,-0.5203085541725159,1.0459963083267212,-0.11218743771314621,0.47405001521110535
0.5593822002410889,0.05128675699234009,-0.14718878269195557,0.224342942237854,-0.8044675585699995,-0.6892647521035524,2.561953171359109,-0.4410420060157776,0.7204614877700806,-0.5351797342300415,1.0934067964553833,-0.048023901879787445,0.3905816972255707
0.579840898513794,0.07196968793869019,-0.11344677209854126,0.22688299417495728,-0.7923471264935751,-0.6707261471664074,2.5889069221539507,-0.4364411234855652,0.7120033502578735,-0.5500641465187073,1.0352387428283691,-0.03982376307249069,0.3089364469051361
0.6000730991363525,0.06397652626037598,-0.07100611925125122,0.22531354427337646,-0.780415189903721,-0.6546869118534226,2.6123623261542774,-0.43270519375801086,0.703574538230896,-0.5636923909187317,0.9307788610458374,-0.0406474806368351,0.2655448317527771
0.6200850009918213,0.03593409061431885,-0.047872185707092285,0.1893751621246338,-0.7694355430611847,-0.6421511101864107,2.6316048097786897,-0.4302060008049011,0.6957299113273621,-0.5752241611480713,0.7648142576217651,-0.06620051711797714,0.15727047622203827
0.6400229930877686,0.036080241203308105,-0.030709147453308105,0.1631142497062683,-0.7598400461001806,-0.6346509679987081,2.645191641647454,-0.4298180937767029,0.6888055205345154,-0.583783745765686,0.5967832803726196,-0.10278497636318207,0.07062742859125137
0.6600770950317383,0.012608319520950317,0.011424839496612549,0.16107887029647827,-0.7516358559847207,-0.6304587021747321,2.6541896304084958,-0.4306838810443878,0.682834804058075,-0.5901254415512085,0.449003130197525,-0.08745662122964859,-0.039325885474681854
0.6801149845123291,0.007829278707504272,0.020336270332336426,0.1571202278137207,-0.7450556952735248,-0.629734681827756,2.6577005232897295,-0.4328933656215668,0.6780127286911011,-0.5940556526184082,0.20813649892807007,-0.08270607143640518,-0.13059978187084198
0.7000739574432373,-0.005577892065048218,0.025155067443847656,0.14030981063842773,-0.7417227489749046,-0.6336655615574684,2.6545759455899467,-0.43656080961227417,0.6755591034889221,-0.5941672325134277,-0.06139643117785454,-0.09374842792749405,-0.2554325461387634
0.7200992107391357,-0.04903590679168701,0.053036391735076904,0.09720146656036377,-0.7399189571282597,-0.6417322972129506,2.645645814239171,-0.4420682191848755,0.6742280721664429,-0.5916014909744263,-0.1608300656080246,-0.10840104520320892,-0.3779681324958801
0.7401411533355713,-0.06792384386062622,0.1145857572555542,0.05135089159011841,-0.7383560243868149,-0.652278743680282,2.633417664750166,-0.44892188906669617,0.6730729937553406,-0.5877431035041809,-0.265964150428772,-0.12545938789844513,-0.43697693943977356
0.7601029872894287,-0.08633112907409668,0.11662375926971436,0.027113616466522217,-0.7376019130952562,-0.665040281638296,2.618139886981102,-0.4566987156867981,0.6725150346755981,-0.5823656916618347,-0.36673814058303833,-0.13442599773406982,-0.493234246969223
0.7800819873809814,-0.10117661952972412,0.15624910593032837,-0.015696465969085693,-0.737542308899912,-0.6798899782078053,2.600622448224184,-0.4653211832046509,0.6724709272384644,-0.5755510330200195,-0.4206819534301758,-0.1702692061662674,-0.5489454865455627
0.8000771999359131,-0.20438194274902344,0.2347000241279602,-0.06697028875350952,-0.7361956518537796,-0.6969835334476618,2.579912863094648,-0.47567179799079895,0.6714736223220825,-0.5682072043418884,-0.4812372326850891,-0.1367192417383194,-0.7188834547996521
0.8198869228363037,-0.1993778944015503,0.2695915699005127,-0.06522327661514282,-0.7362028522496047,-0.7166195263465582,2.553382701263075,-0.4867335259914398,0.6714789867401123,-0.5587543845176697,-0.8343547582626343,-0.0425993986427784,-0.7411553263664246
0.8401730060577393,-0.08000683784484863,0.209364652633667,-0.06576049327850342,-0.7438904447489944,-0.7375545289418094,2.521232207837617,-0.49483758211135864,0.6771557927131653,-0.5446063280105591,-1.3329716920852661,0.10498393326997757,-0.49212726950645447
0.8600740432739258,-0.005539119243621826,0.13478654623031616,-0.07740384340286255,-0.7610419804577147,-0.7584511277323844,2.4864753506943065,-0.4980466961860657,0.6896763443946838,-0.5256386399269104,-1.5744450092315674,0.1627289056777954,-0.21588054299354553
0.8801040649414062,-0.033322423696517944,0.09024620056152344,-0.11704301834106445,-0.7802899468760542,-0.7770895038375244,2.4555542124413887,-0.49835485219955444,0.7034854888916016,-0.5067057609558105,-1.2859172821044922,0.11761708557605743,-0.05196492373943329
0.9000771045684814,-0.05291891098022461,0.03375589847564697,-0.14241409301757812,-0.7946298617763682,-0.789559067551459,2.4359009808577547,-0.4974198341369629,0.7136043310165405,-0.4932975471019745,-0.6991470456123352,0.027956614270806313,0.07175486534833908
0.9200799465179443,-0.070273756980896,-0.025086820125579834,-0.1496911644935608,-0.8018511216806665,-0.7942844169962079,2.4298996034189693,-0.4960562288761139,0.7186445593833923,-0.4873174726963043,-0.1449052393436432,-0.04813709110021591,0.1388729065656662
0.9400720596313477,-0.10083040595054626,-0.09106600284576416,-0.08427321910858154,-0.8039382810153307,-0.7927052277581139,2.432595782892506,-0.4942166209220886,0.7200943231582642,-0.48704633116722107,0.060708414763212204,0.021521618589758873,0.11322197318077087
0.9600732326507568,-0.1155872642993927,-0.15105116367340088,-0.012358903884887695,-0.804888570547426,-0.7889132087181668,2.4351210481818257,-0.4918804466724396,0.7207534313201904,-0.4884345829486847,-0.06510331481695175,0.17864395678043365,0.07795348763465881
0.9800751209259033,-0.09643283486366272,-0.1588396430015564,0.02206641435623169,-0.8087578394580466,-0.7866021318025589,2.4313019761806376,-0.48877230286598206,0.7234301567077637,-0.4875967800617218,-0.41295021772384644,0.31629592180252075,0.0028000902384519577
1.0000851154327393,-0.03664717078208923,-0.1954476237297058,0.030075788497924805,-0.8160825429438072,-0.78795347241885,2.419850749998445,-0.48566120862960815,0.7284676432609558,-0.4831854999065399,-0.6261330246925354,0.3651914596557617,-0.03492947667837143
1.0200788974761963,0.03043612837791443,-0.21315401792526245,0.009900569915771484,-0.8238749779220271,-0.7910491341727593,2.406039259648985,-0.4831033945083618,0.7337839007377625,-0.4776740074157715,-0.5431206822395325,0.3312901258468628,-0.07254941016435623
1.0402650833129883,0.08095580339431763,-0.208548903465271,2.1636486053466797e-05,-0.82849531140698,-0.7927261370485316,2.395582919125569,-0.4814837872982025,0.7369150519371033,-0.4744783937931061,-0.26412397623062134,0.2686949372291565,-0.09138444811105728
1.0601751804351807,0.11657661199569702,-0.20260214805603027,0.011490345001220703,-0.8294952171898179,-0.7918205801845858,2.3906294474148466,-0.480529248714447,0.7375906109809875,-0.4743962585926056,-0.1000533476471901,0.18856361508369446,-0.08091378957033157
1.0800960063934326,0.1266842782497406,-0.2014073133468628,0.015960097312927246,-0.829171990167803,-0.79118720027438,2.387528829560595,-0.4803982973098755,0.7373723387718201,-0.47486814856529236,-0.035769976675510406,0.10307062417268753,-0.0980762243270874
1.1001031398773193,0.12372288107872009,-0.1561046838760376,-0.0077443718910217285,-0.82811201787405,-0.7911074038883302,2.385020406254532,-0.48091593384742737,0.7366558909416199,-0.47545573115348816,-0.023543857038021088,0.07786940038204193,-0.10491175204515457
1.1200459003448486,0.12634161114692688,-0.14936292171478271,-0.033219873905181885,-0.8264926673716043,-0.7921674118835889,2.382076009241196,-0.48226818442344666,0.7355598211288452,-0.4757828116416931,0.023750104010105133,0.026674658060073853,-0.12283919006586075
1.1400349140167236,0.15820437669754028,-0.115470290184021,-0.05440998077392578,-0.823767195371583,-0.7924471580344831,2.3820546719668902,-0.48382699489593506,0.7337107062339783,-0.4770536422729492,0.1738532930612564,-0.043333012610673904,-0.06671727448701859
1.1600391864776611,0.17177367210388184,-0.09635061025619507,-0.05080676078796387,-0.8200461314032685,-0.7902859276765904,2.3865114226412896,-0.4847314655780792,0.7311773300170898,-0.48001596331596375,0.28505972027778625,-0.04496978968381882,0.007774814032018185
1.1800730228424072,0.16869604587554932,-0.10194569826126099,-0.03891801834106445,-0.8159992248661457,-0.7865193510631756,2.393960833918355,-0.4850107431411743,0.7284106016159058,-0.48392438888549805,0.34551867842674255,-0.12164130806922913,0.0697496086359024
1.2000172138214111,0.1978047788143158,-0.0760197639465332,-0.0561884343624115,-0.8128845083455885,-0.7831489515607714,2.403257840768135,-0.4849751889705658,0.7262730002403259,-0.4871617257595062,0.3436620235443115,-0.20999860763549805,0.13969504833221436
1.2200911045074463,0.19555586576461792,-0.06114763021469116,-0.06481599807739258,-0.8096125138722442,-0.780185174070717,2.4139612137664384,-0.4851982295513153,0.7240199446678162,-0.49028345942497253,0.41732361912727356,-0.26848727464675903,0.17126715183258057
1.240022897720337,0.21236887574195862,-0.03750038146972656,-0.052568793296813965,-0.8053361565889556,-0.7761474467444399,2.4275871755803977,-0.4853791296482086,0.7210636138916016,-0.49444344639778137,0.5412142872810364,-0.3203433156013489,0.19877085089683533
1.260174036026001,0.2463567852973938,-0.05099362134933472,-0.05236300826072693,-0.8005316565610584,-0.7727369087189774,2.442718005975704,-0.4861029088497162,0.7177264094352722,-0.4985707700252533,0.5362752079963684,-0.4441681206226349,0.20546406507492065
1.2800729274749756,0.2801615297794342,-0.08516889810562134,-0.061309814453125,-0.7948880983944321,-0.772421111049058,2.4580804564504,-0.4887644648551941,0.7137852311134338,-0.501617431640625,0.6299967765808105,-0.6285251975059509,0.17073607444763184
1.3000600337982178,0.28638342022895813,-0.09351325035095215,-0.04312598705291748,-0.7864244426125907,-0.7749156117703547,2.474480672765143,-0.494223415851593,0.7078320980072021,-0.5046949982643127,0.7710563540458679,-0.7886501550674438,0.03882182389497757
1.3200430870056152,0.2864430546760559,-0.1332455277442932,0.0061141252517700195,-0.7745470507679287,-0.7827056995619348,2.4877852252532433,-0.5040334463119507,0.6993923783302307,-0.5067549347877502,0.7011792659759521,-0.9229949116706848,-0.2202245593070984
1.340162992477417,0.2866639494895935,-0.17629104852676392,0.06559795141220093,-0.7606791627226109,-0.7997990743584076,2.491401663261296,-0.519528329372406,0.6894135475158691,-0.5047763586044312,0.43615204095840454,-1.0396579504013062,-0.5917033553123474
1.3601181507110596,0.2663431763648987,-0.19511663913726807,0.12222179770469666,-0.7458638824073777,-0.8277484689193826,2.481873797294811,-0.5408945083618164,0.6786065697669983,-0.49691662192344666,0.07393143326044083,-1.0961673259735107,-0.960825502872467
1.3800709247589111,0.20484846830368042,-0.18487536907196045,0.1706957221031189,-0.7305125697774855,-0.8650425352862922,2.4590173815637075,-0.5669090747833252,0.6672515273094177,-0.4831041693687439,-0.3451802134513855,-1.1007236242294312,-1.3054847717285156
1.4000771045684814,0.12230265140533447,-0.16493964195251465,0.20757928490638733,-0.7146956856769181,-0.9110436803738489,2.4229178907709312,-0.5967898964881897,0.6553875803947449,-0.46293509006500244,-0.737873375415802,-1.1237916946411133,-1.6291308403015137
1.4201581478118896,0.0029979348182678223,-0.11572730541229248,0.1676565408706665,-0.6955366535716405,-0.9639195504018624,2.377979260934103,-0.6306225061416626,0.6407975554466248,-0.4378286600112915,-0.820689857006073,-1.2636771202087402,-1.9608209133148193
1.440075159072876,-0.14921706914901733,-0.026212692260742188,0.11676421761512756,-0.6673539861026422,-1.017731182992664,2.3342455598630703,-0.6683641076087952,0.6189098358154297,-0.4126015305519104,-0.4534505009651184,-1.3725613355636597,-2.2615017890930176
1.4600741863250732,-0.24151116609573364,0.07664501667022705,0.10964950919151306,-0.6291089357992022,-1.0664779864709775,2.2995179982296614,-0.7078906297683716,0.5884245038032532,-0.3907010555267334,-0.05257183313369751,-1.395534634590149,-2.3978159427642822
1.4801361560821533,-0.1651519536972046,0.09631723165512085,0.08219167590141296,-0.5878178883293474,-1.1097448315396776,2.273259751574695,-0.7452637553215027,0.5545464754104614,-0.3702165186405182,0.042112864553928375,-1.4173190593719482,-2.2239441871643066
1.5003678798675537,-0.10908538103103638,0.06843817234039307,0.12168660759925842,-0.5492305971759235,-1.1474609848649655,2.2538612152027833,-0.7776333689689636,0.5220311284065247,-0.35038527846336365,0.16674134135246277,-1.2858091592788696,-1.977750301361084
1.5200779438018799,-0.1693848967552185,0.05872473120689392,0.11633214354515076,-0.5118758957837855,-1.1782504541755414,2.2423831087274584,-0.8055145144462585,0.48981356620788574,-0.33351045846939087,0.40540611743927,-1.221441626548767,-1.85759699344635
1.5401721000671387,-0.2014583945274353,0.12162187695503235,0.056257784366607666,-0.4754505817934021,-1.2046665294747732,2.2363184509691703,-0.8301578760147095,0.45773908495903015,-0.31829696893692017,0.3996898829936981,-1.1075185537338257,-1.7276973724365234
1.5601451396942139,-0.15749138593673706,0.03633326292037964,0.15830186009407043,-0.4443808933429299,-1.2277163123837165,2.227949707894062,-0.8502600193023682,0.4298989772796631,-0.30371806025505066,-0.11435303092002869,-0.8325257897377014,-1.4618754386901855
1.5800731182098389,-0.04840892553329468,-0.016781359910964966,0.23208895325660706,-0.4216182039015769,-1.251816592073638,2.206585893687053,-0.8664013743400574,0.40923747420310974,-0.2861355245113373,-0.9486033320426941,-0.6911678314208984,-1.308321237564087
1.6000921726226807,0.07783013582229614,-0.037388771772384644,0.23824894428253174,-0.4062936307021311,-1.2776518232657306,2.1751185497544756,-0.8794049024581909,0.39520740509033203,-0.26544004678726196,-1.1465929746627808,-0.6528231501579285,-1.022901177406311
1.6201550960540771,0.16518473625183105,-0.05222362279891968,0.17290133237838745,-0.39431797097934584,-1.3001751562277781,2.153454736548314,-0.8896568417549133,0.3841785788536072,-0.24681483209133148,-0.36602815985679626,-0.7629948854446411,-0.7074537873268127
1.6400330066680908,0.20095491409301758,-0.048756033182144165,0.11426597833633423,-0.3815225111095072,-1.3180046753677193,2.1512846687007543,-0.8986020684242249,0.37233394384384155,-0.23212483525276184,0.38287273049354553,-0.9338223934173584,-0.6277025938034058
1.66007399559021,0.21931219100952148,-0.11314725875854492,0.15525129437446594,-0.36608147248166356,-1.3355427572349894,2.1571490946779655,-0.9080178141593933,0.3579593002796173,-0.21764445304870605,0.4613277316093445,-0.9872070550918579,-0.7535703778266907
1.6801159381866455,0.21408814191818237,-0.20458027720451355,0.23540522158145905,-0.34933766569251107,-1.3526687840748735,2.159319380059191,-0.9173352122306824,0.34227555990219116,-0.20333115756511688,0.052671365439891815,-0.7913663387298584,-0.8333560824394226
1.7000792026519775,0.21821248531341553,-0.2624249756336212,0.26445913314819336,-0.3331113270580894,-1.3703792866307305,2.149370890129472,-0.926113486289978,0.3269849121570587,-0.18813462555408478,-0.6637823581695557,-0.6730126142501831,-0.9219591021537781
1.7200748920440674,0.23619425296783447,-0.24252241849899292,0.255978524684906,-0.3202172570316158,-1.389597858048521,2.126895842612033,-0.9336277842521667,0.3147727847099304,-0.17104804515838623,-1.0845874547958374,-0.5539043545722961,-0.7458130121231079
1.7400829792022705,0.22982871532440186,-0.12930887937545776,0.17928855121135712,-0.310417662728062,-1.4090301605934228,2.10039261936727,-0.9397745728492737,0.30545637011528015,-0.15336382389068604,-1.1228220462799072,-0.6122265458106995,-0.6675972938537598
1.7600929737091064,0.1684858798980713,-0.02041792869567871,0.16302835941314697,-0.3004136719588012,-1.4268961962538345,2.0792862979117572,-0.9453414678573608,0.2959153652191162,-0.13698157668113708,-0.6651294231414795,-0.5173736214637756,-0.6131813526153564
1.780073881149292,0.06468528509140015,-0.021597594022750854,0.16970597207546234,-0.2906729740783966,-1.4392296276129266,2.0658277538843426,-0.949771523475647,0.28659704327583313,-0.12568433582782745,-0.6414365768432617,-0.3192704916000366,-0.5477896928787231
1.8000991344451904,0.00837022066116333,-0.10125070810317993,0.19833534955978394,-0.28194263688439963,-1.45037374230948,2.0458393901125786,-0.9535606503486633,0.27822211384773254,-0.11538854986429214,-1.1272518634796143,-0.2351430207490921,-0.5319059491157532
1.820072889328003,0.03288388252258301,-0.1746962070465088,0.2436925172805786,-0.27758191818836,-1.4614732137423785,2.01848750593333,-0.9559796452522278,0.2740309238433838,-0.10492902249097824,-1.330655813217163,-0.16835589706897736,-0.20689897239208221
1.8401150703430176,-0.018915832042694092,-0.11627033352851868,0.16251301765441895,-0.27797862107606275,-1.472392154982455,1.9952959711003,-0.9569600820541382,0.2744124233722687,-0.09447400271892548,-0.9301952719688416,-0.267867773771286,-0.012789915315806866
1.8600740432739258,-0.1038287878036499,-0.035213589668273926,0.16726022958755493,-0.27792887163603885,-1.4805203762665067,1.9838640252898474,-0.9577099680900574,0.2743645906448364,-0.08669381588697433,-0.04550895467400551,-0.08035885542631149,-0.09650690853595734
1.880108118057251,-0.09444659948348999,-0.08471253514289856,0.12744009494781494,-0.2757550907576652,-1.477083148849602,1.9922408760941823,-0.9579979181289673,0.27227357029914856,-0.09004076570272446,0.8800489902496338,0.10023923963308334,-0.06864684820175171
1.9001660346984863,-0.020397186279296875,-0.09786626696586609,0.07497239112854004,-0.27043148747706985,-1.468385180252086,2.0202208717166776,-0.9586067795753479,0.2671472728252411,-0.09851667284965515,1.843508243560791,-0.04706161469221115,-0.1789465695619583
1.9201428890228271,-0.04959702491760254,-0.0657794177532196,0.04745060205459595,-0.2626834079192987,-1.4606837792918752,2.0593467026580043,-0.9598482251167297,0.2596728503704071,-0.10612057894468307,1.7964222431182861,-0.18876007199287415,-0.1912149339914322
1.940119981765747,-0.19824367761611938,-0.2026773989200592,0.11861133575439453,-0.2556546408368325,-1.4556266012374945,2.0895415691061534,-0.9610885977745056,0.2528788149356842,-0.11118031293153763,1.2358125448226929,0.03265407308936119,-0.1455826461315155
1.9600770473480225,-0.37044817209243774,-0.14877967536449432,0.054135799407958984,-0.25178877805202,-1.4478319300205778,2.111912181436998,-0.9611558318138123,0.24913673102855682,-0.1187872514128685,0.9928712248802185,0.13339543342590332,-0.04773745685815811
1.9802300930023193,-0.39306485652923584,-0.02135986089706421,0.048694878816604614,-0.2475278316806568,-1.4405185707979586,2.132259045359278,-0.9613051414489746,0.24500788748264313,-0.12595003843307495,1.0068877935409546,0.08001218736171722,-0.08686219155788422
2.000157117843628,-0.3433130383491516,-0.03984937071800232,0.12633360922336578,-0.24470738187058028,-1.4348175329083013,2.149210064097053,-0.9612523913383484,0.24227243661880493,-0.1315215677022934,0.6264792084693909,0.03191487118601799,0.00860393512994051
2.019613027572632,-0.37881410121917725,-0.10442675650119781,0.12474066019058228,-0.24368753469516444,-1.4316521407376905,2.15886858865351,-0.961075484752655,0.2412828505039215,-0.13459783792495728,0.40347281098365784,0.09630424529314041,0.025919722393155098
2.040065050125122,-0.33132749795913696,-0.07656891644001007,0.09790223836898804,-0.24298488362242454,-1.4263232187278223,2.167560530299162,-0.9605121612548828,0.24060089886188507,-0.13974177837371826,0.4213516116142273,0.15308789908885956,-0.0016200344543904066
2.0684010982513428,-0.19062495231628418,-0.04572156071662903,0.007733538746833801,-0.23623670075155098,-1.425044880047682,2.1853508912610176,-0.9619171619415283,0.23404552042484283,-0.14120210707187653,0.5299252867698669,-0.13459065556526184,-0.08996876329183578
2.080059051513672,-0.19062495231628418,-0.04572156071662903,0.007733538746833801,-0.23623670075155098,-1.425044880047682,2.1853508912610176,-0.9619171619415283,0.23404552042484283,-0.14120210707187653,0.5299252867698669,-0.13459065556526184,-0.08996876329183578
2.1084020137786865,-0.2434893250465393,-0.04231582581996918,0.022588685154914856,-0.23207656749992128,-1.413603523392321,2.2061817106599033,-0.9611920714378357,0.22999891638755798,-0.15234938263893127,0.5733287930488586,0.3972872495651245,0.0759434700012207
2.12847900390625,-0.2054738998413086,-0.02318751811981201,-0.012678250670433044,-0.2320672727805416,-1.4032488461164054,2.217643007192618,-0.9595651626586914,0.22998987138271332,-0.16229422390460968,0.4734675884246826,0.34301984310150146,0.06773963570594788
2.14729905128479,-0.15379363298416138,-0.017918050289154053,-0.037492528557777405,-0.23110568067163928,-1.397851169628223,2.2232608829577614,-0.9588926434516907,0.22905394434928894,-0.16750924289226532,0.0950673297047615,0.0815751925110817,-0.08807587623596191
2.168637990951538,-0.15644913911819458,-0.005206674337387085,-0.02414262294769287,-0.2284408123013868,-1.3954802604604954,2.2263942492154256,-0.9590904712677002,0.22645911574363708,-0.16988807916641235,0.3152276277542114,0.15814603865146637,-0.05008067190647125
2.1874821186065674,-0.18864649534225464,0.03614962100982666,-0.047410085797309875,-0.22625873527878812,-1.3900149923560314,2.23298498890293,-0.9586315155029297,0.22433319687843323,-0.17521564662456512,0.3227599859237671,0.22910739481449127,-0.11994141340255737
2.2084250450134277,-0.15393507480621338,0.005882382392883301,-0.0314679890871048,-0.2234661709755868,-1.3839120455394558,2.2379328539515275,-0.9581561088562012,0.2216109335422516,-0.1811785101890564,0.2086065709590912,0.21018874645233154,-0.028489720076322556
2.228105068206787,-0.13481885194778442,-0.0012688934803009033,-0.02892531454563141,-0.22222494536786772,-1.3812479782472178,2.241127696848377,-0.9579394459724426,0.2204003930091858,-0.18378214538097382,0.1455017626285553,-0.014378325082361698,-0.0704290121793747
2.249291181564331,-0.17961257696151733,0.02863539755344391,-0.04038578271865845,-0.21933481528270124,-1.3825513210927476,2.24552654194071,-0.9587999582290649,0.2175804227590561,-0.18265190720558167,0.35734108090400696,-0.22206929326057434,-0.12362790107727051
2.263853073120117,-0.16179019212722778,0.046010419726371765,-0.02553437650203705,-0.21443345155073348,-1.3871219612638288,2.2527368921469884,-0.9606615900993347,0.21279388666152954,-0.17846029996871948,0.3640737235546112,-0.3249482810497284,-0.21698155999183655
2.289544105529785,-0.142855703830719,-0.031222671270370483,0.04628610610961914,-0.21000905971406164,-1.3922185031214944,2.257322979855163,-0.9624757766723633,0.20846876502037048,-0.17372749745845795,0.15108539164066315,-0.3540993332862854,-0.1800888031721115
2.3080780506134033,-0.23580646514892578,-0.1325291395187378,0.043514251708984375,-0.2114012531324615,-1.3929363122495826,2.2593981561851693,-0.962313711643219,0.2098301649093628,-0.17298507690429688,-0.20268727838993073,0.1838841587305069,0.6042911410331726
2.327687978744507,-0.27226370573043823,0.0072355717420578,0.031109243631362915,-0.215857057623709,-1.393349308054446,2.2483798640817,-0.9614551067352295,0.21418467164039612,-0.17242084443569183,-0.7011484503746033,7.172045297920704e-05,-0.30806899070739746
2.347999095916748,-0.07469147443771362,0.05275954306125641,-0.06805205345153809,-0.21561561610468732,-1.398809506227488,2.2377607900519982,-0.9624332189559937,0.2139488309621811,-0.16717742383480072,-0.09830363094806671,-0.35996413230895996,0.026913821697235107
2.3677961826324463,-0.10309773683547974,0.01955893635749817,-0.04758270084857941,-0.21439483307260965,-1.4067995938517333,2.2430695456266636,-0.9639953374862671,0.21275615692138672,-0.1595247983932495,0.5981096625328064,-0.47512197494506836,-0.07712257653474808
2.387794017791748,-0.20074236392974854,0.05642649531364441,-0.0850721001625061,-0.20694941312695878,-1.4117529729766458,2.2647124444964604,-0.966310977935791,0.2054753601551056,-0.154994398355484,1.5690678358078003,-0.43684303760528564,-0.2448260337114334
2.407778024673462,-0.1458306908607483,0.018275201320648193,-0.06451952457427979,-0.19833941454223672,-1.4146850418989083,2.295005641086903,-0.968472957611084,0.1970415711402893,-0.15242984890937805,1.196333646774292,-0.518443763256073,-0.1820865273475647
2.427680015563965,-0.14075970649719238,-0.16124092042446136,-0.017012819647789,-0.18919248765271188,-1.4250495615986178,2.310228597838175,-0.9717433452606201,0.18806585669517517,-0.1426398754119873,0.40682390332221985,-0.6376976370811462,-0.36475086212158203
2.4473989009857178,-0.1822170615196228,-0.0038432329893112183,-0.08836746215820312,-0.18286979458093092,-1.4356035320453626,2.3177357929783584,-0.9743534326553345,0.18185226619243622,-0.132533997297287,0.4856385290622711,-0.5067035555839539,-0.2033265084028244
2.4672791957855225,-0.15753018856048584,0.2365783452987671,-0.09858417510986328,-0.1768481409389264,-1.4429222315363857,2.326420313467167,-0.9763657450675964,0.1759277582168579,-0.12553688883781433,0.6751034259796143,-0.5462238192558289,-0.2359953373670578
2.4874188899993896,-0.13080954551696777,0.21422304213047028,-0.07493352890014648,-0.17305297412631512,-1.4516251938236977,2.3443987150101098,-0.9780772924423218,0.17219051718711853,-0.11711350828409195,0.8529986143112183,-0.559062659740448,0.08567234873771667
2.5064609050750732,-0.21995854377746582,0.07131169736385345,-0.00603814423084259,-0.1729575421865319,-1.4602011167368898,2.359190115691448,-0.979062020778656,0.17209652066230774,-0.10872320830821991,0.7149408459663391,-0.5375096201896667,0.09440843015909195
2.5273540019989014,-0.26157981157302856,0.01651906967163086,0.014781594276428223,-0.17425712683294076,-1.4666983238274265,2.3700316238762253,-0.9795243740081787,0.17337656021118164,-0.10233645141124725,0.37699151039123535,-0.36810675263404846,0.09738452732563019
2.5461089611053467,-0.25512582063674927,-0.03961332142353058,-0.002936139702796936,-0.1747171827565166,-1.4730307788425514,2.3766198486894323,-0.9800733327865601,0.17382963001728058,-0.09612385928630829,0.32594844698905945,-0.4211263656616211,0.01942543499171734
2.5670859813690186,-0.26335686445236206,-0.01740621030330658,0.05343586206436157,-0.17398332286751578,-1.4813622902428631,2.383580043468839,-0.9809669256210327,0.17310689389705658,-0.08796649426221848,0.2693493664264679,-0.45441606640815735,0.08054810762405396
2.5869860649108887,-0.27913326025009155,-0.13737501204013824,0.12677723169326782,-0.1819099442524602,-1.485026782955655,2.3832373886274505,-0.9798847436904907,0.18090833723545074,-0.08425096422433853,-0.4010409712791443,0.0438719317317009,0.6149739623069763
2.6074020862579346,-0.4074634909629822,-0.06035970151424408,0.08310724049806595,-0.19766111772908146,-1.4810787333117694,2.372191797026215,-0.9765849709510803,0.19637653231620789,-0.08785269409418106,-0.7278687953948975,0.5511340498924255,0.8614822626113892
2.6283609867095947,-0.357202410697937,0.11404812335968018,0.007962234318256378,-0.21588727873207203,-1.4716597586764493,2.3610694055210963,-0.971990704536438,0.21421419084072113,-0.09667674452066422,-0.5049725770950317,0.5399193167686462,0.8037270903587341
2.6466901302337646,-0.27508407831192017,0.13708125054836273,-0.03353601694107056,-0.23253181830057892,-1.4649227756894596,2.3549180198503445,-0.9676375389099121,0.23044194281101227,-0.10283172875642776,-0.27870985865592957,0.2863140404224396,0.8716703653335571
2.6667191982269287,-0.2882413864135742,0.054167672991752625,0.004678189754486084,-0.25201949446862826,-1.459458003777479,2.3531256546097263,-0.9624148011207581,0.24936017394065857,-0.10759862512350082,-0.07471176981925964,0.3845179080963135,1.0968478918075562
2.6871700286865234,-0.3728679418563843,0.07226428389549255,-0.016380608081817627,-0.2768711373567596,-1.4493452383488588,2.354604052181199,-0.9548298716545105,0.27334728837013245,-0.11653868854045868,-0.17805004119873047,0.5678532719612122,1.3177988529205322
2.705670118331909,-0.32275277376174927,0.06967863440513611,0.006924234330654144,-0.30424060401526304,-1.4397438622518932,2.349745167741661,-0.9458933472633362,0.2995687425136566,-0.12467623502016068,-0.5892216563224792,0.49198687076568604,1.403402328491211
2.727046012878418,-0.27792102098464966,-0.006459981203079224,-0.024449631571769714,-0.3360688841774093,-1.4340412397524613,2.34198367235329,-0.9352442026138306,0.32977843284606934,-0.12870274484157562,-0.49161970615386963,0.3754176199436188,1.6255396604537964
2.7465500831604004,-0.32255280017852783,0.08555859327316284,0.002925589680671692,-0.3682167195399162,-1.4248540948008501,2.341781394528582,-0.9230526089668274,0.35995227098464966,-0.13567699491977692,0.07876133173704147,0.6308751702308655,1.5825213193893433
2.7684309482574463,-0.37690573930740356,0.10270053148269653,-0.038352012634277344,-0.3984349557817359,-1.4051869546120894,2.354946084272984,-0.9090592861175537,0.38797637820243835,-0.15194034576416016,0.5423287153244019,0.7484174966812134,1.5632964372634888
2.788300037384033,-0.28444063663482666,-0.02015209197998047,-0.030819430947303772,-0.4263878693089578,-1.3869651304743933,2.37220429721999,-0.8951249718666077,0.41358479857444763,-0.16643092036247253,0.5055160522460938,0.40656349062919617,1.5188363790512085
2.8057401180267334,-0.25966042280197144,-0.02947261929512024,0.029561936855316162,-0.45457395208879364,-1.3734542179759353,2.3887289136937886,-0.8810104131698608,0.4390795826911926,-0.17615310847759247,0.4271858334541321,0.26785433292388916,1.5215226411819458
2.8263981342315674,-0.3253512382507324,-0.007636457681655884,0.048258066177368164,-0.48215679961341723,-1.3600306593789513,2.4048797428678776,-0.8663907647132874,0.46369117498397827,-0.18535825610160828,0.4928421378135681,0.37467411160469055,1.4862911701202393
2.8453729152679443,-0.3338560461997986,0.0008343160152435303,0.044617071747779846,-0.5085169065781869,-1.341661477672103,2.423649245085492,-0.8506379723548889,0.48688235878944397,-0.19839511811733246,0.5216841101646423,0.5262746214866638,1.4465572834014893
2.8666560649871826,-0.2769353985786438,-0.0229794979095459,0.005858778953552246,-0.5332811545541049,-1.3225425986228576,2.4426396541221376,-0.8347436785697937,0.5083616375923157,-0.21159301698207855,0.4595460891723633,0.430700421333313,1.323157548904419
2.8866569995880127,-0.2313750982284546,0.0059989094734191895,0.05642688274383545,-0.5555764049063454,-1.3067620532341466,2.457877621479324,-0.8201538920402527,0.5274330973625183,-0.22172531485557556,0.23364976048469543,0.37543848156929016,1.2016655206680298
2.9062469005584717,-0.20788592100143433,-0.05647832155227661,0.08028656244277954,-0.5769942697472548,-1.2925101116892572,2.46981946982712,-0.805862307548523,0.5455073118209839,-0.23023466765880585,0.2110874205827713,0.4043349623680115,1.142592191696167
2.9263250827789307,-0.16654127836227417,0.021288931369781494,0.06312121450901031,-0.5964434691616047,-1.276323301544294,2.485410320517358,-0.7917259335517883,0.5617035627365112,-0.24012309312820435,0.5343019962310791,0.31955260038375854,1.08551025390625
2.943228006362915,-0.09417706727981567,0.021940767765045166,0.06316044926643372,-0.6127700568067357,-1.2571041268601313,2.5093722968872028,-0.7781375646591187,0.5751357078552246,-0.2524304687976837,0.8141441941261292,0.23721466958522797,1.0933308601379395
2.964996099472046,-0.06406056880950928,-0.02171158790588379,0.09670457243919373,-0.62835233915343,-1.2369783622295363,2.5363776851851854,-0.7643390893936157,0.587812602519989,-0.26507002115249634,0.7354548573493958,0.23710042238235474,1.0629976987838745
2.9856998920440674,-0.04190939664840698,-0.049202024936676025,0.12082767486572266,-0.6441479955877233,-1.2181427751728728,2.5590676124297898,-0.7504032850265503,0.6005173921585083,-0.2761773467063904,0.4638143479824066,0.29334813356399536,1.0395804643630981
3.0049281120300293,-0.01648348569869995,-0.06714010238647461,0.1166071891784668,-0.6603258356319066,-1.2008831753541003,2.576935889672139,-0.7363699674606323,0.6133742332458496,-0.2855372130870819,0.3469603359699249,0.34708186984062195,0.9736483097076416
3.0260579586029053,0.008228957653045654,-0.04792708158493042,0.048287391662597656,-0.673821616919678,-1.1802450963882583,2.598119954585329,-0.7225997447967529,0.6239768862724304,-0.29749390482902527,0.6907535195350647,0.3831219971179962,0.9706549644470215
3.0460190773010254,0.10485261678695679,-0.09649306535720825,0.10413911938667297,-0.6860825317874738,-1.158270246413524,2.622565824054246,-0.7088260650634766,0.633510947227478,-0.3102090656757355,0.5550896525382996,0.27750903367996216,0.8709198832511902
3.064681053161621,0.0961194634437561,-0.1324349045753479,0.12688589096069336,-0.6966889814302513,-1.1398350699020647,2.6429813675477423,-0.6968427300453186,0.6416817307472229,-0.32039782404899597,0.45347723364830017,0.2894327938556671,0.7668995261192322
3.0854830741882324,0.08319312334060669,-0.11732417345046997,0.1426592767238617,-0.7068127621358341,-1.1223464312494584,2.660290600772313,-0.6852439045906067,0.6494134068489075,-0.3297014832496643,0.31028878688812256,0.3354739546775818,0.7021159529685974
3.1048550605773926,0.06449675559997559,-0.14121508598327637,0.14276713132858276,-0.7160741455613275,-1.105150457218216,2.6746624496326294,-0.6740701794624329,0.6564280986785889,-0.3387204706668854,0.29953983426094055,0.41485756635665894,0.6055546998977661
3.1255991458892822,0.10457897186279297,-0.1303059458732605,0.08810648322105408,-0.7223221557894827,-1.0868594052660074,2.6896317074918215,-0.664118766784668,0.6611286997795105,-0.3490775227546692,0.438998818397522,0.4048352837562561,0.46479660272598267
3.1452410221099854,0.15193378925323486,-0.15442675352096558,0.07021909952163696,-0.7255152120351072,-1.0682139854406143,2.7058209550128485,-0.6556417346000671,0.6635209918022156,-0.36038023233413696,0.47042372822761536,0.38763898611068726,0.4010925590991974
3.165213108062744,0.13615626096725464,-0.1792888045310974,0.09499499201774597,-0.7288927199097217,-1.0514787623732489,2.7183693964242255,-0.6475698351860046,0.6660441160202026,-0.3701871931552887,0.136488676071167,0.46841129660606384,0.34657907485961914
3.18532395362854,0.09585756063461304,-0.18789374828338623,0.10284626483917236,-0.734284565844721,-1.0385334331286666,2.721533181941317,-0.6396198272705078,0.6700562238693237,-0.37671101093292236,-0.1978585422039032,0.6191315054893494,0.24945054948329926
3.2043800354003906,0.1321738362312317,-0.18687433004379272,0.08166539669036865,-0.7407619687324307,-1.026473706720603,2.718995449060742,-0.6313040852546692,0.6748504042625427,-0.38214147090911865,-0.2283436805009842,0.7327682971954346,0.18601271510124207
3.225163221359253,0.13798385858535767,-0.14286863803863525,0.045392394065856934,-0.7443458427346582,-1.0127135503236682,2.717134969725453,-0.6239305138587952,0.6774908304214478,-0.38950854539871216,-0.0447685681283474,0.7705835700035095,0.06136709824204445
3.2452399730682373,0.11479240655899048,-0.15330183506011963,0.06375467777252197,-0.7447349675552558,-0.996075003842861,2.7172491917208625,-0.6171423196792603,0.6777769923210144,-0.3996921181678772,-0.03465275466442108,0.8830661177635193,-0.03204960748553276
3.2640669345855713,0.13243365287780762,-0.1543959379196167,0.0891263484954834,-0.7447287690947754,-0.9806778880490746,2.712655265641542,-0.6109188199043274,0.6777724027633667,-0.4091489613056183,-0.22768670320510864,0.9982154369354248,-0.11457046866416931
3.2851550579071045,0.16801416873931885,-0.17106956243515015,0.07553881406784058,-0.7450966924060021,-0.9654935277137745,2.7026537304985636,-0.6044308543205261,0.6780428886413574,-0.4182358980178833,-0.42020702362060547,1.0591293573379517,-0.29539892077445984
3.3052010536193848,0.2547624111175537,-0.10651546716690063,0.03607165813446045,-0.7478691495590217,-0.9488524106883784,2.6935997173657626,-0.5958574414253235,0.6800780892372131,-0.4271391034126282,-0.32963648438453674,1.1396076679229736,-0.14712871611118317
3.324512004852295,0.28919774293899536,-0.1700034737586975,0.04767405986785889,-0.7497387825289508,-0.9309860914484067,2.687630331828369,-0.5871104001998901,0.6814476251602173,-0.4369562566280365,-0.0664132684469223,1.1218715906143188,0.003145670983940363
3.3440611362457275,0.33093422651290894,-0.15646302700042725,0.047435104846954346,-0.7486679230708867,-0.9082340395417121,2.6889138903658787,-0.5775926113128662,0.6806634664535522,-0.45064860582351685,0.16558434069156647,1.0796120166778564,0.009426052682101727
3.364989995956421,0.3758472800254822,-0.2126428484916687,0.0860564112663269,-0.7464166761931031,-0.8831686988173093,2.695234149556142,-0.5672993063926697,0.6790125370025635,-0.46595442295074463,0.31976017355918884,1.018023133277893,0.0802043154835701
3.38362717628479,0.3602905869483948,-0.22756123542785645,0.14830049872398376,-0.7439603240544357,-0.8581951749176868,2.7023895811192835,-0.5567474365234375,0.6772071719169617,-0.4810641407966614,0.18054714798927307,1.0002782344818115,0.08012495189905167
3.40362811088562,0.3309708833694458,-0.25165456533432007,0.1499904990196228,-0.7451427478362955,-0.8371199611792465,2.703652584166601,-0.5458909869194031,0.6780767440795898,-0.492153525352478,-0.15951508283615112,1.0188536643981934,0.06474757939577103
3.423657178878784,0.3516309857368469,-0.2359299659729004,0.1149740219116211,-0.7491459660968798,-0.8200833859483952,2.6999196226148183,-0.5354384183883667,0.6810136437416077,-0.4995260536670685,-0.2530692219734192,0.9408721923828125,0.057192299515008926
3.444277048110962,0.34300678968429565,-0.15452390909194946,0.0803716778755188,-0.7519411698467245,-0.8026102812176102,2.698461423450183,-0.5252577662467957,0.6830577850341797,-0.5074803829193115,0.0007898593321442604,0.9148719906806946,0.07088601589202881
3.464319944381714,0.29737311601638794,-0.07406175136566162,0.025016307830810547,-0.7512485168838775,-0.7825662429851563,2.7018972589393493,-0.5153144598007202,0.6825517416000366,-0.5182414054870605,0.21009822189807892,0.8748446702957153,0.08886003494262695
3.4833781719207764,0.2168644666671753,-0.04697149991989136,-0.0004146695137023926,-0.749613173001642,-0.7614214886302394,2.707217073911514,-0.5050114393234253,0.6813556551933289,-0.5298282504081726,0.12570501863956451,0.8737598657608032,0.04911302402615547
3.5044260025024414,0.18799132108688354,-0.03323984146118164,0.002218306064605713,-0.7497190632697985,-0.7435152203227355,2.7081110427651924,-0.49539488554000854,0.6814332008361816,-0.5387325286865234,-0.09538768231868744,0.887590229511261,0.03273431956768036
3.5248191356658936,0.1621832549571991,-0.013400256633758545,0.013928472995758057,-0.7535787858366764,-0.7275304317162731,2.7045209630789575,-0.48496773838996887,0.684252917766571,-0.5446138978004456,-0.34648436307907104,0.95298171043396,0.0061242906376719475
3.5431082248687744,0.16276133060455322,-0.021540403366088867,-0.05935549736022949,-0.7581600191558873,-0.7122929745297679,2.6998241546902717,-0.474559485912323,0.6875866055488586,-0.5495617389678955,-0.1480715572834015,0.8808535933494568,0.06950239837169647
3.563138008117676,0.14969974756240845,-0.021880626678466797,-0.08638417720794678,-0.759217523599367,-0.6946432447069482,2.701692152673552,-0.46432074904441833,0.6883540749549866,-0.5572925806045532,0.15357446670532227,0.7647401690483093,0.1119372621178627
3.583923101425171,0.1422242522239685,-0.06363987922668457,-0.06385141611099243,-0.7574463322051391,-0.676654078590385,2.7084128665700447,-0.4549836218357086,0.6870682239532471,-0.5665043592453003,0.2502277195453644,0.5610001683235168,0.1451272964477539
3.601989984512329,0.13586318492889404,-0.07356464862823486,-0.0226476788520813,-0.7560492190146472,-0.6630298444853634,2.7151754335524956,-0.44781383872032166,0.6860523819923401,-0.5734063386917114,0.15321609377861023,0.3449568450450897,0.150083526968956
3.6237430572509766,0.11937987804412842,-0.059749484062194824,-0.002445220947265625,-0.7566284834321401,-0.6547173873840555,2.720027571929158,-0.4427899718284607,0.6864737272262573,-0.5767936110496521,0.012759875506162643,0.1717183142900467,0.1472628265619278
3.644007921218872,0.06885853409767151,-0.03407120704650879,0.03636014461517334,-0.7576393129172375,-0.6525673762859014,2.7183618545147255,-0.4411272406578064,0.6872084140777588,-0.5771926641464233,-0.11191456019878387,0.13599608838558197,-0.0064873830415308475
3.660022020339966,0.06382942199707031,0.04669541120529175,-0.013385295867919922,-0.760728996466833,-0.6494171249498426,2.7204473457325307,-0.4380207061767578,0.689449667930603,-0.5768857002258301,-0.056559182703495026,0.005047038197517395,0.24394036829471588
3.6838271617889404,0.005450934171676636,0.027163982391357422,-0.031817734241485596,-0.7635979952672528,-0.6458313679796741,2.726924578029173,-0.43475696444511414,0.6915249228477478,-0.5768705010414124,0.10906898975372314,-0.09442824125289917,0.29966840147972107
3.7028839588165283,-0.030868053436279297,0.02132713794708252,-0.02559506893157959,-0.7646235805109138,-0.6414641445669427,2.7366670615623043,-0.4318089485168457,0.6922653913497925,-0.5781952142715454,0.21376416087150574,-0.13368581235408783,0.31695979833602905
3.7236921787261963,-0.08020880818367004,-0.010649263858795166,-0.010492861270904541,-0.764869008348087,-0.6372227221696071,2.746771286624631,-0.42925164103507996,0.6924424767494202,-0.579884946346283,0.17644838988780975,-0.14764299988746643,0.2830619812011719
3.743673086166382,-0.14048722386360168,-0.030802786350250244,0.0021805167198181152,-0.765943530233982,-0.6335564115964268,2.754321742705177,-0.4266819655895233,0.6932173371315002,-0.5808548331260681,0.09778320044279099,-0.02867257595062256,0.2167195826768875
3.7636830806732178,-0.1879655122756958,-0.007964253425598145,-0.01786351203918457,-0.7673471746926971,-0.629648992882648,2.758920887447216,-0.4238356649875641,0.6942282915115356,-0.5817306041717529,-0.01534787006676197,0.10620001703500748,0.1246231347322464
3.783416986465454,-0.22131717205047607,-0.027261018753051758,-0.007054626941680908,-0.7690155125650886,-0.6258972398734144,2.759302085465288,-0.4209710657596588,0.6954281330108643,-0.5823770761489868,-0.11562191694974899,0.2414931356906891,-0.0005347927217371762
3.803270101547241,-0.21251145005226135,-0.06469970941543579,0.025707721710205078,-0.7716643126477937,-0.6236376577867776,2.7542123961009977,-0.4185768663883209,0.6973291039466858,-0.5818294882774353,-0.3047362267971039,0.3267451524734497,-0.14283166825771332
3.823456048965454,-0.18712371587753296,-0.08069849014282227,0.02175307273864746,-0.7750867984519834,-0.623856341354354,2.743872638165179,-0.41730746626853943,0.6997780799865723,-0.5797975063323975,-0.385894775390625,0.3721037805080414,-0.2488366961479187
3.842351198196411,-0.1400546133518219,-0.08221745491027832,0.008630692958831787,-0.7776435183199205,-0.6257124307036228,2.7309925383404794,-0.4173336923122406,0.7016022205352783,-0.5775699019432068,-0.3370489776134491,0.33885458111763,-0.3452950417995453
3.862457036972046,-0.07891800999641418,-0.07827740907669067,-0.015551328659057617,-0.7783457829120867,-0.6295662655736722,2.716918575461393,-0.4192661941051483,0.7021024227142334,-0.5755588412284851,-0.31761792302131653,0.26808401942253113,-0.42231276631355286
3.8822829723358154,-0.009924709796905518,-0.0907558798789978,-0.01694667339324951,-0.7781913372160995,-0.6350472232490628,2.7020913936754303,-0.42247888445854187,0.7019924521446228,-0.573339581489563,-0.2816189229488373,0.23479288816452026,-0.43444904685020447
3.9031741619110107,0.06505924463272095,-0.07778608798980713,-0.028594613075256348,-0.7772279325328025,-0.6407990988196697,2.6877968826127208,-0.4261738061904907,0.7013060450553894,-0.5714420080184937,-0.2621362805366516,0.19699978828430176,-0.4462794065475464
3.9222261905670166,0.1223955750465393,-0.0899919867515564,-0.02978825569152832,-0.776028317600484,-0.6470454163364113,2.6735323547801637,-0.4302416443824768,0.7004503607749939,-0.5694395899772644,-0.25299271941185,0.18893085420131683,-0.4327845573425293
3.943237066268921,0.15917864441871643,-0.08207285404205322,-0.04269719123840332,-0.7747039806851742,-0.6529190231617038,2.6597765867334737,-0.4341420829296112,0.699504554271698,-0.5676391124725342,-0.23077605664730072,0.17518912255764008,-0.43965741991996765
3.9630939960479736,0.17186251282691956,-0.06466221809387207,-0.08266013860702515,-0.7726983424148443,-0.6589277639723856,2.6464507595762474,-0.4384031295776367,0.6980698704719543,-0.5661283135414124,-0.1887751966714859,0.17279139161109924,-0.44187790155410767
3.9814488887786865,0.16702711582183838,-0.04746103286743164,-0.10916495323181152,-0.7699465888040604,-0.6643728865107387,2.63350464004153,-0.44266191124916077,0.6960968971252441,-0.5652429461479187,-0.18607938289642334,0.1896103173494339,-0.4660473167896271
4.000504016876221,0.1762382984161377,-0.028738021850585938,-0.12326556444168091,-0.7678652034190642,-0.6700209274979513,2.619653726628844,-0.4467461407184601,0.6946010589599609,-0.5638682246208191,-0.2786981165409088,0.21108701825141907,-0.44357791543006897
4.019519090652466,0.1792837679386139,-0.014155030250549316,-0.13473927974700928,-0.7678289188200393,-0.6760852175556793,2.60466489825255,-0.45017310976982117,0.6945749521255493,-0.5611683130264282,-0.37862950563430786,0.23344291746616364,-0.39734119176864624
4.0400731563568115,0.17565515637397766,0.010322928428649902,-0.15744000673294067,-0.7690559377206861,-0.681163636395354,2.59057400983844,-0.4524801969528198,0.6954571604728699,-0.5582124590873718,-0.34132421016693115,0.2372288703918457,-0.3146692216396332
4.06296706199646,0.16478434205055237,0.030244290828704834,-0.1862804889678955,-0.7699997987247158,-0.6839485916095664,2.5800889423899838,-0.45361799001693726,0.6961351037025452,-0.556441068649292,-0.1958562284708023,0.21765996515750885,-0.2055768072605133
4.080826997756958,0.15473484992980957,0.029107630252838135,-0.1888372302055359,-0.7701165599270096,-0.6839968664283823,2.5741730023023357,-0.45359349250793457,0.6962189078330994,-0.5563561320304871,-0.08378908783197403,0.1877899467945099,-0.12383879721164703
4.102837085723877,0.14890819787979126,0.016701996326446533,-0.18687975406646729,-0.7695219077191285,-0.6818333739997765,2.572125337623119,-0.45264965295791626,0.6957919597625732,-0.5576575994491577,0.02355087175965309,0.1724618673324585,-0.029294725507497787
4.12043023109436,0.14333677291870117,-0.00467836856842041,-0.1787703037261963,-0.7690160306363958,-0.6778289098102543,2.57349676851657,-0.45063355565071106,0.6954284906387329,-0.5597398281097412,0.06122143194079399,0.14380216598510742,0.06844522058963776
4.1400721073150635,0.14124509692192078,-0.035825908184051514,-0.1618139147758484,-0.7697017433545593,-0.6733231884311637,2.5761007800168048,-0.44780945777893066,0.6959210634231567,-0.5613915920257568,0.010021001100540161,0.12878042459487915,0.12175586819648743
4.1612560749053955,0.14282917976379395,-0.060285210609436035,-0.1333019733428955,-0.7711044168215572,-0.6682364952389679,2.5799862166980483,-0.44434285163879395,0.6969276666641235,-0.5628955364227295,0.05311836674809456,0.11860404908657074,0.18263664841651917
4.182121992111206,0.14640092849731445,-0.07103043794631958,-0.09378337860107422,-0.772045279546685,-0.661517768429535,2.5864133030526086,-0.44014790654182434,0.6976020932197571,-0.5653505921363831,0.16388976573944092,0.10955151915550232,0.23619292676448822
4.202145099639893,0.13771265745162964,-0.059153735637664795,-0.08342814445495605,-0.7717822538872563,-0.6535345836193871,2.5954625374317914,-0.4357320964336395,0.6974136233329773,-0.5689918398857117,0.2353793978691101,0.03334374725818634,0.25906360149383545
4.222186088562012,0.11940416693687439,-0.0457492470741272,-0.07877939939498901,-0.7707932131854872,-0.6473245723310231,2.6055155826207166,-0.4326061010360718,0.6967044472694397,-0.5722368359565735,0.23100987076759338,-0.1833135485649109,0.19193938374519348
4.242268085479736,0.006564825773239136,0.007836699485778809,-0.11583441495895386,-0.7678448308133861,-0.6472421797490713,2.6128845023517955,-0.43379563093185425,0.6945863962173462,-0.5739085674285889,0.28480440378189087,-0.36520540714263916,0.030604278668761253
4.262145042419434,-0.10903003811836243,0.1534895896911621,-0.19842344522476196,-0.7620598186820563,-0.6496520999790248,2.619406616884162,-0.43760085105895996,0.6904129981994629,-0.576051652431488,0.5031569600105286,-0.2834923565387726,0.04418225586414337
4.282004117965698,-0.18516159057617188,0.26679062843322754,-0.1936473250389099,-0.7538803005662029,-0.6442153201909063,2.6320332303330147,-0.43783947825431824,0.6844727993011475,-0.5829181671142578,0.6344333291053772,-0.0489114448428154,0.17967697978019714
4.301965951919556,-0.20391809940338135,0.19947952032089233,-0.11190932989120483,-0.7474802805812867,-0.6343107006880307,2.644864786214694,-0.43463173508644104,0.6797929406166077,-0.5907426476478577,0.38031384348869324,0.15568846464157104,0.16002070903778076
4.320730924606323,-0.156591534614563,0.056727588176727295,-0.015340447425842285,-0.7478838505848405,-0.6275638727415427,2.649832247039913,-0.4304751455783844,0.6800888776779175,-0.5934394598007202,-0.16255657374858856,0.18704204261302948,0.15635038912296295
4.340931177139282,-0.07210814952850342,-0.02766960859298706,0.030373215675354004,-0.753268259276371,-0.6240029001729778,2.6500789108764486,-0.4262133836746216,0.6840264797210693,-0.591988205909729,-0.15915754437446594,0.13046959042549133,0.20431303977966309
4.362180948257446,0.0032207071781158447,-0.037514686584472656,0.057316601276397705,-0.7546750139300924,-0.6171961440690658,2.657843138408627,-0.42161670327186584,0.6850519776344299,-0.5940902829170227,0.40947383642196655,0.024644795805215836,0.3331789970397949
4.383148908615112,0.008214712142944336,-0.061824023723602295,0.1255873441696167,-0.7475383293264474,-0.6053450443481505,2.6762219283468105,-0.4173181354999542,0.6798354983329773,-0.6030500531196594,0.9227668642997742,-0.08414169400930405,0.3620631694793701
4.40005087852478,-0.00847536325454712,-0.07414895296096802,0.1832817792892456,-0.7342973719894895,-0.5917573287808561,2.700388009157268,-0.41407108306884766,0.6700657606124878,-0.6160820722579956,1.1022626161575317,-0.19331736862659454,0.35886502265930176
4.420026063919067,-0.0754939615726471,-0.05464458465576172,0.2044006586074829,-0.7202588973379065,-0.5815111750478219,2.722626651061427,-0.4128636121749878,0.6595792770385742,-0.6280913949012756,0.9548122882843018,-0.23413509130477905,0.23334963619709015
4.44002890586853,-0.1321226954460144,0.004268050193786621,0.18352067470550537,-0.7078031374611217,-0.5765237896406397,2.7374919559444426,-0.414172500371933,0.6501661539077759,-0.6369813084602356,0.7227625250816345,-0.2332671731710434,0.04830813407897949
4.460022211074829,-0.13731279969215393,0.11142438650131226,0.13556623458862305,-0.6972548913790373,-0.5739706437639004,2.747183861766826,-0.41624557971954346,0.6421157121658325,-0.6437602043151855,0.5647854804992676,-0.12342801690101624,0.03340597450733185
4.480088949203491,-0.12259426712989807,0.14708727598190308,0.1285366415977478,-0.6891967197928752,-0.5700286784392324,2.755469908278289,-0.41648349165916443,0.6359174251556396,-0.6497310996055603,0.46810296177864075,-0.006521645002067089,0.06940072029829025
4.500931978225708,-0.0840502381324768,0.1579679250717163,0.10826486349105835,-0.6828061165248157,-0.5640558855470637,2.7641114354054728,-0.4147596061229706,0.6309725046157837,-0.6556281447410583,0.45200684666633606,0.03438770771026611,0.14272446930408478
4.521330118179321,-0.03332406282424927,0.1357710361480713,0.09689313173294067,-0.677031161191467,-0.5578868613123398,2.7740144821550086,-0.41262930631637573,0.6264817714691162,-0.6612546443939209,0.45804622769355774,-0.04498887434601784,0.2152092307806015
4.541017055511475,0.004754126071929932,0.0850951075553894,0.10678613185882568,-0.6717000393249631,-0.5528856512767069,2.7850826191518214,-0.41106516122817993,0.6223176121711731,-0.6661428213119507,0.43553462624549866,-0.13816435635089874,0.23073333501815796
4.561341047286987,0.04865318536758423,0.038025617599487305,0.13750851154327393,-0.6677635399020088,-0.5500992054420879,2.795458115808759,-0.4104848802089691,0.6192314624786377,-0.6693688035011292,0.32393085956573486,-0.2213277816772461,0.2565803527832031
4.581144094467163,0.08620718121528625,-0.0015184879302978516,0.14734381437301636,-0.6662207772888565,-0.5499043568014865,2.804454736730047,-0.41085320711135864,0.6180193424224854,-0.6702624559402466,0.17365224659442902,-0.32014772295951843,0.2732304632663727
4.600752115249634,0.10688552260398865,-0.025240778923034668,0.12027853727340698,-0.6668938058652367,-0.5524443747779005,2.8120682292781347,-0.41233599185943604,0.6185482740402222,-0.668862521648407,0.09556077420711517,-0.42145776748657227,0.280160129070282
4.621032953262329,0.09850162267684937,-0.00828564167022705,0.07360303401947021,-0.6673371158682243,-0.556305393464577,2.8195847441302027,-0.41477054357528687,0.6188965439796448,-0.6670325398445129,0.19717296957969666,-0.4425390660762787,0.26629969477653503
4.640060186386108,0.07713428139686584,0.04646646976470947,0.026440083980560303,-0.6660317118981081,-0.5587920768992863,2.83003054688689,-0.41685599088668823,0.6178706884384155,-0.6666836142539978,0.34239035844802856,-0.4504444897174835,0.3580721914768219
4.660149097442627,0.04582953453063965,0.05382472276687622,0.03645902872085571,-0.6635068955204754,-0.559118697758945,2.843609454458879,-0.41789984703063965,0.615883469581604,-0.6678676605224609,0.4169277250766754,-0.4151470363140106,0.41406646370887756
4.6806960105896,0.011118382215499878,0.06343793869018555,0.05573630332946777,-0.6617648295411531,-0.5584324155008228,2.8573829966920594,-0.41800928115844727,0.6145101189613342,-0.6690632700920105,0.27702540159225464,-0.37756699323654175,0.3935987055301666
4.7004780769348145,0.015305876731872559,0.04485374689102173,0.07030153274536133,-0.6625760917737509,-0.5590430592654743,2.8681707193512787,-0.41815319657325745,0.6151499152183533,-0.6683850288391113,0.13938510417938232,-0.3533064126968384,0.3849131762981415
4.720448017120361,0.04387679696083069,0.05931961536407471,0.04426223039627075,-0.6644735464460283,-0.5600503172738827,2.878404205021238,-0.4182054102420807,0.6166447997093201,-0.6669734120368958,0.14927156269550323,-0.3870590329170227,0.4052739143371582
4.740462064743042,0.031471073627471924,0.07184112071990967,0.013657629489898682,-0.6651790430026664,-0.560763147432758,2.8904913946450077,-0.4184492826461792,0.6172000169754028,-0.6663065552711487,0.31504490971565247,-0.4197532534599304,0.44634008407592773
4.760417222976685,0.012142151594161987,0.08978211879730225,-0.005747556686401367,-0.6633810315962816,-0.5591317249251376,2.906140235839139,-0.4179496765136719,0.6157843470573425,-0.6679279804229736,0.462197482585907,-0.3792458474636078,0.502241313457489
4.780297040939331,-0.003187894821166992,0.06965833902359009,8.225440979003906e-06,-0.6608239760967577,-0.5552987292971623,2.9234905546810714,-0.4162152111530304,0.6137675642967224,-0.6708608865737915,0.48053210973739624,-0.298295795917511,0.5215814113616943
4.800396203994751,-0.03546997904777527,0.03943127393722534,0.02213197946548462,-0.657965970114661,-0.5492927200464838,2.941244781002041,-0.4130926728248596,0.6115087270736694,-0.6748419404029846,0.4851246178150177,-0.18239343166351318,0.5137038826942444
4.820401906967163,-0.05009293556213379,0.01177990436553955,0.05047738552093506,-0.6552912456603667,-0.5424206063683955,2.9568952209313384,-0.4092881977558136,0.6093901991844177,-0.6790631413459778,0.36510923504829407,-0.09256412088871002,0.41158413887023926
4.840121030807495,-0.031073957681655884,-0.034839749336242676,0.07621407508850098,-0.654488315323616,-0.5369475249264248,2.968022451506935,-0.4058156907558441,0.6087533831596375,-0.681713342666626,0.1676679402589798,-0.05168583616614342,0.3083369731903076
4.860073089599609,-0.0192907452583313,-0.03726053237915039,0.07592111825942993,-0.6545969088073156,-0.5327766473086105,2.975829780941587,-0.4029352366924286,0.6088395118713379,-0.6833429932594299,0.1689312756061554,-0.015528099611401558,0.2398253083229065
4.880073070526123,-0.019081562757492065,-0.014297068119049072,0.05884277820587158,-0.6533292981345946,-0.5284775745778625,2.9831310322464124,-0.4003825783729553,0.6078334450721741,-0.6857348084449768,0.21353015303611755,-0.0028685866855084896,0.2031688243150711
4.900173902511597,-0.027783453464508057,-0.02311551570892334,0.06924295425415039,-0.6520794774392972,-0.5250936024583198,2.9892452575688617,-0.39844033122062683,0.6068405508995056,-0.6877426505088806,0.13720588386058807,-0.03460884839296341,0.1469934731721878
4.920152902603149,-0.04397740960121155,-0.02083534002304077,0.07621645927429199,-0.6513802004489184,-0.5242905831768264,2.9923195679956347,-0.3981002867221832,0.6062845587730408,-0.688429594039917,0.044404659420251846,-0.07015281915664673,0.02581195905804634
4.940269231796265,-0.04150652885437012,-0.009765803813934326,0.07379364967346191,-0.6510453443781871,-0.5265583418345711,2.9914188706406315,-0.39976245164871216,0.6060182452201843,-0.6877005100250244,-0.046562302857637405,-0.10160661488771439,-0.09240007400512695
4.960074186325073,-0.03770315647125244,-0.018214106559753418,0.06907534599304199,-0.6514035104316209,-0.5309675133457324,2.987259266108679,-0.40268081426620483,0.6063030958175659,-0.6857439875602722,-0.1616113930940628,-0.0907304435968399,-0.1757202446460724
4.980072021484375,-0.04168519377708435,0.0013854503631591797,0.04421091079711914,-0.6528534161760934,-0.5369979451490939,2.9799059687008698,-0.40635865926742554,0.6074554920196533,-0.6825470924377441,-0.24599908292293549,-0.045095138251781464,-0.2315574288368225
5.000072002410889,-0.03939339518547058,0.03187549114227295,0.009654879570007324,-0.6553300182953918,-0.5425330215378408,2.971179187761539,-0.4093523621559143,0.6094209551811218,-0.6789969801902771,-0.31731802225112915,0.038633495569229126,-0.2227608561515808
5.019568204879761,-0.0028373003005981445,0.023412883281707764,0.005558192729949951,-0.6591964131757204,-0.5468136722665564,2.9622071843255955,-0.41102683544158936,0.6124818325042725,-0.6752206683158875,-0.35924169421195984,0.10307302325963974,-0.15605024993419647
5.04109001159668,0.02528446912765503,0.0037088990211486816,-0.008714079856872559,-0.6640763338231284,-0.5486557844074336,2.955220226837005,-0.4107062816619873,0.6163319945335388,-0.6719041466712952,-0.3299961984157562,0.1314340978860855,-0.06343480944633484
5.06009316444397,0.026564180850982666,-0.020591914653778076,-0.023531734943389893,-0.6680659251263004,-0.5481802003787848,2.9514443567085173,-0.40910202264785767,0.6194688677787781,-0.6699954867362976,-0.1429639458656311,0.15415823459625244,0.016176452860236168
5.080071210861206,0.0004965662956237793,-0.04668313264846802,-0.021063566207885742,-0.6695424202069363,-0.5445110824640637,2.9517393195017045,-0.40616676211357117,0.6206272840499878,-0.6707088947296143,-0.003765237983316183,0.2022213488817215,0.06278478354215622
5.100072145462036,-0.030326873064041138,-0.08223474025726318,0.01655590534210205,-0.6707282757015254,-0.5399166618729616,2.9519375480929426,-0.40270236134529114,0.6215566396713257,-0.6719362139701843,-0.10895172506570816,0.24611762166023254,-0.001541053643450141
5.12007212638855,-0.057554155588150024,-0.09944522380828857,0.01834237575531006,-0.6731635818096922,-0.5373182201922777,2.9480719836192515,-0.40017905831336975,0.6234625577926636,-0.6716779470443726,-0.25494369864463806,0.24816133081912994,-0.1409328579902649
5.140077114105225,-0.08213919401168823,-0.07304692268371582,-0.0023236870765686035,-0.6761719603457169,-0.5380659481767586,2.939487203463554,-0.39971816539764404,0.6258118152618408,-0.6697649359703064,-0.3214275538921356,0.22026747465133667,-0.2702748775482178
5.159647226333618,-0.08784407377243042,-0.012894153594970703,-0.034932494163513184,-0.6787340143112507,-0.5404204171869108,2.9286295986831448,-0.40046775341033936,0.627808153629303,-0.6674448251724243,-0.34275418519973755,0.22884000837802887,-0.3159375488758087
5.180073976516724,-0.05743962526321411,0.017013490200042725,-0.0391080379486084,-0.6814613390405896,-0.5431357392370534,2.9170419496954563,-0.4013921618461609,0.6299286484718323,-0.6648866534233093,-0.3501705825328827,0.2267836034297943,-0.29560455679893494
5.2001800537109375,-0.022142410278320312,0.024215996265411377,-0.050125837326049805,-0.684411475241006,-0.5450990964384305,2.9070083630322863,-0.4017314910888672,0.6322171092033386,-0.6625053882598877,-0.29172733426094055,0.19964218139648438,-0.22454798221588135
5.220213174819946,0.008739709854125977,0.020310938358306885,-0.06412714719772339,-0.6869925058457399,-0.5467716811066858,2.8990637079871036,-0.40198925137519836,0.6342148184776306,-0.6604363918304443,-0.25129619240760803,0.1294456124305725,-0.1722160428762436
5.2400782108306885,0.038819730281829834,-0.00328671932220459,-0.061870276927948,-0.6894520705187643,-0.5488462922352142,2.8924132272967595,-0.4025435149669647,0.6361144781112671,-0.6582682728767395,-0.24170789122581482,0.09788066148757935,-0.13333161175251007
5.260250091552734,0.07809117436408997,-0.03418934345245361,-0.05276590585708618,-0.6925455832662539,-0.5504064465676978,2.8865441982465456,-0.40253883600234985,0.6384983658790588,-0.6559590101242065,-0.2615901231765747,0.12757578492164612,-0.088028185069561
5.2801291942596436,0.10751405358314514,-0.04642212390899658,-0.05586981773376465,-0.6963322895302627,-0.5501805882990523,2.881930392220522,-0.40112367272377014,0.6414081454277039,-0.6539842486381531,-0.2469826489686966,0.19173240661621094,-0.022545944899320602
5.299432992935181,0.117333322763443,-0.0623089075088501,-0.06674468517303467,-0.7006990371887478,-0.5486061775262995,2.87755459318112,-0.3986290991306305,0.6447522044181824,-0.6522189378738403,-0.32730984687805176,0.24698181450366974,-0.06290464103221893
5.320131063461304,0.1300058662891388,-0.11295270919799805,-0.07393550872802734,-0.706080904649182,-0.547513266507578,2.8713379733050357,-0.3961039185523987,0.6488566994667053,-0.6496819853782654,-0.34952354431152344,0.2653292417526245,-0.0336654968559742
5.340095043182373,0.1263364851474762,-0.09812980890274048,-0.08379918336868286,-0.7119625435877377,-0.5453468803115862,2.8663782803707223,-0.3927091360092163,0.653320848941803,-0.6472645998001099,-0.3457779884338379,0.2822209596633911,-0.001011919928714633
5.360172986984253,0.10495933890342712,-0.11309266090393066,-0.09471011161804199,-0.7179966858730237,-0.5430145683138095,2.8612909079771196,-0.389154314994812,0.6578772664070129,-0.644791841506958,-0.3731161952018738,0.2858811914920807,-0.021291272714734077
5.380032062530518,0.08827820420265198,-0.10367107391357422,-0.11856234073638916,-0.7233284456756697,-0.5409930964118704,2.8554306057153975,-0.386038213968277,0.6618833541870117,-0.6425613164901733,-0.2785215973854065,0.316940039396286,-0.10404101014137268
5.4000630378723145,0.05589163303375244,-0.07113045454025269,-0.1356956958770752,-0.7251705144981332,-0.538823085781174,2.847907187737358,-0.38401666283607483,0.6632630825042725,-0.642349898815155,-0.21404491364955902,0.3886772692203522,-0.26827216148376465
5.420075178146362,0.056614309549331665,-0.085968017578125,-0.11686575412750244,-0.7264638289245339,-0.5377349318608621,2.8374005759484793,-0.38287776708602905,0.6642304062843323,-0.6420301198959351,-0.31215745210647583,0.4084721803665161,-0.3243120312690735
5.440072059631348,0.06284463405609131,-0.07266736030578613,-0.10787135362625122,-0.7291681220367174,-0.5373466476186988,2.824889340780951,-0.3817075788974762,0.6662495136260986,-0.640633225440979,-0.3917733430862427,0.4620796740055084,-0.3306661546230316
5.460073232650757,0.05520445108413696,-0.05749249458312988,-0.11626541614532471,-0.7327239466167893,-0.5367235682521149,2.8117938801572198,-0.38009461760520935,0.6688969731330872,-0.6388309597969055,-0.4200974404811859,0.4694419801235199,-0.3241117000579834
5.480075120925903,0.07038497924804688,-0.06777167320251465,-0.10982322692871094,-0.7369121516191981,-0.536387189625705,2.798538984102699,-0.37844470143318176,0.6720044016838074,-0.6365451216697693,-0.4419577121734619,0.44841453433036804,-0.31272780895233154
5.5000832080841064,0.07390221953392029,-0.0681191086769104,-0.1162114143371582,-0.7409947959304062,-0.5363774449096346,2.785752511349314,-0.3770333528518677,0.6750221848487854,-0.6341853141784668,-0.37977471947669983,0.41350245475769043,-0.291028767824173
5.520071029663086,0.09359520673751831,-0.05876362323760986,-0.10752654075622559,-0.7438707518498636,-0.5361052910883939,2.774859027176552,-0.3758675158023834,0.6771413087844849,-0.6326162219047546,-0.28519880771636963,0.3462023138999939,-0.254223495721817
5.540072202682495,0.10518425703048706,-0.06880825757980347,-0.0992661714553833,-0.7455991465744823,-0.5360501779975185,2.766247365223194,-0.37523433566093445,0.678412139415741,-0.6316297650337219,-0.17920075356960297,0.24535880982875824,-0.20722493529319763
5.560075998306274,0.11270469427108765,-0.0606345534324646,-0.10735958814620972,-0.7455851849996233,-0.5359666283314554,2.760661076625341,-0.37518641352653503,0.6784018278121948,-0.631669282913208,-0.02085571549832821,0.14415264129638672,-0.15231557190418243
5.580075979232788,0.11001315712928772,-0.04982692003250122,-0.12200415134429932,-0.7436286978272721,-0.5355382739185496,2.7578174721239077,-0.3755924105644226,0.6769631505012512,-0.6329702138900757,0.06014227867126465,0.10060791671276093,-0.14303869009017944
5.600074052810669,0.11290431022644043,-0.05845373868942261,-0.11994349956512451,-0.741213372195277,-0.5352944882276948,2.7553453833268478,-0.37627100944519043,0.6751834750175476,-0.6344662308692932,0.04507962614297867,0.10184619575738907,-0.13675445318222046
5.620084047317505,0.10813513398170471,-0.05537372827529907,-0.12492102384567261,-0.7398107544596636,-0.5350737697717572,2.751861314091656,-0.3766135275363922,0.6741481423377991,-0.6353633403778076,-0.0799831971526146,0.1666693091392517,-0.16639547049999237
5.640082120895386,0.1152489185333252,-0.0615425705909729,-0.12546062469482422,-0.7418016682679249,-0.5359910045329978,2.744586050822577,-0.37650996446609497,0.6756172776222229,-0.6338624358177185,-0.37040257453918457,0.22882874310016632,-0.17931750416755676
5.66007399559021,0.13512903451919556,-0.053475260734558105,-0.16287249326705933,-0.747514573066363,-0.5368730987152442,2.73526446140226,-0.37508875131607056,0.6798180937767029,-0.6302030682563782,-0.4304984509944916,0.3270697295665741,-0.11493516713380814
5.680077075958252,0.14683857560157776,-0.02758467197418213,-0.21600341796875,-0.7532772876177638,-0.5345650213559079,2.7277950218994875,-0.37163108587265015,0.6840330362319946,-0.627685546875,-0.3057171404361725,0.4122430384159088,-0.06559067964553833
5.7001121044158936,0.16454413533210754,-0.06246984004974365,-0.2805098295211792,-0.755774353264671,-0.5288596313154688,2.7242000700388576,-0.36718088388442993,0.6858524084091187,-0.6283189058303833,-0.05747541785240173,0.35306254029273987,-0.017301537096500397
5.720079183578491,0.1376124620437622,-0.07297730445861816,-0.2789304256439209,-0.7566893446362528,-0.5230061199550411,2.726327818932432,-0.3631831705570221,0.6865180134773254,-0.6299135684967041,0.02200598455965519,0.09127229452133179,0.19955918192863464
5.740073919296265,0.06008416414260864,-0.01821768283843994,-0.24323254823684692,-0.7590900963783315,-0.5186444326342993,2.733074665971057,-0.35961419343948364,0.6882616281509399,-0.6300584077835083,0.07693257927894592,-0.05363260954618454,0.3354201912879944
5.760073900222778,-0.04449698328971863,0.18632227182388306,-0.2457362413406372,-0.7557777327964734,-0.5091156424033412,2.7456040676929128,-0.35470348596572876,0.6858548521995544,-0.6354435682296753,0.7223873138427734,0.22615216672420502,0.2021869421005249
5.7800750732421875,-0.11949646472930908,0.3128237724304199,-0.1844087839126587,-0.7418539931241295,-0.49471483561762547,2.757201420937883,-0.3500164747238159,0.6756558418273926,-0.648827850818634,0.7947750091552734,0.3875214457511902,0.027430351823568344
5.800074100494385,-0.02958407998085022,0.15165752172470093,-0.026560306549072266,-0.732829475889066,-0.480926866274867,2.7660684531403876,-0.3438442647457123,0.6689754128456116,-0.6589712500572205,0.2541573643684387,0.335726261138916,0.1108066737651825
5.820074081420898,-0.009761512279510498,0.08369225263595581,0.09251523017883301,-0.7334285640361224,-0.4721487911579962,2.7714117608541846,-0.3378642499446869,0.669420599937439,-0.661607027053833,-0.05419204384088516,0.1716402769088745,0.23327139019966125
5.840135097503662,-0.011946946382522583,0.08949935436248779,0.12726503610610962,-0.7370376642395896,-0.4692107202665576,2.774790170786315,-0.3348242938518524,0.672097384929657,-0.6604376435279846,-0.12754292786121368,-0.10733507573604584,0.20045897364616394
5.860112905502319,0.027108311653137207,0.06740987300872803,0.12089705467224121,-0.7403532704074854,-0.4706639445591083,2.7801523112421345,-0.3347713053226471,0.6745487451553345,-0.6579606533050537,0.06310074031352997,-0.40028706192970276,0.30320096015930176
5.880075216293335,0.0352933406829834,0.09471994638442993,0.09127354621887207,-0.7389117069868517,-0.4727155003088638,2.792363347762355,-0.3365628719329834,0.6734838485717773,-0.6581375598907471,0.45395389199256897,-0.6282265782356262,0.4229869842529297
5.9001219272613525,0.030202776193618774,0.08309930562973022,0.10547846555709839,-0.7335693580407904,-0.47570207022494615,2.8095064399108085,-0.3401698172092438,0.669525146484375,-0.6603184938430786,0.5551425814628601,-0.8118025064468384,0.47848746180534363
5.920078992843628,0.051907122135162354,0.038747310638427734,0.12335145473480225,-0.7291135136638581,-0.4807283777246384,2.8279980999610794,-0.34486061334609985,0.666208803653717,-0.6612390279769897,0.47776922583580017,-0.9243874549865723,0.5457350015640259
5.940110921859741,0.0648277997970581,0.03678405284881592,0.11195534467697144,-0.7262661804310062,-0.48682337204838244,2.8475641528909588,-0.3497704267501831,0.6640826463699341,-0.6607986688613892,0.47147035598754883,-0.9894863963127136,0.6173086762428284
5.960078001022339,0.07904985547065735,0.010102033615112305,0.10076820850372314,-0.7238530330931862,-0.4926618660537854,2.8688124063426934,-0.35437947511672974,0.6622765064239502,-0.6601554155349731,0.47462549805641174,-0.9977951049804688,0.6638458371162415
5.98009991645813,0.10389938950538635,-0.04488164186477661,0.12371277809143066,-0.7224571214261941,-0.4982085028646284,2.890275035762269,-0.35847702622413635,0.6612299680709839,-0.6589910387992859,0.39809247851371765,-0.9818247556686401,0.6933788061141968
6.000076055526733,0.13422533869743347,-0.09709489345550537,0.15534156560897827,-0.7237972023221745,-0.5042740123877809,2.910772696485097,-0.36203905940055847,0.6622346639633179,-0.6560282111167908,0.22204485535621643,-0.9835290908813477,0.7187838554382324
6.019579172134399,0.1485130488872528,-0.12245762348175049,0.1676202416419983,-0.7274109056665778,-0.511528989381838,2.929954819605383,-0.3656150996685028,0.6649380922317505,-0.6512933373451233,0.19047346711158752,-1.0128670930862427,0.7097063660621643
6.0400731563568115,0.13746631145477295,-0.0949663519859314,0.16170275211334229,-0.7294830713539765,-0.5184265957043328,2.9502171931805368,-0.3694152235984802,0.6664843559265137,-0.64755779504776,0.3779771327972412,-1.0312323570251465,0.7073265910148621
6.0601420402526855,0.12365520000457764,-0.07679742574691772,0.174058198928833,-0.7288134924136022,-0.5242858206636636,2.9724713061662045,-0.37342631816864014,0.6659849882125854,-0.6457683444023132,0.4803029000759125,-1.0409412384033203,0.6983039379119873
6.080200910568237,0.1075783371925354,-0.08828294277191162,0.19033628702163696,-0.7280511781335155,-0.5313069789157945,2.9931921961895593,-0.3782082498073578,0.6654161810874939,-0.6435680985450745,0.3438498377799988,-1.040951132774353,0.5962578654289246
6.100175142288208,0.07968342304229736,-0.07883208990097046,0.1951351761817932,-0.7298642275845407,-0.5416925225836808,3.0080934406552244,-0.38424888253211975,0.6667684316635132,-0.6385707855224609,0.0641738548874855,-1.003488302230835,0.45318397879600525
6.120126962661743,0.0630095899105072,-0.06825065612792969,0.14763587713241577,-0.73519089324193,-0.5560803561149767,3.015772795892515,-0.39151614904403687,0.6707287430763245,-0.6299509406089783,-0.20746514201164246,-0.9486231207847595,0.30211973190307617
6.140122175216675,0.029675275087356567,-0.02327871322631836,0.06708890199661255,-0.742243386087122,-0.5730077461116101,3.017674939586441,-0.39954835176467896,0.6759428977966309,-0.6192433834075928,-0.2802220284938812,-0.852446973323822,0.20197539031505585
6.160098075866699,0.004193156957626343,0.040925443172454834,-0.011151731014251709,-0.7468354714272293,-0.587541805460307,3.0190096678629432,-0.40678104758262634,0.6793199181556702,-0.610781192779541,-0.03008672222495079,-0.6873776912689209,0.14301928877830505
6.18003511428833,-0.011088639497756958,0.08983314037322998,-0.04084038734436035,-0.7473093525246259,-0.5969737931484703,3.0225687823980345,-0.41234272718429565,0.679667592048645,-0.6066510081291199,0.10071656107902527,-0.5093039274215698,0.09724432229995728
6.20002818107605,-0.022725790739059448,0.05260509252548218,-0.060819804668426514,-0.7472214635341953,-0.6044663890995485,3.024454989287684,-0.41691043972969055,0.679603099822998,-0.6035935878753662,-0.03525983542203903,-0.372836709022522,0.004535476677119732
6.2200469970703125,-0.043705642223358154,0.05441206693649292,-0.09245431423187256,-0.748274101145034,-0.6119944426501688,3.0221359600407416,-0.42103129625320435,0.6803749203681946,-0.5998522043228149,-0.13635912537574768,-0.21074047684669495,-0.09118963778018951
6.240035057067871,-0.09877118468284607,0.09400522708892822,-0.12007546424865723,-0.7490077342681524,-0.6183987205913594,3.0159506915052003,-0.42457476258277893,0.6809123754501343,-0.5967366695404053,-0.20084799826145172,-0.01093681063503027,-0.23196761310100555
6.2600390911102295,-0.10511550307273865,0.1032455563545227,-0.12189888954162598,-0.750413484043477,-0.6241101764818139,3.005057582719667,-0.42741629481315613,0.6819412708282471,-0.593524694442749,-0.39186540246009827,0.17935572564601898,-0.3266383409500122
6.280078172683716,-0.0756044089794159,0.09066641330718994,-0.1307743787765503,-0.7540368596788236,-0.6298190563892714,2.9894822101666274,-0.4293394684791565,0.6845869421958923,-0.5890742540359497,-0.5376276969909668,0.29634201526641846,-0.38356828689575195
6.300126075744629,-0.10535719990730286,0.1528613567352295,-0.18313652276992798,-0.7571812292263286,-0.6353732094425726,2.971878247483646,-0.43132495880126953,0.686875581741333,-0.5849450826644897,-0.4520741403102875,0.35665175318717957,-0.4793965220451355
6.320043087005615,-0.13818144798278809,0.21495115756988525,-0.21874696016311646,-0.7573888180758579,-0.6397211666750372,2.9540408512507224,-0.4337790906429291,0.6870264410972595,-0.5829498171806335,-0.37673136591911316,0.44339269399642944,-0.5323891043663025
6.340040922164917,-0.10342946648597717,0.2213413119316101,-0.2251407504081726,-0.7583596023263053,-0.6412313885116733,2.936292450346895,-0.4342597424983978,0.6877315044403076,-0.5817592144012451,-0.4841965138912201,0.6540693044662476,-0.4149092435836792
6.3600709438323975,-0.03941088914871216,0.16634076833724976,-0.19533097743988037,-0.7634905893833439,-0.6351889292113113,2.9214564938121157,-0.4286372661590576,0.691447377204895,-0.5815244913101196,-0.5453742146492004,0.9739977121353149,-0.13483640551567078
6.380127191543579,-0.01673203706741333,0.06463313102722168,-0.16269195079803467,-0.7703674696344353,-0.6174961723118509,2.91454230557657,-0.41551893949508667,0.6963989734649658,-0.5851260423660278,-0.3197769224643707,1.2562603950500488,0.08296862244606018
6.400074005126953,-0.03970372676849365,-0.06693732738494873,-0.07380169630050659,-0.7750899143613459,-0.5917305503932989,2.912831653826035,-0.39846763014793396,0.699780285358429,-0.5929005146026611,-0.15335381031036377,1.416907548904419,0.07971840351819992
6.42007303237915,-0.09500345587730408,-0.17243772745132446,-0.005855858325958252,-0.7772940603005292,-0.5634272330177287,2.9113636331033677,-0.3807045817375183,0.701353132724762,-0.6026341319084167,-0.12751075625419617,1.5290666818618774,-0.08030592650175095
6.440078973770142,-0.1817718744277954,-0.17805343866348267,0.06161093711853027,-0.7781513699211223,-0.5365020113166558,2.9041120037712336,-0.364035040140152,0.7019640207290649,-0.6121479868888855,-0.24168305099010468,1.6745682954788208,-0.3064258396625519
6.46007513999939,-0.20047485828399658,-0.15740966796875,0.10928475856781006,-0.7807704471521989,-0.5124785444446746,2.8889839571124964,-0.3483227789402008,0.703826904296875,-0.6191114187240601,-0.5350860953330994,1.7780691385269165,-0.49162909388542175
6.480074167251587,-0.18757808208465576,-0.12870395183563232,0.10540962219238281,-0.7865164491839248,-0.49262247609342735,2.866831871186127,-0.33404362201690674,0.7078970670700073,-0.6223316192626953,-0.6873191595077515,1.7561109066009521,-0.6027758717536926
6.500227212905884,-0.14411470293998718,-0.08256757259368896,0.0696570873260498,-0.7917888270069949,-0.4759690579176914,2.842904007405294,-0.3219192326068878,0.7116112112998962,-0.6244819164276123,-0.5394399166107178,1.599840760231018,-0.6338199377059937
6.520113229751587,-0.09810450673103333,-0.0686948299407959,0.054839253425598145,-0.7941118661089648,-0.46188839373223245,2.8209601857757383,-0.31235694885253906,0.7132413983345032,-0.6274710893630981,-0.3881009519100189,1.368688702583313,-0.6399327516555786
6.540096044540405,-0.04108169674873352,-0.09201115369796753,0.05792129039764404,-0.7945268543169844,-0.45134993170717197,2.8009172593441574,-0.3055979907512665,0.7135322093963623,-0.6304615139961243,-0.26830950379371643,1.1275286674499512,-0.5933010578155518
6.560075998306274,0.0006581246852874756,-0.07933342456817627,0.06805598735809326,-0.7940728602782147,-0.44324241088724425,2.7836372797327154,-0.30061542987823486,0.7132140398025513,-0.6332110166549683,-0.23592399060726166,0.923219621181488,-0.527484118938446
6.580075025558472,0.034110456705093384,-0.10508191585540771,0.08327031135559082,-0.7946053294888378,-0.4382094897766666,2.767744951675228,-0.29726356267929077,0.7135871648788452,-0.6343719959259033,-0.29936447739601135,0.7192838191986084,-0.46045342087745667
6.600074052810669,0.07163840532302856,-0.11992359161376953,0.0882110595703125,-0.7968222160174064,-0.43672668563348177,2.7528643391355514,-0.29565274715423584,0.7151384949684143,-0.6333770751953125,-0.3384844660758972,0.49464675784111023,-0.3938906490802765
6.620081186294556,0.09998738765716553,-0.11984437704086304,0.08241266012191772,-0.7995504743234936,-0.4386368518822591,2.739762839017037,-0.29603227972984314,0.7170428037643433,-0.6310424208641052,-0.2752314507961273,0.2497967779636383,-0.3245299458503723
6.640081167221069,0.12935948371887207,-0.11047154664993286,0.06391632556915283,-0.8008154197466212,-0.44317390055962336,2.7300007776198423,-0.29850316047668457,0.7179239392280579,-0.6288729906082153,-0.1259591430425644,-0.00353002711199224,-0.23430365324020386
6.660063982009888,0.14914357662200928,-0.10518616437911987,0.04962337017059326,-0.8000620746212,-0.4493503680079957,2.724737271426764,-0.30261650681495667,0.7173993587493896,-0.6275042295455933,0.02937532588839531,-0.23363752663135529,-0.1319359987974167
6.6800360679626465,0.16295155882835388,-0.09099709987640381,0.03284871578216553,-0.7977235855132921,-0.45630527230488116,2.724081354810311,-0.30771172046661377,0.7157682180404663,-0.626888632774353,0.15308459103107452,-0.41424235701560974,-0.01680200733244419
6.700021028518677,0.17382699251174927,-0.08317095041275024,0.015950500965118408,-0.7943231295131691,-0.46363318536211745,2.727507077655501,-0.3133838474750519,0.7133894562721252,-0.6267903447151184,0.24822098016738892,-0.5605794787406921,0.08485718816518784
6.720048189163208,0.1779000163078308,-0.07865273952484131,-0.0023325085639953613,-0.7903659452826267,-0.4703939497900946,2.7347436096762907,-0.3188912570476532,0.7106108069419861,-0.6271688342094421,0.3290865123271942,-0.6293182969093323,0.19381459057331085
6.74011492729187,0.17819929122924805,-0.07114773988723755,-0.016487538814544678,-0.7862571615014244,-0.4753202501507314,2.7457532920199603,-0.32331040501594543,0.7077139019966125,-0.6281810402870178,0.3945446312427521,-0.6415959000587463,0.3074282705783844
6.760094881057739,0.17928984761238098,-0.052419304847717285,-0.0388147234916687,-0.7820460802744662,-0.4781106468100972,2.7599553451585073,-0.32643038034439087,0.7047325372695923,-0.6299169659614563,0.43413832783699036,-0.6323140859603882,0.40250664949417114
6.780077219009399,0.16741397976875305,-0.0418737530708313,-0.052522480487823486,-0.7784154756075072,-0.47889989285362894,2.7764189542712026,-0.32810431718826294,0.7021520733833313,-0.6319257616996765,0.42293107509613037,-0.6025540828704834,0.4691089987754822
6.800109148025513,0.1595422327518463,-0.016541361808776855,-0.0864337682723999,-0.7757363768155746,-0.47823502049959166,2.7943139512693174,-0.3285486102104187,0.7002419829368591,-0.6338115930557251,0.4002942740917206,-0.590436577796936,0.5450983643531799
6.82007908821106,0.14634177088737488,0.018140673637390137,-0.13323748111724854,-0.7738801834945466,-0.4761389732625828,2.8140009771595498,-0.32781457901000977,0.6989156007766724,-0.6356528997421265,0.422973096370697,-0.5840883851051331,0.6119494438171387
6.840082883834839,0.12766578793525696,0.05836629867553711,-0.17514240741729736,-0.7712545400136288,-0.47264640830974464,2.835771385193886,-0.32642683386802673,0.6970353126525879,-0.6384256482124329,0.5283006429672241,-0.6139772534370422,0.6418395638465881
6.860080003738403,0.09619855880737305,0.15597820281982422,-0.2458849549293518,-0.7664967519709796,-0.4707455558725798,2.85860998367992,-0.3267131447792053,0.6936159729957581,-0.6419934034347534,0.6488412022590637,-0.791624903678894,0.6186702251434326
6.8801610469818115,-0.02551347017288208,0.3200458288192749,-0.37314164638519287,-0.7595857772970337,-0.46962456405090913,2.883714631036018,-0.3281547427177429,0.6886211633682251,-0.6466184258460999,0.7989718914031982,-0.7934383153915405,0.6884503960609436
6.90007209777832,-0.12120091915130615,0.4066792130470276,-0.36615192890167236,-0.7507717539000464,-0.46429244366159894,2.9121230949734387,-0.32740750908851624,0.6822032332420349,-0.6537607312202454,0.8981465101242065,-0.6117910146713257,0.7855709791183472
6.9200708866119385,-0.05478575825691223,0.32061415910720825,-0.24399471282958984,-0.7434996391797747,-0.453807602840263,2.943216872513322,-0.32270145416259766,0.6768681406974792,-0.6615990996360779,0.7154204845428467,-0.47695431113243103,0.9002148509025574
6.940071105957031,-0.054968684911727905,0.17828494310379028,-0.11465227603912354,-0.7408224314774758,-0.44581720687472703,2.969082629992757,-0.3181850016117096,0.6748950481414795,-0.6657890677452087,0.3223569989204407,-0.515559732913971,0.6961679458618164
6.960073232650757,-0.0353790819644928,0.08239918947219849,-0.029664278030395508,-0.7433888799017239,-0.44556090884589833,2.9865312254476355,-0.3172668218612671,0.6767866015434265,-0.6643053889274597,0.06043345481157303,-0.6612772941589355,0.5824015736579895
6.980115175247192,-0.004751920700073242,0.11977595090866089,-0.02540367841720581,-0.7465121989118911,-0.449526463756082,3.0019468918362113,-0.31897854804992676,0.6790826320648193,-0.6611349582672119,0.2085219919681549,-0.7644103169441223,0.6047372221946716
7.0001020431518555,-0.02322089672088623,0.17427492141723633,-0.03184711933135986,-0.7451071222442727,-0.45117434867058237,3.022587685698363,-0.32048332691192627,0.6780505776405334,-0.6614664793014526,0.5753026008605957,-0.7986053228378296,0.7116687297821045
7.01957106590271,-0.02641388773918152,0.15495502948760986,0.013677835464477539,-0.7392508701797929,-0.4483687246798042,3.0500525493828037,-0.320342093706131,0.6737344861030579,-0.6659299731254578,0.8135023713111877,-0.7691147923469543,0.8645559549331665
7.040072202682495,-0.014282852411270142,0.08289223909378052,0.09126091003417969,-0.7317132930086215,-0.44108407510542424,3.0826757692486146,-0.31764164566993713,0.6681453585624695,-0.6728191375732422,0.8870941400527954,-0.687761127948761,0.9916766881942749
7.0601420402526855,-0.00801241397857666,0.0034183263778686523,0.16016840934753418,-0.724525770224836,-0.43088054740446,3.117334311642868,-0.31275784969329834,0.6627804040908813,-0.6803709864616394,0.8619711399078369,-0.6036946773529053,1.0384105443954468
7.080082178115845,-0.012995898723602295,-0.07322293519973755,0.19795912504196167,-0.7173504398436418,-0.4193611391457707,-3.131528096588943,-0.3068283200263977,0.6573904156684875,-0.6882545351982117,0.8659583926200867,-0.5180050730705261,1.0127848386764526
7.100074052810669,-0.032710373401641846,-0.10712188482284546,0.20739668607711792,-0.7086880438958746,-0.4071329008581987,-3.098735891766324,-0.30063316226005554,0.6508382558822632,-0.6971579790115356,0.9251793622970581,-0.40290841460227966,0.905778706073761
7.120074033737183,-0.06585240364074707,-0.12055236101150513,0.22308844327926636,-0.6983068176637849,-0.39440490550953483,-3.069272489261506,-0.2943161129951477,0.6429217457771301,-0.7071277499198914,0.8807476758956909,-0.23432312905788422,0.7481268644332886
7.140101194381714,-0.06967750191688538,-0.1436508297920227,0.265617311000824,-0.6887383903593252,-0.38202609288768874,-3.0457740880647064,-0.28782063722610474,0.6355636715888977,-0.7163923978805542,0.6744382381439209,-0.037697941064834595,0.5701975226402283
7.160075902938843,-0.061878055334091187,-0.15410774946212769,0.30251312255859375,-0.6826525448336171,-0.37075505019535016,-3.029407904203058,-0.2811242938041687,0.6308533549308777,-0.7231826782226562,0.3597395122051239,0.11394120752811432,0.3682462275028229
7.180073022842407,-0.04951280355453491,-0.149541437625885,0.3107307553291321,-0.6802112900448611,-0.362342529786651,-3.020817003399434,-0.27557572722435,0.6289573311805725,-0.7269599437713623,0.13692641258239746,0.16434356570243835,0.16982640326023102
7.200105905532837,-0.042670637369155884,-0.11483711004257202,0.28660231828689575,-0.678791521675205,-0.35749722609002527,-3.0179311660417967,-0.2723623514175415,0.6278528571128845,-0.7291224598884583,0.08880551904439926,0.1258951723575592,-0.009102714248001575
7.220092058181763,-0.06905320286750793,-0.055481553077697754,0.2531137466430664,-0.6765404665616075,-0.3563407027793683,-3.0193378443747116,-0.27201125025749207,0.6260992288589478,-0.7307596206665039,0.0863673985004425,0.07794085890054703,-0.16439220309257507
7.240104913711548,-0.06465864181518555,-0.022299110889434814,0.22953832149505615,-0.6736155236620607,-0.3578662303470082,-3.0239247656317745,-0.27376604080200195,0.6238158345222473,-0.7320560216903687,0.054607510566711426,0.06385718286037445,-0.2528618276119232
7.260073900222778,-0.050748586654663086,0.0032128095626831055,0.2105923295021057,-0.6714707379479401,-0.3605088811584272,-3.030305954286837,-0.2761709690093994,0.6221380829811096,-0.7325801849365234,-0.029142288491129875,0.0719611793756485,-0.29532262682914734
7.2800891399383545,-0.05543443560600281,0.01995164155960083,0.16683995723724365,-0.6702825470763439,-0.3637327852990734,-3.038522725266698,-0.2787941098213196,0.6212074160575867,-0.7323764562606812,-0.08581270277500153,0.1181771457195282,-0.35404282808303833
7.300106048583984,-0.03688621520996094,0.007684111595153809,0.1471877098083496,-0.6695616378283225,-0.3675072944528188,-3.0486821625883076,-0.28171730041503906,0.6206423044204712,-0.7317366600036621,-0.1304267942905426,0.12242772430181503,-0.4151412844657898
7.320080041885376,-0.030471622943878174,0.00787574052810669,0.10903453826904297,-0.668850365292178,-0.37274369429451876,-3.0608034699054762,-0.2857057750225067,0.6200844645500183,-0.7306623458862305,-0.14683906733989716,0.1079791858792305,-0.5058122873306274
7.340167045593262,-0.08343827724456787,0.035717546939849854,0.05019974708557129,-0.6674772370172376,-0.38002359015118203,-3.0759802489444055,-0.291332870721817,0.6190066337585449,-0.7293531894683838,-0.1665501743555069,0.11730353534221649,-0.6603622436523438
7.360073089599609,-0.1380980908870697,0.07820093631744385,0.017337799072265625,-0.6660172009920229,-0.3891065922311159,-3.0956644026626736,-0.2982880175113678,0.6178592443466187,-0.7275123596191406,-0.31127676367759705,0.20218931138515472,-0.8175554275512695
7.380079984664917,-0.11644011735916138,0.09296637773513794,0.003428936004638672,-0.6677130818502004,-0.39852237858338746,-3.1196538497876274,-0.3047177493572235,0.6191918253898621,-0.7237048149108887,-0.567602276802063,0.3362745940685272,-0.8377733826637268
7.400074005126953,-0.05310818552970886,0.10409754514694214,-0.04606223106384277,-0.6725708634331472,-0.40679678476677067,3.138327638399031,-0.3095017075538635,0.6229990124702454,-0.7183877825737,-0.5945257544517517,0.399216890335083,-0.7860512733459473
7.420076131820679,-0.046201229095458984,0.16842138767242432,-0.16281890869140625,-0.6752163095370041,-0.4130943930070839,3.1156515038924355,-0.3133569061756134,0.6250661611557007,-0.7149124145507812,-0.32771560549736023,0.3820408284664154,-0.7604327201843262
7.439128160476685,-0.1285090446472168,0.22527986764907837,-0.26073896884918213,-0.6723795761070068,-0.41727861491526735,3.09548547080403,-0.3170628547668457,0.6228494048118591,-0.7152131199836731,-0.08513417840003967,0.49114087224006653,-0.813849151134491
7.46013617515564,-0.17674008011817932,0.23532098531723022,-0.23042625188827515,-0.6678228733282587,-0.4174692686515908,3.075023252753155,-0.31834661960601807,0.6192780137062073,-0.7177396416664124,-0.23100943863391876,0.7753126621246338,-0.8171983361244202
7.480097055435181,-0.11741000413894653,0.15184611082077026,-0.16303157806396484,-0.6696239058590165,-0.4131924556905098,3.052371730564359,-0.31482571363449097,0.620691180229187,-0.7180719375610352,-0.677060604095459,1.0598400831222534,-0.7527492046356201
7.500088930130005,-0.12940338253974915,0.06800830364227295,-0.06991946697235107,-0.680086930138973,-0.40636750795342996,3.0254482132581604,-0.30733367800712585,0.628860592842102,-0.7141991257667542,-1.0777933597564697,1.3088297843933105,-0.7672719955444336
7.520073175430298,-0.08498072624206543,-0.007534205913543701,-0.018963932991027832,-0.6961620510633098,-0.39834399955613903,2.9955221701240213,-0.29763346910476685,0.641277551651001,-0.7072322964668274,-1.3151081800460815,1.3542486429214478,-0.7490797638893127
7.540128946304321,-0.03832712769508362,-0.08530062437057495,-0.0028001070022583008,-0.7148932743517367,-0.393050090164141,2.964057513308686,-0.28923332691192627,0.6555368304252625,-0.6975783705711365,-1.2617263793945312,1.2099319696426392,-0.736285388469696
7.560074090957642,-0.02644050121307373,-0.06609749794006348,-0.02005589008331299,-0.7279909569081463,-0.3884990981129369,2.9364848542876345,-0.28277885913848877,0.6653711795806885,-0.690881609916687,-0.6815950870513916,1.0864206552505493,-0.6767032146453857
7.579743146896362,-0.036529749631881714,-0.03586578369140625,-0.0046721696853637695,-0.7297856752511152,-0.38093344537870255,2.9164317356443603,-0.2770994305610657,0.6667098999023438,-0.6918915510177612,-0.12061487138271332,1.020074725151062,-0.6493112444877625
7.600110054016113,-0.0070343017578125,-0.07876843214035034,0.07229632139205933,-0.7266918050139158,-0.3733976672355842,2.898920818727132,-0.2726288139820099,0.6644008159637451,-0.6958773136138916,-0.1383391171693802,0.9011130332946777,-0.6919659972190857
7.620081186294556,0.030416816473007202,-0.10919982194900513,0.12312501668930054,-0.7266580161578869,-0.36975733126323274,2.8787849189972117,-0.2701018750667572,0.6643755435943604,-0.6968860030174255,-0.4203881025314331,0.8034976720809937,-0.7130646705627441
7.640030145645142,0.06192299723625183,-0.10637730360031128,0.127968430519104,-0.7311385865087744,-0.3700534904570165,2.855781331966553,-0.2692289352416992,0.6677176356315613,-0.6940237283706665,-0.5827368497848511,0.6984145641326904,-0.7207407355308533
7.660124063491821,0.10435530543327332,-0.07528382539749146,0.10794448852539062,-0.7371660372483435,-0.37269770613540415,2.8327047511997785,-0.2695927321910858,0.672192394733429,-0.6895484924316406,-0.580527663230896,0.5800204873085022,-0.658488392829895
7.680073976516724,0.14202061295509338,-0.0740739107131958,0.09089529514312744,-0.7423658999149891,-0.3769052077877309,2.8116789204035966,-0.2712015211582184,0.6760331392288208,-0.6851488351821899,-0.45568031072616577,0.4204231798648834,-0.5891634821891785
7.700073003768921,0.1746215522289276,-0.0827057957649231,0.07168233394622803,-0.745407976070917,-0.3820968326812638,2.7941207622792588,-0.27398681640625,0.6782716512680054,-0.6818202137947083,-0.3176746070384979,0.25064775347709656,-0.5047668814659119
7.720080137252808,0.19563078880310059,-0.0801316499710083,0.06157219409942627,-0.7473471206186831,-0.3887652596640447,2.7794182326896704,-0.278028279542923,0.6796953082084656,-0.6787596344947815,-0.2871329188346863,0.08720626682043076,-0.419859379529953
7.74009108543396,0.21015653014183044,-0.07860082387924194,0.06288737058639526,-0.7500481686882163,-0.39722294372270855,2.7668729937972216,-0.28304773569107056,0.6816740036010742,-0.6746885180473328,-0.31200212240219116,-0.08079836517572403,-0.32659775018692017
7.760072946548462,0.22020286321640015,-0.059169888496398926,0.032287418842315674,-0.7534439907289301,-0.40707171747980686,2.7572077106058037,-0.28876057267189026,0.6841546297073364,-0.6697385907173157,-0.2617073655128479,-0.24770931899547577,-0.18697240948677063
7.780073881149292,0.22376707196235657,-0.02595144510269165,-0.026014089584350586,-0.755936526566384,-0.4168183169352232,2.752473998099481,-0.29458317160606384,0.6859704256057739,-0.6653310656547546,-0.09236546605825424,-0.39760178327560425,-0.02708398923277855
7.8000781536102295,0.22206050157546997,-0.004506886005401611,-0.06334823369979858,-0.7566205793857372,-0.4245565482581136,2.7541416568012798,-0.29952943325042725,0.6864680051803589,-0.6626039147377014,0.07063792645931244,-0.4741801917552948,0.1650332510471344
7.820103883743286,0.21661698818206787,-0.013339519500732422,-0.07145166397094727,-0.7566175180310624,-0.4288254390006892,2.761935237788365,-0.30235615372657776,0.6864657402038574,-0.6613211631774902,0.15167997777462006,-0.48100143671035767,0.35281217098236084
7.840074062347412,0.2095697522163391,-0.028557300567626953,-0.07696706056594849,-0.7572957635012115,-0.42976859378598614,2.7744541771591043,-0.3027856647968292,0.6869587898254395,-0.6606122851371765,0.1631326526403427,-0.4730350375175476,0.5017816424369812
7.860111951828003,0.19733554124832153,-0.03648102283477783,-0.09168124198913574,-0.7587306377894703,-0.42843118903806005,2.7903785158819803,-0.3014920651912689,0.6880007982254028,-0.660119354724884,0.20152287185192108,-0.49488723278045654,0.6073504686355591
7.880085229873657,0.1835624873638153,-0.041279494762420654,-0.10776835680007935,-0.7593084669102864,-0.42561594134598213,2.809574022471878,-0.2994682490825653,0.6884200572967529,-0.6606032252311707,0.3337676525115967,-0.5457150936126709,0.6833493709564209
7.90010404586792,0.15067222714424133,-0.006623744964599609,-0.13266223669052124,-0.757832616882376,-0.4218371417359264,2.83199097278151,-0.29738548398017883,0.6873488426208496,-0.662656307220459,0.469860315322876,-0.6177554130554199,0.7314901947975159
7.920075178146362,0.09220662713050842,0.03602486848831177,-0.1734541654586792,-0.7539528718510968,-0.4171843411201932,2.8568638664941943,-0.2953774034976959,0.684525728225708,-0.6664658188819885,0.6250765323638916,-0.6128156185150146,0.7661436796188354
7.940094232559204,0.042724162340164185,0.09438920021057129,-0.20222556591033936,-0.7473387138395627,-0.4114419469070246,2.883144457517187,-0.2933497726917267,0.6796891093254089,-0.6722860932350159,0.7463705539703369,-0.6191070079803467,0.7403947114944458
7.960229158401489,-0.009511440992355347,0.1956893801689148,-0.2580610513687134,-0.7406442299701528,-0.4060089338868627,2.9088444166797194,-0.29148349165916443,0.6747635006904602,-0.6780350804328918,0.556041419506073,-0.5815237164497375,0.7057567238807678
7.980078935623169,-0.06578335165977478,0.22459107637405396,-0.29772859811782837,-0.7381020926252797,-0.40369356210645135,2.9292669280099046,-0.2905856966972351,0.6728851795196533,-0.6802834868431091,0.28275489807128906,-0.5667290091514587,0.6356640458106995
8.000116109848022,-0.09228178858757019,0.28697913885116577,-0.3164994716644287,-0.7402977137436613,-0.40163749596436576,2.948207051493632,-0.2886081039905548,0.674507737159729,-0.6795179843902588,0.2599858045578003,-0.45074349641799927,0.782231867313385
8.020085096359253,-0.08973851799964905,0.28365397453308105,-0.21706503629684448,-0.7355730961764235,-0.3872424531275341,2.976582019714869,-0.27999719977378845,0.6710121631622314,-0.686545193195343,0.8581547737121582,-0.10152414441108704,0.9227995872497559
8.040076971054077,-0.002531290054321289,0.13286447525024414,-0.011245429515838623,-0.7266391908085752,-0.36924103912198664,3.004875398530332,-0.2697465717792511,0.6643614768981934,-0.6970370411872864,0.5440316796302795,-0.06642483174800873,0.5596835613250732
8.060157060623169,0.08592861890792847,-0.09125995635986328,0.13601958751678467,-0.728278116910954,-0.3668106446145426,3.0198119465398596,-0.26766082644462585,0.6655855178833008,-0.6966732144355774,-0.1326550543308258,-0.5493085384368896,0.5962734818458557
8.079586029052734,0.06281453371047974,-0.01987326145172119,0.08464735746383667,-0.7348727388466149,-0.37364395693257346,3.031992858587006,-0.27080708742141724,0.6704927682876587,-0.6907263994216919,-0.024748031049966812,-0.892980694770813,0.5011706352233887
8.100073099136353,-0.01659172773361206,0.17172151803970337,0.03666442632675171,-0.7338581394111124,-0.3813975280393625,3.0480868975203244,-0.27640753984451294,0.6697396636009216,-0.6892369985580444,0.5724097490310669,-0.967170000076294,0.6049323081970215
8.120074033737183,-0.005012780427932739,0.1858242154121399,0.04491144418716431,-0.7249710185991236,-0.38465823136196386,3.0732080488258746,-0.28087589144706726,0.6631137728691101,-0.693821907043457,0.8772135376930237,-1.0399056673049927,0.8019872307777405
8.140095949172974,-0.015868932008743286,0.16083425283432007,0.07953625917434692,-0.7151420043649951,-0.3851191654751926,3.1042657027476563,-0.2836306095123291,0.6557246446609497,-0.6996992230415344,0.9092234373092651,-1.0509371757507324,0.9937809109687805
8.160074949264526,-0.0591198205947876,0.1804870367050171,0.08468246459960938,-0.7051815060313834,-0.38202128077975056,3.140062889442501,-0.2838825285434723,0.6481720805168152,-0.7066001892089844,1.0370162725448608,-0.9752424359321594,1.1416740417480469
8.18007493019104,-0.10149583220481873,0.13823366165161133,0.11360204219818115,-0.694154402857373,-0.3748504334015472,-3.1043371149468815,-0.2814082205295563,0.639735758304596,-0.7152255177497864,1.0619336366653442,-0.8050549626350403,1.1895798444747925
8.200073957443237,-0.11912459135055542,0.04759228229522705,0.16278129816055298,-0.6838209613724915,-0.3648652571549855,-3.0664808171275766,-0.2765968441963196,0.631759524345398,-0.7241368293762207,0.9468367695808411,-0.6037455797195435,1.1590675115585327
8.220102071762085,-0.13412925601005554,-0.04088330268859863,0.21323919296264648,-0.6759200726810924,-0.35313482386626166,-3.0321897334668915,-0.26980140805244446,0.6256153583526611,-0.7319921851158142,0.7320683002471924,-0.38157862424850464,1.0386124849319458
8.240071058273315,-0.13854557275772095,-0.11841899156570435,0.2621961236000061,-0.6707159991070474,-0.34105921625931396,-3.004158762073539,-0.26202818751335144,0.6215470433235168,-0.7382550835609436,0.5025383830070496,-0.17210936546325684,0.8458969593048096
8.26007604598999,-0.11972010135650635,-0.17780554294586182,0.2963150143623352,-0.6679134009919298,-0.3302244469386241,-2.9831673730938433,-0.25457796454429626,0.6193491220474243,-0.7426955699920654,0.3137364685535431,-0.05182920768857002,0.6099119782447815
8.280078172683716,-0.10570928454399109,-0.18911492824554443,0.30836808681488037,-0.6660717810588536,-0.32196844290334586,-2.9694324221984663,-0.2487981766462326,0.6179021596908569,-0.7458528280258179,0.2361278384923935,0.019238756969571114,0.36021390557289124
8.300097227096558,-0.09094411134719849,-0.16101384162902832,0.2948782444000244,-0.6631712117260466,-0.3164327759492373,-2.9615331658537185,-0.2452223002910614,0.6156190037727356,-0.7489187717437744,0.22626130282878876,0.04656243696808815,0.14183937013149261
8.320072889328003,-0.0820135772228241,-0.12014895677566528,0.28739285469055176,-0.6603835776220064,-0.31414318177066575,-2.9593395582231214,-0.2440362572669983,0.6134198307991028,-0.7511074542999268,0.08046035468578339,0.03895245119929314,-0.06140431761741638
8.340089082717896,-0.08563041687011719,-0.07578420639038086,0.26173025369644165,-0.6593698828163332,-0.3156737704779256,-2.962914966467276,-0.2453785240650177,0.6126189231872559,-0.7513237595558167,-0.059232961386442184,0.038063932210206985,-0.2334737330675125
