timestamp,acceleration_x,acceleration_y,acceleration_z,attitude_pitch,attitude_roll,attitude_yaw,gravity_x,gravity_y,gravity_z,rotation_x,rotation_y,rotation_z
0.0,0.2075687050819397,0.2380763590335846,0.033127561211586,-0.25961152176471763,-1.3770047357361082,-1.6911316859203576,-0.9483981132507324,0.256705105304718,-0.1861274391412735,0.24207845330238342,-0.07506652921438217,-0.27116239070892334
0.020069122314453125,0.176974356174469,0.24524661898612976,0.03244650363922119,-0.25352374984161474,-1.378452332427505,-1.6891146992526154,-0.9501829743385315,0.25081661343574524,-0.18504968285560608,0.08218468725681305,-0.10505656152963638,-0.2998732030391693
0.039150238037109375,0.13533025979995728,0.26485830545425415,0.03866662085056305,-0.24777033353071054,-1.3801074411880923,-1.6901813764704856,-0.9518890976905823,0.24524299800395966,-0.18374724686145782,-0.06966589391231537,-0.030471542850136757,-0.26817312836647034
0.06000709533691406,0.11722970008850098,0.28230223059654236,0.03545135259628296,-0.24391286174404736,-1.380385770055648,-1.6935068780022993,-0.952862024307251,0.24150151014328003,-0.18365997076034546,-0.1618577241897583,0.07441101968288422,-0.15873654186725616
0.08000016212463379,0.1110122799873352,0.30738648772239685,0.017048731446266174,-0.24286066546901738,-1.379492048616292,-1.6975442185627316,-0.9529464244842529,0.24048031866550446,-0.18455970287322998,-0.18882440030574799,0.0908789411187172,-0.009103559888899326
0.10000109672546387,0.09537386894226074,0.3198646903038025,0.0028716474771499634,-0.24523867302281724,-1.3786740362973005,-1.7005068472529143,-0.9522311091423035,0.24278786778450012,-0.18522945046424866,-0.13961032032966614,0.07156108319759369,0.19340690970420837
0.1200721263885498,0.07539099454879761,0.30479055643081665,0.005748271942138672,-0.25161263954353996,-1.3771308449874005,-1.701084191551074,-0.9504062533378601,0.24896614253520966,-0.18639709055423737,-0.02070644497871399,0.10044901072978973,0.4316246509552002
0.1399860382080078,0.05097067356109619,0.2943955659866333,-0.029901742935180664,-0.26191829585056275,-1.3741895878886916,-1.6975871353314829,-0.9472872018814087,0.2589339017868042,-0.18868044018745422,0.16478082537651062,0.08441376686096191,0.633048951625824
0.1605241298675537,0.03180813789367676,0.26962873339653015,-0.05681702494621277,-0.27450083539709064,-1.3710080796895456,-1.6884522671556366,-0.943414032459259,0.27106648683547974,-0.1910315304994583,0.4801919460296631,-0.014860712923109531,0.7651553153991699
0.18026399612426758,0.00694882869720459,0.21842944622039795,-0.05263839662075043,-0.28795984966179794,-1.367411387476116,-1.6709109308442085,-0.9390624165534973,0.28399667143821716,-0.19366894662380219,0.9278247952461243,-0.10176986455917358,0.878606379032135
0.19999313354492188,-0.021105408668518066,0.17145201563835144,-0.036609336733818054,-0.29727798981909037,-1.3611817531857426,-1.6371686640651584,-0.9352086186408997,0.29291868209838867,-0.19895584881305695,2.2784507274627686,-0.2246241420507431,0.635947585105896
0.21930503845214844,-0.07905548810958862,0.17932277917861938,-0.1286175549030304,-0.29079208629267145,-1.344582535681706,-1.5666713620803925,-0.9336091876029968,0.2867111563682556,-0.2148730456829071,4.439925193786621,-0.20129787921905518,0.16432687640190125
0.23921608924865723,-0.10979944467544556,-0.09745383262634277,-0.062433987855911255,-0.26511465093449904,-1.3227224959124977,-1.466697496688382,-0.935519278049469,0.26201990246772766,-0.23695877194404602,5.169015407562256,-0.3719196021556854,-0.42619603872299194
0.26030826568603516,-0.0464511513710022,-0.41968846321105957,0.17459556460380554,-0.2315356184149418,-1.311252954844201,-1.3784481479784838,-0.9407163262367249,0.22947242856025696,-0.24979090690612793,3.7356796264648438,-0.5414419770240784,-0.5137483477592468
0.28095316886901855,-0.005532681941986084,-0.6230735778808594,0.2500694990158081,-0.21265487762250174,-1.3095677842936504,-1.327949277806106,-0.9443116784095764,0.2110557109117508,-0.2524498701095581,1.557362675666809,-0.4060491621494293,-0.05438203737139702
0.2999730110168457,-0.06803429126739502,-0.5978896021842957,0.153164803981781,-0.20918357769747234,-1.313699805806896,-1.3136924687964235,-0.9460495710372925,0.20766134560108185,-0.2487306147813797,0.0005909744650125504,-0.29684633016586304,0.01470459345728159
0.3199429512023926,-0.06896835565567017,-0.36367082595825195,0.11424101889133453,-0.21148084325803407,-1.3206149189594008,-1.3240839428356879,-0.9472821950912476,0.20990797877311707,-0.24206390976905823,-0.9703038334846497,-0.20561140775680542,-0.04763580113649368
0.33999204635620117,-0.04926019906997681,-0.21372507512569427,0.09165745973587036,-0.21571460938552783,-1.3294480216148574,-1.3486755082968942,-0.9485120177268982,0.21404552459716797,-0.23347264528274536,-1.3912079334259033,-0.16484542191028595,-0.12043175101280212
0.35997724533081055,-0.0407678484916687,-0.1106334775686264,0.0745479017496109,-0.22027485725017812,-1.3385338392899182,-1.3780663200917673,-0.949634313583374,0.2184978425502777,-0.2246181070804596,-1.5046778917312622,-0.08185741305351257,-0.10251640528440475
0.3800020217895508,-0.0508575439453125,-0.04009018838405609,0.07138249278068542,-0.2255925081936903,-1.344718411560398,-1.4096427537653131,-0.9498594999313354,0.2236838936805725,-0.21847721934318542,-1.6172281503677368,0.1351613700389862,-0.07323047518730164
0.39998507499694824,-0.0363764762878418,0.008083954453468323,0.06736792623996735,-0.23184139720597138,-1.3484216036602474,-1.4424868131237694,-0.9492802023887634,0.22977004945278168,-0.21464575827121735,-1.6451669931411743,0.25560078024864197,-0.028320476412773132
0.41997408866882324,-0.01160341501235962,0.05302271246910095,0.056735873222351074,-0.2387752759506798,-1.3501990324315105,-1.4748371209388542,-0.9480828642845154,0.23651282489299774,-0.21260443329811096,-1.5688549280166626,0.2935835123062134,0.008537543006241322
0.44002819061279297,-0.0004196763038635254,0.077236607670784,0.04331392049789429,-0.24550413419361689,-1.3517219617962137,-1.5046191428239182,-0.9468306303024292,0.243045374751091,-0.21080966293811798,-1.4065699577331543,0.2817668616771698,0.01533298660069704
0.4600491523742676,0.00617450475692749,0.08869893848896027,0.04518216848373413,-0.25105783756800815,-1.3527728144667175,-1.5303920188740685,-0.9457191824913025,0.24842877686023712,-0.2095193713903427,-1.1463614702224731,0.25712084770202637,-0.015691006556153297
0.47997426986694336,0.01791626214981079,0.09153905510902405,0.05025756359100342,-0.25501170557243497,-1.3530530079980305,-1.5506002111610355,-0.9448113441467285,0.25225672125816345,-0.2090405374765396,-0.846950888633728,0.22127655148506165,-0.014241264201700687
0.49997425079345703,0.029131591320037842,0.08587747812271118,0.03865934908390045,-0.2577412395769512,-1.352928538245844,-1.5640665223792913,-0.9441095590591431,0.2548970580101013,-0.20900852978229523,-0.49205663800239563,0.13073518872261047,-0.00933732371777296
0.5199799537658691,0.028440654277801514,0.08235207200050354,0.03749664127826691,-0.25889399702969706,-1.3528967409998,-1.5712838602003785,-0.9438153505325317,0.25601157546043396,-0.20897488296031952,-0.2330687940120697,0.07412926107645035,-0.027764948084950447
0.5390031337738037,0.01426011323928833,0.05611357092857361,0.024330705404281616,-0.259171310863441,-1.3521826445917922,-1.5747460118519438,-0.9435965418815613,0.2562796175479889,-0.20963340997695923,-0.1312543898820877,0.07430911064147949,-0.01378572452813387
0.5599920749664307,-0.008466064929962158,0.03583788871765137,0.012681201100349426,-0.25937316359884893,-1.351595997375303,-1.5774410621484944,-0.9434229135513306,0.25647473335266113,-0.21017567813396454,-0.14232634007930756,0.06590826064348221,-0.028606092557311058
0.5799741744995117,-0.02768772840499878,0.028001010417938232,-0.0007058084011077881,-0.2588932859431711,-1.3509018587715778,-1.5805352557271983,-0.9433969855308533,0.25601089000701904,-0.2108573466539383,-0.12676969170570374,0.09228891134262085,-0.0817376896739006
0.5999741554260254,-0.023323893547058105,0.014542609453201294,-0.027847498655319214,-0.257315232203652,-1.349907728984562,-1.5827270266525668,-0.9435796737670898,0.2544851005077362,-0.2118833065032959,-0.03469995781779289,0.05543812736868858,-0.11725302785634995
0.6200590133666992,-0.018702447414398193,0.0002980828285217285,-0.022268593311309814,-0.2547210526704302,-1.349322905057924,-1.5828130821995618,-0.9440966248512268,0.25197547674179077,-0.21257944405078888,0.08272598683834076,0.009134368970990181,-0.13983766734600067
0.6400101184844971,-0.041145503520965576,-0.022707611322402954,-0.014174193143844604,-0.25110724516346233,-1.3488472203647246,-1.5809457933571172,-0.9448773860931396,0.24847662448883057,-0.2132275402545929,0.17184512317180634,-0.006772337481379509,-0.17981940507888794
0.6599371433258057,-0.056926846504211426,-0.042929232120513916,-0.00561794638633728,-0.24618360838970635,-1.3484397376325163,-1.577406198772899,-0.9459724426269531,0.2437044233083725,-0.21387979388237,0.2717130482196808,-0.04269438609480858,-0.2268654853105545
0.6800351142883301,-0.05864745378494263,-0.053810954093933105,0.011448279023170471,-0.2402431031767868,-1.3482823056862951,-1.5719875145948974,-0.9473339319229126,0.2379387617111206,-0.21434439718723297,0.37374192476272583,-0.08034775406122208,-0.25434768199920654
0.7000269889831543,-0.06715595722198486,-0.07317180931568146,0.03670382499694824,-0.23322413096867178,-1.347939118828316,-1.565704400129,-0.9488657712936401,0.23111556470394135,-0.21503332257270813,0.3392910063266754,-0.015138569287955761,-0.3098849654197693
0.7200281620025635,-0.0919346809387207,-0.12851154804229736,0.047835350036621094,-0.22640332282896342,-1.345738835825896,-1.5639501499907125,-0.9499049186706543,0.22447408735752106,-0.2174673229455948,-0.0920671597123146,0.19557145237922668,-0.31474199891090393
0.7399749755859375,-0.09799057245254517,-0.2070312201976776,0.07716318964958191,-0.22422526510941235,-1.3423994274529516,-1.5762049305536945,-0.9496474862098694,0.2223510891199112,-0.2207484096288681,-1.2927260398864746,0.503680408000946,-0.09141813218593597
0.7599730491638184,-0.0692206621170044,-0.310880571603775,0.1476544737815857,-0.2354436259628565,-1.3411968482296488,-1.619751388502232,-0.9468926191329956,0.2332744002342224,-0.2213086187839508,-2.8731443881988525,0.5798803567886353,0.1782136857509613
0.7799811363220215,-0.06335705518722534,-0.17254403233528137,0.1363564282655716,-0.25436440907097,-1.342589076812735,-1.6804070628162582,-0.9427311420440674,0.2516303062438965,-0.2189522385597229,-3.0543158054351807,0.6619558334350586,0.27750730514526367
0.7999920845031738,-0.1220088005065918,-0.06288957595825195,0.09391351044178009,-0.2692879142695765,-1.3411793838103772,-1.7311318644570461,-0.9386600852012634,0.26604509353637695,-0.2194017916917801,-1.9436018466949463,0.7793368101119995,0.01889800652861595
0.8217892646789551,-0.11987626552581787,-0.11191272735595703,0.08391433954238892,-0.27197643503815094,-1.3335522875545718,-1.7587713580030264,-0.9362608194351196,0.26863574981689453,-0.2263856828212738,-0.8531681299209595,0.6908644437789917,-0.36563172936439514
0.839975118637085,-0.0642736554145813,-0.21973097324371338,0.15086477994918823,-0.2643803321432996,-1.3267703178512653,-1.7762590773782985,-0.936657190322876,0.2613111734390259,-0.23321643471717834,-0.7387872338294983,0.46173158288002014,-0.7797299027442932
0.8599410057067871,-0.03984487056732178,-0.3194614052772522,0.18157249689102173,-0.2505253537959672,-1.3253156426174668,-1.7983814797139672,-0.9397388696670532,0.2479129433631897,-0.23543602228164673,-1.0165550708770752,0.2605428099632263,-1.0120813846588135
0.8799819946289062,-0.03703433275222778,-0.33145928382873535,0.1928998827934265,-0.23780819927883826,-1.3280277066340616,-1.8255668266606784,-0.9433581233024597,0.23557308316230774,-0.23362557590007782,-1.2290377616882324,0.15405391156673431,-0.8158772587776184
0.9000611305236816,-0.07382071018218994,-0.2698152959346771,0.16340696811676025,-0.2297003852219047,-1.3321491995956263,-1.854594128283579,-0.9461377859115601,0.22768579423427582,-0.23017950356006622,-1.308945655822754,0.11132163554430008,-0.6941452026367188
0.9200630187988281,-0.09891307353973389,-0.1810983270406723,0.1332210898399353,-0.221588321643961,-1.3367566854603192,-1.8844124742573574,-0.9489537477493286,0.2197793871164322,-0.2262386679649353,-1.3238450288772583,0.10354520380496979,-0.7829712629318237
0.9400172233581543,-0.10042887926101685,-0.11021067202091217,0.09706217050552368,-0.21165622645831472,-1.3408004006374352,-1.9135065540676268,-0.9519392848014832,0.21007944643497467,-0.22288617491722107,-1.216677188873291,0.13570669293403625,-0.8279498219490051
0.9599251747131348,-0.06790971755981445,-0.06442947685718536,0.08970023691654205,-0.20105035718154823,-1.3428940407608163,-1.9412187569549815,-0.9545206427574158,0.19969864189624786,-0.22138361632823944,-1.239158034324646,0.21115590631961823,-0.8144417405128479
0.9799270629882812,-0.0036222338676452637,-0.05182367563247681,0.09154248237609863,-0.19155814311710273,-1.3447553986908565,-1.971366998742575,-0.9567354917526245,0.1903887689113617,-0.22002150118350983,-1.4404182434082031,0.17835108935832977,-0.7696313261985779
1.0000052452087402,0.02888244390487671,-0.018774494528770447,0.08494424819946289,-0.18421280403373522,-1.3480759205105728,-2.005084801361462,-0.9587988257408142,0.18317271769046783,-0.21714645624160767,-1.6157443523406982,0.12863892316818237,-0.6841450333595276
1.0199921131134033,0.02414149045944214,0.04474259912967682,0.06917726993560791,-0.17849375926110134,-1.351639448004357,-2.040786012418031,-0.9605733752250671,0.17754746973514557,-0.21395264565944672,-1.6810494661331177,0.16563095152378082,-0.6571000218391418
1.0399622917175293,0.039130330085754395,0.09716546535491943,0.05645956099033356,-0.17268875305827674,-1.3546838630998133,-2.077035162002569,-0.9622107744216919,0.17183172702789307,-0.21124471724033356,-1.6800174713134766,0.15312278270721436,-0.6742938756942749
1.0599851608276367,0.060141801834106445,0.1302327960729599,0.025875508785247803,-0.16700548040263846,-1.3582131527193386,-2.1123185665750293,-0.9638893604278564,0.166230246424675,-0.2080501765012741,-1.5961045026779175,0.10552393645048141,-0.6099576354026794
1.0799732208251953,0.07283681631088257,0.1527528017759323,-0.0015363693237304688,-0.16221242385249268,-1.3615862416805435,-2.145154378445155,-0.9653539061546326,0.16150197386741638,-0.20496083796024323,-1.487786054611206,0.0955410748720169,-0.5427330732345581
1.1000242233276367,0.09018158912658691,0.17675746977329254,-0.027534127235412598,-0.1575266581494644,-1.3654060091567997,-2.1752713403527513,-0.9668599963188171,0.15687596797943115,-0.20142406225204468,-1.3055157661437988,-0.017887482419610023,-0.5207411050796509
1.120002269744873,0.11108756065368652,0.19825606048107147,-0.052247583866119385,-0.15320318142717035,-1.3706324137002626,-2.200637413756793,-0.9685552716255188,0.1526045799255371,-0.19650116562843323,-1.0712814331054688,-0.08450406044721603,-0.40327146649360657
1.1399750709533691,0.11741787195205688,0.19398993253707886,-0.07057720422744751,-0.15014044565643656,-1.3756732242592657,-2.221260832118076,-0.9699874520301819,0.14957700669765472,-0.1917061060667038,-0.8897746801376343,-0.10718167573213577,-0.29867351055145264
1.1599740982055664,0.1162949800491333,0.1870628148317337,-0.11226946115493774,-0.14855071288002603,-1.380850291150707,-2.2384240829396256,-0.9711991548538208,0.14800496399402618,-0.18672652542591095,-0.7422279119491577,-0.1544542908668518,-0.17916163802146912
1.1800000667572021,0.09812414646148682,0.17731323838233948,-0.14965258538722992,-0.14884305085916955,-1.3861489065681754,-2.252017948420949,-0.9721322655677795,0.14829407632350922,-0.18156994879245758,-0.5976037383079529,-0.15852093696594238,-0.04651988297700882
1.2000021934509277,0.0826910138130188,0.1514749377965927,-0.14763061702251434,-0.15113222635576992,-1.3899375224491406,-2.2638031036663393,-0.9724767208099365,0.15055754780769348,-0.17782409489154816,-0.6140515208244324,-0.0435766875743866,0.05840842053294182
1.2199831008911133,0.08947652578353882,0.11121179163455963,-0.1721271127462387,-0.1555586446221282,-1.3915142466760995,-2.276346826828906,-0.9720906019210815,0.15493202209472656,-0.1761699616909027,-0.6785134673118591,0.07602827250957489,0.159258171916008
1.2400622367858887,0.10089850425720215,0.09368675947189331,-0.23300808668136597,-0.16154688480256063,-1.3915589070321035,-2.287178849220587,-0.9711682796478271,0.16084514558315277,-0.17595802247524261,-0.4170064330101013,0.06962762773036957,0.22824929654598236
1.259977102279663,0.09481287002563477,0.08177123963832855,-0.2611613869667053,-0.16683491700877517,-1.391290917121086,-2.2891835514050265,-0.9702706336975098,0.16606204211711884,-0.17606395483016968,0.130782812833786,-0.015671290457248688,0.24959586560726166
1.2799980640411377,0.07958000898361206,0.04947380721569061,-0.25811469554901123,-0.1696617558123655,-1.39139776150729,-2.280466620165438,-0.9698234796524048,0.16884897649288177,-0.17587578296661377,0.6617649793624878,-0.13279391825199127,0.17381501197814941
1.3001151084899902,0.05360555648803711,-0.0002034008502960205,-0.25564831495285034,-0.16925379534562057,-1.3915105447532568,-2.2623910793276636,-0.9699111580848694,0.1684468537569046,-0.17577870190143585,1.078957200050354,-0.18815624713897705,0.10975807160139084
1.319979190826416,0.04631388187408447,-0.045713573694229126,-0.21529865264892578,-0.16743600477116227,-1.3914665496313203,-2.238807591800693,-0.9702030420303345,0.1666547656059265,-0.1758756935596466,1.1982570886611938,-0.19557137787342072,0.13937506079673767
1.3400671482086182,0.050956130027770996,-0.11175917088985443,-0.17446714639663696,-0.16716311213384863,-1.3911456878893231,-2.2157719656060926,-0.9701913595199585,0.166385680437088,-0.17619511485099792,0.9986124634742737,-0.1560673713684082,0.2451741099357605
1.360121250152588,0.04920858144760132,-0.14253847301006317,-0.13616858422756195,-0.1703540586318547,-1.3901981428834456,-2.198735072452226,-0.9694966077804565,0.16953130066394806,-0.17701804637908936,0.5813011527061462,-0.021428244188427925,0.3675406277179718
1.3799481391906738,0.06446385383605957,-0.1382722705602646,-0.10522501170635223,-0.1770839440517626,-1.3877770773535703,-2.1904311515565746,-0.9679213762283325,0.17615987360477448,-0.17915302515029907,0.13166463375091553,0.10540232062339783,0.429537296295166
1.39998197555542,0.10384982824325562,-0.10822193324565887,-0.10014460980892181,-0.18588979619907253,-1.3849514625240564,-2.1887272560948015,-0.9658493399620056,0.18482106924057007,-0.1815936118364334,-0.06391280144453049,0.10669341683387756,0.4640364944934845
1.4197030067443848,0.13139790296554565,-0.03808604180812836,-0.09713752567768097,-0.19416526516401317,-1.3840335211278856,-2.185665285508145,-0.9641464352607727,0.19294755160808563,-0.1821899116039276,0.3369826376438141,-0.1051926538348198,0.3773994743824005
1.4399330615997314,0.0952906608581543,0.06047384440898895,-0.12654517590999603,-0.1967905930740937,-1.3855067729627035,-2.16672291209608,-0.9639123678207397,0.19552287459373474,-0.18067531287670135,1.468833565711975,-0.3747245967388153,0.2732798755168915
1.4599862098693848,0.04458808898925781,0.12621477246284485,-0.08329325914382935,-0.19563318291825266,-1.3864905821466,-2.1275826993797815,-0.9643116593360901,0.19438767433166504,-0.17976829409599304,2.2898552417755127,-0.48646995425224304,0.29232680797576904
1.4789841175079346,-0.04413050413131714,0.10399743914604187,-0.04776133596897125,-0.1914199671437867,-1.3870456838299554,-2.0774410558247194,-0.9652079939842224,0.1902531236410141,-0.17938104271888733,2.4442129135131836,-0.48963662981987,0.23334795236587524
1.4993820190429688,-0.15049868822097778,0.005957022309303284,0.015109777450561523,-0.19067668639118918,-1.388236871491136,-2.0367366296628524,-0.9655596613883972,0.1895233541727066,-0.17825676500797272,1.5816600322723389,-0.4466918408870697,0.40869003534317017
1.5201640129089355,-0.23565655946731567,0.08023250102996826,0.030591145157814026,-0.19531416972831506,-1.3881867504554715,-2.006423904822235,-0.9646759629249573,0.19407473504543304,-0.17814362049102783,1.3865139484405518,-0.17812491953372955,0.533393919467926
1.539980173110962,-0.2851305603981018,0.2339751422405243,-0.007792666554450989,-0.19804203364094008,-1.3854667927920294,-1.974445976549506,-0.9636641144752502,0.19675001502037048,-0.1806686520576477,1.651567816734314,-0.20691430568695068,0.293434739112854
1.5599400997161865,-0.290544331073761,0.2068508267402649,0.004809081554412842,-0.19629330285422988,-1.3824627456656984,-1.9394005868581645,-0.9634535312652588,0.1950351595878601,-0.18362686038017273,1.6999090909957886,-0.13086961209774017,0.2209508866071701
1.5800740718841553,-0.22075140476226807,0.10359171032905579,0.08532071113586426,-0.1954873367942628,-1.37664031990874,-1.9084228643931604,-0.9625219106674194,0.1942446082830429,-0.18926359713077545,1.2394901514053345,0.11349210888147354,0.2876458168029785
1.6043152809143066,-0.1091809868812561,0.09773680567741394,0.08761584758758545,-0.20571299090358014,-1.36153876822681,-1.8745715051671543,-0.9575609564781189,0.20426516234874725,-0.20335377752780914,0.4440186023712158,0.2417159527540207,0.5107501149177551
1.6199359893798828,-0.1091809868812561,0.09773680567741394,0.08761584758758545,-0.20571299090358014,-1.36153876822681,-1.8745715051671543,-0.9575609564781189,0.20426516234874725,-0.20335377752780914,0.4440186023712158,0.2417159527540207,0.5107501149177551
1.6474900245666504,-0.10925537347793579,0.1261269897222519,0.13582342863082886,-0.2202696832087305,-1.3459550565558254,-1.8603923371603122,-0.9512762427330017,0.218492791056633,-0.21756480634212494,0.052760954946279526,0.3772880733013153,0.3840869665145874
1.6656310558319092,-0.009337306022644043,0.10327908396720886,0.1620800495147705,-0.22841386445950274,-1.3382147832006186,-1.8595447114088985,-0.9478007555007935,0.22643287479877472,-0.224503755569458,-0.14839273691177368,0.3662280738353729,0.43545103073120117
1.6874241828918457,0.08516740798950195,0.10482072830200195,0.16933317482471466,-0.238309887070009,-1.3323867125865019,-1.8622042702272559,-0.9442524313926697,0.23606061935424805,-0.22948330640792847,-0.341508686542511,0.25923094153404236,0.461730420589447
1.707482099533081,0.16123318672180176,0.07445855438709259,0.1679735779762268,-0.24934524419766999,-1.3303747813361102,-1.8679481739884678,-0.9412014484405518,0.2467695027589798,-0.2307482808828354,-0.43753865361213684,0.07905042171478271,0.47233912348747253
1.7283060550689697,0.20580631494522095,0.0559522807598114,0.12797436118125916,-0.25965397576090965,-1.3327294004440604,-1.8733829453091626,-0.939220130443573,0.2567461431026459,-0.22791945934295654,-0.24702343344688416,-0.19745849072933197,0.39312756061553955
1.7471070289611816,0.20500409603118896,0.1090003252029419,0.05866098403930664,-0.26566522963233397,-1.338898619704923,-1.8700706505366846,-0.9390891790390015,0.2625512182712555,-0.22176216542720795,0.4973285496234894,-0.4939691424369812,0.2744973301887512
1.767996072769165,0.1881861686706543,0.17460152506828308,0.03957226872444153,-0.2655349404440158,-1.345644435822772,-1.8503920639344282,-0.9405971765518188,0.2624255120754242,-0.21542988717556,1.3046445846557617,-0.6897600293159485,0.13368487358093262
1.787121057510376,0.1924007534980774,0.1125095784664154,0.09618514776229858,-0.26043491951481457,-1.3528673619204312,-1.8199743526968173,-0.9434231519699097,0.2575008273124695,-0.20891711115837097,1.5908222198486328,-0.817986011505127,0.029592707753181458
1.8080849647521973,0.17975318431854248,0.023108571767807007,0.13738304376602173,-0.2541864644497959,-1.3620553648304945,-1.7890807090462588,-0.9468582272529602,0.2514581084251404,-0.2005697339773178,1.4380662441253662,-0.8915168642997742,0.003988565411418676
1.8286409378051758,0.09779810905456543,0.030110925436019897,0.11192259192466736,-0.2483906494791666,-1.373741903007735,-1.7620490201408001,-0.9505509734153748,0.24584431946277618,-0.18977297842502594,1.2639639377593994,-0.9177643656730652,-0.05747654661536217
1.848865032196045,0.02154451608657837,0.10864809155464172,0.09427374601364136,-0.2408100556424917,-1.3855396954690706,-1.7376728267502908,-0.9545279145240784,0.23848938941955566,-0.17888376116752625,1.2403043508529663,-0.8662229776382446,-0.2454196661710739
1.8684360980987549,0.0029152631759643555,0.17053815722465515,0.11248493194580078,-0.22930858003826135,-1.3971782256873146,-1.710666922237905,-0.9591836333274841,0.22730425000190735,-0.16822533309459686,1.635796070098877,-0.9395896196365356,-0.39236339926719666
1.8878121376037598,-0.06453430652618408,0.24765858054161072,0.11613965034484863,-0.21425837096702824,-1.4082808802360087,-1.67068107374542,-0.9642590880393982,0.21262282133102417,-0.15810133516788483,2.6053454875946045,-1.0527935028076172,-0.4976503551006317
1.9068512916564941,-0.155789315700531,0.2544877529144287,0.13346260786056519,-0.19220434359109032,-1.4148135402835689,-1.6046344122522678,-0.969668447971344,0.1910231113433838,-0.15249033272266388,4.134673118591309,-0.9513718485832214,-0.6044679880142212
1.9278130531311035,-0.12280428409576416,0.2258031964302063,0.09861893951892853,-0.167170974745643,-1.4182442088198988,-1.5149771203385047,-0.9746077060699463,0.1663934290409088,-0.14984266459941864,4.785439491271973,-1.0387557744979858,-0.5495375990867615
1.9475140571594238,-0.015086889266967773,0.03858111798763275,0.2108609825372696,-0.14321286025609836,-1.4255708719335876,-1.4274224857372115,-0.9793435335159302,0.14272381365299225,-0.143233984708786,3.909090042114258,-0.9924148321151733,-0.5291318893432617
1.9674482345581055,0.009762108325958252,-0.16308417916297913,0.3001980781555176,-0.1261873533054118,-1.434703396367336,-1.3693684957387846,-0.982876181602478,0.12585273385047913,-0.13459448516368866,2.0112545490264893,-0.6425246596336365,-0.29975631833076477
1.9869401454925537,0.007930755615234375,-0.22431115806102753,0.2622601389884949,-0.12079919101043354,-1.4398864926300834,-1.346337652033393,-0.9842185974121094,0.12050561606884003,-0.12958498299121857,0.4469521939754486,-0.17462605237960815,0.0676775574684143
2.0091021060943604,0.02553325891494751,-0.13343235850334167,0.18756389617919922,-0.12492219506352997,-1.440646068684912,-1.3468718724461346,-0.9838157296180725,0.12459753453731537,-0.12877178192138672,-0.4711262881755829,0.06537038832902908,0.28397464752197266
2.0276081562042236,0.003489673137664795,-0.059173643589019775,0.10272657871246338,-0.1320208029837537,-1.440462286765321,-1.3608006967408275,-0.9828903675079346,0.13163763284683228,-0.12883439660072327,-0.9578437805175781,0.11824487894773483,0.2275322526693344
2.0472171306610107,-0.019984543323516846,-0.011292234063148499,0.08320818841457367,-0.13881282139594564,-1.4404832490898998,-1.3829388007247772,-0.9819839596748352,0.1383674591779709,-0.12869465351104736,-1.286794900894165,0.1924840360879898,0.15947957336902618
2.066303253173828,-0.018856167793273926,-0.0027134865522384644,0.06286530196666718,-0.1453604765813556,-1.4396790237323276,-1.4093795647819167,-0.9809608459472656,0.14484910666942596,-0.12936311960220337,-1.3716756105422974,0.24717950820922852,0.1691465675830841
2.0861141681671143,-0.001870870590209961,-0.004820287227630615,0.04435129463672638,-0.15287600222460843,-1.4388188625865037,-1.436506676968345,-0.979742169380188,0.15228122472763062,-0.13005989789962769,-1.396342396736145,0.23593422770500183,0.208511084318161
2.1063809394836426,-0.025970757007598877,-0.004368305206298828,0.033997952938079834,-0.15986404703443227,-1.4383842774102389,-1.4644091016359093,-0.9786068797111511,0.15918399393558502,-0.13034199178218842,-1.4233051538467407,0.25691184401512146,0.09633319824934006
2.1267781257629395,-0.04774487018585205,-0.008840441703796387,0.013581767678260803,-0.1642718450606677,-1.4372426624633383,-1.4930240669646657,-0.9777525067329407,0.163534015417099,-0.1313643902540207,-1.4626660346984863,0.31701672077178955,-0.022523950785398483
2.1469271183013916,-0.026323974132537842,-0.016758710145950317,0.017525747418403625,-0.1670709820119026,-1.4357201906770203,-1.5236086238890394,-0.9770939350128174,0.16629482805728912,-0.132790669798851,-1.5667189359664917,0.32532694935798645,-0.09952078014612198
2.167081117630005,-0.018730878829956055,-0.009929373860359192,0.012967586517333984,-0.16908970756301478,-1.4346382257052965,-1.5557153162812096,-0.9766151905059814,0.16828510165214539,-0.13380195200443268,-1.5825355052947998,0.33818426728248596,-0.11453689634799957
2.18595027923584,-0.02047741413116455,0.02433203160762787,0.0006672292947769165,-0.17086459007520352,-1.4329414275123458,-1.5863583720955252,-0.9760892987251282,0.17003440856933594,-0.1354176104068756,-1.3994097709655762,0.34879767894744873,-0.12337799370288849
2.2069640159606934,-0.011646628379821777,0.05744528770446777,-0.021206453442573547,-0.1713274670299163,-1.430467800671561,-1.6104832571949679,-0.9756734371185303,0.17049053311347961,-0.13782066106796265,-0.9320785999298096,0.31295737624168396,-0.15710482001304626
2.2267770767211914,0.013834893703460693,0.06124868988990784,-0.014567211270332336,-0.17016216296790748,-1.4274135179828797,-1.6240950073186633,-0.9754438996315002,0.16934217512607574,-0.14082828164100647,-0.38961079716682434,0.2290520817041397,-0.1485912948846817
2.248310089111328,0.027427613735198975,0.03086318075656891,0.001449480652809143,-0.16792292703615802,-1.4243457336280574,-1.6281826834559876,-0.9753798246383667,0.1671348512172699,-0.14387503266334534,-0.018723029643297195,0.1453193724155426,-0.12747980654239655
2.266901969909668,0.022624433040618896,-0.03970895707607269,0.030992090702056885,-0.16543201173713232,-1.4217626553786957,-1.6275623270119162,-0.9754137992858887,0.1646784543991089,-0.14645540714263916,0.14024454355239868,0.09745988249778748,-0.13737702369689941
2.2865591049194336,0.028985023498535156,-0.07060091197490692,0.0544360876083374,-0.15953361052973683,-1.4204163190534043,-1.6188575735907846,-0.9761591553688049,0.15885776281356812,-0.14791147410869598,0.6955009698867798,0.00522289564833045,-0.25249961018562317
2.306756019592285,0.049589693546295166,-0.16800923645496368,0.09829121828079224,-0.15552819041272659,-1.4178239167667286,-1.6105739327067572,-0.9763932824134827,0.15490193665027618,-0.15053729712963104,0.11190882325172424,0.07768040895462036,-0.04992988333106041
2.3268179893493652,0.0005855560302734375,-0.22422419488430023,0.0915534645318985,-0.15393911783473094,-1.4153705949909563,-1.6122865174948346,-0.9762629270553589,0.15333184599876404,-0.15297015011310577,-0.14959269762039185,0.21944233775138855,-0.13632264733314514
2.346356153488159,-0.015584945678710938,-0.12155285477638245,0.0417373925447464,-0.152832544392004,-1.4102969506378316,-1.6163344898128134,-0.975641131401062,0.15223826467990875,-0.15794838964939117,-0.24873492121696472,0.29213589429855347,-0.007628794759511948
2.3665452003479004,-0.04710030555725098,-0.07838287949562073,0.00957566499710083,-0.1533082872502163,-1.407167853072484,-1.621472026547378,-0.9750707745552063,0.15270844101905823,-0.1609887033700943,-0.244907408952713,0.14983102679252625,-0.08421284705400467
2.3860580921173096,-0.10220921039581299,0.011079981923103333,-0.004010975360870361,-0.14971120044543787,-1.405685173920752,-1.6264628626397029,-0.975366473197937,0.14915257692337036,-0.16252346336841583,-0.1933414489030838,0.08276757597923279,-0.322622150182724
2.4076919555664062,-0.11662101745605469,-0.030946940183639526,-0.012724652886390686,-0.14448626177961943,-1.4044705546046734,-1.6326347241679688,-0.9759236574172974,0.14398406445980072,-0.1638348400592804,-0.36579400300979614,0.13137328624725342,-0.2540678083896637
2.4262242317199707,-0.13878369331359863,-0.053546562790870667,-0.02599501609802246,-0.1423138417711455,-1.4029394487302587,-1.6427123117013467,-0.9759776592254639,0.14183394610881805,-0.16538074612617493,-0.6177091002464294,0.18521156907081604,-0.1420535296201706
2.4456682205200195,-0.2086164951324463,0.0070930421352386475,-0.030588269233703613,-0.14218934307583422,-1.4006754441056486,-1.6595938957177025,-0.9756181240081787,0.14171069860458374,-0.16759292781352997,-1.0459383726119995,0.270882785320282,-0.18169522285461426
2.4662222862243652,-0.26900696754455566,0.07571198046207428,-0.05629812180995941,-0.14215830974851457,-1.397514796940095,-1.684561233899201,-0.9750878810882568,0.14167998731136322,-0.17067641019821167,-1.3671808242797852,0.4276588261127472,-0.21837618947029114
2.4859189987182617,-0.20880675315856934,0.12775465846061707,-0.08471345901489258,-0.14331961485537417,-1.3912722207855337,-1.7136912854611333,-0.9738409519195557,0.14282947778701782,-0.17673063278198242,-1.474587321281433,0.6109955310821533,-0.15956233441829681
2.506010055541992,-0.043167173862457275,0.10967870056629181,-0.1256433129310608,-0.14676808281718043,-1.3822121316206282,-1.7427828411929915,-0.9717101454734802,0.14624172449111938,-0.1854528933763504,-1.3741580247879028,0.7173829078674316,-0.02725023217499256
2.525844097137451,0.10752785205841064,0.04528704285621643,-0.19321995973587036,-0.15172078101267558,-1.3701865595333882,-1.7643360712906053,-0.9686881303787231,0.15113936364650726,-0.19697783887386322,-0.7698058485984802,0.8272588849067688,0.10121189802885056
2.5447051525115967,0.21421200037002563,-0.026332169771194458,-0.1852729171514511,-0.15679563978516348,-1.3565151526431074,-1.778540597555929,-0.9651427865028381,0.15615396201610565,-0.2100365161895752,-0.8651379346847534,0.7655989527702332,0.04557288810610771
2.565906047821045,0.23991376161575317,-0.13698989152908325,-0.1335432529449463,-0.15953159943143133,-1.3449039526534106,-1.800217575311088,-0.9622190594673157,0.15885576605796814,-0.2211320698261261,-1.2452071905136108,0.7281066179275513,-0.1887379288673401
2.5846590995788574,0.24154871702194214,-0.08660900592803955,-0.11480417847633362,-0.16420446301009584,-1.3358463055377907,-1.8275145330024307,-0.9594443440437317,0.16346754133701324,-0.22966301441192627,-1.4566272497177124,0.6090904474258423,0.04411645233631134
2.6057519912719727,0.1726732850074768,-0.0005119144916534424,-0.08280354738235474,-0.17161059868822878,-1.3286412445527758,-1.8558338186107564,-0.9565630555152893,0.17076951265335083,-0.23627303540706635,-1.4255046844482422,0.5735732913017273,-0.03963105008006096
2.625547170639038,0.12373495101928711,0.06657636165618896,-0.05874711275100708,-0.1757516022412427,-1.323037347648605,-1.8833011126952752,-0.9545302391052246,0.17484821379184723,-0.24145428836345673,-1.2824759483337402,0.45343682169914246,-0.1950266808271408
2.645461082458496,0.08862602710723877,0.10804954171180725,-0.03985920548439026,-0.17668173531954165,-1.3198630228967718,-1.906680819361774,-0.9536009430885315,0.17576393485069275,-0.24444255232810974,-0.9757858514785767,0.31449463963508606,-0.27863308787345886
2.665264129638672,0.0681304931640625,0.14477340877056122,-0.03377354145050049,-0.1754614823054716,-1.3173930059823409,-1.9242885010135289,-0.9532012939453125,0.17456255853176117,-0.24685083329677582,-0.7017923593521118,0.23131631314754486,-0.2607582211494446
2.6824421882629395,0.06584107875823975,0.17663854360580444,-0.031196296215057373,-0.17373675866394825,-1.3164649788585057,-1.9383408078087752,-0.9532617330551147,0.17286404967308044,-0.24781069159507751,-0.6048665642738342,0.10024812072515488,-0.25948768854141235
2.7044081687927246,0.05327850580215454,0.1813131421804428,-0.04864168167114258,-0.17185703053777124,-1.317834960491637,-1.9505619158622345,-0.9539132714271545,0.17101231217384338,-0.2465853989124298,-0.5372619032859802,-0.010155883617699146,-0.21460500359535217
2.725399971008301,0.06181991100311279,0.15370061993598938,-0.05858469009399414,-0.17116966844186385,-1.3205298385661262,-1.9616459492019123,-0.9546878933906555,0.17033503949642181,-0.24404285848140717,-0.5019587874412537,-0.07745760679244995,-0.13728444278240204
2.745230197906494,0.07826083898544312,0.1384970247745514,-0.07719665765762329,-0.17128402046254287,-1.3242272508307587,-1.9712402211070053,-0.9555649161338806,0.1704477220773697,-0.2405066043138504,-0.3999669849872589,-0.1206711158156395,-0.09336971491575241
2.7622151374816895,0.07693058252334595,0.09053948521614075,-0.08778324723243713,-0.17159289094810307,-1.3279456692521108,-1.9790157877882735,-0.956401526927948,0.17075206339359283,-0.23693910241127014,-0.40172305703163147,-0.11743421852588654,-0.07587253302335739
2.7840261459350586,0.08133906126022339,0.04969318211078644,-0.07413184642791748,-0.17227280129702954,-1.3318611582103148,-1.988997550984585,-0.9572088122367859,0.17142194509506226,-0.2331649661064148,-0.5639469623565674,-0.10526517778635025,-0.09488796442747116
2.805169105529785,0.09811842441558838,0.0446334034204483,-0.08725947141647339,-0.173784609239734,-1.3361688836814147,-2.0008639762742955,-0.9579511880874634,0.17291118204593658,-0.22897890210151672,-0.5821813941001892,-0.12474335730075836,-0.022310981526970863
2.8212270736694336,0.10398417711257935,0.040703848004341125,-0.0862320065498352,-0.17658205197419957,-1.3407120074780419,-2.011781572083208,-0.9585068821907043,0.17566581070423126,-0.22451327741146088,-0.5286914110183716,-0.12116184830665588,0.03422946855425835
2.8431782722473145,0.10060054063796997,0.013766080141067505,-0.09303465485572815,-0.17973549247294246,-1.3446837842339636,-2.020496440590434,-0.9588462710380554,0.1787693351507187,-0.22057922184467316,-0.39042332768440247,-0.12099060416221619,0.08209596574306488
2.8647642135620117,0.1083836555480957,-0.008574947714805603,-0.07214516401290894,-0.18293340285656431,-1.3483049978550528,-2.0270213646059667,-0.9590764045715332,0.1819148063659668,-0.21697837114334106,-0.32138359546661377,-0.13277536630630493,0.0684492290019989
2.8837122917175293,0.12494540214538574,-0.060191258788108826,-0.0650796890258789,-0.1849934293619127,-1.3523856797523741,-2.0329746630029453,-0.9595859050750732,0.1839400678873062,-0.2129812240600586,-0.2845563590526581,-0.1723448783159256,0.004310361575335264
2.904919147491455,0.14389538764953613,-0.07787926495075226,-0.06223857402801514,-0.18527599152247587,-1.3573296491854185,-2.0381787884850278,-0.9605763554573059,0.18421781063079834,-0.20822346210479736,-0.23220627009868622,-0.23201797902584076,-0.0836988314986229
2.924722194671631,0.14744317531585693,-0.07324197888374329,-0.04695248603820801,-0.1839424362705701,-1.3635605631088497,-2.0435026938321874,-0.9620947241783142,0.18290691077709198,-0.202284574508667,-0.2734913229942322,-0.2919498383998871,-0.16129980981349945
2.9446401596069336,0.12390822172164917,-0.08231222629547119,-0.06492339074611664,-0.18106301181431686,-1.3707009101502114,-2.050323345659719,-0.9640266299247742,0.18007530272006989,-0.19551363587379456,-0.3319597542285919,-0.29697805643081665,-0.24716800451278687
2.962465286254883,0.14223778247833252,-0.049818381667137146,-0.08731876313686371,-0.176914753829728,-1.3779920215778738,-2.0581526912572596,-0.9661512970924377,0.17599332332611084,-0.1886211782693863,-0.32872170209884644,-0.2959038317203522,-0.30857715010643005
2.9845199584960938,0.16713058948516846,-0.022806227207183838,-0.1178101897239685,-0.1720764379201206,-1.3848491634560793,-2.065182198981414,-0.9682475328445435,0.17122848331928253,-0.1821470707654953,-0.2761896252632141,-0.2613708972930908,-0.27043384313583374
3.0016121864318848,0.18085086345672607,-0.0018292814493179321,-0.11058153212070465,-0.16856580308363253,-1.3907909349497611,-2.0718468684922597,-0.9698982238769531,0.167768657207489,-0.17649732530117035,-0.3293115198612213,-0.1995200365781784,-0.20165051519870758
3.022667169570923,0.17099487781524658,-0.0046345144510269165,-0.11044055223464966,-0.16679910497462425,-1.3952591998868566,-2.080295347049708,-0.9709674715995789,0.1660267412662506,-0.17221330106258392,-0.4701831340789795,-0.12008345127105713,-0.11220557242631912
3.044300079345703,0.1628108024597168,-0.00542113184928894,-0.12555968761444092,-0.1673802161930853,-1.3990102023176687,-2.0908594181454316,-0.9715114235877991,0.16659975051879883,-0.16855348646640778,-0.5544019937515259,-0.08839654177427292,-0.009646059945225716
3.06335711479187,0.14586925506591797,-0.0062495023012161255,-0.11724066734313965,-0.1699695738566634,-1.4025592205305077,-2.101589238403031,-0.9716749787330627,0.1691523641347885,-0.16503173112869263,-0.522156834602356,-0.07432359457015991,0.06807350367307663
3.0830631256103516,0.11308544874191284,-0.007054194808006287,-0.13004273176193237,-0.17317113865062972,-1.4049627097658477,-2.110697701531118,-0.9715297222137451,0.17230692505836487,-0.1626056283712387,-0.41963666677474976,-0.020973820239305496,0.10637189447879791
3.104104995727539,0.13930398225784302,-0.026337921619415283,-0.09776711463928223,-0.1765921383798289,-1.4060681133949908,-2.1184675452011015,-0.971121609210968,0.17567573487758636,-0.16143396496772766,-0.4103083908557892,0.04555318504571915,0.10443423688411713
3.123785972595215,0.1974431276321411,-0.06706854701042175,-0.07722361385822296,-0.18039588598353182,-1.406719090827729,-2.1276211306054456,-0.9705602526664734,0.17941905558109283,-0.16069145500659943,-0.5262824892997742,0.00509621761739254,0.11350618302822113
3.142951011657715,0.18067330121994019,-0.042266085743904114,-0.11663585901260376,-0.18405053857015663,-1.4097677604310184,-2.1366215992261552,-0.9703919291496277,0.1830131858587265,-0.15762560069561005,-0.3846672475337982,-0.1536702662706375,0.11449278891086578
3.164027214050293,0.10709947347640991,-0.007179751992225647,-0.14629560708999634,-0.18700936320769193,-1.4149425491990961,-2.1424065324948085,-0.9706554412841797,0.18592123687267303,-0.15251721441745758,-0.25708910822868347,-0.2214415967464447,0.06889405101537704
3.182990074157715,0.10657143592834473,-0.06308712065219879,-0.0992681235074997,-0.18867041024277695,-1.4195617271771435,-2.148455662055246,-0.9710428714752197,0.1875530630350113,-0.14798523485660553,-0.41290128231048584,-0.11165579408407211,0.0208181980997324
3.2040090560913086,0.18215012550354004,-0.08482544124126434,-0.03899700939655304,-0.1906070838518557,-1.4226650372000094,-2.1601429731749624,-0.9711365103721619,0.18945501744747162,-0.14491721987724304,-0.7503731846809387,0.026770975440740585,0.0007683823350816965
3.223717212677002,0.22585225105285645,-0.06495614349842072,-0.06873613595962524,-0.1931694322789537,-1.4252938726293793,-2.1770042793901316,-0.9710304737091064,0.1919703334569931,-0.14229290187358856,-0.8975830674171448,0.007984948344528675,0.011966405436396599
3.242615222930908,0.2210533618927002,-0.023097530007362366,-0.07386350631713867,-0.19573167045610054,-1.4293853761430486,-2.195077911764292,-0.971114456653595,0.19448429346084595,-0.1382489651441574,-0.8581104278564453,-0.07234717160463333,-0.010045408271253109
3.262698173522949,0.21588534116744995,-0.013765454292297363,-0.03692398965358734,-0.19797860768913453,-1.4341951386028287,-2.2105223258117084,-0.9713326096534729,0.19668783247470856,-0.13351669907569885,-0.681988537311554,-0.08788733929395676,0.028994012624025345
3.2940850257873535,0.24160504341125488,-0.02744220197200775,-0.054730892181396484,-0.2005832743150989,-1.4386165906421267,-2.222866918751517,-0.9714024066925049,0.19924093782901764,-0.12915275990962982,-0.5669460892677307,-0.12794803082942963,0.06168297305703163
3.3000292778015137,0.2891418933868408,-0.0560915470123291,-0.03917662799358368,-0.20344233606038012,-1.4433880825176457,-2.2331806885452483,-0.9714385867118835,0.2020418643951416,-0.12444336712360382,-0.49191391468048096,-0.11299926787614822,0.10012449324131012
3.4427571296691895,0.2659311294555664,-0.0672774463891983,-0.0249558687210083,-0.2072622506521226,-1.4461785429398757,-2.2426780679551626,-0.9710093140602112,0.20578151941299438,-0.1216353252530098,-0.48943760991096497,0.022279199212789536,0.15060286223888397
3.4845571517944336,0.233234703540802,-0.0381888747215271,-0.03085903823375702,-0.21093803421885934,-1.4469122484548216,-2.252752130149993,-0.9703409075737,0.2093772292137146,-0.1208285540342331,-0.5336852669715881,0.10908360034227371,0.07799772173166275
3.5022051334381104,0.21663975715637207,-0.0418601930141449,-0.01019035279750824,-0.21511578686515043,-1.4452642574249743,-2.2740953136161792,-0.9692642092704773,0.2134605497121811,-0.12231691926717758,-0.6121934652328491,0.19598139822483063,0.06793626397848129
3.5252280235290527,-0.06439334154129028,0.06080678105354309,0.01932203769683838,-0.23121055098751975,-1.440691065670583,-2.341941050033416,-0.9651629328727722,0.229156032204628,-0.12628614902496338,-0.5685858130455017,0.2208101451396942,0.052179086953401566
3.541356086730957,-0.08437234163284302,0.017203837633132935,0.1462281197309494,-0.24107549961483524,-1.4312951074527234,-2.379896057834388,-0.9616483449935913,0.23874716460704803,-0.1350281685590744,-0.9713214039802551,0.35850754380226135,0.22060751914978027
3.559950113296509,-0.06469357013702393,0.06144288182258606,0.11746734380722046,-0.2584253272361424,-1.4178590534673972,-2.4082329463120264,-0.9555090665817261,0.25555849075317383,-0.14728306233882904,-0.3818321228027344,0.5373291969299316,0.4521445333957672
3.5807032585144043,-0.022258520126342773,0.002920299768447876,0.12732769548892975,-0.2694159133125531,-1.4092388855429188,-2.4113126925155597,-0.9513742327690125,0.266168475151062,-0.15505294501781464,-0.12481672316789627,0.4159195125102997,0.556315004825592
3.599942207336426,-0.08473080396652222,-0.025657355785369873,0.16415375471115112,-0.2798132935275785,-1.4009787772074487,-2.411703273298287,-0.9472821950912476,0.27617621421813965,-0.16242952644824982,-0.0924273282289505,0.44370001554489136,0.43950527906417847
3.6199440956115723,-0.0966901183128357,-0.04341745376586914,0.14930696785449982,-0.2869956043711624,-1.3918959832131417,-2.4119082870771966,-0.943791389465332,0.28307199478149414,-0.17066927254199982,-0.05634729191660881,0.42679649591445923,0.2914697527885437
3.6399402618408203,-0.09686976671218872,-0.016800642013549805,0.12269794940948486,-0.29211669923073047,-1.3848283032596824,-2.41039577445349,-0.941124677658081,0.2879799008369446,-0.17706502974033356,0.16764092445373535,0.2561994791030884,0.2180202305316925
3.6624560356140137,-0.20238834619522095,0.08211079239845276,0.08658672869205475,-0.2939932400577795,-1.3781893416781512,-2.4031210202280064,-0.9393962621688843,0.28977644443511963,-0.18320538103580475,0.43124350905418396,0.19834379851818085,0.10267379879951477
3.68222713470459,-0.2467833161354065,0.08658456802368164,0.1126251220703125,-0.29333660209834267,-1.3726311314211341,-2.395548937537295,-0.9385498762130737,0.28914791345596313,-0.1884613335132599,0.2300228625535965,0.14143550395965576,-0.0025391739327460527
3.7024290561676025,-0.2604305148124695,0.03765752911567688,0.17477449774742126,-0.2937427526214386,-1.3701502976643138,-2.3944079638235785,-0.937964141368866,0.2895366847515106,-0.19076567888259888,-0.15669362246990204,0.08658663928508759,0.08844967186450958
3.7221381664276123,-0.329201340675354,0.07664960622787476,0.16476655006408691,-0.2971339614698554,-1.369466060457751,-2.3991058498586284,-0.9368661642074585,0.29278096556663513,-0.19121001660823822,-0.2538248300552368,0.10720828920602798,0.1332361400127411
3.742009162902832,-0.35132426023483276,0.1808435022830963,0.19056469202041626,-0.3006873778627133,-1.3666375732337117,-2.4020871199501457,-0.9352968335151672,0.29617682099342346,-0.19364699721336365,-0.10094872862100601,0.2638731002807617,0.18444788455963135
3.7610340118408203,-0.3572382926940918,0.15001240372657776,0.19085693359375,-0.30496441302415916,-1.3606695432340297,-2.402953484584476,-0.9328770637512207,0.30025923252105713,-0.1989593505859375,-0.06627658009529114,0.34477779269218445,0.22911469638347626
3.781219959259033,-0.34210336208343506,0.09953612089157104,0.17986798286437988,-0.31117756977825445,-1.3541325536928774,-2.4050143676493723,-0.9297166466712952,0.30617985129356384,-0.20464827120304108,-0.2941039204597473,0.33888405561447144,0.31539031863212585
3.8021349906921387,-0.29324376583099365,0.09378579258918762,0.1464497447013855,-0.31939280648871476,-1.3497729717792362,-2.4086941594429656,-0.9263302087783813,0.31399014592170715,-0.208141028881073,-0.2696123421192169,0.1592421978712082,0.3843230605125427
3.8219852447509766,-0.2951173782348633,0.18369871377944946,0.1660718023777008,-0.326963515090912,-1.3502106635762556,-2.4099297868482696,-0.9240752458572388,0.3211688995361328,-0.207209512591362,0.02455347217619419,-0.08995510637760162,0.36919960379600525
3.8417820930480957,-0.36106908321380615,0.174661785364151,0.20947957038879395,-0.33291896483143824,-1.350666630147701,-2.407022180924971,-0.9222866296768188,0.3268031179904938,-0.20636680722236633,0.10859151184558868,0.01601029559969902,0.2611185312271118
3.8617360591888428,-0.3672609329223633,0.05602610111236572,0.1546924114227295,-0.34095292128704235,-1.348385207921838,-2.4074246896331095,-0.9192228317260742,0.33438530564308167,-0.2078845351934433,-0.33123674988746643,0.16810093820095062,0.4823510944843292
3.881664276123047,-0.33338451385498047,0.07551032304763794,0.09868276119232178,-0.35206707361154665,-1.3491531286703153,-2.4141533670241055,-0.9156999588012695,0.34483882784843445,-0.20634879171848297,-0.5911219716072083,0.10442174226045609,0.5633080005645752
3.901772975921631,-0.3372371196746826,0.20667865872383118,0.04740220308303833,-0.36315612453619217,-1.3524951018046294,-2.422487540129913,-0.9125950336456299,0.3552262783050537,-0.20244677364826202,-0.3383742868900299,-0.08689043670892715,0.31376853585243225
3.9217352867126465,-0.2826216220855713,0.2209852933883667,0.015746474266052246,-0.3709769655908709,-1.353849230542178,-2.422600852206743,-0.9101274013519287,0.3625261187553406,-0.20060665905475616,0.17390473186969757,-0.0657622441649437,0.42424407601356506
3.941634178161621,-0.24750733375549316,0.13335520029067993,-0.021432816982269287,-0.3786824540845331,-1.3542155614096074,-2.415499168052174,-0.9074456691741943,0.36969658732414246,-0.1996670365333557,0.18014907836914062,-0.24998366832733154,0.48751646280288696
3.961308002471924,-0.21887600421905518,0.07157111167907715,-0.009816989302635193,-0.38778190222660514,-1.3614808524985935,-2.4143965416973865,-0.905544102191925,0.37813594937324524,-0.1923619508743286,-0.2759338319301605,-0.510962188243866,0.4109933078289032
3.9806442260742188,-0.28920912742614746,0.07984566688537598,-0.007659986615180969,-0.39795193184983185,-1.3747395755289176,-2.4197601499850556,-0.9041961431503296,0.3875311315059662,-0.17958059906959534,-0.3358233869075775,-0.5935036540031433,0.48146313428878784
4.003517150878906,-0.33227336406707764,0.16832825541496277,-0.03449149429798126,-0.4079076646465168,-1.3892360683607345,-2.4231129471412793,-0.9028646349906921,0.3966895341873169,-0.16574960947036743,-0.13037386536598206,-0.7536190152168274,0.4685942828655243
4.020624160766602,-0.3223780393600464,0.12365591526031494,-0.029273420572280884,-0.4181641343417207,-1.4045672113823577,-2.4207568467676808,-0.9012393355369568,0.40608346462249756,-0.15120752155780792,0.18140821158885956,-0.8616526126861572,0.5457088947296143
4.039974212646484,-0.3209207057952881,0.1561633050441742,-0.02842012047767639,-0.42752759691136344,-1.4186190898945552,-2.409729133812256,-0.8994771242141724,0.4146221876144409,-0.13794644176959991,0.719505250453949,-0.9919332265853882,0.5428892374038696
4.06043815612793,-0.30591893196105957,0.15990391373634338,-0.01998560130596161,-0.4355213954207643,-1.429167534180051,-2.3855291090714146,-0.8975721597671509,0.4218831956386566,-0.12797890603542328,1.2940301895141602,-1.106737732887268,0.5625843405723572
4.081346035003662,-0.28352898359298706,0.07483592629432678,-0.029371783137321472,-0.4429903124893973,-1.4386253156568716,-2.3525310346717014,-0.8955938816070557,0.42864304780960083,-0.11906567960977554,1.5197941064834595,-1.2337415218353271,0.6035301089286804
4.101197242736816,-0.2960643172264099,0.01477232575416565,-0.014941565692424774,-0.45077930281425593,-1.4489514806511274,-2.3196862089092525,-0.8934345245361328,0.43566712737083435,-0.10940232872962952,1.2685563564300537,-1.2148078680038452,0.5001261234283447
4.120882987976074,-0.3095692992210388,-0.03841361403465271,-0.0274164080619812,-0.45703734684855146,-1.460775555206854,-2.293267287016527,-0.8919382095336914,0.441291481256485,-0.09852960705757141,1.0707985162734985,-1.109134554862976,0.4381362199783325
4.140059947967529,-0.2816241979598999,-0.022699445486068726,-0.05229729413986206,-0.4624203966912336,-1.471548441924689,-2.2678421399641477,-0.8905711770057678,0.4461156129837036,-0.08867866545915604,1.153376579284668,-1.1101080179214478,0.3315163850784302
4.1608052253723145,-0.26040589809417725,-0.0388929545879364,-0.03337942808866501,-0.4664866672966695,-1.4812163122434998,-2.24035339789752,-0.8895726799964905,0.4497511088848114,-0.07990176975727081,1.2527580261230469,-1.091943621635437,0.31736910343170166
4.180859088897705,-0.25486207008361816,-0.05859389901161194,-0.008365035057067871,-0.46987431224984083,-1.4900908179512453,-2.2123406604284126,-0.8887231945991516,0.4527742266654968,-0.07188098877668381,1.1912569999694824,-1.060120701789856,0.24346783757209778
4.199148178100586,-0.25115031003952026,-0.11038428544998169,-0.01379537582397461,-0.4727366587073569,-1.499372793346949,-2.1863886865267346,-0.8880556225776672,0.4553245007991791,-0.0635361447930336,1.1023142337799072,-1.059324026107788,0.21267729997634888
4.220978260040283,-0.2696303129196167,-0.07388758659362793,-0.02794581651687622,-0.47417941911694556,-1.5097081981827232,-2.1627788581288216,-0.8880082368850708,0.4566085636615753,-0.05431434139609337,0.9841612577438354,-1.0523730516433716,0.04665900021791458
4.239992141723633,-0.2678542733192444,-0.04626581072807312,-0.023023009300231934,-0.47285544922028805,-1.519438226556156,-2.14105802736352,-0.8890976309776306,0.455430269241333,-0.045702554285526276,0.9555498361587524,-0.8860663175582886,-0.03272947669029236
4.260718107223511,-0.2330176830291748,-0.07098916172981262,-0.027273952960968018,-0.4709242738686071,-1.5272299470951662,-2.1221521012488793,-0.890303909778595,0.45371013879776,-0.038811877369880676,0.6866252422332764,-0.7987676858901978,-0.08961512893438339
4.279973030090332,-0.1641959547996521,-0.10678920149803162,-0.005704820156097412,-0.46820691987280577,-1.5378726099202034,-2.1102679067576187,-0.8918953537940979,0.4512869119644165,-0.029375124722719193,0.44218310713768005,-0.7997966408729553,-0.1340484321117401
4.301030158996582,-0.1834922432899475,-0.0396575927734375,-0.029579760506749153,-0.46447374219999754,-1.549487370123646,-2.1001749183411507,-0.8938546776771545,0.44795235991477966,-0.01904999278485775,0.4951029121875763,-0.815566897392273,-0.21714067459106445
4.320672988891602,-0.20685821771621704,-0.007096916437149048,-0.015192924998700619,-0.458970365184622,-1.5602211499731335,-2.0891475083922555,-0.8964589834213257,0.44302526116371155,-0.009480565786361694,0.4810868501663208,-0.7361471056938171,-0.3194552958011627
4.341175079345703,-0.1776462197303772,-0.017416834831237793,-0.014865994453430176,-0.45262037418104034,-1.5698675104535913,-2.0802673014678974,-0.8993039727210999,0.43732354044914246,-0.0008352884906344116,0.28861427307128906,-0.6629844903945923,-0.3024686872959137
4.360321044921875,-0.1380317211151123,-0.007202506065368652,-0.017719030380249023,-0.4464296240323871,-1.581119727782851,-2.0769544403203493,-0.9019463062286377,0.43174782395362854,0.009311484172940254,0.01600531116127968,-0.5867151021957397,-0.3127727508544922
4.380190134048462,-0.13366985321044922,0.02728515863418579,-0.04443156719207764,-0.4408683349430901,-1.5923245263453303,-2.078620884975232,-0.9041720628738403,0.42672494053840637,0.01946820318698883,-0.1782597154378891,-0.46359845995903015,-0.2364821583032608
4.400483131408691,-0.08106201887130737,0.040013521909713745,-0.03295362740755081,-0.43602861328348735,-1.6018705803451603,-2.0837967967637714,-0.9059984087944031,0.422342985868454,0.028162289410829544,-0.2987344563007355,-0.2587660551071167,-0.21526868641376495
4.4203431606292725,0.013273179531097412,0.03388223052024841,-0.05735433101654053,-0.43244307330469134,-1.6089006368635317,-2.08982490060363,-0.9072856903076172,0.419090211391449,0.03458823636174202,-0.252658486366272,-0.18033196032047272,-0.11817684769630432
4.440328121185303,0.06331533193588257,0.050142526626586914,-0.06631004810333252,-0.4308868134644561,-1.6138975051259115,-2.094418672054765,-0.9077519774436951,0.417676717042923,0.03914942592382431,-0.16123388707637787,-0.1391531080007553,-0.04614536464214325
4.4603681564331055,0.10716241598129272,0.04067099094390869,-0.04680097475647926,-0.4307646165508376,-1.6168274710052508,-2.096750840260265,-0.9076841473579407,0.4175657033920288,0.041811276227235794,-0.06951136142015457,-0.06682164967060089,0.06370711326599121
4.479619026184082,0.1542605757713318,0.01619848608970642,-0.03333401679992676,-0.4329459725069547,-1.618126395594661,-2.0966334701137965,-0.9067172408103943,0.41954678297042847,0.04294706508517265,0.08193180710077286,-0.06764722615480423,0.15083660185337067
4.499974250793457,0.14678138494491577,0.06165271997451782,-0.005892869085073471,-0.4372386703320598,-1.6173040387588928,-2.0933794130777503,-0.9049449563026428,0.42343953251838684,0.04211729019880295,0.24918784201145172,0.052439674735069275,0.27207911014556885
4.519974231719971,0.13778716325759888,0.058084070682525635,-0.0073386430740356445,-0.44417040650232786,-1.6122593336051854,-2.0874168485753493,-0.9021914601325989,0.42970892786979675,0.037429023534059525,0.278244286775589,0.1638021469116211,0.3821304142475128
4.5399720668792725,0.14425402879714966,0.06174576282501221,0.010019417852163315,-0.4527560088465513,-1.6062740644865499,-2.082377086056333,-0.8986790776252747,0.4374455213546753,0.03189648315310478,0.22837527096271515,0.2288993000984192,0.47208133339881897
4.559144020080566,0.09724098443984985,0.1233316957950592,0.010365601629018784,-0.4635237944140457,-1.5982077394988405,-2.0772034026133235,-0.8941464424133301,0.4471028447151184,0.02451595664024353,0.29726022481918335,0.36913934350013733,0.60077965259552
4.5800461769104,0.08879202604293823,0.15031927824020386,0.0019154548645019531,-0.47700075820772053,-1.5868818760296695,-2.070057699780368,-0.8882610201835632,0.45911678671836853,0.014289398677647114,0.33933472633361816,0.3964986205101013,0.7445037364959717
4.599996089935303,0.1201440691947937,0.0956527590751648,0.03164267539978027,-0.49378014617486266,-1.5760688105889729,-2.0623661034843916,-0.880535364151001,0.4739578664302826,0.004642651416361332,0.36885350942611694,0.3346778452396393,0.9228523373603821
4.6199822425842285,0.09206253290176392,0.12635162472724915,0.008967936970293522,-0.5134166572203627,-1.5644948865360435,-2.051823616552058,-0.8710541129112244,0.4911562502384186,-0.00548896798864007,0.5726719498634338,0.33575376868247986,1.0564405918121338
4.639981269836426,0.10270696878433228,0.09698039293289185,0.009807644411921501,-0.5351837168755575,-1.5506653582518326,-2.03678201636456,-0.8600007891654968,0.5099990963935852,-0.017314987257122993,0.683784544467926,0.2932749390602112,1.1154476404190063
4.659971237182617,0.11770367622375488,0.059531331062316895,0.013283129781484604,-0.5576378151859622,-1.5353347738482155,-2.0180132801358184,-0.8479741811752319,0.5291833281517029,-0.03008309192955494,0.8757701516151428,0.26865753531455994,1.1857025623321533
4.680145263671875,0.11121881008148193,0.056397199630737305,0.02949202060699463,-0.5806506269010238,-1.5183991503638588,-1.9953657135817637,-0.8349584341049194,0.548568069934845,-0.04378954693675041,0.945110023021698,0.21175742149353027,1.1942434310913086
4.699973106384277,0.10982131958007812,0.03020423650741577,0.04031723737716675,-0.6034822963859778,-1.5001068059863742,-1.9697211339378404,-0.8213081359863281,0.567513108253479,-0.05815477669239044,1.060370922088623,0.1976528912782669,1.2263301610946655
4.719972133636475,0.11654603481292725,0.02266848087310791,0.0386313796043396,-0.6260816844844612,-1.4793654163023509,-1.940383900977636,-0.8069452047348022,0.5859741568565369,-0.07398601621389389,1.161222219467163,0.16688725352287292,1.215779423713684
4.739972114562988,0.13376808166503906,-0.005733847618103027,0.064846932888031,-0.6481474031325747,-1.4580155812914628,-1.908716005224879,-0.7921390533447266,0.6037105321884155,-0.08971875160932541,1.06927490234375,0.11142735928297043,1.2533683776855469
4.760009288787842,0.08468741178512573,-0.05266571044921875,0.09831665456295013,-0.670965317666136,-1.44124308575865,-1.8853015230889698,-0.7766583561897278,0.621742308139801,-0.10118534415960312,0.4405422508716583,0.15207545459270477,1.2384345531463623
4.780048131942749,0.09102767705917358,-0.024750709533691406,0.07761871814727783,-0.6951542921146959,-1.4319841662875237,-1.876388131970896,-0.7605681419372559,0.6405039429664612,-0.10625948011875153,0.05510072782635689,0.21179302036762238,1.2690404653549194
4.800838947296143,0.10274434089660645,0.08570259809494019,0.012830853462219238,-0.7194513947937495,-1.4207866184266416,-1.8652580017808,-0.743720293045044,0.6589721441268921,-0.11240971833467484,0.5811032652854919,0.18327918648719788,1.24532151222229
4.820170164108276,0.10265403985977173,0.15714401006698608,-0.005336388945579529,-0.7417841004238946,-1.3964094460598624,-1.8348225452361617,-0.7260823249816895,0.6756043434143066,-0.1279185712337494,1.22501802444458,0.22072668373584747,1.3189618587493896
4.840065002441406,0.12506139278411865,0.030642151832580566,0.021526634693145752,-0.7620794548711562,-1.3639241827900577,-1.7936231265684914,-0.7079775929450989,0.6904272437095642,-0.14858655631542206,1.2891788482666016,0.1917075514793396,1.2557697296142578
4.860661029815674,0.15019750595092773,0.006064474582672119,0.040558382868766785,-0.7821366761854593,-1.3317971318078778,-1.7528604934023948,-0.6892447471618652,0.7047967910766602,-0.16793876886367798,1.0771291255950928,0.20518644154071808,1.3146648406982422
4.87998628616333,0.14832085371017456,-0.03914070129394531,0.04228079319000244,-0.8013035496945232,-1.303878750123804,-1.7190236220925652,-0.6711327433586121,0.7182636857032776,-0.18351615965366364,0.8262568116188049,0.1881478875875473,1.1841603517532349
4.900809288024902,0.19117498397827148,0.005053997039794922,0.013606682419776917,-0.8190478281351271,-1.2762989362563637,-1.6853832901117347,-0.6535162329673767,0.7304959297180176,-0.19822277128696442,0.9388868808746338,0.12182673811912537,1.151390790939331
4.919940948486328,0.20215779542922974,0.0128822922706604,-0.006095394492149353,-0.8349121304436886,-1.2452215641280229,-1.645458738063097,-0.6359803676605225,0.7412375211715698,-0.21469928324222565,1.1630572080612183,0.06327572464942932,1.2065165042877197
4.939966201782227,0.20430052280426025,-0.017140626907348633,-0.025432392954826355,-0.8492700492005971,-1.210035688882369,-1.598868500263788,-0.618012011051178,0.7507984638214111,-0.23315832018852234,1.2726205587387085,-0.053822580724954605,1.1600092649459839
4.959954261779785,0.2215995192527771,-0.04011815786361694,-0.012517958879470825,-0.8598412384020879,-1.1738472122150454,-1.548025719851514,-0.6018179059028625,0.7577389478683472,-0.2522830367088318,1.4289528131484985,-0.13862241804599762,1.1100226640701294
4.980011940002441,0.2509602904319763,-0.0608486533164978,-0.015069931745529175,-0.8681495415004978,-1.1360874988764063,-1.4935764938078249,-0.5861347913742065,0.7631344199180603,-0.2721615135669708,1.4749717712402344,-0.2416677623987198,1.0674132108688354
5.000233173370361,0.2640129327774048,-0.10678648948669434,0.0056886374950408936,-0.8739919219541706,-1.1000004461465798,-1.4386862065171484,-0.5719504952430725,0.7668969631195068,-0.291104257106781,1.4177372455596924,-0.3373793661594391,1.0108072757720947
5.01997709274292,0.2533804178237915,-0.11262184381484985,0.01590675115585327,-0.8778389588099381,-1.069213758350151,-1.3882774638004856,-0.560127854347229,0.7693601846694946,-0.3071512281894684,1.3031628131866455,-0.476134330034256,0.8327459692955017
5.039976119995117,0.26629287004470825,-0.07831251621246338,0.03596526384353638,-0.8788069266872846,-1.042365798529728,-1.3403443597618845,-0.5510371327400208,0.7699781656265259,-0.3217013478279114,1.3568474054336548,-0.5275981426239014,0.7930052876472473
5.0599870681762695,0.2796693444252014,-0.09321630001068115,0.021503031253814697,-0.8775580166870531,-1.0139390563076072,-1.2885348029164438,-0.5424867272377014,0.7691806554794312,-0.3377414345741272,1.5496025085449219,-0.6621044278144836,0.7974458932876587
5.079977035522461,0.2695615291595459,-0.08404433727264404,0.060721516609191895,-0.8732687614587925,-0.9847019752764781,-1.2323721939693428,-0.5351254940032959,0.7664326429367065,-0.3552772104740143,1.7308323383331299,-0.7078370451927185,0.7714705467224121
5.099975109100342,0.24134069681167603,-0.09670597314834595,0.07299208641052246,-0.8653667285787038,-0.9544105165402529,-1.1727520239472173,-0.5290451645851135,0.7613331079483032,-0.37481093406677246,1.8770427703857422,-0.8301202654838562,0.7695009708404541
5.119930267333984,0.21219050884246826,-0.12210172414779663,0.11428427696228027,-0.8556629405929609,-0.9266595296262926,-1.1128918677621107,-0.5243242979049683,0.7550057768821716,-0.39376428723335266,1.8331849575042725,-0.945951521396637,0.7372720241546631
5.140026092529297,0.1801755428314209,-0.1372612714767456,0.14817672967910767,-0.8452649114392208,-0.904220163104088,-1.0568957792215095,-0.5214993953704834,0.7481468915939331,-0.41026169061660767,1.7554638385772705,-1.0108510255813599,0.7019811868667603
5.159972190856934,0.14565151929855347,-0.087471604347229,0.14081060886383057,-0.833930515895171,-0.8834083322617832,-1.001266988674216,-0.5193697810173035,0.740578293800354,-0.42637884616851807,1.8954734802246094,-1.0477747917175293,0.7459734678268433
5.180004119873047,0.09787988662719727,-0.014855623245239258,0.09061458706855774,-0.8191326081391865,-0.860445072581014,-0.9408463942261098,-0.517694890499115,0.7305538058280945,-0.44528988003730774,2.189286231994629,-1.145677089691162,0.7155032157897949
5.19998025894165,0.07657164335250854,0.015584230422973633,0.10296833515167236,-0.7992123862295674,-0.8396622488314424,-0.8787696562170672,-0.519061267375946,0.7168071269989014,-0.46557819843292236,2.347963809967041,-1.3020180463790894,0.608518660068512
5.219973087310791,0.07726502418518066,-0.009833276271820068,0.17449456453323364,-0.7755948079087455,-0.8234874875470213,-0.8172874072818533,-0.5237371921539307,0.7001408934593201,-0.48528560996055603,2.446441650390625,-1.4812052249908447,0.5236877799034119
5.239976167678833,-0.0441821813583374,-0.20666348934173584,0.1406463384628296,-0.750521886747866,-0.8158696775890185,-0.7644356558100996,-0.5326458811759949,0.6820205450057983,-0.5011352300643921,1.9561622142791748,-1.4160658121109009,0.2245069295167923
5.259972095489502,-0.23969972133636475,-0.4069063067436218,0.1364542841911316,-0.7343503238240732,-0.8172718530945297,-0.7284939045496778,-0.541321337223053,0.6701050400733948,-0.5078684687614441,1.115979552268982,-1.0192633867263794,0.5335683822631836
5.279974937438965,-0.06554323434829712,-0.24836748838424683,0.2124425172805786,-0.7314761849270102,-0.8137308536095293,-0.698297327943876,-0.5409173369407654,0.6679689288139343,-0.5111027956008911,0.9359632730484009,-0.8914043307304382,0.6791995167732239
5.299997091293335,0.12074404954910278,-0.0647173523902893,0.10286694765090942,-0.723168282569842,-0.8181391347780819,-0.6652970668173684,-0.5471967458724976,0.6617633104324341,-0.5124891996383667,1.3878830671310425,-1.7978605031967163,0.4297424852848053
5.319973945617676,-0.014386177062988281,0.15434026718139648,0.09820640087127686,-0.7084632687269206,-0.8312392716221499,-0.6248636425749261,-0.5609921813011169,0.6506676077842712,-0.5117806196212769,1.9244790077209473,-1.9470568895339966,0.6431335806846619
5.340000152587891,-0.25842851400375366,0.17012828588485718,0.07752114534378052,-0.6906802411156701,-0.8325346450319957,-0.5726178853096389,-0.5701237320899963,0.6370616555213928,-0.518759548664093,2.185163736343384,-1.5192774534225464,0.7078607082366943
5.36005711555481,-0.29323238134384155,0.05464160442352295,0.09579098224639893,-0.676441999655498,-0.8265999249709234,-0.5225335362643612,-0.5736499428749084,0.626022458076477,-0.5282250642776489,1.5188751220703125,-1.137238621711731,0.8312341570854187
5.379976272583008,-0.263624370098114,0.019366979598999023,0.050877153873443604,-0.6691597627098552,-0.8239502259335582,-0.48384960530269766,-0.5755784511566162,0.6203271746635437,-0.5328260064125061,1.3470672369003296,-1.06246817111969,0.7005898952484131
5.399975061416626,-0.27073729038238525,0.0067792534828186035,0.056664884090423584,-0.6614782147502045,-0.8213861191691486,-0.44759224833571315,-0.5776818990707397,0.6142839789390564,-0.5375303626060486,1.2638107538223267,-0.8629077672958374,0.6565978527069092
5.419973134994507,-0.3141080141067505,-0.11498594284057617,0.09319335222244263,-0.6538241469064607,-0.8172803759310793,-0.4171532404394543,-0.578882098197937,0.6082262992858887,-0.5430987477302551,0.9682847857475281,-0.6071352362632751,0.44915255904197693
5.439972162246704,-0.25324881076812744,-0.18188613653182983,0.16291570663452148,-0.6502797065122906,-0.8152837734941598,-0.39755713418389366,-0.5793622732162476,0.6054090261459351,-0.5457282662391663,0.4081708490848541,-0.4193136394023895,0.35519924759864807
5.460025072097778,-0.17040282487869263,-0.20567834377288818,0.22065258026123047,-0.6527598859048069,-0.8184868349374864,-0.3897282686238588,-0.5800091624259949,0.6073812246322632,-0.5428419709205627,-0.09525496512651443,-0.39959248900413513,0.25397050380706787
5.480018138885498,-0.13677245378494263,-0.21506184339523315,0.25576937198638916,-0.659460557819696,-0.8272183517655992,-0.39090566776814184,-0.5817182064056396,0.6126906275749207,-0.5349900126457214,-0.40205127000808716,-0.3790387511253357,0.1775163859128952
5.5000081062316895,-0.14348149299621582,-0.19562053680419922,0.22269630432128906,-0.667437747135973,-0.8383146453576662,-0.39717629927840964,-0.5839660167694092,0.6189755797386169,-0.5252171158790588,-0.4192976653575897,-0.3512600362300873,0.08060033619403839
5.519982099533081,-0.14482319355010986,-0.10248750448226929,0.19301462173461914,-0.6721175386572502,-0.8472717752902016,-0.40185502764027153,-0.5864695310592651,0.6226443648338318,-0.5180420875549316,-0.19953346252441406,-0.261276513338089,0.014804050326347351
5.539973258972168,-0.13780856132507324,-0.10951924324035645,0.19201338291168213,-0.6738509520236361,-0.8552356082229179,-0.40691461096925646,-0.5897610187530518,0.623999834060669,-0.5126463174819946,-0.24704943597316742,-0.2229824811220169,-0.1423707902431488
5.560017108917236,-0.13793742656707764,-0.19289958477020264,0.15133941173553467,-0.6747576041694411,-0.8651681818050595,-0.415872772846923,-0.5943928956985474,0.6247080564498901,-0.5063961744308472,-0.37455251812934875,-0.2525162398815155,-0.2378833144903183
5.580005168914795,-0.14752817153930664,-0.16475069522857666,0.13438212871551514,-0.6781081871557216,-0.880999661807159,-0.4325826976869907,-0.6007170677185059,0.6273208856582642,-0.49558818340301514,-0.8578653335571289,-0.23571638762950897,-0.3541105389595032
5.5999791622161865,-0.16425549983978271,-0.16514211893081665,0.04460430145263672,-0.684229712628503,-0.9012263304064235,-0.45863460361788994,-0.6075951457023621,0.6320763230323792,-0.4809446632862091,-1.0318676233291626,-0.2210683822631836,-0.4909588396549225
5.620008945465088,-0.17554116249084473,-0.0963941216468811,-0.03646719455718994,-0.6875528562597916,-0.9240012435293008,-0.4883589362050847,-0.6167104840278625,0.6346479058265686,-0.46571484208106995,-1.1242915391921997,-0.06704375892877579,-0.598067581653595
5.639973163604736,-0.1656765341758728,-0.17408597469329834,-0.08415481448173523,-0.6970399339545598,-0.9480027317246797,-0.5295963048789264,-0.6227908134460449,0.6419509053230286,-0.44724777340888977,-2.013293504714966,0.2801390588283539,-0.5465930700302124
5.6599812507629395,-0.16679441928863525,-0.2559589743614197,-0.13297492265701294,-0.7145551673120123,-0.9754200173681896,-0.5863396140214577,-0.6254114508628845,0.6552814841270447,-0.42363518476486206,-2.4312500953674316,0.6593217849731445,-0.45638343691825867
5.679981231689453,-0.16898512840270996,0.016086339950561523,-0.2145126760005951,-0.7298115014528889,-0.9966587239792164,-0.6396029782410227,-0.6257993578910828,0.6667291522026062,-0.4047805368900299,-1.4756778478622437,0.6369177103042603,-0.5387085676193237
5.70002007484436,-0.14675015211105347,0.3038215637207031,-0.10687768459320068,-0.725295712113936,-1.002426172331122,-0.6636789417972495,-0.6306546330451965,0.6633567810058594,-0.4027811586856842,0.042848069220781326,0.5448465347290039,-0.7599173784255981
5.719973087310791,-0.13157707452774048,0.05554717779159546,0.008521854877471924,-0.7109678708559587,-0.992760344422413,-0.6679773072464892,-0.6346277594566345,0.652567446231842,-0.4140089452266693,0.3091602921485901,0.6708912253379822,-0.6427208185195923
5.739976167678833,-0.1232636570930481,-0.10012125968933105,0.0530429482460022,-0.698825460027707,-0.9832354854742101,-0.6768178693958519,-0.6372038722038269,0.6433188915252686,-0.4243961274623871,-0.3336256742477417,0.8946340680122375,-0.7144149541854858
5.760021209716797,-0.08063048124313354,-0.08852624893188477,-0.024524658918380737,-0.6967167287641965,-0.9818410004737527,-0.7009113409705251,-0.6377379894256592,0.6417030096054077,-0.42603686451911926,-0.9962500929832458,0.7594659924507141,-0.49304115772247314
5.779973983764648,-0.02871459722518921,0.02037215232849121,0.04571092128753662,-0.7012862699976882,-0.9878576198659439,-0.7329852965776208,-0.6378350853919983,0.6452009677886963,-0.4205736219882965,-1.2935394048690796,0.7286362648010254,-0.4962627589702606
5.799982070922852,0.005021989345550537,0.08937007188796997,0.04616853594779968,-0.7072960969493063,-0.995260557065272,-0.7677925494591553,-0.6376665830612183,0.6497808694839478,-0.4137222468852997,-1.151858925819397,0.7842536568641663,-0.42685338854789734
5.819983005523682,0.05123645067214966,0.1276680827140808,-0.004848003387451172,-0.7112998470104769,-0.996782341897219,-0.7936974748729718,-0.6361058950424194,0.6528189778327942,-0.4113354980945587,-0.7059336304664612,0.7315687537193298,-0.3298313021659851
5.840023994445801,0.07625466585159302,0.14021450281143188,-0.023236870765686035,-0.7099662820813328,-0.9931141732406155,-0.8080922103385049,-0.6353214383125305,0.6518082022666931,-0.41414108872413635,-0.15404504537582397,0.5916059613227844,-0.3649366796016693
5.859979152679443,0.09268105030059814,0.0825771689414978,0.018169879913330078,-0.7047931863824337,-0.9862523866267274,-0.8148919602439595,-0.6352683901786804,0.6478763222694397,-0.42034581303596497,-0.1009465828537941,0.5514011979103088,-0.35318681597709656
5.880002021789551,0.10024839639663696,-0.0033243298530578613,0.047704994678497314,-0.701665299736726,-0.9829797146185754,-0.8259011904474183,-0.6355724930763245,0.6454904675483704,-0.4235442876815796,-0.4287751019001007,0.4693267345428467,-0.3840598464012146
5.899975061416626,0.11320364475250244,-0.006501674652099609,0.058803439140319824,-0.7010907415639522,-0.9857876720192595,-0.843728563228847,-0.6370684504508972,0.6450515389442444,-0.421962708234787,-0.6482459306716919,0.40375715494155884,-0.41386348009109497
5.920010089874268,0.11027806997299194,0.031585514545440674,0.043345481157302856,-0.7005499158540744,-0.9912762165479412,-0.8638246967777481,-0.6396664381027222,0.644638180732727,-0.41865065693855286,-0.5628541707992554,0.3453528583049774,-0.47743654251098633
5.939974069595337,0.10280251502990723,0.04677695035934448,0.03781163692474365,-0.6975481305857293,-0.9965018124861789,-0.8818355674399011,-0.6434671878814697,0.6423404812812805,-0.41635170578956604,-0.43283259868621826,0.2992572784423828,-0.5370761156082153
5.9599809646606445,0.09087151288986206,0.024360239505767822,0.008653998374938965,-0.6923055451171367,-1.0020494734045038,-0.8984535617575053,-0.6485955119132996,0.6383136510848999,-0.4145835340023041,-0.38945743441581726,0.20037142932415009,-0.5812063217163086
5.979982137680054,0.08310574293136597,0.05276656150817871,0.018110036849975586,-0.6870712901378554,-1.0105028233250541,-0.9162805996920962,-0.6548983454704285,0.6342756748199463,-0.4108560383319855,-0.48765671253204346,0.10633841902017593,-0.6015720367431641
5.999941110610962,0.06795799732208252,0.07720106840133667,0.012818336486816406,-0.6826121287217924,-1.0209395223664717,-0.935650836463361,-0.6615554094314575,0.6308220028877258,-0.4054727256298065,-0.5630611777305603,0.08037739247083664,-0.5584163069725037
6.019402027130127,0.07158058881759644,0.09972167015075684,0.0004061460494995117,-0.6795499715258558,-1.03168288012905,-0.9547235383442245,-0.6675279140472412,0.6284430027008057,-0.3993319869041443,-0.5108490586280823,0.031060973182320595,-0.47107869386672974
6.0397491455078125,0.06710821390151978,0.14385277032852173,-0.04074060916900635,-0.6763922020620603,-1.0405341763436744,-0.9688034344604408,-0.6727447509765625,0.6259835958480835,-0.39440953731536865,-0.26051124930381775,-0.021726608276367188,-0.3647434711456299
6.059973239898682,0.04648327827453613,0.16225981712341309,-0.06041139364242554,-0.6720886897970703,-1.0460901553239113,-0.9763701998200759,-0.6772511005401611,0.6226217746734619,-0.39201173186302185,-0.048915550112724304,-0.06698179244995117,-0.30623653531074524
6.079949140548706,0.04541802406311035,0.10942727327346802,-0.041886359453201294,-0.6675035136861783,-1.0496199056422986,-0.9798436750792184,-0.6810991168022156,0.6190272569656372,-0.3910360038280487,0.020463548600673676,-0.07159021496772766,-0.22306211292743683
6.099974155426025,0.05371534824371338,0.06438666582107544,-0.027610063552856445,-0.6640070678465256,-1.0522734378847616,-0.9819377759172758,-0.6840102076530457,0.6162774562835693,-0.39029771089553833,-0.011243540793657303,-0.07307590544223785,-0.16857588291168213
6.1199750900268555,0.051765620708465576,0.03371518850326538,-0.009128361940383911,-0.6618983788954925,-1.055653893143604,-0.9849861235210396,-0.6864548921585083,0.6146154403686523,-0.3886224925518036,-0.08461322635412216,-0.07295916229486465,-0.12772126495838165
6.140006065368652,0.04971498250961304,-0.0005112886428833008,-0.005910903215408325,-0.6606042475660705,-1.0590880087085837,-0.9884349875079637,-0.6884783506393433,0.613594114780426,-0.38665199279785156,-0.07391532510519028,-0.06629309803247452,-0.13836318254470825
6.159982204437256,0.04627615213394165,-0.012989938259124756,-0.016993582248687744,-0.65807151583749,-1.062405246850067,-0.9912490805769579,-0.6911126375198364,0.6115922331809998,-0.38512131571769714,0.003830523230135441,-0.10732370615005493,-0.17939428985118866
6.17997407913208,0.04868108034133911,-0.02875906229019165,-0.0016630887985229492,-0.6544209325097463,-1.0659763020096207,-0.992586198966405,-0.6944330930709839,0.6086999177932739,-0.38372817635536194,0.06196088343858719,-0.16916204988956451,-0.18855378031730652
6.199972152709961,0.03530913591384888,-0.036650121212005615,0.014205574989318848,-0.6511199959320966,-1.0707826477565945,-0.9943360728356341,-0.6980288624763489,0.6060776114463806,-0.38134729862213135,-0.03724708408117294,-0.208975687623024,-0.18649788200855255
6.219972133636475,0.006192326545715332,-0.0358661413192749,0.0029659271240234375,-0.648487162795814,-1.0777429731304744,-0.9984897350628625,-0.7020694017410278,0.6039813756942749,-0.3772335350513458,-0.10937908291816711,-0.24961355328559875,-0.21972370147705078
6.240034103393555,-0.01380908489227295,-0.0030001401901245117,-0.020508378744125366,-0.6455438245612256,-1.085456916742786,-1.0027942627471884,-0.7065277695655823,0.6016328930854797,-0.37263432145118713,-0.04006604105234146,-0.2784689962863922,-0.214669331908226
6.259974956512451,-0.03175044059753418,0.008952975273132324,-0.018920689821243286,-0.6421410134456712,-1.092024421967914,-1.004814904437348,-0.710772693157196,0.5989113450050354,-0.3689272105693817,0.02062644064426422,-0.2839204967021942,-0.18223583698272705
6.279983043670654,-0.038280189037323,-0.010360658168792725,-0.01121675968170166,-0.638881822857196,-1.0990770664616054,-1.0067163372067205,-0.7150920033454895,0.5962981581687927,-0.3647903501987457,-0.002512820065021515,-0.30566883087158203,-0.18226954340934753
6.300073146820068,-0.042015910148620605,-0.01972109079360962,-0.0025978684425354004,-0.6357007103945106,-1.1066734202497706,-1.0087747044826425,-0.7195349931716919,0.5937414765357971,-0.3601951003074646,-0.0006682081148028374,-0.3337867856025696,-0.1810206025838852
6.320099115371704,-0.04666423797607422,-0.027606546878814697,0.02273792028427124,-0.6322685233906671,-1.1151639563196774,-1.0114196022137718,-0.7243928909301758,0.5909762978553772,-0.35496753454208374,-0.05223803222179413,-0.36265474557876587,-0.22644102573394775
6.340011119842529,-0.0552600622177124,-0.04808652400970459,0.03768834471702576,-0.6287770621539275,-1.1256754501802062,-1.0166458372110763,-0.7299420237541199,0.5881561636924744,-0.34821999073028564,-0.18828068673610687,-0.3756830096244812,-0.26686209440231323
6.35999608039856,-0.0516202449798584,-0.06142258644104004,0.04688078165054321,-0.6255731731017316,-1.1382270739860392,-1.0256874447167026,-0.7359621524810791,0.585561990737915,-0.3398190140724182,-0.33433690667152405,-0.35084742307662964,-0.34022781252861023
6.37993311882019,-0.02172917127609253,-0.0673251748085022,0.054974108934402466,-0.6221484223592175,-1.153017661004608,-1.0388356560430378,-0.7427362203598022,0.5827823877334595,-0.32970866560935974,-0.5047561526298523,-0.37459686398506165,-0.41632920503616333
6.399977207183838,0.0016160011291503906,-0.08986157178878784,0.06852880120277405,-0.6183594429734924,-1.171449317543077,-1.0568553568243053,-0.7507156729698181,0.5796991586685181,-0.31681981682777405,-0.6935138702392578,-0.4148968756198883,-0.5190953016281128
6.419989109039307,0.00448918342590332,-0.12486392259597778,0.07115325331687927,-0.613945322640275,-1.1926919257533926,-1.0793657578857874,-0.7596465945243835,0.576096773147583,-0.3017440736293793,-0.8466535210609436,-0.3974178433418274,-0.5824187994003296
6.440022945404053,0.00842505693435669,-0.15261638164520264,0.0698537528514862,-0.6091519291933691,-1.2153289557487192,-1.1060615335526733,-0.7688621878623962,0.5721721053123474,-0.2854299545288086,-1.0228091478347778,-0.3390518128871918,-0.6541914939880371
6.459914207458496,0.012080729007720947,-0.1625756025314331,0.05931633710861206,-0.6035381585846247,-1.2390981104202752,-1.1365470174430639,-0.7784534096717834,0.5675591230392456,-0.26811760663986206,-1.1439638137817383,-0.30969491600990295,-0.719113290309906
6.479912281036377,-0.0026978254318237305,-0.15231472253799438,0.04841625690460205,-0.5964857336890125,-1.2633891705033184,-1.169048838089452,-0.7885314226150513,0.5617385506629944,-0.25033584237098694,-1.167980432510376,-0.28204384446144104,-0.8034934997558594
6.500016212463379,-0.028014957904815674,-0.13156282901763916,0.02898925542831421,-0.5868892722032358,-1.2867477936405438,-1.2020686519465942,-0.7993013262748718,0.5537735223770142,-0.2333502322435379,-1.1778181791305542,-0.2229285091161728,-0.9184433817863464
6.519922256469727,-0.04285931587219238,-0.09636008739471436,0.02343590557575226,-0.5744781123731033,-1.3093406249811446,-1.2354795553554305,-0.8109461665153503,0.5433967709541321,-0.21699367463588715,-1.1910104751586914,-0.1857185661792755,-1.0317822694778442
6.539975166320801,-0.04643470048904419,-0.07024174928665161,0.014040067791938782,-0.5604420261998808,-1.3312195229699626,-1.2698459426100142,-0.822827935218811,0.5315606594085693,-0.2009907066822052,-1.2905691862106323,-0.1862947791814804,-1.0475736856460571
6.559942245483398,-0.06394195556640625,-0.04454600811004639,0.01929594576358795,-0.5453803861048371,-1.3533659198820904,-1.305410586186941,-0.834800660610199,0.5187433362007141,-0.18442656099796295,-1.2690783739089966,-0.10142498463392258,-1.122822880744934
6.579970121383667,-0.07567459344863892,0.01026374101638794,-0.022080659866333008,-0.5278565824759915,-1.3720739666721349,-1.3383988861418596,-0.8468870520591736,0.5036828517913818,-0.17054630815982819,-1.151627540588379,-0.129811629652977,-1.165273666381836
6.599987030029297,-0.0694957971572876,0.023233771324157715,-0.0367809534072876,-0.5089367590747563,-1.389239725141322,-1.3672191030032508,-0.8589099645614624,0.4872490465641022,-0.1576770842075348,-0.9465369582176208,-0.15116724371910095,-1.1633132696151733
6.6199750900268555,-0.07434111833572388,0.045498162508010864,-0.019281849265098572,-0.4894171637331263,-1.4046469218835587,-1.3918950226476137,-0.8704525232315063,0.47011154890060425,-0.14597085118293762,-0.8730792999267578,-0.19286924600601196,-1.153367042541504
6.6390931606292725,-0.06752806901931763,0.03254342079162598,-0.011260032653808594,-0.47006638488671143,-1.418377449955255,-1.414665355105755,-0.8812023997306824,0.4529454708099365,-0.13536173105239868,-0.8337227702140808,-0.13583631813526154,-1.057128667831421
6.659983158111572,-0.06019735336303711,0.03528335690498352,-0.012610793113708496,-0.4530146538066747,-1.430181209934298,-1.4362588344503322,-0.8902573585510254,0.43767809867858887,-0.1260152906179428,-0.8232992887496948,-0.07405745983123779,-0.9220033884048462
6.6799821853637695,-0.057515501976013184,0.06341826915740967,-0.025272421538829803,-0.43801841986725376,-1.439690193968256,-1.4567376095101925,-0.8978219628334045,0.42414578795433044,-0.1183890700340271,-0.8205997943878174,0.002200828865170479,-0.8150689601898193
6.699975967407227,-0.036292314529418945,0.07995378971099854,-0.028910279273986816,-0.4253064154338813,-1.4476606096120912,-1.4779044073288534,-0.9040153622627258,0.41259992122650146,-0.11188261955976486,-0.9443668723106384,0.10346486419439316,-0.6886323094367981
6.719974994659424,-0.024906277656555176,0.06682023406028748,-0.03442235291004181,-0.4158408588752282,-1.4537653717482857,-1.5021223999084417,-0.9085198044776917,0.4039592742919922,-0.10681302845478058,-1.1569883823394775,0.27213254570961,-0.510677695274353
6.739985942840576,-0.018852651119232178,0.0889827311038971,-0.037931978702545166,-0.4102856362790464,-1.458356047502078,-1.531003647444308,-0.9112163782119751,0.3988712728023529,-0.10289140045642853,-1.3982573747634888,0.423774778842926,-0.36268526315689087
6.759983062744141,-0.0111236572265625,0.12402555346488953,-0.05369609594345093,-0.40676791182353245,-1.461589053866689,-1.5619878641968863,-0.912933349609375,0.395643025636673,-0.10009720921516418,-1.3321727514266968,0.4750708043575287,-0.31598982214927673
6.779291152954102,0.009518623352050781,0.16009321808815002,-0.06567490100860596,-0.4031698339844341,-1.4631937522307195,-1.588442457896247,-0.9145022034645081,0.3923359811306,-0.09878433495759964,-1.034686803817749,0.398657888174057,-0.2957196533679962
6.7999982833862305,0.044453442096710205,0.15604162216186523,-0.052040114998817444,-0.39968095503991685,-1.4637606176753875,-1.607241459721094,-0.9159135222434998,0.38912445306777954,-0.09841156005859375,-0.6543100476264954,0.2776127755641937,-0.2423594892024994
6.819975137710571,0.05133628845214844,0.1386590600013733,-0.024460546672344208,-0.39604254960391483,-1.4634846794162197,-1.6179714919578307,-0.9172877669334412,0.3857702612876892,-0.09881526976823807,-0.3006402254104614,0.17434348165988922,-0.22500424087047577
6.839983940124512,0.04743528366088867,0.12208986282348633,-0.0049193501472473145,-0.3922066179299727,-1.4624663591277607,-1.622626274182395,-0.9186511039733887,0.38222840428352356,-0.09990857541561127,-0.11480703949928284,0.10483124852180481,-0.2015647143125534
6.85997200012207,0.04215604066848755,0.08783972263336182,0.011435449123382568,-0.38863618233710157,-1.4619322911002557,-1.6251819939320493,-0.9199484586715698,0.37892666459083557,-0.10054682195186615,-0.10128778219223022,0.05088723078370094,-0.17614690959453583
6.880001068115234,0.029726803302764893,0.08106124401092529,0.010962426662445068,-0.38549279173781703,-1.4621054425615634,-1.6277781602218264,-0.9211452603340149,0.3760158121585846,-0.10051622241735458,-0.09497938305139542,0.02379755675792694,-0.171092227101326
6.899979114532471,0.02670389413833618,0.09628447890281677,0.007120907306671143,-0.3821411721446496,-1.462579812781396,-1.6296424439749355,-0.9224405288696289,0.3729080557823181,-0.10021480917930603,-0.03625865280628204,-0.0042952424846589565,-0.1783626228570938
6.919991970062256,0.03028815984725952,0.10411441326141357,-0.0015167593955993652,-0.378605648495631,-1.4632466993014706,-1.6296996144321862,-0.9238123297691345,0.3696252107620239,-0.09974052757024765,0.06598955392837524,-0.06155436113476753,-0.17489957809448242
6.939970016479492,0.02660149335861206,0.10343459248542786,-0.00371348112821579,-0.3749552938259294,-1.4639956179473663,-1.627798766587033,-0.9252220988273621,0.36623093485832214,-0.09919179975986481,0.14966584742069244,-0.08004246652126312,-0.16664063930511475
6.959970951080322,0.021996915340423584,0.10123422741889954,-0.014867961406707764,-0.3715173732127179,-1.4643872527762132,-1.6242730270571153,-0.9265074729919434,0.36302971839904785,-0.09896259754896164,0.20474469661712646,-0.08139029145240784,-0.13776984810829163
6.979982137680054,0.019184768199920654,0.09789225459098816,-0.020744256675243378,-0.37037159061725106,-1.464485972130174,-1.6199856063325848,-0.9269301295280457,0.36196184158325195,-0.09891518950462341,0.23288056254386902,-0.08068118244409561,-0.10807375609874725
6.999959945678711,0.0117073655128479,0.0922074019908905,-0.020072154700756073,-0.36975884707751294,-1.4639509922091738,-1.6146569195857141,-0.9270973801612854,0.3613905906677246,-0.09943469613790512,0.28207045793533325,-0.06319104880094528,-0.07127442210912704
7.020076274871826,-0.011173069477081299,0.08426573872566223,-0.014525651931762695,-0.3693410616071726,-1.4625283730843472,-1.6084891144645135,-0.9271051287651062,0.36100101470947266,-0.10076981782913208,0.2954607605934143,-0.03121846914291382,-0.03605492040514946
7.039975166320801,-0.03575056791305542,0.06317412853240967,-0.007787756621837616,-0.36893626055441564,-1.4605446097444164,-1.6028638102218893,-0.9270484447479248,0.36062347888946533,-0.10262484103441238,0.2225375473499298,0.03062732145190239,-0.023473091423511505
7.059973239898682,-0.04187488555908203,0.04701220989227295,0.004459083080291748,-0.36895570151438606,-1.4577681225809,-1.5996121362470574,-0.926753044128418,0.36064159870147705,-0.10519759356975555,0.07818923145532608,0.12087012827396393,4.0839193388819695e-05
7.080000162124634,-0.025101065635681152,0.04277774691581726,0.007450267672538757,-0.36966762443216145,-1.4546230524222872,-1.599341520662808,-0.9261624813079834,0.3613055348396301,-0.10808200389146805,-0.04865236207842827,0.16204242408275604,0.028997698798775673
7.100008964538574,-0.02296888828277588,0.046648502349853516,0.020747199654579163,-0.3706549670997649,-1.4515545934081955,-1.6009920192587048,-0.9254715442657471,0.3622260093688965,-0.11088085174560547,-0.10866954177618027,0.21513573825359344,0.02356378175318241
7.119973182678223,-0.026161253452301025,0.03699037432670593,0.025410234928131104,-0.3714237804147274,-1.4474836899477546,-1.6036589948965108,-0.924735963344574,0.36294248700141907,-0.11461315304040909,-0.14820727705955505,0.2945511043071747,-0.004280049819499254
7.140121936798096,-0.020135939121246338,0.040462881326675415,0.028102397918701172,-0.3713325138987418,-1.442744019971082,-1.6075793172444843,-0.9242152571678162,0.362857460975647,-0.11899903416633606,-0.2096322923898697,0.31511756777763367,-0.06483316421508789
7.15997314453125,-0.006561398506164551,0.037145018577575684,0.044660016894340515,-0.3700791697305616,-1.4381002873624167,-1.6127584086568676,-0.924102783203125,0.3616892397403717,-0.1233496218919754,-0.258169949054718,0.3429325819015503,-0.11746346950531006
7.180021286010742,-0.0013369321823120117,0.03197219967842102,0.05090130865573883,-0.3682467860682712,-1.4331766772110281,-1.6195462762619293,-0.924139142036438,0.3599803149700165,-0.12798872590065002,-0.3521821200847626,0.3926803469657898,-0.1427651345729828
7.1999711990356445,0.0052214860916137695,0.026661455631256104,0.06721001863479614,-0.36625297606266255,-1.4279550545935917,-1.6290637488088544,-0.9241667985916138,0.3581194579601288,-0.13291437923908234,-0.5136629939079285,0.48033490777015686,-0.16998891532421112
7.2199811935424805,0.022884368896484375,0.01219746470451355,0.08694972097873688,-0.36461775385847955,-1.4222895767207877,-1.6423298917324944,-0.9239768385887146,0.35659220814704895,-0.13823451101779938,-0.6949959993362427,0.5662245750427246,-0.15708842873573303
7.239981174468994,0.03344428539276123,0.007493376731872559,0.0913393497467041,-0.36385494045843303,-1.4164915128894868,-1.6592769465959605,-0.9234284162521362,0.35587942600250244,-0.1436312198638916,-0.8546522259712219,0.6172423958778381,-0.15828244388103485
7.260031223297119,0.03597754240036011,0.01404869556427002,0.09009110927581787,-0.3632572807634169,-1.4109869876905623,-1.6790741752836644,-0.9228336811065674,0.35532084107398987,-0.14874587953090668,-0.9561943411827087,0.6346226334571838,-0.1785462200641632
7.280105113983154,0.03250795602798462,0.017092078924179077,0.07980234920978546,-0.3628254632661533,-1.4058082669626404,-1.7001364146429314,-0.9222021102905273,0.35491716861724854,-0.15354812145233154,-0.9722661375999451,0.6331243515014648,-0.17114678025245667
7.299993991851807,0.020758092403411865,0.026155024766921997,0.0755382776260376,-0.362369412449641,-1.400382854641796,-1.7206226414102375,-0.9215149283409119,0.3544907569885254,-0.1585765928030014,-0.9197730422019958,0.6481831073760986,-0.18513445556163788
7.319972991943359,0.020316779613494873,0.00735163688659668,0.07784448564052582,-0.36206424160700057,-1.3946193134612077,-1.7406382725351668,-0.9206922650337219,0.3542053997516632,-0.1639041006565094,-0.9255669116973877,0.635748028755188,-0.15325430035591125
7.340018272399902,0.01259535551071167,-0.019793063402175903,0.08175982534885406,-0.36268359638774156,-1.3893101675977013,-1.7616774755837386,-0.9195929169654846,0.3547845184803009,-0.16875019669532776,-1.0490844249725342,0.6477590203285217,-0.1265026032924652
7.35997200012207,-0.005800366401672363,-0.02786049246788025,0.07368099689483643,-0.3639521376595076,-1.3847948839873792,-1.7850920379507704,-0.9183787107467651,0.35597026348114014,-0.17281733453273773,-1.112243413925171,0.6534521579742432,-0.13979263603687286
7.379982948303223,-0.0031036734580993652,-0.00900992751121521,0.0664907842874527,-0.365252303373333,-1.3800484499417556,-1.8092478022674348,-0.9170928001403809,0.3571849763393402,-0.1770864874124527,-1.1349812746047974,0.6700767278671265,-0.1465192437171936
7.400004148483276,0.020518124103546143,-0.005566895008087158,0.05729134380817413,-0.36646733777686236,-1.3761267404897584,-1.8332901963431472,-0.9159648418426514,0.35831958055496216,-0.18059760332107544,-1.0874478816986084,0.5802712440490723,-0.14865826070308685
7.419973134994507,0.034668147563934326,0.012157231569290161,0.046768367290496826,-0.36761876601259763,-1.3737661723039758,-1.8552642124499288,-0.9151307940483093,0.3593943119049072,-0.18267841637134552,-0.927853524684906,0.4451366364955902,-0.1379266232252121
7.440000057220459,0.038849711418151855,0.031285643577575684,0.03434634208679199,-0.3680995454382475,-1.372446382310124,-1.8731857521561157,-0.9147194623947144,0.3598429262638092,-0.18385197222232819,-0.7193640470504761,0.3278515636920929,-0.14494305849075317
7.459977149963379,0.04753983020782471,0.03578409552574158,0.024839162826538086,-0.36757934276681914,-1.3724877212013256,-1.8866000331720278,-0.9149104356765747,0.3593575358390808,-0.18385101854801178,-0.5133744478225708,0.15559659898281097,-0.15252183377742767
7.479980945587158,0.04539692401885986,0.03906950354576111,0.014567852020263672,-0.3664299215981964,-1.37474547762223,-1.895846610651872,-0.9157277345657349,0.3582846522331238,-0.18186524510383606,-0.31645599007606506,-0.04734213277697563,-0.12234102189540863
7.499984264373779,0.0193173885345459,0.04047662019729614,0.00040584802627563477,-0.3651028551308168,-1.3789270962203592,-1.901205953837064,-0.9169461727142334,0.35704538226127625,-0.17812496423721313,-0.1683599054813385,-0.15738244354724884,-0.09587322175502777
7.52002215385437,0.00032442808151245117,0.03030949831008911,-0.018481731414794922,-0.3659575512124294,-1.382903943588194,-1.9076944135957523,-0.9173470735549927,0.3578436076641083,-0.17441992461681366,-0.5618435740470886,0.05453185364603996,0.09961946308612823
7.539981126785278,-0.013649702072143555,-0.012723356485366821,-0.10105286538600922,-0.3737671676167964,-1.3844857592368864,-1.9255863161780822,-0.9148474931716919,0.3651250898838043,-0.17244566977024078,-1.199756383895874,0.4358319938182831,0.36160364747047424
7.559973239898682,-0.009107232093811035,0.078192800283432,-0.2101929783821106,-0.3871068818582586,-1.380585249432676,-1.9512625008513225,-0.9093040227890015,0.3775109648704529,-0.17507624626159668,-1.2020121812820435,0.9284172058105469,0.521256685256958
7.579980134963989,0.023890137672424316,0.20611658692359924,-0.31540411710739136,-0.4031667032233494,-1.367298401200892,-1.9709228209708576,-0.9008432626724243,0.39233312010765076,-0.18589287996292114,-0.8468701839447021,1.0540310144424438,0.6422015428543091
7.599998950958252,0.06053173542022705,0.18406730890274048,-0.3046939969062805,-0.41686013218940776,-1.3521397725330182,-1.9797618132228436,-0.892593502998352,0.4048914611339569,-0.19834250211715698,-0.2785983681678772,0.7395315766334534,0.5289943814277649
7.619980096817017,0.08020281791687012,0.09276178479194641,-0.23422399163246155,-0.42590305594641026,-1.342966188874458,-1.980328441806365,-0.8871332406997681,0.4131433367729187,-0.20568689703941345,-0.005516079720109701,0.2355339527130127,0.3494052588939667
7.639995098114014,0.07527714967727661,-0.0014253556728363037,-0.16538849472999573,-0.43155122993579714,-1.339723695842621,-1.9783501796939638,-0.8841761946678162,0.41828030347824097,-0.20802463591098785,0.07043679803609848,0.03292207792401314,0.2753860056400299
7.659980058670044,0.10173726081848145,-0.024621635675430298,-0.11070185899734497,-0.4369198879381442,-1.337978651748389,-1.973402533305409,-0.8816139698028564,0.4231507182121277,-0.20904608070850372,0.21746329963207245,-0.06377872079610825,0.3465445041656494
7.680001258850098,0.09936720132827759,-0.0013370215892791748,-0.10220354795455933,-0.44182653989701376,-1.3370851263917511,-1.9650713061969647,-0.8793964982032776,0.42759132385253906,-0.20935040712356567,0.4057304263114929,-0.1840781420469284,0.305613249540329
7.699979066848755,0.08377379179000854,-0.001077413558959961,-0.09936100244522095,-0.4451542456767846,-1.3369468097798167,-1.953831526126453,-0.877978503704071,0.43059709668159485,-0.20914115011692047,0.5013878345489502,-0.2732135057449341,0.25123926997184753
7.719980239868164,0.07860654592514038,-0.031409621238708496,-0.06563180685043335,-0.4478415778960438,-1.3378498133020253,-1.9421994264149216,-0.8770378828048706,0.4330209791660309,-0.20808036625385284,0.4048190414905548,-0.3430507779121399,0.24947132170200348
7.739993095397949,0.06156092882156372,-0.039276838302612305,-0.04668325185775757,-0.45073130847447307,-1.341545227950198,-1.93435366483243,-0.8765786290168762,0.4356239140033722,-0.20455272495746613,0.22759154438972473,-0.3751559555530548,0.19042976200580597
7.759997129440308,0.051772892475128174,-0.006803005933761597,-0.05723153054714203,-0.453221209966379,-1.3469811254158857,-1.9300361563137436,-0.8766171932220459,0.4378637969493866,-0.19954335689544678,0.10646846145391464,-0.3482193350791931,0.16658048331737518
7.7800211906433105,0.05981647968292236,0.01254051923751831,-0.06285201013088226,-0.45597769583067876,-1.3530728282370257,-1.9277599726242987,-0.8766346573829651,0.4403403401374817,-0.19393815100193024,0.050498999655246735,-0.36138519644737244,0.12907765805721283
7.799983024597168,0.05620253086090088,0.02368175983428955,-0.06036601960659027,-0.4578284153628055,-1.3586882491038081,-1.9260924505222887,-0.8769116997718811,0.44200119376182556,-0.18884055316448212,0.06570397317409515,-0.2821333408355713,0.09946168959140778
7.820016145706177,0.06905919313430786,0.029416531324386597,-0.0697426050901413,-0.46007790786241265,-1.3627236575420363,-1.923656608332962,-0.8766915798187256,0.4440179169178009,-0.18509447574615479,0.10359446704387665,-0.23458462953567505,0.1794818937778473
7.8400702476501465,0.08747142553329468,0.03151986002922058,-0.06975485384464264,-0.4635065272904608,-1.3665250719831261,-1.920011603462642,-0.8758931159973145,0.4470874071121216,-0.18145062029361725,0.134987011551857,-0.30483192205429077,0.21913236379623413
7.860018253326416,0.08358854055404663,0.0415993332862854,-0.08026282489299774,-0.4670651529223719,-1.3715560937832199,-1.9157587264869318,-0.8752297163009644,0.4502677321434021,-0.17672565579414368,0.18454860150814056,-0.3817804753780365,0.2145157903432846
7.879980087280273,0.07844948768615723,0.06127983331680298,-0.08079300820827484,-0.47102045145974064,-1.3768211042043312,-1.9103183965504886,-0.8743935823440552,0.453795850276947,-0.17177048325538635,0.21650353074073792,-0.40098026394844055,0.24844178557395935
7.8999950885772705,0.07865142822265625,0.056936174631118774,-0.0851982831954956,-0.47481984427507307,-1.3823754726245903,-1.9039336538379372,-0.8736343383789062,0.4571782350540161,-0.16658702492713928,0.27876564860343933,-0.452172189950943,0.25653332471847534
7.920026063919067,0.09733861684799194,0.05423799157142639,-0.09875881671905518,-0.47899046163632175,-1.388431759892794,-1.8955099955445045,-0.8727445006370544,0.4608834981918335,-0.1609458178281784,0.32121896743774414,-0.5875447392463684,0.31563594937324524
7.9399800300598145,0.09825605154037476,0.057984501123428345,-0.10930763185024261,-0.4838016061764755,-1.3952782099062315,-1.8851297241324587,-0.8716325163841248,0.46514782309532166,-0.15457791090011597,0.4761192500591278,-0.6079623699188232,0.31828126311302185
7.95997428894043,0.06489908695220947,0.06595051288604736,-0.10237348079681396,-0.48837390540170816,-1.400577454139247,-1.871188703231007,-0.870334267616272,0.4691905081272125,-0.14959493279457092,0.6849645376205444,-0.5554915070533752,0.3350048065185547
7.979982137680054,0.03972870111465454,0.052731096744537354,-0.12483793497085571,-0.49242751622441716,-1.4021943130204606,-1.8526703916350107,-0.868692934513092,0.47276636958122253,-0.14786717295646667,0.8473683595657349,-0.48335930705070496,0.3357594609260559
8.000010013580322,0.029246389865875244,0.007653534412384033,-0.1269702911376953,-0.49600158288035473,-1.401632949203899,-1.831821745083787,-0.8669386506080627,0.47591277956962585,-0.148069366812706,0.8831304907798767,-0.45449134707450867,0.3319297134876251
8.02002215385437,0.0053771138191223145,-0.013610035181045532,-0.12449423968791962,-0.49965775469846146,-1.3996302828542404,-1.8101764180309896,-0.864919900894165,0.47912517189979553,-0.14950786530971527,0.9416400194168091,-0.37363290786743164,0.34810248017311096
8.039783000946045,-0.01705068349838257,-0.02899545431137085,-0.11722421646118164,-0.5027425770756806,-1.3960773396464612,-1.7875759060255259,-0.8629236221313477,0.48183056712150574,-0.15232227742671967,0.9383597373962402,-0.3908769488334656,0.28696513175964355
8.059982061386108,-0.07041352987289429,-0.04751318693161011,-0.12848490476608276,-0.5043379489016334,-1.395426138737383,-1.7660472099843059,-0.8620663285255432,0.48322793841362,-0.15274988114833832,0.9133680462837219,-0.5853520035743713,0.2126203328371048
8.079891204833984,-0.17861157655715942,-0.03566500544548035,-0.13370712101459503,-0.5053582128618506,-1.3970305275856005,-1.7451311508723377,-0.8618243336677551,0.4841209053993225,-0.15128129720687866,0.8262545466423035,-0.5727220177650452,0.19300015270709991
8.100151062011719,-0.25494927167892456,-0.03187820315361023,-0.05867290496826172,-0.5058086123805008,-1.3989797775710757,-1.7293001200119655,-0.8619025349617004,0.4845149517059326,-0.1495637744665146,0.5522087812423706,-0.36860954761505127,0.08309455215930939
8.120049953460693,-0.1936364769935608,0.005379348993301392,-0.03997248411178589,-0.504924279234078,-1.3978161202440924,-1.716270928196978,-0.8621495962142944,0.4837411642074585,-0.1506403237581253,0.6268777251243591,-0.2067069411277771,0.05454341694712639
8.140017986297607,-0.11486619710922241,0.036643415689468384,-0.019556090235710144,-0.504315456426955,-1.39513173000464,-1.7009770875713044,-0.862031877040863,0.48320823907852173,-0.15300554037094116,0.687137246131897,-0.2717302143573761,0.11393436044454575
