timestamp,acceleration_x,acceleration_y,acceleration_z,attitude_pitch,attitude_roll,attitude_yaw,gravity_x,gravity_y,gravity_z,rotation_x,rotation_y,rotation_z
0.0,-0.17611968517303467,-0.41615378856658936,0.24541625380516052,-0.5726979324035947,-1.275665962026039,-1.3643047843868006,-0.8041049838066101,0.5419014692306519,-0.24445484578609467,0.20774751901626587,1.0281188488006592,1.2944982051849365
0.020866870880126953,-0.16043168306350708,-0.4123390316963196,0.23964598774909973,-0.5929111021792244,-1.2492125153422915,-1.3502111508578323,-0.7868034839630127,0.5587776303291321,-0.2621220648288727,0.34357255697250366,0.8540558815002441,0.9926230311393738
0.042279958724975586,-0.169427752494812,-0.41193073987960815,0.250588059425354,-0.6055919942180016,-1.2242573465858988,-1.3328611341235819,-0.7732908725738525,0.5692489147186279,-0.2792440354824066,0.5753183364868164,0.6568880677223206,0.6869220733642578
0.06267404556274414,-0.1960155963897705,-0.43830370903015137,0.2840852737426758,-0.6118858252303436,-1.2041981594407067,-1.3156160035835402,-0.7641742825508118,0.5744121670722961,-0.2934083342552185,0.46844249963760376,0.3652821481227875,0.4018843173980713
0.07987785339355469,-0.26958543062210083,-0.4875941276550293,0.3417586386203766,-0.6147277018782127,-1.1924246782636791,-1.3066533904042046,-0.759147047996521,0.5767360925674438,-0.3017805516719818,0.06256991624832153,0.38609227538108826,0.14021408557891846
0.10001373291015625,-0.27834635972976685,-0.5718523859977722,0.41679495573043823,-0.617194395883812,-1.1847802650975279,-1.3126714390860297,-0.7554976940155029,0.5787494778633118,-0.3070383667945862,-0.6212491393089294,0.7194616794586182,-0.11179454624652863
0.12001585960388184,-0.1737828254699707,-0.633117139339447,0.3829928934574127,-0.6200045843898035,-1.1826754601814777,-1.3351691239119046,-0.7533412575721741,0.5810388922691345,-0.30801108479499817,-1.1193406581878662,0.676278293132782,-0.3191586434841156
0.13993287086486816,-0.09507066011428833,-0.5381600856781006,0.2646007537841797,-0.6203401775420501,-1.1929280503243511,-1.3643693448074157,-0.7562783360481262,0.5813120007514954,-0.30019938945770264,-1.0017080307006836,-0.105108343064785,-0.5527002811431885
0.1600017547607422,-0.2767191529273987,-0.3475586771965027,0.2175370454788208,-0.612760994099196,-1.2180178507548938,-1.3879935960632088,-0.7676840424537659,0.5751283168792725,-0.28264620900154114,-0.5786737203598022,-0.890766978263855,-0.8909673094749451
0.17993783950805664,-0.6937699317932129,-0.25608164072036743,0.36796772480010986,-0.5971032524216627,-1.2432092551955345,-1.4106343628666949,-0.7829909920692444,0.5622493028640747,-0.2660846710205078,-0.8298119306564331,-0.07289394736289978,-1.1976641416549683
0.19995403289794922,-0.7682538032531738,-0.3792761564254761,0.47988784313201904,-0.5818974450855819,-1.2540589143255574,-1.4499114138782825,-0.7938647866249084,0.5496100783348083,-0.26020699739456177,-1.87613844871521,0.9606449007987976,-1.2367572784423828
0.21994686126708984,-0.4210847020149231,-0.4306960701942444,0.36655616760253906,-0.5725898503821419,-1.2709775444281104,-1.510272099242912,-0.8030059337615967,0.5418106317520142,-0.2482394129037857,-2.4662554264068604,0.5052452683448792,-1.1923786401748657
0.23935985565185547,-0.2804015278816223,-0.24213403463363647,0.1722150444984436,-0.5632934319886681,-1.2977898881568264,-1.5693557258799948,-0.81418776512146,0.5339736938476562,-0.22797060012817383,-1.965872049331665,0.06199497729539871,-1.1259784698486328
0.26013898849487305,-0.2511415481567383,-0.13555192947387695,0.07776647806167603,-0.5492073868553485,-1.3217920901508373,-1.6127708932151104,-0.8266326189041138,0.5220113396644592,-0.21019738912582397,-1.2754908800125122,-0.15209431946277618,-1.2024859189987183
0.2799530029296875,-0.17692333459854126,-0.18356823921203613,0.09971854090690613,-0.5305960377138049,-1.3414562588938657,-1.6429657415186645,-0.8399223685264587,0.5060474872589111,-0.19607765972614288,-0.8673511743545532,-0.2481960952281952,-1.197719931602478
0.29995203018188477,-0.12194818258285522,-0.21681860089302063,0.15368175506591797,-0.5107737054965608,-1.3594238466088508,-1.6677983053820598,-0.852951169013977,0.4888523519039154,-0.1830243021249771,-0.8871971964836121,-0.2914407551288605,-1.2200719118118286
0.31998300552368164,-0.132360577583313,-0.21845152974128723,0.1941542774438858,-0.4901470679188934,-1.377356283595864,-1.6975076457438127,-0.8658084273338318,0.4707556366920471,-0.16960276663303375,-1.3091273307800293,-0.051695987582206726,-1.333357810974121
0.3399820327758789,-0.09756660461425781,-0.22316038608551025,0.18465185165405273,-0.4680616654109776,-1.3952019447378365,-1.7384698187791678,-0.8787213563919067,0.45115727186203003,-0.15590418875217438,-1.8569047451019287,0.10751869529485703,-1.5067265033721924
0.3599848747253418,-0.005498290061950684,-0.14565026760101318,0.14693224430084229,-0.44325699548748426,-1.4158878635240677,-1.7887413148441205,-0.8925426006317139,0.42888396978378296,-0.13937906920909882,-2.1405110359191895,0.01239759847521782,-1.680723786354065
0.37998199462890625,0.0587310791015625,-0.015748977661132812,0.1137247085571289,-0.4145110560769169,-1.4392860687697588,-1.8406503483961254,-0.9074097871780396,0.4027424454689026,-0.12002644687891006,-2.0836563110351562,-0.1953461915254593,-1.840418815612793
0.39998388290405273,0.060418903827667236,0.10743328928947449,0.08449064195156097,-0.3812755643271509,-1.4625101699799776,-1.8868557882217751,-0.9227543473243713,0.3721047341823578,-0.10031391680240631,-1.7261850833892822,-0.3198970854282379,-1.9661308526992798
0.42000484466552734,0.03251314163208008,0.21117329597473145,0.04674047231674194,-0.3443432781175392,-1.4830963862534177,-1.9232874947359027,-0.9376798272132874,0.33757856488227844,-0.08244594931602478,-1.3263218402862549,-0.4518323242664337,-2.0503628253936768
0.44003987312316895,0.009127914905548096,0.30687010288238525,0.01719551533460617,-0.30474328425891367,-1.5021697637707228,-1.951034917259839,-0.9516788721084595,0.300048291683197,-0.06541316956281662,-1.0008498430252075,-0.5662789344787598,-2.0980465412139893
0.4600367546081543,0.004370570182800293,0.37602171301841736,-0.07364082336425781,-0.26406026333670246,-1.520195482566325,-1.970831609136273,-0.9641027450561523,0.26100221276283264,-0.04882609099149704,-0.6496536731719971,-0.7029138803482056,-2.080395221710205
0.47998905181884766,0.028240680694580078,0.44648614525794983,-0.18033456802368164,-0.22363187718595418,-1.538044732737121,-1.9812154036911904,-0.9745755195617676,0.22177252173423767,-0.03193031996488571,-0.183026984333992,-0.8214790225028992,-1.9814751148223877
0.5000920295715332,0.08245837688446045,0.5130164623260498,-0.23425614833831787,-0.1864568074199566,-1.5549450888107954,-1.983273161526303,-0.9825438261032104,0.1853782832622528,-0.015575840137898922,0.014721496030688286,-0.8161333203315735,-1.726346731185913
0.5199418067932129,0.1344349980354309,0.5144715905189514,-0.2522794008255005,-0.1548013304801373,-1.5705552754809529,-1.9836736521220124,-0.9880422353744507,0.15418380498886108,-0.00023816888278815895,-0.07945327460765839,-0.732021689414978,-1.4283534288406372
0.5406060218811035,0.17331629991531372,0.4965406358242035,-0.291467547416687,-0.1301386469210814,-1.5847948891933794,-1.988101233750327,-0.9914469718933105,0.1297716200351715,0.013879738748073578,-0.4152183532714844,-0.6407488584518433,-1.0336413383483887
0.5601320266723633,0.1755582094192505,0.4981408715248108,-0.3308432102203369,-0.11295426586171822,-1.5973687877321259,-2.000425520761843,-0.993276834487915,0.11271423101425171,0.026400024071335793,-0.8236733675003052,-0.4697328209877014,-0.6788637042045593
0.5801167488098145,0.1495400071144104,0.5124528408050537,-0.3958742618560791,-0.10139879599139413,-1.6071701348763956,-2.0183642955461734,-0.99420565366745,0.1012251228094101,0.03617900237441063,-0.9483408331871033,-0.30668532848358154,-0.4319015145301819
0.6047630310058594,0.14671385288238525,0.5605614185333252,-0.4402984380722046,-0.09398054564855565,-1.6132388376743587,-2.0365838020961426,-0.9946906566619873,0.09384226053953171,0.042242538183927536,-0.8663247227668762,-0.16324949264526367,-0.2514486610889435
0.6199889183044434,0.15753793716430664,0.5870019793510437,-0.47986936569213867,-0.08932527957861229,-1.6178721826815408,-2.0508386968056485,-0.9949098825454712,0.08920653909444809,0.04687086120247841,-0.5453908443450928,-0.18112827837467194,-0.15360990166664124
0.6392159461975098,0.1339474320411682,0.624338686466217,-0.5119103193283081,-0.08713628156236,-1.6221237833909294,-2.057022842755333,-0.99489426612854,0.08702605962753296,0.05111028254032135,-0.07640033215284348,-0.17517638206481934,-0.027649668976664543
0.6596579551696777,0.08409851789474487,0.6282913684844971,-0.4749091863632202,-0.08865206530509773,-1.6230677417618375,-2.0558680729897647,-0.9947125315666199,0.08853598684072495,0.052042435854673386,0.12677185237407684,0.09219309687614441,0.19527959823608398
0.6800169944763184,0.08084714412689209,0.5522550940513611,-0.38363587856292725,-0.09584078271353612,-1.6196539189086796,-2.0557065726800605,-0.9942231178283691,0.09569412469863892,0.04861403629183769,-0.10915122926235199,0.1899336874485016,0.5383492112159729
0.6999859809875488,0.012872934341430664,0.531304657459259,-0.3682363033294678,-0.10969279084723017,-1.6169847689013044,-2.0598784864614514,-0.9929298758506775,0.10947294533252716,0.045894525945186615,-0.17237603664398193,0.14206966757774353,0.8374225497245789
0.7197847366333008,-0.18132299184799194,0.6233237385749817,-0.4102717638015747,-0.12763289560433305,-1.6134470605600992,-2.0609055784646992,-0.9909642338752747,0.1272866576910019,0.04229099676012993,0.21077308058738708,0.2489376962184906,0.9570620059967041
0.7408969402313232,-0.31244224309921265,0.6714892983436584,-0.3757319450378418,-0.1485603338810363,-1.6047457110539205,-2.0516749287834983,-0.9884153604507446,0.14801447093486786,0.03356898948550224,0.774407148361206,0.4874440133571625,1.1126607656478882
0.7600150108337402,-0.3264772891998291,0.5783480405807495,-0.24085068702697754,-0.17388497267707406,-1.5906650610534225,-2.034064579297301,-0.984725832939148,0.17301003634929657,0.019567830488085747,0.960862934589386,0.6102445721626282,1.3969229459762573
0.7799849510192871,-0.3483121395111084,0.436145544052124,-0.10545778274536133,-0.2052616402896276,-1.573497218349344,-2.0169100706998035,-0.9790042042732239,0.20382331311702728,0.002644190564751625,0.7473732829093933,0.8341532349586487,1.7149975299835205
0.799983024597168,-0.38129138946533203,0.3115619421005249,-0.045175373554229736,-0.24148315967570974,-1.5507841273886573,-2.0034281311015905,-0.9707900881767273,0.2391430139541626,-0.019430238753557205,0.5595644116401672,1.1182186603546143,1.902585506439209
0.8200409412384033,-0.31396812200546265,0.2187989354133606,-0.003919128328561783,-0.28038985111180237,-1.5243632925727084,-1.9907385463100618,-0.9599121809005737,0.2767302989959717,-0.04460369423031807,0.5833695530891418,1.1476831436157227,2.028855085372925
0.8399820327758789,-0.23430949449539185,0.1806516945362091,0.008806221187114716,-0.32019903971199964,-1.498454245920718,-1.9727692361578804,-0.9466904997825623,0.31475549936294556,-0.06860528141260147,0.958156406879425,0.9074623584747314,2.041111469268799
0.8600778579711914,-0.21776503324508667,0.15511849522590637,0.04251009225845337,-0.35849254268609276,-1.470547561973629,-1.9427377308144405,-0.9317254424095154,0.3508630096912384,-0.09371848404407501,1.5277150869369507,0.9154177308082581,2.044537305831909
0.8799839019775391,-0.16783374547958374,0.06387931108474731,0.1121344044804573,-0.39499696709471793,-1.4361213204019223,-1.9005202066969655,-0.9146401286125183,0.3848053812980652,-0.12392932176589966,1.9092656373977661,0.9641745090484619,2.0481958389282227
0.9000329971313477,-0.06497031450271606,-0.05621093511581421,0.1906149536371231,-0.4295098196878387,-1.397616610334319,-1.8512165773176203,-0.8955705165863037,0.4164251983165741,-0.15666396915912628,2.0131185054779053,0.8850929737091064,2.0696938037872314
0.9191360473632812,-0.012927114963531494,-0.13980653882026672,0.23321962356567383,-0.462825068777147,-1.3602920777875,-1.799507072188913,-0.8750429749488831,0.4464777410030365,-0.18697012960910797,1.9324504137039185,0.5931428074836731,2.096210241317749
0.9399979114532471,-0.09969860315322876,-0.1767352819442749,0.26812243461608887,-0.49475469726556603,-1.3246045183904906,-1.7476225370544471,-0.8535485863685608,0.4748157858848572,-0.21448767185211182,1.812697410583496,0.7017608880996704,2.057826519012451
0.9599900245666504,-0.18816465139389038,-0.2510920763015747,0.3274526596069336,-0.5247897777794621,-1.2835800789272476,-1.6998435365454396,-0.8299781084060669,0.5010311007499695,-0.2451619654893875,1.3690890073776245,1.0288035869598389,1.9320073127746582
0.9799580574035645,-0.1363900899887085,-0.3555617332458496,0.41503050923347473,-0.5538933303701482,-1.2426132718702902,-1.6637684160381343,-0.8050925135612488,0.5260024070739746,-0.27413079142570496,0.7469818592071533,1.2180869579315186,1.7879915237426758
0.9999899864196777,-0.07421475648880005,-0.3669361472129822,0.40336140990257263,-0.5814460453296091,-1.202924312110065,-1.6358827395666888,-0.7797586917877197,0.5492329001426697,-0.3005323112010956,0.6018392443656921,1.199802279472351,1.621374249458313
1.0199918746948242,-0.04379129409790039,-0.32004690170288086,0.3839798867702484,-0.6053191575515667,-1.1654289235271105,-1.6071794161964637,-0.7556777596473694,0.5690245628356934,-0.32428741455078125,0.7215104699134827,0.9087705612182617,1.4971892833709717
1.0400729179382324,-0.06633031368255615,-0.33095693588256836,0.39694705605506897,-0.6246362643182474,-1.132046513313543,-1.5759198890050616,-0.7343442440032959,0.5848022699356079,-0.3445940911769867,0.7785831689834595,0.6891866326332092,1.3064383268356323
1.059983730316162,-0.11823070049285889,-0.4106888175010681,0.4453257620334625,-0.6397356623308159,-1.1021464252368054,-1.548969314494116,-0.7157537341117859,0.5969833731651306,-0.36236363649368286,0.4623241126537323,0.7191234230995178,0.9909080266952515
1.0799827575683594,-0.1231502890586853,-0.4208897352218628,0.47528931498527527,-0.6510341866156432,-1.0782442900558413,-1.532380080512774,-0.700900673866272,0.6060093641281128,-0.3761528730392456,0.24662458896636963,0.6689015626907349,0.6441918015480042
1.099991798400879,-0.08399486541748047,-0.41275739669799805,0.46547698974609375,-0.6584412200021866,-1.05985497815998,-1.5210532878979488,-0.6899310350418091,0.6118847131729126,-0.3867720365524292,0.17465467751026154,0.4806915521621704,0.4661228060722351
1.1199798583984375,-0.06215733289718628,-0.42791861295700073,0.44785183668136597,-0.6640403686444245,-1.046451735687327,-1.5126743112808938,-0.6817086935043335,0.6163036823272705,-0.3942628800868988,0.10998594760894775,0.3335343301296234,0.3369840085506439
1.139981746673584,-0.07300537824630737,-0.441100537776947,0.4758264422416687,-0.6683080824051815,-1.0384181596956987,-1.5093923857591272,-0.6762470602989197,0.6196589469909668,-0.39838799834251404,-0.1400534212589264,0.2530228793621063,0.15593180060386658
1.1599807739257812,-0.11682629585266113,-0.44548022747039795,0.42464056611061096,-0.6722027642876925,-1.04133622052816,-1.5165827434699528,-0.6753185391426086,0.6227110624313354,-0.3951909840106964,-0.5473283529281616,-0.13200804591178894,-0.10833410173654556
1.1800179481506348,-0.22301369905471802,-0.4062662720680237,0.379111647605896,-0.6746639154852649,-1.058882533261211,-1.5349281347251966,-0.6808102130889893,0.6246349215507507,-0.3825295567512512,-0.7912962436676025,-0.39908841252326965,-0.3879466950893402
1.2000138759613037,-0.33460140228271484,-0.3800346851348877,0.4057353436946869,-0.6743294557522667,-1.0813486962645569,-1.561413517274437,-0.6894159317016602,0.6243736743927002,-0.36723729968070984,-1.0377081632614136,-0.14418846368789673,-0.6342105269432068
1.2200727462768555,-0.33387959003448486,-0.39732474088668823,0.41224801540374756,-0.6718144655852852,-1.1044347285570737,-1.5976160353426538,-0.6991099715232849,0.6224071979522705,-0.3519299328327179,-1.352744698524475,-0.0010823458433151245,-0.8901140093803406
1.2399568557739258,-0.24730902910232544,-0.3430441617965698,0.3103218972682953,-0.665313299156013,-1.1350289469195853,-1.6400636192171891,-0.7132012844085693,0.6173056364059448,-0.33208081126213074,-1.2754203081130981,-0.48990148305892944,-1.149408221244812
1.2600207328796387,-0.2660215497016907,-0.20165175199508667,0.21447989344596863,-0.6507276360637386,-1.1745496117456056,-1.677651960182188,-0.7339937686920166,0.6057655215263367,-0.30708539485931396,-0.8430729508399963,-1.1571310758590698,-1.4113850593566895
1.2800068855285645,-0.4533954858779907,-0.10435527563095093,0.22492671012878418,-0.6259429219725402,-1.2192704227206799,-1.707895454781698,-0.7608532905578613,0.5858616828918457,-0.2790495455265045,-0.5957642793655396,-1.3963909149169922,-1.8012721538543701
1.2999849319458008,-0.6392260193824768,-0.07892060279846191,0.29528114199638367,-0.5936489369598547,-1.25994960097257,-1.7398749708302488,-0.7891797423362732,0.5593893527984619,-0.2535329759120941,-0.8851470351219177,-0.7381071448326111,-2.07060170173645
1.3199939727783203,-0.49526089429855347,-0.1506316065788269,0.2760462164878845,-0.5600896669397003,-1.2908155159588357,-1.779731699987952,-0.8142179846763611,0.5312621593475342,-0.23411498963832855,-1.3338278532028198,-0.34590399265289307,-2.0977296829223633
1.3399908542633057,-0.2089967131614685,-0.09247934818267822,0.12510409951210022,-0.5272097003442578,-1.3240102736747392,-1.8227823784387103,-0.8380308747291565,0.5031238794326782,-0.21111777424812317,-1.2537391185760498,-0.8483702540397644,-2.0442233085632324
1.359982967376709,-0.11038631200790405,0.05407556891441345,-0.03840702772140503,-0.4933262736479201,-1.362562055327509,-1.8550038541586535,-0.8617359399795532,0.4735581576824188,-0.1820823848247528,-0.7021592259407043,-1.3348808288574219,-1.8923183679580688
1.379991054534912,-0.1630963683128357,0.08672818541526794,-0.09291744232177734,-0.4593632560659244,-1.3979904587860001,-1.8741812085523077,-0.8829852938652039,0.44337746500968933,-0.1541222333908081,-0.43662190437316895,-1.260259985923767,-1.779877781867981
1.39998197555542,-0.21336525678634644,0.06141909956932068,-0.06543195247650146,-0.42737935342061056,-1.4281831747847709,-1.8929798352855352,-0.9008163809776306,0.4144873023033142,-0.1293463557958603,-0.7930527329444885,-0.9434811472892761,-1.6397000551223755
1.419990062713623,-0.18945205211639404,0.06006285548210144,-0.03250479698181152,-0.3991188605297124,-1.45348270641212,-1.9184329134315743,-0.9150707125663757,0.38860660791397095,-0.10784545540809631,-1.1561754941940308,-0.5802121162414551,-1.476442813873291
1.439979076385498,-0.13665318489074707,0.10091692209243774,-0.016349196434020996,-0.3743814360434545,-1.4740411330659589,-1.9529453354116946,-0.9263810515403748,0.36569687724113464,-0.08991292864084244,-1.7644950151443481,-0.18766306340694427,-1.35504150390625
1.4599809646606445,-0.07889747619628906,0.10396486520767212,-0.08918076753616333,-0.34973053630005474,-1.4911028373850146,-1.995930328784684,-0.9364835023880005,0.34264466166496277,-0.07479003816843033,-1.9802663326263428,-0.026495294645428658,-1.4273663759231567
1.4799809455871582,0.04233211278915405,0.21360626816749573,-0.14029884338378906,-0.3236780535741163,-1.5057063961757293,-2.038542532119007,-0.9460645318031311,0.31805574893951416,-0.06166638433933258,-1.6993752717971802,-0.0875319316983223,-1.4692695140838623
1.5000078678131104,0.1707371473312378,0.3053056597709656,-0.18111151456832886,-0.2963807448419403,-1.5205240787432666,-2.0712255480002932,-0.9551915526390076,0.2920606732368469,-0.04806011915206909,-1.2237135171890259,-0.4026910364627838,-1.4159177541732788
1.5200729370117188,0.24865591526031494,0.3213038444519043,-0.1838415265083313,-0.26945418602135596,-1.5364265808076265,-2.0912759521464386,-0.9633471965789795,0.266205370426178,-0.033123042434453964,-0.6182392239570618,-0.6216861009597778,-1.3675487041473389
1.5399868488311768,0.25858545303344727,0.323760986328125,-0.17742902040481567,-0.2429531542425377,-1.5533613956403354,-2.1012444928013236,-0.9704843759536743,0.2405700981616974,-0.01692204363644123,-0.27490919828414917,-0.7866841554641724,-1.302720546722412
1.5599899291992188,0.23120832443237305,0.3343045115470886,-0.20271235704421997,-0.21753218168406097,-1.5695300046536746,-2.1037724932765265,-0.9764325022697449,0.21582062542438507,-0.0012364786816760898,0.02909758687019348,-0.7694243788719177,-1.2476303577423096
1.579981803894043,0.2171453833580017,0.3667517602443695,-0.2470991611480713,-0.19378501942145812,-1.5838570147153257,-2.1004543568150096,-0.9811988472938538,0.19257444143295288,0.012815861031413078,0.26191335916519165,-0.7397759556770325,-1.140432357788086
1.5995450019836426,0.22336626052856445,0.35198765993118286,-0.25799059867858887,-0.17240952658151346,-1.5968147963079289,-2.0951514866081746,-0.984840989112854,0.17155665159225464,0.025629838928580284,0.1667764037847519,-0.6594672799110413,-0.9985373616218567
1.619980812072754,0.22374284267425537,0.3507445454597473,-0.2709094285964966,-0.15441551923783378,-1.6089073328860801,-2.0927978403867726,-0.9873844385147095,0.15380260348320007,0.03764844313263893,0.006655033212155104,-0.5987887382507324,-0.813190221786499
1.6399807929992676,0.18738007545471191,0.35649603605270386,-0.2913445234298706,-0.14045580887357317,-1.619984452818882,-2.0924389217039305,-0.9889549016952515,0.13999444246292114,0.04868410900235176,-0.017306331545114517,-0.5117759704589844,-0.5690428018569946
1.6600189208984375,0.13459497690200806,0.3683444857597351,-0.28817713260650635,-0.13140778822648636,-1.6293017517900217,-2.092888944296514,-0.9896822571754456,0.1310299187898636,0.05796793848276138,-0.08621805161237717,-0.4007284641265869,-0.3540715277194977
1.6799798011779785,0.07072323560714722,0.422611802816391,-0.2729156017303467,-0.12578480560596383,-1.6360366455388256,-2.096098468155615,-0.9899890422821045,0.125453382730484,0.06467898935079575,-0.24571695923805237,-0.2276170402765274,-0.19534903764724731
1.700002908706665,0.03977125883102417,0.4322444200515747,-0.2673466205596924,-0.12325850587025043,-1.6388055895451474,-2.0996161195954595,-0.9901193380355835,0.12294664233922958,0.06744129210710526,-0.10007277876138687,-0.03583313524723053,-0.027941374108195305
1.7200050354003906,0.039530932903289795,0.40599048137664795,-0.26852095127105713,-0.1246820429422229,-1.6393103593179252,-2.1012140175899625,-0.9899094104766846,0.12435925006866455,0.06792900711297989,-0.07978692650794983,-0.01188625767827034,0.18264959752559662
1.7400708198547363,0.04172450304031372,0.3787136375904083,-0.22309660911560059,-0.1297525699976895,-1.6384459671303528,-2.104009228787283,-0.9893261194229126,0.12938879430294037,0.06702984124422073,-0.1242668479681015,0.13134236633777618,0.3219112753868103
1.7599809169769287,0.010408222675323486,0.35360729694366455,-0.22661423683166504,-0.1369171654422907,-1.635431945597402,-2.107696521073004,-0.9885730147361755,0.13648977875709534,0.0639861598610878,-0.16550396382808685,0.21863402426242828,0.4145856201648712
1.7799997329711914,-0.011557579040527344,0.3045310974121094,-0.21221256256103516,-0.14535153062986766,-1.6301970003724908,-2.1103691522297074,-0.9877099990844727,0.14484025537967682,0.05873974412679672,-0.02540627121925354,0.3522798717021942,0.44557955861091614
1.7999799251556396,-0.02161121368408203,0.26002198457717896,-0.15743756294250488,-0.1546872333307545,-1.6219794025763101,-2.11148671368358,-0.9867660403251648,0.15407107770442963,0.05054986849427223,-0.09261684119701385,0.46945738792419434,0.4681890606880188
1.8200278282165527,-0.054289817810058594,0.2396610826253891,-0.14246678352355957,-0.16248113609742726,-1.613790769683151,-2.115463688264654,-0.9859172105789185,0.1617671549320221,0.04241510108113289,-0.2051086723804474,0.3959793448448181,0.33495935797691345
1.8399889469146729,-0.0953415036201477,0.20491094887256622,-0.12157368659973145,-0.1678703983451815,-1.6081411189896369,-2.1184575617749095,-0.9852554202079773,0.16708306968212128,0.03681127354502678,0.012328192591667175,0.21011103689670563,0.17667555809020996
1.8599967956542969,-0.2522261142730713,0.28800591826438904,-0.13838744163513184,-0.1684784948549267,-1.6022583864795403,-2.111324729614549,-0.9853533506393433,0.16768258810043335,0.03101147897541523,0.7280772924423218,0.38076549768447876,-0.10845597833395004
1.879983901977539,-0.2632330656051636,0.3681148886680603,-0.17678451538085938,-0.16598672695507571,-1.587022883250081,-2.0903174986859696,-0.986126184463501,0.1652255803346634,0.01600283570587635,1.2711565494537354,0.7707119584083557,-0.15083512663841248
1.8999879360198975,0.053926944732666016,0.2204304039478302,-0.02697545289993286,-0.16465093725123955,-1.5668190364054706,-2.0615926251808756,-0.9864679574966431,0.1639080047607422,-0.003923490177839994,1.5442261695861816,0.7273340225219727,0.024950167164206505
1.919990062713623,0.2519562244415283,0.10420757532119751,0.09500223398208618,-0.16984704398662595,-1.5501415654352886,-2.0303119349579255,-0.9854006767272949,0.16903159022331238,-0.020356111228466034,1.5651962757110596,0.38305556774139404,0.5085357427597046
1.9399909973144531,0.1267237663269043,0.07979415357112885,0.11992722749710083,-0.1810350331159894,-1.5387805728292223,-1.9953375796534811,-0.9831539988517761,0.18004779517650604,-0.031487174332141876,1.8677918910980225,0.2646632194519043,0.6616177558898926
1.9599800109863281,-0.10898232460021973,0.09027920663356781,0.16460412740707397,-0.1921666018467978,-1.5248373115294551,-1.9571183747217058,-0.9805564284324646,0.19098606705665588,-0.04509716480970383,1.7809183597564697,0.2695907950401306,0.5406067967414856
1.9800219535827637,-0.19134992361068726,0.07952268421649933,0.31469184160232544,-0.20011535132325087,-1.5180124465081999,-1.9229745610654414,-0.9786788821220398,0.19878238439559937,-0.051706500351428986,1.5186426639556885,-0.1417311728000641,0.48219528794288635
2.0000548362731934,-0.09788674116134644,-0.07912378013134003,0.5300619006156921,-0.21004411469951423,-1.5120044757967541,-1.89607744370098,-0.9763320684432983,0.20850305259227753,-0.05746659263968468,1.0587605237960815,0.23281040787696838,0.6601377129554749
2.0199780464172363,0.0657225251197815,-0.2821199893951416,0.5415505766868591,-0.22256686000515086,-1.499959796169011,-1.8754969892656899,-0.9728882312774658,0.2207338958978653,-0.06903152912855148,1.001442551612854,0.46635326743125916,0.6734020113945007
2.039980888366699,0.2739388942718506,-0.2355087250471115,0.33223068714141846,-0.2336305373642992,-1.4875692502512163,-1.8498980693673392,-0.9694650769233704,0.2315109521150589,-0.0808725580573082,1.5087627172470093,0.07588327676057816,0.6154748797416687
2.060081958770752,0.44630372524261475,-0.1733555644750595,0.20423102378845215,-0.24171193895189597,-1.4841185694571364,-1.8102036926711742,-0.9672848582267761,0.23936514556407928,-0.0840526819229126,2.2026846408843994,-0.6406593918800354,0.5321662425994873
2.0799880027770996,0.4937998056411743,-0.233692929148674,0.30113905668258667,-0.24799156275611606,-1.4893849806686799,-1.7636140903547628,-0.9661967158317566,0.2454574555158615,-0.07883361726999283,2.1120829582214355,-0.970470130443573,0.4538087248802185
2.099329948425293,0.3633292317390442,-0.42299580574035645,0.401949942111969,-0.25082825600957454,-1.499330165666311,-1.7284319909736323,-0.966234564781189,0.24820637702941895,-0.06917087733745575,1.081368088722229,-0.8305932879447937,0.04084384813904762
2.1199779510498047,0.28859943151474,-0.47609955072402954,0.43265634775161743,-0.24831207845648376,-1.5069907565640168,-1.712611298443183,-0.9673564434051514,0.24576815962791443,-0.06180662661790848,0.43606558442115784,-0.43556249141693115,-0.12649327516555786
2.1399779319763184,0.28688228130340576,-0.3157389461994171,0.48069387674331665,-0.2469837981510605,-1.5124484758674375,-1.7085540989866363,-0.9680042266845703,0.24448040127754211,-0.05654514953494072,-0.0042616231366992,-0.20409245789051056,0.000657419441267848
2.159993886947632,0.28930968046188354,-0.25298699736595154,0.4155734181404114,-0.24628346950660343,-1.5140619986552886,-1.7091016872921194,-0.9682649970054626,0.2438012659549713,-0.054992880672216415,0.06139884144067764,0.05107628554105759,-0.07488196343183517
2.1799798011779785,0.3557906150817871,-0.22978214919567108,0.28221917152404785,-0.24452557651168189,-1.5105503884392912,-1.7035201032619285,-0.9684922695159912,0.24209603667259216,-0.05841841921210289,0.5321080684661865,0.11860188841819763,-0.05723155289888382
2.2000539302825928,0.44414079189300537,-0.14547869563102722,0.19420284032821655,-0.2426559564974595,-1.5061721791219387,-1.6866161767548506,-0.9686771631240845,0.2402816116809845,-0.0626872256398201,1.1118462085723877,-0.15559841692447662,-0.0159873329102993
2.219972848892212,0.47124385833740234,-0.07420614361763,0.19263744354248047,-0.24290874431826265,-1.5094694961618416,-1.6591640214066254,-0.968817949295044,0.2405269891023636,-0.059489134699106216,1.484687328338623,-0.8699012398719788,0.2593376636505127
2.239978790283203,0.2872629165649414,-0.08142648637294769,0.19763565063476562,-0.2490473700324117,-1.522847780440776,-1.6289265781093547,-0.9680339097976685,0.24648083746433258,-0.046451423317193985,1.3075621128082275,-1.0373088121414185,0.43632394075393677
2.259976863861084,-0.0034609436988830566,-0.1827428638935089,0.31411296129226685,-0.2549697549364101,-1.532253195682595,-1.6131041351311706,-0.9669523239135742,0.2522161304950714,-0.037287838757038116,0.022422026842832565,-0.18100452423095703,0.13379572331905365
2.2799768447875977,-0.08481621742248535,-0.3768434226512909,0.4158444404602051,-0.2575026101110177,-1.5315789803169648,-1.6269554576445553,-0.9662855267524719,0.2546662986278534,-0.03791459649801254,-1.3009649515151978,0.42335373163223267,0.22759047150611877
2.3000009059906006,0.039056599140167236,-0.3614952862262726,0.39296263456344604,-0.26948463607328704,-1.5330136360928202,-1.659562383702023,-0.9632205367088318,0.26623469591140747,-0.036410391330718994,-1.6952173709869385,0.2664860785007477,0.8112468719482422
2.3200058937072754,0.029539287090301514,-0.2422778308391571,0.2500383257865906,-0.28633565772677094,-1.5375059763890213,-1.6905247287823923,-0.9587538838386536,0.2824389934539795,-0.031929049640893936,-1.3260247707366943,0.1540769636631012,0.6336265206336975
2.3399899005889893,0.04673266410827637,-0.19088897109031677,0.1757361888885498,-0.29396634565256363,-1.5431476168697393,-1.7121789911013436,-0.9567365050315857,0.28975069522857666,-0.02645927295088768,-0.6953420639038086,-0.14265695214271545,0.08401856571435928
2.3600077629089355,0.10820716619491577,-0.25446817278862,0.07824528217315674,-0.2934996664006833,-1.5520353586445235,-1.7181805286693033,-0.9570688605308533,0.2893039882183075,-0.017957646399736404,0.05947401374578476,-0.6092352271080017,-0.08770034462213516
2.3799779415130615,0.07901865243911743,-0.25238579511642456,0.04924774169921875,-0.29006673075051903,-1.566234241649263,-1.7121978687461468,-0.9582148790359497,0.28601616621017456,-0.0043714880011975765,0.5024524927139282,-0.9058462977409363,-0.27837783098220825
2.399986743927002,-0.09917765855789185,-0.21168532967567444,0.06279432773590088,-0.28287128086108837,-1.5791184395123081,-1.6967473281084868,-0.9602249264717102,0.2791139781475067,0.007991284132003784,0.8585323095321655,-0.7082624435424805,-0.3894301652908325
2.4200119972229004,-0.18276190757751465,-0.16135355830192566,0.18439364433288574,-0.27619511757216386,-1.5829705170490656,-1.6829756385579029,-0.9620288014411926,0.27269694209098816,0.01171250082552433,0.432744562625885,-0.10998574644327164,-0.32725876569747925
2.439992904663086,-0.15442293882369995,-0.26841941475868225,0.1603480577468872,-0.27013656981027373,-1.5840716653842106,-1.6792399286169626,-0.9636497497558594,0.26686304807662964,0.0127935279160738,-0.10934175550937653,-0.19492416083812714,-0.2355288863182068
2.4599900245666504,-0.18489867448806763,-0.2102397084236145,0.06052875518798828,-0.26649888588487625,-1.5925972345821477,-1.6851984522489558,-0.9644696712493896,0.2633555233478546,0.021029647439718246,-0.34905582666397095,-0.4840279519557953,-0.1969452202320099
2.4799790382385254,-0.3560919165611267,-0.05260631442070007,0.031420111656188965,-0.26067234650897,-1.6034900666507825,-1.6875704530600089,-0.9657008051872253,0.25773024559020996,0.031583625823259354,0.1626300811767578,-0.44930300116539,-0.3268811106681824
2.4999780654907227,-0.46089088916778564,0.011798352003097534,0.10062909126281738,-0.2558615752389132,-1.607825127581915,-1.6817872379563494,-0.9667826890945435,0.25307902693748474,0.035815175622701645,0.26236212253570557,-0.10616225004196167,-0.18308402597904205
2.520068883895874,-0.42758673429489136,-0.11944064497947693,0.1930452585220337,-0.25287984132039365,-1.6044912470426027,-1.6779781801617366,-0.9676465392112732,0.2501932382583618,0.03261711820960045,0.06850158423185349,0.2882285714149475,-0.12525221705436707
2.5399889945983887,-0.26452213525772095,-0.22781533002853394,0.20018315315246582,-0.2516419699779211,-1.6003224369091138,-1.681131075495723,-0.9680829644203186,0.24899454414844513,0.028592033311724663,-0.3975978195667267,0.1288682073354721,0.0027077910490334034
2.5599799156188965,-0.2318074107170105,-0.1509205400943756,0.08115983009338379,-0.2500293562294669,-1.6039547625514012,-1.6889661273426257,-0.9683727622032166,0.2474323958158493,0.03212149813771248,-0.22822800278663635,-0.26001712679862976,-0.17876309156417847
2.579977035522461,-0.3479543924331665,0.019238829612731934,0.006486177444458008,-0.2443393726825499,-1.609632222182508,-1.6883569215587328,-0.9695658683776855,0.24191537499427795,0.037672899663448334,0.24145783483982086,-0.2588593065738678,-0.38975846767425537
2.599174976348877,-0.39028745889663696,0.030266106128692627,0.03701889514923096,-0.23554736114808814,-1.6116688810844642,-1.6793476767143458,-0.9715749025344849,0.23337526619434357,0.03973287343978882,0.5433290004730225,-0.16324542462825775,-0.4821504056453705
2.619986057281494,-0.3393324017524719,-0.06047363579273224,0.08133208751678467,-0.22729700528725344,-1.6122462094742038,-1.6701751225602883,-0.9734423756599426,0.22534488141536713,0.04037219658493996,0.26131314039230347,-0.1000320091843605,-0.37786537408828735
2.6399788856506348,-0.29150527715682983,-0.11739325523376465,0.057227250188589096,-0.22038446312026377,-1.6130218421306304,-1.6677405520302941,-0.9749437570571899,0.21860480308532715,0.041191987693309784,-0.018673771992325783,-0.07403937727212906,-0.3565148115158081
2.6600029468536377,-0.26588475704193115,-0.06904685497283936,0.025716181844472885,-0.21315924843864384,-1.615425483979031,-1.6682793050884661,-0.9763943552970886,0.21154870092868805,0.04360460862517357,-0.031352803111076355,-0.17750459909439087,-0.3718687891960144
2.6800098419189453,-0.2995724081993103,0.028761669993400574,-0.021819114685058594,-0.20470542701621272,-1.6202485964502995,-1.6659766981138227,-0.9779240489006042,0.20327875018119812,0.04840002581477165,0.17316704988479614,-0.2949068546295166,-0.45601242780685425
2.6999778747558594,-0.3377543091773987,0.03757719695568085,-0.005424976348876953,-0.1952279960698242,-1.6240410638823461,-1.6624538003522304,-0.9796133637428284,0.19399020075798035,0.05220860242843628,0.14919088780879974,-0.1422581970691681,-0.506544828414917
2.7199788093566895,-0.3178759217262268,-0.04759518802165985,0.02965867519378662,-0.18650725384861347,-1.623900822015143,-1.6600689301281466,-0.9812727570533752,0.18542785942554474,0.052159037441015244,-0.01608942821621895,0.08442633599042892,-0.35787254571914673
2.7400078773498535,-0.23766738176345825,-0.02631424367427826,0.024031519889831543,-0.17951378851763986,-1.6235335750539377,-1.662641138178044,-0.9825628399848938,0.17855119705200195,0.051865752786397934,-0.20447877049446106,-0.11161240935325623,-0.4000642001628876
2.7599799633026123,-0.28549665212631226,0.025224536657333374,-0.090126633644104,-0.17073312384959574,-1.6276768379255577,-1.6669334053379736,-0.983866810798645,0.16990485787391663,0.05602328106760979,-0.2699660658836365,-0.16149313747882843,-0.3726680874824524
2.779977798461914,-0.22331219911575317,0.004200413823127747,-0.006403207778930664,-0.16364325304995278,-1.6289891650912849,-1.6759277776991868,-0.9849703907966614,0.16291385889053345,0.057383012026548386,-0.5732182264328003,0.03460356965661049,-0.41088536381721497
2.799445867538452,-0.13604986667633057,-0.02712307870388031,-9.901821613311768e-06,-0.15548007165161518,-1.632100141867234,-1.6828889187904743,-0.9860815405845642,0.1548544019460678,0.06052640080451965,-0.11253559589385986,-0.24955837428569794,-0.24995283782482147
2.819976806640625,-0.10874283313751221,0.1910151094198227,-0.0396115779876709,-0.15017063095100805,-1.6404220445592737,-1.6812439432181918,-0.9863501191139221,0.1496068388223648,0.06878652423620224,0.391507089138031,-0.5501625537872314,-0.4267386496067047
2.84000301361084,-0.1778172254562378,0.160023033618927,-0.05864500254392624,-0.1429690397288678,-1.6471084169952026,-1.6677401755044792,-0.9869169592857361,0.14248248934745789,0.07546023279428482,0.6653102040290833,-0.3496561050415039,-0.3064284026622772
2.859981060028076,-0.130706787109375,0.05367150902748108,-0.0005645751953125,-0.13798914710036056,-1.6508813311217088,-1.6507144537040364,-0.987320065498352,0.13755165040493011,0.07923900336027145,0.9647511839866638,-0.26204967498779297,-0.28976789116859436
2.879976749420166,-0.08121860027313232,0.11166541278362274,-0.03495609760284424,-0.13491354774321312,-1.6524214622192703,-1.6308887702521508,-0.9876139163970947,0.13450464606285095,0.08079363405704498,1.0161256790161133,-0.19332093000411987,-0.2217014878988266
2.8999838829040527,-0.09311574697494507,0.04705090820789337,-0.06259562075138092,-0.13265912453327453,-1.6534219661665648,-1.6139488938667774,-0.9878320693969727,0.13227036595344543,0.08180650323629379,0.558357834815979,-0.16792087256908417,-0.13675102591514587
2.920011043548584,-0.14780104160308838,-0.1467142254114151,-0.004708290100097656,-0.13159075107759508,-1.6556390933027993,-1.6095911315333862,-0.9877886772155762,0.1312113106250763,0.08400839567184448,-0.14189989864826202,-0.12921741604804993,0.04242270812392235
2.939976930618286,-0.211503803730011,-0.17779846489429474,0.07695876061916351,-0.1350414048093565,-1.659525272654751,-1.6147181613317603,-0.9869977235794067,0.13463133573532104,0.08780581504106522,-0.26091402769088745,-0.18316666781902313,0.3286723792552948
2.9599857330322266,-0.3496019244194031,0.0010181963443756104,0.07374846935272217,-0.14225284895758045,-1.6664476036308504,-1.6188159473489339,-0.985374391078949,0.14177356660366058,0.09454081952571869,0.0390511229634285,-0.5157192945480347,0.43981775641441345
2.9799747467041016,-0.5081376433372498,0.14762338995933533,0.12907539308071136,-0.15228089139385217,-1.6750786347892126,-1.6195326831373247,-0.9830580949783325,0.15169301629066467,0.1028888002038002,-0.013976035639643669,-0.3069007694721222,0.47583961486816406
3.0,-0.6445574164390564,0.11951196193695068,0.12180089950561523,-0.16101380903358292,-1.6803809476257585,-1.6196244303803036,-0.9811446070671082,0.160318985581398,0.10795082896947861,0.042209550738334656,-0.23890157043933868,0.5014395713806152
3.0199859142303467,-0.5552929043769836,-0.013631761074066162,0.12239610403776169,-0.17362139264393878,-1.6863370847682044,-1.6224321428802928,-0.9783986210823059,0.17275042831897736,0.11355065554380417,-0.19354870915412903,-0.31911101937294006,0.7581160664558411
3.0400068759918213,-0.5835838913917542,-0.0220852792263031,0.11070218682289124,-0.1883738315828887,-1.694057008548055,-1.6314531811574702,-0.9748576283454895,0.18726174533367157,0.12077388167381287,-0.5030600428581238,-0.26379990577697754,0.7714669108390808
3.0600647926330566,-0.6522016525268555,0.06581397354602814,0.057837843894958496,-0.20177245226196108,-1.6999984453168528,-1.643263321645067,-0.9715472459793091,0.20040613412857056,0.12622913718223572,-0.4472978711128235,-0.11142776161432266,0.7666950225830078
3.0800108909606934,-0.5561611652374268,0.09862393140792847,0.0013914108276367188,-0.21822862729142642,-1.7048738100498309,-1.654230989510315,-0.9675205945968628,0.21650061011314392,0.13050569593906403,-0.40358319878578186,-0.17449691891670227,1.008235216140747
3.0990357398986816,-0.4632381796836853,0.10822214186191559,-0.0014050155878067017,-0.2396618815604246,-1.7107704605105118,-1.6652514882114309,-0.961917519569397,0.2373741865158081,0.13552986085414886,-0.39611390233039856,-0.14617393910884857,1.2801237106323242
3.119978904724121,-0.45892810821533203,0.0949569046497345,-0.01636911928653717,-0.2658762929957193,-1.7168839408776002,-1.6782025088451882,-0.954585075378418,0.2627548575401306,0.14045365154743195,-0.48670336604118347,-0.12481653690338135,1.478014588356018
3.1400680541992188,-0.44897890090942383,0.06309589743614197,0.006860747933387756,-0.2946495762517616,-1.7235202856274463,-1.6946200990695024,-0.945766270160675,0.2904045581817627,0.14557476341724396,-0.6270490884780884,-0.0844566822052002,1.5964254140853882
3.1600308418273926,-0.403458833694458,0.038135915994644165,0.0127173513174057,-0.3247666143879382,-1.7307847609496363,-1.7131371014104075,-0.9356220364570618,0.31908759474754333,0.15097907185554504,-0.6833915710449219,-0.09794843941926956,1.658710241317749
3.1799938678741455,-0.3263552188873291,0.05881199240684509,0.06576621532440186,-0.35516305011261384,-1.7405221490391871,-1.7340844611804043,-0.924117922782898,0.3477432429790497,0.15837031602859497,-0.7611613869667053,-0.18769128620624542,1.6836984157562256
3.1999430656433105,-0.3144986629486084,0.09237170219421387,0.10653376579284668,-0.3859334834982305,-1.7525093755561467,-1.755866814118247,-0.9111942052841187,0.3764241337776184,0.16742268204689026,-0.6293092370033264,-0.1814066618680954,1.7087833881378174
3.2199759483337402,-0.3148437738418579,0.11098167300224304,0.03965902328491211,-0.41882582153030534,-1.7613004149213982,-1.7708354682335217,-0.8970398902893066,0.40668803453445435,0.17298752069473267,-0.08818617463111877,-0.1716008186340332,1.7797060012817383
3.2400028705596924,-0.18969720602035522,0.0959915816783905,0.024769887328147888,-0.4535310738820999,-1.7679902535853191,-1.7752549973998653,-0.881485104560852,0.4381423592567444,0.17611218988895416,0.2934771478176117,-0.31485074758529663,1.7046849727630615
3.2599809169769287,-0.08180516958236694,0.051843494176864624,0.07044529914855957,-0.4863968805345208,-1.7750660312328963,-1.7756575335765792,-0.8656436800956726,0.46744367480278015,0.17932593822479248,0.3038371503353119,-0.281284898519516,1.5233211517333984
3.28004789352417,-0.0707131028175354,-0.08670583367347717,0.005056023597717285,-0.5162557169670932,-1.78046431997016,-1.779824367426163,-0.8506280183792114,0.49362730979919434,0.1810097098350525,-0.12392032891511917,-0.08286367356777191,1.5068899393081665
3.299984931945801,0.008194327354431152,-0.13374793529510498,-0.006420135498046875,-0.544362402093996,-1.7886600370348662,-1.794750742093311,-0.8352360725402832,0.5178727507591248,0.1849023699760437,-0.4967348277568817,0.03454391658306122,1.512886643409729
3.3199758529663086,0.058243393898010254,-0.09380894899368286,-0.01077200472354889,-0.5722406612160437,-1.7949550749937055,-1.8149448903924288,-0.8196569681167603,0.5415170788764954,0.18687377870082855,-0.5320136547088623,0.4019370377063751,1.5673823356628418
3.3399789333343506,0.1113777756690979,-0.051434338092803955,0.030791401863098145,-0.5999703389476267,-1.790909274591111,-1.8319899063501635,-0.8054391741752625,0.5646179914474487,0.18020737171173096,-0.14107318222522736,0.9517207145690918,1.4317294359207153
3.3600058555603027,0.19806522130966187,-0.04402923583984375,-0.07599340379238129,-0.6268559725014696,-1.7714256256310421,-1.8325533621481085,-0.7936312556266785,0.5866013765335083,0.1613970398902893,0.6664147973060608,0.9683888554573059,1.2066928148269653
3.3799779415130615,0.32729536294937134,-0.06506091356277466,-0.11681734025478363,-0.6511954901538336,-1.7429023213954933,-1.8134468947228284,-0.7836096882820129,0.6061376929283142,0.13621146976947784,1.2245475053787231,0.738961398601532,0.9354938864707947
3.399977922439575,0.39276963472366333,-0.19453227519989014,-0.0972287654876709,-0.6740739497938564,-1.7153156206534668,-1.786300820091492,-0.7731408476829529,0.6241740584373474,0.11251820623874664,1.1095707416534424,0.3495531678199768,1.0141549110412598
3.4199769496917725,0.3926246762275696,-0.322066068649292,0.005385160446166992,-0.6961652633905353,-1.7018447317092726,-1.771263386180259,-0.7607277631759644,0.6412799954414368,0.10026680678129196,0.29048848152160645,0.0878877341747284,0.9892740249633789
3.440006732940674,0.26647013425827026,-0.34384703636169434,0.058139801025390625,-0.7146933218566646,-1.7004704091046694,-1.7755920598939785,-0.7489531636238098,0.6553857922554016,0.0976678654551506,-0.22727614641189575,0.3883761167526245,0.8748450875282288
3.4599769115448,0.1777474284172058,-0.15409499406814575,-0.055275432765483856,-0.7294433782133931,-1.69414462814179,-1.7792369488532496,-0.7398813962936401,0.6664547324180603,0.09172879159450531,0.18442302942276,0.42140382528305054,0.5979158282279968
3.4799747467041016,0.307389497756958,-0.12708020210266113,-0.012317657470703125,-0.740706874597988,-1.6820408903745334,-1.7694288250373433,-0.7334302067756653,0.6748097538948059,0.08192837238311768,0.5746929049491882,0.08188027143478394,0.5279523134231567
3.5000457763671875,0.35992592573165894,-0.2946110963821411,0.04959297180175781,-0.7529813029402045,-1.6785757451562449,-1.7609478905944413,-0.7254197597503662,0.6838170886039734,0.07848947495222092,0.12747059762477875,-0.2371661514043808,0.5711024403572083
3.519990921020508,0.20335668325424194,-0.3909921646118164,0.03749751299619675,-0.7628439023570764,-1.6815163110318236,-1.7612888682974193,-0.7184476852416992,0.6909800171852112,0.07987316697835922,-0.02330872416496277,0.024920137599110603,0.4373258054256439
3.5399279594421387,0.1443709135055542,-0.25104355812072754,0.01866316795349121,-0.7694788774170441,-1.6795852501176511,-1.7639440668051958,-0.7140273451805115,0.6957610249519348,0.07798616588115692,-0.09135781228542328,0.2779538929462433,0.25490909814834595
3.55997896194458,0.2319745421409607,-0.30782902240753174,0.0003668069839477539,-0.7740670319207583,-1.6819863240963202,-1.7722179194034993,-0.710658073425293,0.6990492343902588,0.07934533059597015,-0.49221566319465637,-0.0005031083710491657,0.2982325851917267
3.580018997192383,0.23001855611801147,-0.345691978931427,0.020717620849609375,-0.7790379465514472,-1.6985865639181341,-1.792738036051382,-0.7057876586914062,0.7025951743125916,0.09068696200847626,-0.879835307598114,-0.13155922293663025,0.35643237829208374
3.599949836730957,0.08582168817520142,-0.23916596174240112,-0.002921581268310547,-0.7828127610312484,-1.7181083312167675,-1.8206891832840206,-0.7012544870376587,0.7052762508392334,0.10405700653791428,-0.9815768003463745,0.2053840011358261,0.27031785249710083
3.619976043701172,0.053204476833343506,-0.16969168186187744,-0.027422532439231873,-0.7839528500540958,-1.7288005178674162,-1.8464906408660537,-0.6993075013160706,0.7060840725898743,0.11142229288816452,-0.7964653372764587,0.4739955961704254,0.11363185942173004
3.6400370597839355,0.14519649744033813,-0.15128028392791748,-0.05506075173616409,-0.7827335684497585,-1.7352203896758822,-1.8671591865834616,-0.6994262337684631,0.705220103263855,0.11605021357536316,-0.7072615027427673,0.28943905234336853,0.02378319762647152
3.6599860191345215,0.18498551845550537,-0.1612986922264099,-0.04084599018096924,-0.7803812165682162,-1.7457130551531945,-1.8862901148013569,-0.6998018622398376,0.703550398349762,0.12367090582847595,-0.6272760033607483,0.017615796998143196,0.0031350883655250072
3.68080472946167,0.10726940631866455,-0.16978716850280762,-0.04661285877227783,-0.780881645661768,-1.7564335445224712,-1.905450391681377,-0.6980898380279541,0.7039059400558472,0.13110089302062988,-0.841152548789978,0.22510497272014618,0.15058478713035583
3.6999778747558594,0.014519453048706055,-0.10145914554595947,-0.039865970611572266,-0.7786082613544315,-1.7679723040246322,-1.9296558739121896,-0.6980980634689331,0.702289342880249,0.13946020603179932,-0.8833106756210327,0.33099761605262756,-0.0042759026400744915
3.7200927734375,0.060563087463378906,-0.029749393463134766,-0.05352245271205902,-0.7751723903701025,-1.7754949714958024,-1.9485601966194703,-0.6993877291679382,0.6998392343521118,0.14519740641117096,-0.49967825412750244,0.2865745723247528,0.025106249377131462
3.7400097846984863,0.10421156883239746,-0.021295249462127686,-0.11192430555820465,-0.7753421251733726,-1.779948613544603,-1.9664859681407731,-0.6986177563667297,0.699960470199585,0.14828607439994812,-0.4098418056964874,0.24738356471061707,-0.070787213742733
3.7598378658294678,0.034336984157562256,-0.05504739284515381,-0.1678856760263443,-0.7746155437750004,-1.7749437065706442,-1.967143590258419,-0.6998491287231445,0.6994413733482361,0.14489081501960754,0.011042032390832901,0.31555914878845215,0.12142757326364517
3.779885768890381,0.1277044415473938,-0.005910515785217285,0.021105751395225525,-0.7769189457626263,-1.77170385709639,-1.9688499470003182,-0.6987341642379761,0.7010857462882996,0.14230072498321533,-0.1786613017320633,0.1533042937517166,0.19280582666397095
3.8000130653381348,0.10031700134277344,-0.08848673105239868,-0.016108989715576172,-0.7833313000704863,-1.7745152240818864,-1.9771714742609678,-0.6939144730567932,0.7056437730789185,0.14335210621356964,-0.2748337388038635,0.20303766429424286,0.49424082040786743
3.820143938064575,0.025435924530029297,0.0403439998626709,-0.04092526435852051,-0.790961016086193,-1.7771310212195834,-1.988900613126394,-0.6882472634315491,0.7110293507575989,0.14405950903892517,-0.31591424345970154,0.37227553129196167,0.42419829964637756
3.840085983276367,0.03131914138793945,0.07109451293945312,-0.11646783351898193,-0.7970938027355433,-1.7734622660705421,-1.9950166144039303,-0.684486985206604,0.7153282761573792,0.14065320789813995,0.0771993100643158,0.39832550287246704,0.27954980731010437
3.8600339889526367,0.11325293779373169,0.03442573547363281,-0.09955084323883057,-0.8035816140362411,-1.7639053822452706,-1.9921680562632988,-0.681230902671814,0.7198468446731567,0.1332118660211563,0.13725611567497253,0.3714405298233032,0.34531909227371216
3.87998104095459,0.13092929124832153,-0.0877145528793335,-0.11172689497470856,-0.8114745389322771,-1.7575336980300382,-1.9943195044288384,-0.6764615178108215,0.725303053855896,0.12780971825122833,-0.1153288260102272,0.41797253489494324,0.4181504547595978
3.9001338481903076,0.07869768142700195,-0.08118647336959839,-0.13177287578582764,-0.8181515106623023,-1.7548956332355463,-2.004389869041318,-0.6720205545425415,0.7298834919929504,0.12513543665409088,-0.4339805245399475,0.5976996421813965,0.3867873549461365
3.9200778007507324,0.09803682565689087,-0.07463479042053223,-0.1044921875,-0.8239200856374872,-1.7548449898363034,-2.0219646163691536,-0.6678763628005981,0.7338145971298218,0.12432876974344254,-0.6293697357177734,0.670051097869873,0.38759610056877136
3.9400720596313477,0.12379777431488037,-0.05036526918411255,-0.07732665538787842,-0.828682259869657,-1.7559629864806594,-2.0416614334723073,-0.6642947196960449,0.7370414137840271,0.12443060427904129,-0.5428844094276428,0.6811191439628601,0.3513740003108978
3.9599969387054443,0.12608462572097778,0.0011203289031982422,-0.08602762222290039,-0.8337726181411497,-1.7530904473788196,-2.0561454258876344,-0.6609510183334351,0.740472137928009,0.12184011191129684,-0.3201562762260437,0.6656115651130676,0.3203176259994507
3.987480878829956,0.06395977735519409,0.006234407424926758,-0.055089354515075684,-0.8442737034444842,-1.7387033282603999,-2.067920686763046,-0.6549327373504639,0.7474888563156128,0.1110130175948143,0.03869758918881416,0.5424506068229675,0.26579418778419495
4.008723735809326,0.02069491147994995,-0.020254075527191162,-0.04857613146305084,-0.8493171591747106,-1.7264032414238708,-2.065563283119971,-0.6525156497955322,0.7508295774459839,0.1023634746670723,0.20556668937206268,0.502838671207428,0.19628261029720306
4.028230905532837,-0.016090095043182373,-0.008910119533538818,-0.058994777500629425,-0.8527096713832494,-1.7100777878199886,-2.0560132164529596,-0.6515735387802124,0.7530660033226013,0.09134354442358017,0.5015600919723511,0.41777652502059937,0.02386529929935932
4.048142910003662,-0.06335222721099854,-0.03272104263305664,-0.10016047954559326,-0.8526744528536211,-1.6826956317237116,-2.0309968350728127,-0.6538566946983337,0.7530428171157837,0.07347302883863449,1.201218605041504,0.44447073340415955,-0.24791330099105835
4.068497896194458,-0.08321553468704224,-0.028016865253448486,-0.14102590084075928,-0.8465895480477408,-1.632241262475684,-1.9761267189768001,-0.6612913012504578,0.7490252256393433,0.04068421572446823,2.574404239654541,0.4846321642398834,-0.7217000126838684
4.0883848667144775,-0.12529927492141724,0.0994686484336853,-0.2225075364112854,-0.8274070746016209,-1.5426838050584561,-1.8702849376593733,-0.6765196323394775,0.736178994178772,-0.019023684784770012,4.3929762840271,0.6348456144332886,-1.283510446548462
4.107322931289673,-0.0736117959022522,0.02110004425048828,-0.07460935413837433,-0.7901188971384864,-1.431005920510857,-1.7339181132604455,-0.6968961358070374,0.7104369401931763,-0.09805896133184433,4.974472999572754,0.6334935426712036,-1.5475999116897583
4.128252029418945,0.000774085521697998,-0.2971435785293579,0.11637401580810547,-0.740919370795249,-1.344221224492054,-1.626908480613143,-0.7189901471138,0.67496657371521,-0.1657513678073883,3.683077573776245,0.5275265574455261,-2.1620259284973145
4.148257732391357,-0.065673828125,-0.5914090275764465,0.019733160734176636,-0.6803927647112553,-1.2789724630835064,-1.5470455710683007,-0.7444612383842468,0.6290983557701111,-0.22363625466823578,3.2274861335754395,0.7240272760391235,-1.8400983810424805
4.167836904525757,0.00762861967086792,-0.32125377655029297,0.16017639636993408,-0.6302738521502437,-1.2378584993963726,-1.502963991535028,-0.76350337266922,0.5893660187721252,-0.2640276253223419,1.91739821434021,0.6310907602310181,-2.145599126815796
4.187810897827148,-0.05670511722564697,-0.3557800054550171,0.10421398282051086,-0.5741572974827962,-1.2162461102159863,-1.484916908047802,-0.7874264121055603,0.5431274175643921,-0.2915002405643463,1.3518807888031006,0.5503944754600525,-2.479802370071411
4.2081427574157715,-0.03205150365829468,-0.2515466511249542,0.15385502576828003,-0.5201200679004573,-1.203357241923242,-1.481092710546261,-0.8098369836807251,0.4969843327999115,-0.31172236800193787,0.8685436248779297,0.49946606159210205,-2.5393481254577637
4.22767972946167,-0.05834442377090454,-0.19017696380615234,0.17686030268669128,-0.4672137454923233,-1.1997923226941818,-1.492275136720056,-0.8320822715759277,0.45040038228034973,-0.32369551062583923,0.13153448700904846,0.41130203008651733,-2.7279868125915527
4.247616767883301,-0.020482659339904785,-0.16000428795814514,0.19070878624916077,-0.4169281440529694,-1.2052394758905847,-1.5181666603404949,-0.8539222478866577,0.40495365858078003,-0.3268475830554962,-0.527512788772583,0.07572099566459656,-2.802165985107422
4.267509937286377,0.020400643348693848,-0.14364773035049438,0.22331932187080383,-0.372165768361634,-1.2236599101111019,-1.5584332686326192,-0.8759763836860657,0.36363378167152405,-0.31691664457321167,-1.4171274900436401,-0.3627830147743225,-2.6964786052703857
4.287540912628174,0.00898277759552002,-0.07177755236625671,0.24519109725952148,-0.33363990834195967,-1.2535816390614083,-1.6133036095684734,-0.8977157473564148,0.3274843692779541,-0.2947210371494293,-2.1435866355895996,-0.712356448173523,-2.659823417663574
4.307647943496704,-0.034168243408203125,0.04008227586746216,0.24239543080329895,-0.2966628427419489,-1.289259904479456,-1.6767681001344905,-0.9186668992042542,0.29233047366142273,-0.2656954824924469,-2.508140802383423,-0.9011420011520386,-2.6546432971954346
4.326632022857666,-0.052664101123809814,0.13282841444015503,0.23554402589797974,-0.26007779805242065,-1.3279438072471108,-1.7443816865721742,-0.9380128383636475,0.25715574622154236,-0.23238533735275269,-2.8387575149536133,-1.1251550912857056,-2.597768783569336
4.347432851791382,-0.09492456912994385,0.208070307970047,0.18173182010650635,-0.22214272487864647,-1.3699836932427334,-1.8139729778506888,-0.9558263421058655,0.2203201949596405,-0.19456437230110168,-2.8733983039855957,-1.409795880317688,-2.5858471393585205
4.367215871810913,-0.13503527641296387,0.29894936084747314,0.16836436092853546,-0.1831209752851599,-1.4111042145961177,-1.8787200049577402,-0.9707692265510559,0.18209925293922424,-0.15635555982589722,-2.6553924083709717,-1.3364413976669312,-2.3967859745025635
4.387081861495972,-0.19718331098556519,0.36321866512298584,0.06421642005443573,-0.14373019343399102,-1.4442260044772093,-1.9329467510306784,-0.9817719459533691,0.14323583245277405,-0.12493104487657547,-2.06527042388916,-1.1025141477584839,-2.311934471130371
4.407196044921875,-0.22367441654205322,0.493059903383255,-0.0006639808416366577,-0.10423565587228285,-1.4669669351925372,-1.9728784330325746,-0.9892162680625916,0.10404700040817261,-0.10308040678501129,-1.5289037227630615,-0.7050428986549377,-2.06842041015625
4.4286017417907715,-0.15926671028137207,0.6222013235092163,-0.10202353447675705,-0.0661709091754248,-1.4832775171493693,-2.001642938894659,-0.9939926862716675,0.0661226287484169,-0.0872158482670784,-0.8748152256011963,-0.7223058938980103,-1.9936729669570923
4.447584867477417,-0.016397953033447266,0.5915295481681824,-0.13244301080703735,-0.03239274466836384,-1.4995285047105193,-2.017452565683902,-0.9969385266304016,0.032387081533670425,-0.07117017358541489,-0.6233869194984436,-0.833692729473114,-1.4284167289733887
4.467041015625,0.09675955772399902,0.5068487524986267,-0.06293600797653198,-0.010866899101452174,-1.5169736117399937,-2.034867622962723,-0.9984931349754333,0.010866684839129448,-0.053793564438819885,-0.9846473932266235,-0.8753087520599365,-0.8606050610542297
4.485947847366333,0.09998267889022827,0.45353591442108154,-0.12797921895980835,0.0008534095206671666,-1.5343541195636716,-2.058570785500192,-0.999335765838623,-0.0008534094085916877,-0.03643413260579109,-1.3009071350097656,-0.8332521915435791,-0.4476177990436554
4.506802082061768,0.07371765375137329,0.5211896896362305,-0.22882580757141113,0.006587092099585158,-1.5498186415012336,-2.083792783443704,-0.9997583627700806,-0.006587044335901737,-0.020975694060325623,-1.185813069343567,-0.7467088103294373,-0.23063763976097107
4.528260946273804,0.05123305320739746,0.5774207711219788,-0.34155362844467163,0.010953696983233339,-1.5641135269743527,-2.1032389421708353,-0.9999178647994995,-0.010953477583825588,-0.006682350765913725,-0.6738076210021973,-0.706872284412384,-0.26293233036994934
4.542567729949951,0.0825696587562561,0.5748817324638367,-0.3829153776168823,0.01653289848542219,-1.5781330856069384,-2.1115886508718265,-0.9998366236686707,-0.01653214544057846,0.007335691712796688,-0.21257026493549347,-0.7100241184234619,-0.28831160068511963
4.56690788269043,0.12495899200439453,0.5465138554573059,-0.3670285940170288,0.022437377729523773,-1.591609855627555,-2.113008562067278,-0.9995319843292236,-0.022435495629906654,0.020806793123483658,0.020922360941767693,-0.6338698267936707,-0.2950111925601959
4.586560964584351,0.15514492988586426,0.5151057243347168,-0.38761091232299805,0.027545106463201963,-1.6042086627418746,-2.1122341721562674,-0.9990628957748413,-0.027541622519493103,0.03339345380663872,0.003033866873010993,-0.6540786027908325,-0.199603870511055
4.606651782989502,0.1442379355430603,0.5127695202827454,-0.383137583732605,0.030352319561790454,-1.618983405321892,-2.113465287958873,-0.9983794093132019,-0.030347660183906555,0.04814625903964043,-0.11754581332206726,-0.8471354246139526,-0.08245301991701126
4.626604080200195,-0.0378531813621521,0.575414776802063,-0.44938385486602783,0.03155100747404305,-1.6352778283066653,-2.1139986597599467,-0.9974254369735718,-0.03154577314853668,0.06440477818250656,0.11527881026268005,-0.6969359517097473,-0.04958664998412132
4.6459879875183105,-0.24986469745635986,0.6818897724151611,-0.48643600940704346,0.03243563395343841,-1.6448788139523074,-2.107829936411265,-0.996732771396637,-0.03242994844913483,0.0739758238196373,0.47388380765914917,-0.23063308000564575,-0.051077887415885925
4.666439056396484,-0.2811521887779236,0.6976427435874939,-0.4125272035598755,0.029693603411253006,-1.645703872965883,-2.097489264680569,-0.996756374835968,-0.029689239338040352,0.07480454444885254,0.5125587582588196,0.14998574554920197,0.31978216767311096
4.68658185005188,-0.2020701766014099,0.5983197093009949,-0.27668559551239014,0.016594424274119755,-1.6413123877631515,-2.0903854345235375,-0.9973776340484619,-0.01659366302192211,0.07044794410467148,0.30301201343536377,0.27383682131767273,0.9425048232078552
4.706233978271484,-0.23610210418701172,0.5643321871757507,-0.21438539028167725,-0.0077351384870496115,-1.6343323080263998,-2.0843850565643187,-0.9979525804519653,0.007735061459243298,0.0634913519024849,0.558293342590332,0.4452108144760132,1.4110716581344604
4.726175785064697,-0.335107684135437,0.6082581281661987,-0.23685193061828613,-0.03919758775331995,-1.6230198743581061,-2.0679551808466354,-0.9978697299957275,0.03918755054473877,0.05215972289443016,1.3191959857940674,0.6251964569091797,1.6010247468948364
4.74540901184082,-0.3390010595321655,0.5539718270301819,-0.1957780122756958,-0.07327577606388623,-1.607455578857632,-2.034808743054322,-0.9966466426849365,0.0732102170586586,0.03655269742012024,2.0857107639312744,0.7238761782646179,1.662726879119873
4.766181945800781,-0.2670744061470032,0.40686339139938354,-0.09740090370178223,-0.10860880580038437,-1.5881767249395737,-1.989847277821591,-0.9939579367637634,0.10839541256427765,0.017277125269174576,2.4429526329040527,0.8031508326530457,1.7491246461868286
4.785951852798462,-0.21620213985443115,0.2518428564071655,0.008539974689483643,-0.14434882604222513,-1.5641402956914936,-1.9402252278886083,-0.9895780682563782,0.14384806156158447,-0.006586759351193905,2.468195676803589,0.9990664720535278,1.8053432703018188
4.805943965911865,-0.17156881093978882,0.14479893445968628,0.07002253085374832,-0.1800554327662349,-1.5349308099159138,-1.8915617340909043,-0.9832010269165039,0.17908410727977753,-0.035278141498565674,2.2454168796539307,1.1301121711730957,1.8655186891555786
4.825843811035156,-0.13776355981826782,0.06788600981235504,0.10494273155927658,-0.215657411888318,-1.5022380592533504,-1.8474092361913192,-0.974541425704956,0.21398966014385223,-0.06691774725914001,1.8835324048995972,1.2905974388122559,1.9438307285308838
4.84575891494751,-0.07047456502914429,-0.003182649612426758,0.1707613319158554,-0.2529731044481193,-1.4666524309231386,-1.8102102799550381,-0.9629272222518921,0.25028353929519653,-0.10064712166786194,1.3797309398651123,1.3630763292312622,2.061171770095825
4.865685939788818,-0.04014790058135986,-0.04226592183113098,0.20374132692813873,-0.2912705436281187,-1.4319950539380233,-1.7801449832256528,-0.9486674070358276,0.287169486284256,-0.1325284242630005,1.1022469997406006,1.2825813293457031,2.100600242614746
4.884796857833862,-0.04715228080749512,-0.04154956340789795,0.22907137870788574,-0.32860534106661393,-1.3988636474322762,-1.7509482255245792,-0.9325383901596069,0.32272329926490784,-0.16193260252475739,1.1066677570343018,1.1571192741394043,2.024278402328491
4.905669927597046,-0.10599017143249512,-0.034211426973342896,0.24784328043460846,-0.36222538897738576,-1.3656069383835878,-1.7181134308987207,-0.9154942035675049,0.3543560802936554,-0.1905311942100525,1.3273375034332275,1.093009114265442,1.855847716331482
4.925734996795654,-0.16696321964263916,-0.04707556962966919,0.3042897582054138,-0.3900349688025117,-1.3290155378189719,-1.6804907606915431,-0.8979935646057129,0.38022077083587646,-0.22144967317581177,1.4227961301803589,1.20225191116333,1.6526929140090942
4.946035861968994,-0.1568152904510498,-0.126137375831604,0.3967041075229645,-0.41371784085551777,-1.2892328358210037,-1.6430343612327392,-0.8795769214630127,0.402016282081604,-0.25441575050354004,1.2830778360366821,1.3171032667160034,1.5571469068527222
4.9654059410095215,-0.11565327644348145,-0.20779752731323242,0.4391965866088867,-0.43578537260126277,-1.2497058783815786,-1.6097897653184305,-0.8602073788642883,0.4221225082874298,-0.2861050069332123,0.9656946659088135,1.250497579574585,1.442423701286316
4.984440803527832,-0.10625916719436646,-0.22448456287384033,0.44250252842903137,-0.4558533456575217,-1.2138693111828447,-1.5815136807039916,-0.8412965536117554,0.440228670835495,-0.3137182593345642,0.7994914650917053,1.1205178499221802,1.307676911354065
5.0033979415893555,-0.10765230655670166,-0.2138703465461731,0.4375176727771759,-0.4735948310748598,-1.1809165295086015,-1.5561889567828535,-0.8231491446495056,0.4560883939266205,-0.33824384212493896,0.6610544323921204,1.0425982475280762,1.164201259613037
5.0242369174957275,-0.08693814277648926,-0.2336796522140503,0.4431886374950409,-0.4884354309503045,-1.1512393841090651,-1.5341038312186408,-0.8064792156219482,0.4692448377609253,-0.35972297191619873,0.5687054991722107,0.9122062921524048,0.9866097569465637
5.04525899887085,-0.04380166530609131,-0.2658850848674774,0.44863301515579224,-0.5009637758086136,-1.124936230353744,-1.5143508648546857,-0.7913730144500732,0.4802711009979248,-0.3782441020011902,0.49035248160362244,0.770018458366394,0.8855874538421631
5.066119909286499,-0.015386104583740234,-0.2815795838832855,0.45262300968170166,-0.5113015913105882,-1.1033339752312683,-1.4961350756889258,-0.7785440683364868,0.4893127977848053,-0.3929916024208069,0.5122864246368408,0.4846256971359253,0.7471221089363098
5.087187767028809,-0.05072653293609619,-0.3056991398334503,0.44550514221191406,-0.5183087397666776,-1.0881552273871467,-1.478288006588683,-0.7694334983825684,0.4954117238521576,-0.4031619131565094,0.5314388871192932,0.18197384476661682,0.5778387784957886
5.102481842041016,-0.13397103548049927,-0.3148955702781677,0.4708474278450012,-0.5219609336840167,-1.0784914824889875,-1.464306592384511,-0.7639020085334778,0.4985809028148651,-0.40972062945365906,0.33560189604759216,0.11818910390138626,0.29091089963912964
5.124047756195068,-0.18942147493362427,-0.35679009556770325,0.505138635635376,-0.5230631973997849,-1.0731801875348814,-1.4599729448705256,-0.7612316608428955,0.49953609704971313,-0.4135095477104187,-0.08844630420207977,0.20691834390163422,-0.006581008434295654
5.141262054443359,-0.1595534086227417,-0.3861611485481262,0.4934874176979065,-0.523606916084588,-1.0727405182221308,-1.4672652766742205,-0.7608110904693604,0.5000070333480835,-0.4137144088745117,-0.45252227783203125,0.137621209025383,-0.2534162998199463
5.160528898239136,-0.11762285232543945,-0.33750227093696594,0.4132777154445648,-0.5217066323494315,-1.0811820618821701,-1.4811088117105542,-0.7651134133338928,0.49836045503616333,-0.40772339701652527,-0.4562617540359497,-0.3206409811973572,-0.47779154777526855
5.179989814758301,-0.1489415168762207,-0.2519702613353729,0.337924063205719,-0.5149712998316387,-1.0990223951832123,-1.494469074512474,-0.7752376794815063,0.4925098717212677,-0.3955259323120117,-0.264027863740921,-0.7963284254074097,-0.665826141834259
5.199912071228027,-0.28279274702072144,-0.19906142354011536,0.3455958366394043,-0.50283741425675,-1.1247657368659676,-1.5078034208162245,-0.7904953360557556,0.48191365599632263,-0.37799015641212463,-0.2992837131023407,-1.0714219808578491,-0.9482771754264832
5.219922065734863,-0.4392426609992981,-0.21420538425445557,0.4312008023262024,-0.48798170643884337,-1.152966112570944,-1.528778309795449,-0.807293713092804,0.46884411573410034,-0.35841625928878784,-0.8443403840065002,-0.6339474320411682,-1.1461764574050903
5.239932060241699,-0.4324646592140198,-0.25905561447143555,0.4699283540248871,-0.47598403304940096,-1.1765272875483799,-1.5653028652678511,-0.8206481337547302,0.45821332931518555,-0.3414340019226074,-1.6418311595916748,-0.12364501506090164,-1.2255793809890747
5.259928941726685,-0.24438482522964478,-0.25253617763519287,0.34562304615974426,-0.4666972816013767,-1.2026047844548136,-1.6135503472205908,-0.8332063555717468,0.44993922114372253,-0.3214377760887146,-1.8870337009429932,-0.3815031945705414,-1.234824299812317
5.280394077301025,-0.12766700983047485,-0.10791388154029846,0.16749322414398193,-0.455367724932506,-1.2346233825063713,-1.658576476001718,-0.8478274941444397,0.43979260325431824,-0.29626208543777466,-1.4193289279937744,-0.8267086148262024,-1.252255916595459
5.302016735076904,-0.10426563024520874,-0.007279813289642334,0.042017608880996704,-0.4373154656892582,-1.268237780272065,-1.6894405623713544,-0.8647438287734985,0.4235090911388397,-0.26992273330688477,-0.6638540625572205,-1.1782220602035522,-1.3441135883331299
5.320250034332275,-0.10243207216262817,-0.00635954737663269,0.033258646726608276,-0.41377194586548943,-1.3005147122626433,-1.7056068393737054,-0.8823704123497009,0.40206581354141235,-0.2444707304239273,-0.1561262011528015,-1.3462663888931274,-1.31807541847229
5.3434059619903564,-0.1254591941833496,-0.04074674844741821,0.08604729175567627,-0.38954393879958843,-1.330198859991271,-1.713860162117957,-0.8984361886978149,0.3797665536403656,-0.2204313576221466,-0.02922082133591175,-1.2751765251159668,-1.225890874862671
5.362022876739502,-0.17845290899276733,-0.0639587938785553,0.11883097887039185,-0.36688865104361096,-1.3567117012172594,-1.7236934936784294,-0.9121386408805847,0.3587128818035126,-0.1983138769865036,-0.4356132447719574,-1.0023562908172607,-1.2181588411331177
5.3842549324035645,-0.18525606393814087,-0.06707033514976501,0.10575884580612183,-0.3453805022547538,-1.3814757679430436,-1.7452411745859497,-0.9241343140602112,0.3385547399520874,-0.17707833647727966,-1.1254653930664062,-0.7634145021438599,-1.293052315711975
5.404919862747192,-0.09515035152435303,-0.044648438692092896,0.058848634362220764,-0.324611311911514,-1.407714919478666,-1.7793899849663646,-0.9351994395256042,0.3189404308795929,-0.15388023853302002,-1.6352888345718384,-0.7738550901412964,-1.3180571794509888
5.423949956893921,-0.014492511749267578,0.04588425159454346,-0.01704065501689911,-0.3033673794322962,-1.4361434838336957,-1.818552811481749,-0.9456973671913147,0.29873549938201904,-0.12811608612537384,-1.6860641241073608,-0.863079309463501,-1.3496341705322266
5.442975044250488,0.015791714191436768,0.14712834358215332,-0.0505068302154541,-0.2802469906918701,-1.4639233149373767,-1.8552077033399283,-0.9555043578147888,0.27659299969673157,-0.10250820219516754,-1.4917142391204834,-0.8572136163711548,-1.370792031288147
5.463237762451172,0.019374430179595947,0.21001756191253662,-0.09750496596097946,-0.2553490341474392,-1.4893338496028565,-1.8859193292699685,-0.9643665552139282,0.2525831460952759,-0.07873392850160599,-1.2421315908432007,-0.8754837512969971,-1.3971002101898193
5.483761787414551,0.012905240058898926,0.2731359004974365,-0.17097866535186768,-0.2287312829035024,-1.5133342945808221,-1.9104922070772883,-0.9723474979400635,0.22674202919006348,-0.055934641510248184,-0.9305989146232605,-0.9393922686576843,-1.430432677268982
5.5020458698272705,0.0139542818069458,0.3380966782569885,-0.258103609085083,-0.20094207599957056,-1.5369218564335416,-1.9268260011051868,-0.9793169498443604,0.19959254562854767,-0.03318653628230095,-0.5360053777694702,-1.0751980543136597,-1.4299911260604858
5.52450704574585,0.022298753261566162,0.4108639359474182,-0.32961368560791016,-0.17254095099382455,-1.5603345728227447,-1.9333058484693855,-0.9850979447364807,0.17168612778186798,-0.010306227952241898,-0.024979697540402412,-1.13083815574646,-1.4084333181381226
5.543187856674194,0.050874531269073486,0.4517194926738739,-0.38517892360687256,-0.14591998784465435,-1.5824576066072034,-1.9297396052432494,-0.9893053770065308,0.1454026997089386,0.011537089943885803,0.3304766118526459,-1.1277539730072021,-1.2423080205917358
5.563790798187256,0.0838007926940918,0.4298444390296936,-0.4148557186126709,-0.12373952802405584,-1.6026305962940977,-1.9215191255769266,-0.9918514490127563,0.1234240010380745,0.031585536897182465,0.3692684769630432,-0.9768499135971069,-0.9920141100883484
5.584080934524536,0.10110270977020264,0.3886752426624298,-0.42213308811187744,-0.10656726560711748,-1.6188922725544626,-1.916615218584676,-0.9931774139404297,0.10636567324399948,0.04780467599630356,0.004235112573951483,-0.6907854080200195,-0.7590692639350891
5.602718830108643,0.14189881086349487,0.3658287823200226,-0.41997265815734863,-0.09335215879582034,-1.6297008737477174,-1.9198414328019617,-0.9939190745353699,0.09321662783622742,0.05861416086554527,-0.372638463973999,-0.3854905366897583,-0.5383478403091431
5.623719930648804,0.20353806018829346,0.38818928599357605,-0.4436023235321045,-0.08450647282214835,-1.6365372996424308,-1.9281591474368227,-0.9942790865898132,0.08440592885017395,0.06545920670032501,-0.45686906576156616,-0.25631871819496155,-0.30029550194740295
5.643966913223267,0.23173236846923828,0.44250085949897766,-0.4707859754562378,-0.07986185431482058,-1.6419515217456608,-1.9347038603656026,-0.9942904710769653,0.07977698743343353,0.070868581533432,-0.18426305055618286,-0.2475702464580536,-0.12017828971147537
5.6638689041137695,0.19729375839233398,0.49692386388778687,-0.5110810995101929,-0.07904034969469148,-1.6473922230976026,-1.933655831919933,-0.993955135345459,0.07895807921886444,0.07628212124109268,0.3059384822845459,-0.3090183436870575,0.01883057877421379
5.683444023132324,0.0977049469947815,0.520510196685791,-0.5011601448059082,-0.081110666801594,-1.6522088941930326,-1.922888143144229,-0.9934112429618835,0.0810217559337616,0.08105531334877014,0.7353262901306152,-0.23062534630298615,0.10712888836860657
5.703800916671753,-0.015936553478240967,0.5004274249076843,-0.43449294567108154,-0.08530833788068284,-1.653111761264838,-1.9075992982423748,-0.9929899573326111,0.08520490676164627,0.08192351460456848,0.7804220914840698,0.06441881507635117,0.18776097893714905
5.723543882369995,-0.054685235023498535,0.4326133728027344,-0.3455773591995239,-0.09191480358438904,-1.6467630302307439,-1.8946554035266487,-0.992906928062439,0.09178543835878372,0.07557330280542374,0.5051980018615723,0.39037784934043884,0.39658239483833313
5.743713855743408,-0.04055464267730713,0.3898226320743561,-0.2714371681213379,-0.10311207810653271,-1.6394813572728306,-1.8887959482077432,-0.992343544960022,0.10292945802211761,0.06826653331518173,0.22016501426696777,0.24977003037929535,0.6626390218734741
5.763776779174805,-0.20123058557510376,0.4550634026527405,-0.3468416929244995,-0.11759512883407806,-1.6335821263303463,-1.8831369970439027,-0.9911370873451233,0.11732428520917892,0.062311235815286636,0.5443853139877319,0.35000261664390564,0.7176552414894104
5.784739017486572,-0.34686535596847534,0.5662271976470947,-0.3609623908996582,-0.13260162396698988,-1.621911650396365,-1.8661685706981157,-0.9899268746376038,0.13221336901187897,0.05064454674720764,1.2385674715042114,0.5846061706542969,0.6958658695220947
5.8036949634552,-0.31789255142211914,0.5526790618896484,-0.2691687345504761,-0.14842686262220192,-1.6049654150168906,-1.836105684334494,-0.9884276986122131,0.14788247644901276,0.033786822110414505,1.74443781375885,0.65920090675354,0.7789115309715271
5.824325084686279,-0.27391475439071655,0.45270729064941406,-0.1164778470993042,-0.16649967918250774,-1.5854882045292962,-1.799453537022621,-0.9860646724700928,0.16573145985603333,0.01448818389326334,1.887234091758728,0.7407529354095459,0.9436187148094177
5.8429038524627686,-0.3077610731124878,0.3718377947807312,-0.009970128536224365,-0.18719114205163437,-1.5618572147348944,-1.761369414154806,-0.9824917316436768,0.1860998421907425,-0.00878283753991127,1.8822038173675537,0.9449370503425598,1.1085841655731201
5.861768960952759,-0.3418978452682495,0.3355299234390259,0.04087185487151146,-0.20917454797449014,-1.5341220857651625,-1.7209899986969188,-0.9775451421737671,0.2076525092124939,-0.03586680814623833,2.0667271614074707,1.016369104385376,1.1799168586730957
5.879945755004883,-0.33980482816696167,0.3418591022491455,0.0869302749633789,-0.23135089043776008,-1.5037284229077763,-1.6757594012784225,-0.9711694121360779,0.229292631149292,-0.06523213535547256,2.281651496887207,1.0352624654769897,1.2415200471878052
5.899914741516113,-0.3066707253456116,0.3010256886482239,0.1338663101196289,-0.25222297378116226,-1.470109316889104,-1.6241441303312942,-0.9634557962417603,0.24955721199512482,-0.09733663499355316,2.506150484085083,1.0932531356811523,1.2730947732925415
5.922890901565552,-0.21996819972991943,0.23842504620552063,0.19609186053276062,-0.2720439498476008,-1.4335427301852113,-1.568863054856367,-0.9541650414466858,0.2687007784843445,-0.13179120421409607,2.538572311401367,1.126923680305481,1.341182827949524
5.942715883255005,-0.14134907722473145,0.15634885430335999,0.25915127992630005,-0.2919170630513511,-1.395406254686519,-1.5142815466726125,-0.9430015087127686,0.2877887189388275,-0.1671101599931717,2.3044707775115967,1.1990770101547241,1.4474968910217285
5.962632894515991,-0.08566659688949585,0.042392194271087646,0.3250032365322113,-0.31342215556614017,-1.3557042583190215,-1.4651878321108314,-0.9293636083602905,0.30831587314605713,-0.20303961634635925,1.8656567335128784,1.321360468864441,1.5682116746902466
5.984194755554199,-0.06082355976104736,-0.04169401526451111,0.3587964177131653,-0.33729917089351386,-1.315187746652913,-1.424450315316739,-0.9129924178123474,0.3309396505355835,-0.23858757317066193,1.352713942527771,1.4258965253829956,1.6539901494979858
6.002412796020508,-0.04903244972229004,-0.05810338258743286,0.3849857747554779,-0.3632174267828935,-1.2745404522295438,-1.3904315189218392,-0.8940370678901672,0.35528358817100525,-0.27289459109306335,1.06642484664917,1.4738662242889404,1.7220747470855713
6.020636081695557,-0.051255643367767334,-0.05893781781196594,0.3996993601322174,-0.390091047000269,-1.233434456947074,-1.3581037945017724,-0.8727403283119202,0.38027262687683105,-0.30613234639167786,0.9637176394462585,1.456235647201538,1.7779483795166016
6.04234504699707,-0.058522939682006836,-0.11679363250732422,0.45363032817840576,-0.4169973858275862,-1.1920989965501487,-1.3262438102867937,-0.8495277762413025,0.4050169587135315,-0.3380296528339386,0.8416846990585327,1.4465587139129639,1.7678080797195435
6.062110900878906,-0.07021725177764893,-0.22867989540100098,0.5141760110855103,-0.4438555273118824,-1.1511029927482015,-1.2976676624685592,-0.8247261047363281,0.42942458391189575,-0.3679967224597931,0.4690757691860199,1.4635330438613892,1.711288332939148
6.0822649002075195,-0.0867798924446106,-0.2607249915599823,0.5437890887260437,-0.47112169348587696,-1.1129405846389326,-1.2764467138051139,-0.7992828488349915,0.4538860619068146,-0.39387139678001404,0.12853780388832092,1.4045583009719849,1.558148741722107
6.101886749267578,-0.09508991241455078,-0.24404731392860413,0.5451434254646301,-0.4966344907743867,-1.0786377175864919,-1.25996711141937,-0.7748443484306335,0.4764693081378937,-0.4154437184333801,0.053561486303806305,1.2602156400680542,1.3919099569320679
6.122124910354614,-0.08073145151138306,-0.2783118486404419,0.537490725517273,-0.5187505265751363,-1.0472389190844376,-1.2436017131649038,-0.752108633518219,0.49579542875289917,-0.4341886341571808,0.09408583492040634,1.08054518699646,1.2386655807495117
6.141048908233643,-0.06070435047149658,-0.32094520330429077,0.5441767573356628,-0.5376542653050564,-1.02033235487486,-1.2289338891916037,-0.7320355772972107,0.512122631072998,-0.44928228855133057,0.03239215537905693,0.8777301907539368,1.0384551286697388
6.161926746368408,-0.0535770058631897,-0.3539917469024658,0.5307595729827881,-0.5535904833435505,-0.9992271771432323,-1.2174760440606816,-0.7154355645179749,0.5257448554039001,-0.4601571559906006,-0.06706123799085617,0.6443569660186768,0.8309422135353088
6.180111885070801,-0.049388349056243896,-0.36257654428482056,0.5283278822898865,-0.5668042234089979,-0.9844998734768879,-1.2106167736965627,-0.7027326822280884,0.5369387865066528,-0.4667585790157318,-0.15811105072498322,0.4702664315700531,0.5966804027557373
6.200057029724121,-0.04668086767196655,-0.35827529430389404,0.5053362846374512,-0.5767133395419802,-0.9760049024010746,-1.2073219894289988,-0.6943013072013855,0.5452718138694763,-0.4697069525718689,-0.1266680359840393,0.16401313245296478,0.3810640573501587
6.221606731414795,-0.07365411520004272,-0.30212342739105225,0.4639470875263214,-0.5815817756796015,-0.9749601950084831,-1.2036542730417215,-0.691604733467102,0.5493463277816772,-0.46893665194511414,0.11950113624334335,-0.257199227809906,0.20075353980064392
6.240563869476318,-0.14880090951919556,-0.23803138732910156,0.4638916254043579,-0.5811192782592656,-0.9799359748955497,-1.1978893876098304,-0.6941404342651367,0.5489598512649536,-0.4656310975551605,0.2718021273612976,-0.5098311901092529,0.023463018238544464
6.2599687576293945,-0.2307649850845337,-0.23736131191253662,0.461149662733078,-0.5769641273958303,-0.9875830489403159,-1.1939744220099584,-0.6995787024497986,0.5454820394515991,-0.46156153082847595,0.1920640766620636,-0.4427802860736847,-0.18778428435325623
6.2813708782196045,-0.20724236965179443,-0.2634727954864502,0.4317060708999634,-0.5712081135411317,-0.9971239085481045,-1.1958751696461123,-0.7065760493278503,0.5406487584114075,-0.4565625786781311,0.015031448565423489,-0.4694996178150177,-0.37813353538513184
6.300442934036255,-0.10604417324066162,-0.2794073820114136,0.3583585023880005,-0.5633069276165142,-1.0134738183257266,-1.201595330592888,-0.7175490856170654,0.5339850783348083,-0.4471951425075531,0.0171540267765522,-0.9287271499633789,-0.5572477579116821
6.321139812469482,-0.10893923044204712,-0.20977246761322021,0.27737128734588623,-0.5509278291968395,-1.0419334146422792,-1.2084195687897101,-0.7356348633766174,0.5234779715538025,-0.42989808320999146,0.16321204602718353,-1.536169171333313,-0.8159093260765076
6.341353893280029,-0.2952427864074707,-0.14050036668777466,0.23878031969070435,-0.5305519308287252,-1.0785332494054038,-1.2135204319044217,-0.7601162195205688,0.5060094594955444,-0.4076492488384247,0.4077583849430084,-1.748828649520874,-1.1946187019348145
6.361613750457764,-0.4897747039794922,-0.10726606845855713,0.2821497917175293,-0.5042676650648448,-1.1116942910587988,-1.2221280359842042,-0.7848682999610901,0.4831663966178894,-0.38798463344573975,0.010626273229718208,-1.0481394529342651,-1.4493145942687988
6.3805718421936035,-0.3667747378349304,-0.1640486717224121,0.2827802896499634,-0.480394614597241,-1.138229516542762,-1.2438385131126901,-0.8051308989524841,0.462129145860672,-0.3717541992664337,-0.6903551816940308,-0.789496898651123,-1.5138216018676758
6.401563882827759,-0.1127403974533081,-0.20198699831962585,0.188889741897583,-0.46139413996743817,-1.1750514054604304,-1.2761676903128305,-0.8262245655059814,0.44519689679145813,-0.34518545866012573,-1.1342732906341553,-1.475501298904419,-1.3608344793319702
6.420153856277466,-0.10541003942489624,-0.09599906206130981,0.10274562239646912,-0.44596237364221536,-1.2239769034960295,-1.3113209916315833,-0.8484781384468079,0.43132632970809937,-0.30666401982307434,-1.1774253845214844,-1.7449040412902832,-1.2907180786132812
6.440989971160889,-0.2776201367378235,-0.01945623755455017,0.030838370323181152,-0.42644477599171976,-1.2688784833957774,-1.3426774154889016,-0.8692610263824463,0.41363659501075745,-0.2707216739654541,-0.8955364227294922,-1.4241447448730469,-1.472694993019104
6.460024833679199,-0.26045507192611694,0.03798729181289673,0.004518330097198486,-0.4019150001285443,-1.3065282016298623,-1.367294955402738,-0.8883639574050903,0.39118146896362305,-0.24038857221603394,-0.5758827924728394,-1.418536901473999,-1.4772905111312866
6.481553077697754,-0.17146962881088257,0.08979040384292603,-0.00773775577545166,-0.3770417916161679,-1.342133990689001,-1.3833079378588575,-0.9055567979812622,0.36817166209220886,-0.21075277030467987,-0.29599636793136597,-1.5056334733963013,-1.3063912391662598
6.49904203414917,-0.19034725427627563,0.0984395444393158,0.00459212064743042,-0.3544790897882833,-1.3746059651928233,-1.3960462716665152,-0.9198365807533264,0.3471018970012665,-0.18281465768814087,-0.45389410853385925,-1.2482795715332031,-1.1630300283432007
6.519953966140747,-0.1616816520690918,0.016450613737106323,0.007349908351898193,-0.3356573280291858,-1.4027490418572401,-1.4145095245091075,-0.9308935403823853,0.32938989996910095,-0.15792351961135864,-0.9511473178863525,-0.9844415783882141,-1.0045067071914673
6.53994607925415,-0.05317950248718262,0.0027898550033569336,-0.03141795098781586,-0.32091206079358336,-1.4308002287994042,-1.442734746810834,-0.9396641850471497,0.31543219089508057,-0.1324155181646347,-1.4233120679855347,-0.9422652721405029,-0.8767390847206116
6.560708999633789,0.019671142101287842,0.05733758211135864,-0.10170890390872955,-0.3083662176837291,-1.4597599354506063,-1.4762403462513434,-0.9469632506370544,0.30350232124328613,-0.10558164864778519,-1.571832299232483,-0.906740665435791,-0.7781524062156677
6.580000877380371,0.03632396459579468,0.11567029356956482,-0.14690792560577393,-0.29657134064396423,-1.487665347844818,-1.511332871093319,-0.953041672706604,0.29224294424057007,-0.07941029965877533,-1.5651155710220337,-0.8401181697845459,-0.7574538588523865
6.60109806060791,0.01667165756225586,0.1555103361606598,-0.19837266206741333,-0.2834348647914695,-1.5123178147721037,-1.5439108557882155,-0.9584594368934631,0.2796550989151001,-0.056113261729478836,-1.4819895029067993,-0.7053872346878052,-0.7924109697341919
6.621980905532837,0.005270242691040039,0.2018827497959137,-0.24046754837036133,-0.26828896586795103,-1.5342847048387445,-1.575274444020793,-0.9635833501815796,0.2650820016860962,-0.03519763424992561,-1.3912930488586426,-0.6873862147331238,-0.8796086311340332
6.639969825744629,0.009035825729370117,0.25467801094055176,-0.3269597887992859,-0.25005600443949666,-1.5553565010639323,-1.6002454416838592,-0.9687830805778503,0.24745821952819824,-0.014959030784666538,-0.9180757403373718,-0.7806171178817749,-1.0168869495391846
6.660827875137329,0.023247957229614258,0.34203410148620605,-0.38594579696655273,-0.2299485899659466,-1.5743121677279777,-1.615444271496638,-0.9736722707748413,0.22792746126651764,0.00342329079285264,-0.6570967435836792,-0.7498841285705566,-0.9869070053100586
6.679980754852295,0.06056022644042969,0.2797418236732483,-0.38739049434661865,-0.2103153709036273,-1.591737065150167,-1.6271212388870837,-0.9777508974075317,0.2087683379650116,0.020477820187807083,-0.46677646040916443,-0.7255797386169434,-0.9628507494926453
6.7000508308410645,0.08752340078353882,0.32302403450012207,-0.41444313526153564,-0.19191529604209176,-1.6064459173973837,-1.6309304173601746,-0.9810171127319336,0.19073937833309174,0.0349876806139946,0.1348867118358612,-0.6741209030151367,-0.8578504920005798
6.7205047607421875,0.10476338863372803,0.443633496761322,-0.44125378131866455,-0.17708737237432148,-1.6174877778967913,-1.620530798586569,-0.9832882285118103,0.17616324126720428,0.04594454914331436,0.732719898223877,-0.6125854253768921,-0.6705759763717651
6.74037504196167,0.1298348307609558,0.3790495991706848,-0.40107882022857666,-0.16664250781941495,-1.6262357591154588,-1.6050101821833274,-0.9846323728561401,0.16587230563163757,0.054643452167510986,0.6471735835075378,-0.5196986794471741,-0.45496222376823425
6.75964093208313,0.12585127353668213,0.24594508111476898,-0.3545726537704468,-0.16045855320140687,-1.6330566825017043,-1.5959852386141902,-0.9852415919303894,0.1597708910703659,0.061420876532793045,0.20725303888320923,-0.2875274419784546,-0.21546828746795654
6.780013084411621,0.1138906478881836,0.22468474507331848,-0.3593459129333496,-0.15833069135901873,-1.6361913653998594,-1.5948907321693542,-0.9853813052177429,0.15766999125480652,0.06453106552362442,-0.058638282120227814,-0.0655658170580864,-0.020310821011662483
6.799968957901001,0.10250461101531982,0.2692841589450836,-0.3835926055908203,-0.159089935685653,-1.6365094346879834,-1.5965254756174765,-0.9852408766746521,0.15841969847679138,0.06483659148216248,-0.05726379156112671,0.05599576234817505,0.10047701746225357
6.819907903671265,0.07884639501571655,0.2885025143623352,-0.3706897497177124,-0.16217385085589842,-1.6341625605035361,-1.5962052266794426,-0.9848981499671936,0.1614639163017273,0.06249295175075531,0.11579810082912445,0.1687477082014084,0.20327340066432953
6.839968919754028,0.025523066520690918,0.2726513147354126,-0.3328777551651001,-0.16713637439937903,-1.6291755504623706,-1.5930283648595762,-0.9843854308128357,0.1663593202829361,0.057533033192157745,0.18553532660007477,0.263832151889801,0.27058088779449463
6.859969854354858,-0.04235309362411499,0.26099318265914917,-0.23661410808563232,-0.1731439697869837,-1.6241201399372813,-1.5906052867022902,-0.9836481213569641,0.17228016257286072,0.05250164121389389,0.08155310153961182,0.17541758716106415,0.31023457646369934
6.8799729347229,-0.2304280400276184,0.28175631165504456,-0.17985451221466064,-0.17954929726899632,-1.620550589144435,-1.5888524512315945,-0.9827069640159607,0.17858614027500153,0.048934247344732285,0.15806132555007935,0.21775802969932556,0.32437342405319214
6.900166988372803,-0.44932204484939575,0.3291230797767639,-0.11472296714782715,-0.18581459165509656,-1.611229372130952,-1.583828694665306,-0.9819830656051636,0.18474715948104858,0.03972621634602547,0.37917768955230713,0.6588723063468933,0.26943543553352356
6.919980049133301,-0.4619510769844055,0.3182206451892853,-0.05066347122192383,-0.19108841012665828,-1.5913172802900637,-1.5750968457536665,-0.9815916419029236,0.1899276077747345,0.020146025344729424,0.47139596939086914,1.1213299036026,0.24443845450878143
6.939970016479492,-0.19448482990264893,0.23504213988780975,0.02963930368423462,-0.1970627651240209,-1.5674130531623642,-1.5658670689525649,-0.9806404709815979,0.19578979909420013,-0.0033177875448018312,0.4374770224094391,0.9973403215408325,0.372536301612854
6.959967851638794,-0.024029195308685303,0.18491268157958984,0.05297708511352539,-0.20658349797129238,-1.5496715039227635,-1.5556460007566473,-0.9785191416740417,0.20511724054813385,-0.020674118772149086,0.619721531867981,0.5763135552406311,0.5852749943733215
6.9802470207214355,-0.09253472089767456,0.2219618856906891,-0.013707216829061508,-0.21841498382804744,-1.5370808058924714,-1.5375667493492475,-0.9756873250007629,0.2166825383901596,-0.032908279448747635,1.161186933517456,0.3719482123851776,0.6234094500541687
7.000035762786865,-0.2066580057144165,0.2420685887336731,-0.00577067956328392,-0.22957781078168935,-1.5216543833974068,-1.5077812463841305,-0.9725870490074158,0.2275664359331131,-0.04783332720398903,1.6405212879180908,0.5382082462310791,0.6307938098907471
7.01978874206543,-0.14223533868789673,0.1384366899728775,0.10990291833877563,-0.24170220622622926,-1.5013153733296387,-1.472912613453513,-0.9685893654823303,0.23935569822788239,-0.0674070194363594,1.6166858673095703,0.6508453488349915,0.7954208850860596
7.039970874786377,-0.06683331727981567,0.005356699228286743,0.19838398694992065,-0.25696829488852946,-1.4796491914501062,-1.44115198338464,-0.9631503820419312,0.25414955615997314,-0.0880323126912117,1.288066029548645,0.773169219493866,0.9803460836410522
7.059644937515259,-0.05983877182006836,-0.06861910223960876,0.2506459951400757,-0.2756964132916782,-1.4561909894521288,-1.4178542682450228,-0.9559235572814941,0.27221712470054626,-0.11003611981868744,0.7338708639144897,0.9646474719047546,1.108756184577942
7.080193996429443,-0.053863525390625,-0.14739477634429932,0.29146426916122437,-0.2977080762473255,-1.431351153814532,-1.4057575881098614,-0.946731686592102,0.2933298647403717,-0.13287955522537231,0.143923819065094,1.1995800733566284,1.216860294342041
7.1000049114227295,-0.0015041828155517578,-0.1986696720123291,0.31548988819122314,-0.32274334872815075,-1.4045520433065017,-1.403690421155374,-0.9352940320968628,0.3171694576740265,-0.1569357067346573,-0.2903563678264618,1.376661777496338,1.2876701354980469
7.120008945465088,0.08455312252044678,-0.21508914232254028,0.3165018558502197,-0.34941424149789835,-1.379041349348181,-1.406657756982675,-0.9223524332046509,0.34234750270843506,-0.17906582355499268,-0.39416080713272095,1.2402012348175049,1.2802417278289795
7.14026403427124,0.11827623844146729,-0.20486906170845032,0.287384957075119,-0.37529955206044024,-1.3584765796196752,-1.4080708278836604,-0.9095057249069214,0.3665512502193451,-0.19606104493141174,-0.22189420461654663,0.8305284976959229,1.2218142747879028
7.1604108810424805,0.04602116346359253,-0.16487175226211548,0.2845817804336548,-0.3978989233867297,-1.342244099382072,-1.4044549758355784,-0.8979042172431946,0.38748225569725037,-0.20886754989624023,0.04055413231253624,0.7405873537063599,1.0560526847839355
7.180380821228027,-0.033612966537475586,-0.194507896900177,0.3357234597206116,-0.41643136168215994,-1.323726665658003,-1.3983646819131081,-0.886766791343689,0.4044993817806244,-0.2236628383398056,0.012089187279343605,0.8900625109672546,0.8923460841178894
7.199872016906738,-0.016932666301727295,-0.27766525745391846,0.39526379108428955,-0.4334445393021614,-1.3047019392371668,-1.396598140091284,-0.8755845427513123,0.41999930143356323,-0.2386474758386612,-0.3077160716056824,0.8930824995040894,0.811879575252533
7.220314025878906,0.012177884578704834,-0.2710588872432709,0.3926839828491211,-0.45110543228783756,-1.2909122862559557,-1.4007554029570426,-0.8649458885192871,0.43596065044403076,-0.24861034750938416,-0.4827197194099426,0.6690932512283325,0.7809889316558838
7.239996910095215,-0.022921383380889893,-0.19239985942840576,0.3700188398361206,-0.46784071842257285,-1.281186622587592,-1.4057902227951085,-0.8553746342658997,0.45096006989479065,-0.25489118695259094,-0.3921816349029541,0.5465091466903687,0.6820381879806519
7.260187864303589,-0.05250835418701172,-0.1689683198928833,0.3507882058620453,-0.4809179757314066,-1.2718799278949773,-1.4076441128912915,-0.8472567796707153,0.4625932276248932,-0.26108163595199585,-0.14395292103290558,0.4581862688064575,0.5200962424278259
7.27998685836792,-0.028073549270629883,-0.18232056498527527,0.33808547258377075,-0.48945752611463,-1.2638124595352724,-1.405514121356054,-0.8413265943527222,0.47014716267585754,-0.26670482754707336,0.07358396053314209,0.2193332016468048,0.33667436242103577
7.299969911575317,-0.02234518527984619,-0.17166924476623535,0.3157944083213806,-0.49265786820147706,-1.259412528221665,-1.3992355614844874,-0.8387083411216736,0.4729693531990051,-0.26994162797927856,0.3672494888305664,-0.05268198251724243,0.1446641981601715
7.319971084594727,-0.044845402240753174,-0.1597549319267273,0.29032832384109497,-0.4903764371840701,-1.2568960223741432,-1.3879521715554592,-0.8390505909919739,0.47095799446105957,-0.2723838686943054,0.6623015999794006,-0.21469272673130035,-0.0578296035528183
7.339996814727783,-0.05983531475067139,-0.15064740180969238,0.28587186336517334,-0.4826970895278898,-1.2547166398213074,-1.3716528339836853,-0.8418676853179932,0.46416980028152466,-0.2753279209136963,0.9249120950698853,-0.3235979974269867,-0.2178916484117508
7.360006809234619,-0.04663366079330444,-0.15340042114257812,0.30758726596832275,-0.47164195243204754,-1.25421721627378,-1.3536503620172917,-0.8465549349784851,0.4543495774269104,-0.2773289680480957,0.9035476446151733,-0.4652272164821625,-0.33978110551834106
7.380061864852905,-0.05648303031921387,-0.17566710710525513,0.30523577332496643,-0.4588583187833625,-1.2586934124746352,-1.3389503645510124,-0.8532460331916809,0.4429247975349426,-0.27529793977737427,0.735866904258728,-0.6355674266815186,-0.4704211354255676
7.399971008300781,-0.09285473823547363,-0.16290313005447388,0.2876340448856354,-0.4445694825270435,-1.2674731504501378,-1.329157790529355,-0.8615825176239014,0.430069237947464,-0.2696591019630432,0.5507320165634155,-0.6506898403167725,-0.6311568021774292
7.420008897781372,-0.1019672155380249,-0.13112345337867737,0.24745416641235352,-0.4279741651478038,-1.2785170161233077,-1.3234018648992807,-0.8712232112884521,0.41502854228019714,-0.26214826107025146,0.47144341468811035,-0.742270827293396,-0.8122949600219727
7.43996787071228,-0.093666672706604,-0.06803324818611145,0.17703339457511902,-0.40777782664736445,-1.2929774352950998,-1.3173544919586946,-0.8828045129776001,0.3965703547000885,-0.25177085399627686,0.66495281457901,-0.9708008170127869,-0.9635692238807678
7.4599690437316895,-0.11616188287734985,0.013041287660598755,0.1370265781879425,-0.38404004955923143,-1.3105516302264169,-1.3065893365712606,-0.8959383368492126,0.37466928362846375,-0.23857367038726807,0.9492431282997131,-1.1790845394134521,-1.069795846939087
7.479696750640869,-0.20270615816116333,0.06105536222457886,0.10394205152988434,-0.3569697132086105,-1.3297583656814849,-1.2910410231963225,-0.9098732471466064,0.34943658113479614,-0.22366240620613098,1.0725547075271606,-1.3156139850616455,-1.2040939331054688
7.500004768371582,-0.3183959722518921,0.12888413667678833,0.07957521080970764,-0.32774224100171595,-1.3510538740956473,-1.2762145908301288,-0.9240051507949829,0.32190626859664917,-0.20637564361095428,0.9409690499305725,-1.258486032485962,-1.3150900602340698
7.520063877105713,-0.34244322776794434,0.145088791847229,0.05299520492553711,-0.2991256522660649,-1.3683314350571802,-1.2659887172022604,-0.9360756278038025,0.2946847975254059,-0.19215527176856995,0.5479744076728821,-0.7394505143165588,-1.2568618059158325
7.539981842041016,-0.07851254940032959,0.08979719877243042,0.019875288009643555,-0.27552247997742385,-1.3789825615046267,-1.2657246488037406,-0.9446351528167725,0.27204975485801697,-0.1834494173526764,-0.04580557718873024,-0.43334898352622986,-1.0428522825241089
7.559968948364258,0.24233537912368774,0.04762551188468933,-0.06226468086242676,-0.2588125842059147,-1.3932777312498126,-1.273808788716643,-0.9515029788017273,0.25593286752700806,-0.17070640623569489,-0.32382041215896606,-0.8855901956558228,-0.7354415059089661
7.579981803894043,0.3487730622291565,0.11434224247932434,-0.19742803275585175,-0.24830899407342163,-1.4192814455381366,-1.2795273791806072,-0.958224356174469,0.24576516449451447,-0.14630654454231262,0.012205621227622032,-1.5011606216430664,-0.4142528474330902
7.599969863891602,0.16808056831359863,0.21872259676456451,-0.23451419174671173,-0.24019983498378436,-1.44879206403617,-1.2751231358940494,-0.9640707969665527,0.23789672553539276,-0.11820783466100693,0.5180866718292236,-1.4515409469604492,-0.402204304933548
7.6199798583984375,-0.08734333515167236,0.23998725414276123,-0.22063905000686646,-0.22898869857297605,-1.4702405827211626,-1.2631307505193932,-0.9689769148826599,0.22699274122714996,-0.09776593744754791,0.7130172848701477,-0.9573934078216553,-0.5720667839050293
7.639969825744629,-0.13946694135665894,0.22955885529518127,-0.20888620615005493,-0.21629175064623735,-1.4827194894133917,-1.249511401171056,-0.9729141592979431,0.2146092653274536,-0.08591347187757492,0.719940185546875,-0.6554985046386719,-0.5449671745300293
7.660006999969482,-0.05612105131149292,0.19956959784030914,-0.1986587643623352,-0.20571745370853017,-1.4929879984956906,-1.2374352953739727,-0.9759530425071716,0.20426954329013824,-0.07609088718891144,0.5028208494186401,-0.6344606280326843,-0.41812339425086975
7.67996883392334,-0.012346208095550537,0.1963430792093277,-0.1876150369644165,-0.1979681143387146,-1.503351395441559,-1.230747183819297,-0.978239119052887,0.1966775357723236,-0.06607749313116074,0.23358486592769623,-0.5134839415550232,-0.32052603363990784
7.699966907501221,0.02544248104095459,0.22913941740989685,-0.21335941553115845,-0.19214574401576498,-1.5116405684857694,-1.226489248705943,-0.9798798561096191,0.19096559286117554,-0.05803324282169342,0.30046358704566956,-0.415246844291687,-0.2339533120393753
7.719968795776367,0.09890007972717285,0.29209792613983154,-0.2531406283378601,-0.18791851494501524,-1.517990727463784,-1.2157522898564204,-0.9810260534286499,0.18681445717811584,-0.051851872354745865,0.8233320116996765,-0.4417807459831238,-0.1271064281463623
7.7399678230285645,0.15755164623260498,0.3367122411727905,-0.2854042649269104,-0.18518795534287621,-1.5234648788524963,-1.1929674715596863,-0.9818009734153748,0.18413127958774567,-0.04650479182600975,1.424486756324768,-0.5274012088775635,-0.039746858179569244
7.7600109577178955,0.16851305961608887,0.31407880783081055,-0.2626069188117981,-0.18398191173704234,-1.5282600123728336,-1.1602540794796028,-0.9822338223457336,0.18294572830200195,-0.041805822402238846,1.7373801469802856,-0.5320373773574829,0.05427110195159912
7.780001878738403,0.14129018783569336,0.24602121114730835,-0.2077363133430481,-0.1842337254493639,-1.5316601090515731,-1.1249207075465357,-0.9823243021965027,0.18319328129291534,-0.03846409544348717,1.7199660539627075,-0.44230350852012634,0.09170076251029968
7.8000428676605225,0.10138934850692749,0.21379271149635315,-0.17815428972244263,-0.18508944860364307,-1.5330102444392761,-1.0910412540001415,-0.982218325138092,0.18403445184230804,-0.03713185712695122,1.618227481842041,-0.32106417417526245,0.11401032656431198
7.820023059844971,0.08089971542358398,0.24040816724300385,-0.16622310876846313,-0.1865602252922544,-1.5321930103559114,-1.0581591903053744,-0.981916069984436,0.18547990918159485,-0.037924058735370636,1.6473603248596191,-0.20572026073932648,0.15770161151885986
7.839974880218506,0.08794248104095459,0.2655639052391052,-0.1503159999847412,-0.18916024229705974,-1.5288544542090712,-1.023456844136392,-0.9812989830970764,0.18803417682647705,-0.041181668639183044,1.7492914199829102,-0.11888984590768814,0.23742136359214783
7.859977960586548,0.11455553770065308,0.2608063220977783,-0.10970461368560791,-0.1933689422048573,-1.5237851824146817,-0.9870313076534177,-0.9802783727645874,0.19216613471508026,-0.04611798748373985,1.8142354488372803,-0.07585156708955765,0.3407178223133087
7.879989862442017,0.12718814611434937,0.24212215840816498,-0.07222820073366165,-0.19949080259433905,-1.5176012336034315,-0.9493072802412856,-0.9787814021110535,0.1981702595949173,-0.052115533500909805,1.86170494556427,-0.04161796718835831,0.4509628713130951
7.9000349044799805,0.11571395397186279,0.23767204582691193,-0.03998589515686035,-0.20713483771402175,-1.5102077691146367,-0.9105467614837549,-0.9768286347389221,0.20565682649612427,-0.05925716459751129,1.8973459005355835,-0.012084929272532463,0.5202697515487671
7.919969081878662,0.08874237537384033,0.2413233071565628,-0.02074383944272995,-0.21540139200352093,-1.5019443985667604,-0.8707376181581011,-0.9745761752128601,0.2137395590543747,-0.06720767915248871,1.9555203914642334,0.017779314890503883,0.5553331971168518
7.9399659633636475,0.07513970136642456,0.23814572393894196,-0.0013465285301208496,-0.22417647609062427,-1.4922955584441138,-0.8297350497470884,-0.9719752073287964,0.22230352461338043,-0.0764579176902771,1.9764248132705688,0.04625631868839264,0.6218447089195251
7.959999084472656,0.07639962434768677,0.2208300083875656,0.004016704857349396,-0.23410712448359955,-1.4814322256785861,-0.7878983023257062,-0.9688404202461243,0.2319745570421219,-0.08681076765060425,2.0088491439819336,0.08185993880033493,0.7190701961517334
7.979968070983887,0.07844436168670654,0.20164063572883606,0.00925368070602417,-0.24581970077475487,-1.4701094444378693,-0.7449844138105252,-0.9650259017944336,0.24335145950317383,-0.09749513864517212,2.051462411880493,0.0293566957116127,0.8401458859443665
7.999969005584717,0.026520133018493652,0.1933826208114624,0.02338714897632599,-0.25890192600127543,-1.458254394552057,-0.7004990079237668,-0.9605563282966614,0.2560192346572876,-0.10856159031391144,2.0770835876464844,0.05382448807358742,0.9062398672103882
8.01996898651123,-0.08102375268936157,0.1878541111946106,0.03894061595201492,-0.2720157406656857,-1.445065893825244,-0.6566017756343138,-0.955627977848053,0.2686735987663269,-0.12078867107629776,1.9875496625900269,0.1357271671295166,0.8899354934692383
8.039988040924072,-0.1790097951889038,0.1741516888141632,0.04480881989002228,-0.28456850612321155,-1.4287044124202997,-0.6148080355938839,-0.950110137462616,0.2807433307170868,-0.13591894507408142,1.8216315507888794,0.3592471480369568,0.907191812992096
8.059969902038574,-0.19275641441345215,0.15399274230003357,0.08504641056060791,-0.29839874030686003,-1.408678876186712,-0.5774896412660591,-0.9432758688926697,0.2939900755882263,-0.15427540242671967,1.4810153245925903,0.5352795124053955,1.0080876350402832
8.080004930496216,-0.15943562984466553,0.1107640266418457,0.1383102536201477,-0.31575179988411267,-1.3895978560573186,-0.5482556740119018,-0.9350011348724365,0.3105311989784241,-0.17129963636398315,0.9736632704734802,0.4649839699268341,1.1733068227767944
8.099974870681763,-0.21846705675125122,0.08785119652748108,0.15562595427036285,-0.33696162912909283,-1.373990812013087,-0.5275375794890476,-0.9255455136299133,0.3306211233139038,-0.18454121053218842,0.5911051630973816,0.47126585245132446,1.2551509141921997
8.119968891143799,-0.33041632175445557,0.10971161723136902,0.14346708357334137,-0.3590756579709306,-1.357963637796858,-0.5115124246141304,-0.915097713470459,0.351408988237381,-0.197757750749588,0.4885375201702118,0.5790002942085266,1.213187575340271
8.139979839324951,-0.35340940952301025,0.13735878467559814,0.1329401731491089,-0.379776768383782,-1.339459855092064,-0.4945831112631213,-0.9040064215660095,0.37071314454078674,-0.21294192969799042,0.6177870631217957,0.6758325695991516,1.1599042415618896
8.160069942474365,-0.24555546045303345,0.10257765650749207,0.15632402896881104,-0.3989325871826038,-1.316929445485842,-0.47419692586672924,-0.8919416069984436,0.3884349763393402,-0.2314276397228241,0.735151469707489,0.7716835141181946,1.181276798248291
8.179720878601074,-0.06841546297073364,0.01279062032699585,0.22192759811878204,-0.41892683510923523,-1.294632667849022,-0.4521165836842933,-0.8789113163948059,0.40678033232688904,-0.2490881383419037,0.693963348865509,0.5203374624252319,1.2831940650939941
8.200019836425781,-0.020305216312408447,-0.03763943910598755,0.23385915160179138,-0.4396016229896361,-1.2785465561418992,-0.4290151465016689,-0.8665511012077332,0.4255790114402771,-0.26071450114250183,0.7836224436759949,0.1692405641078949,1.258643627166748
8.219966888427734,-0.11168527603149414,-0.04518410563468933,0.22546449303627014,-0.4562333429362903,-1.2644431101053653,-0.40228701528135324,-0.8559203147888184,0.44056984782218933,-0.2707372009754181,1.0564160346984863,0.10695384442806244,1.0118690729141235
8.239966869354248,-0.17781025171279907,-0.048697322607040405,0.20851892232894897,-0.4644468856583988,-1.2480287697781287,-0.3697106146509789,-0.8479008674621582,0.4479283392429352,-0.2835920751094818,1.4866063594818115,0.06101449206471443,0.6781178116798401
8.259965896606445,-0.15564072132110596,-0.01686611771583557,0.19784852862358093,-0.46347283746220996,-1.2304631593831137,-0.329905380912103,-0.8431998491287231,0.4470572769641876,-0.29858699440956116,1.9072328805923462,-0.08925330638885498,0.4074188768863678
8.280020952224731,-0.11998438835144043,-0.022195935249328613,0.23223063349723816,-0.4559010506324334,-1.2128878379671524,-0.28522993313565925,-0.8409684300422668,0.4402715265750885,-0.3145363926887512,2.077573776245117,-0.08322719484567642,0.28620728850364685
8.299968957901001,-0.09077060222625732,-0.09381043910980225,0.28566643595695496,-0.4474777475931806,-1.1936164197807055,-0.24150294148945234,-0.8381693959236145,0.4326930046081543,-0.3320378065109253,1.8446654081344604,0.11284688860177994,0.362653911113739
8.319974899291992,-0.05344122648239136,-0.15322208404541016,0.320110559463501,-0.4436662370998973,-1.173717095158979,-0.20557663556463,-0.8329114317893982,0.42925363779067993,-0.3492852449417114,1.2843763828277588,0.32160046696662903,0.5165426135063171
8.339966773986816,-0.010415256023406982,-0.20429128408432007,0.32522052526474,-0.44719795810862784,-1.1550822005309485,-0.1807370114539015,-0.8248662352561951,0.43244072794914246,-0.3641303777694702,0.6346094012260437,0.45813244581222534,0.6908156871795654
8.35996675491333,0.03337740898132324,-0.2607707977294922,0.3439246714115143,-0.4591366927395651,-1.1395640815281538,-0.1680588743101301,-0.8143680095672607,0.4431743621826172,-0.37470152974128723,-0.07307030260562897,0.5152553915977478,0.8559303879737854
8.379965782165527,0.052195072174072266,-0.29160797595977783,0.35840779542922974,-0.4777419770900575,-1.128769818413827,-0.165780073778082,-0.8026834726333618,0.4597751498222351,-0.3798768222332001,-0.46840140223503113,0.4506746232509613,0.9019339084625244
8.399996757507324,0.02005314826965332,-0.2724296450614929,0.3548815846443176,-0.4981287335438023,-1.1223447730902019,-0.16837784580687656,-0.7916139364242554,0.4777825176715851,-0.3808824419975281,-0.5757367610931396,0.32981231808662415,0.8178400993347168
8.419994831085205,-0.04097670316696167,-0.2632766664028168,0.3505207896232605,-0.5158652994824995,-1.1183129764116113,-0.17255615036989203,-0.7823266386985779,0.49328774213790894,-0.38030585646629333,-0.5284603238105774,0.2891925275325775,0.6053129434585571
