timestamp,acceleration_x,acceleration_y,acceleration_z,attitude_pitch,attitude_roll,attitude_yaw,gravity_x,gravity_y,gravity_z,rotation_x,rotation_y,rotation_z
0.0,0.06556123495101929,0.12978440523147583,-0.1083105206489563,-0.7300303719103372,-0.8476846015964976,2.435520219002581,-0.5586795806884766,0.6668922901153564,-0.4930841028690338,-0.8794088363647461,1.286503553390503,0.0024209145922213793
0.01937103271484375,0.04323017597198486,0.06737750768661499,-0.12235650420188904,-0.7389510970709287,-0.8282220600853679,2.4277256354837804,-0.5445729494094849,0.6735129356384277,-0.4998205900192261,-0.14338015019893646,1.178168535232544,0.2393777072429657
0.041541099548339844,-0.02725505828857422,-0.030341506004333496,-0.10697346925735474,-0.7413713769485788,-0.8004145065952857,2.435727548773612,-0.5292940139770508,0.6753000020980835,-0.5136318802833557,0.3624134659767151,1.094188928604126,0.31838199496269226
0.06099700927734375,-0.09212952852249146,-0.08914494514465332,-0.03439980745315552,-0.7383291234100423,-0.7681190838300973,2.451112229293641,-0.5138580799102783,0.6730530858039856,-0.531930148601532,0.5979519486427307,1.1204502582550049,0.2611663341522217
0.08110690116882324,-0.11575570702552795,-0.11897307634353638,0.05039536952972412,-0.733405394844234,-0.7363631438962865,2.4648587278397156,-0.49892938137054443,0.6694033741950989,-0.5504258275032043,0.41278892755508423,1.1261801719665527,0.13538682460784912
0.1009519100189209,-0.09868991374969482,-0.18296068906784058,0.0905267596244812,-0.7311174347149882,-0.7107656080152521,2.470113633951101,-0.48567596077919006,0.6677019000053406,-0.5641747713088989,0.010036008432507515,1.0691994428634644,0.003890450345352292
0.12395811080932617,-0.04940575361251831,-0.22048324346542358,0.12278401851654053,-0.7334582341410232,-0.6934075797680279,2.4657325165591875,-0.4748099744319916,0.6694426536560059,-0.5713160634040833,-0.37684184312820435,0.9501201510429382,-0.10223492234945297
0.1417679786682129,7.840991020202637e-05,-0.2167767882347107,0.12737655639648438,-0.738731045273837,-0.6831269474754161,2.4549614632919456,-0.4666769206523895,0.6733502745628357,-0.5734214782714844,-0.46634262800216675,0.800984799861908,-0.16807463765144348
0.16001391410827637,0.03216451406478882,-0.21405625343322754,0.11224883794784546,-0.7423219422647351,-0.6754890333608066,2.4451895381086577,-0.4607686698436737,0.6760007739067078,-0.5750783681869507,-0.22649960219860077,0.6311113238334656,-0.15872393548488617
0.1810450553894043,0.05610296130180359,-0.18244010210037231,0.08000266551971436,-0.7419287896119141,-0.6681352761643236,2.4398521624833864,-0.4566919803619385,0.6757110357284546,-0.5786598920822144,0.011630643159151077,0.4594408869743347,-0.20061372220516205
0.19999289512634277,0.05071491003036499,-0.158696711063385,0.0916585922241211,-0.7383527186423055,-0.6626270648383341,2.437347743452529,-0.45498126745224,0.6730705499649048,-0.5830678939819336,0.16680869460105896,0.27190065383911133,-0.16427361965179443
0.21999311447143555,0.04971492290496826,-0.13532257080078125,0.05417269468307495,-0.7325118701040236,-0.6585848458276585,2.437822107916862,-0.45501893758773804,0.6687393188476562,-0.5880014300346375,0.2944926619529724,0.1065472960472107,-0.16863352060317993
0.23999786376953125,0.05500262975692749,-0.09448826313018799,0.04131072759628296,-0.7257981990512687,-0.6570416226685508,2.439252278360765,-0.45684289932250977,0.6637327075004578,-0.592244565486908,0.28021106123924255,-0.04801822081208229,-0.15110339224338531
0.2623019218444824,0.07176801562309265,-0.08377647399902344,0.01964890956878662,-0.7207500580148789,-0.6587356303169447,2.4400937868042063,-0.45989060401916504,0.6599484086036682,-0.5941117405891418,0.1513633131980896,-0.16635888814926147,-0.10596838593482971
0.27997684478759766,0.0852002501487732,-0.06774348020553589,-0.002195000648498535,-0.7180371403145399,-0.6621114418215092,2.4407293625087343,-0.4629926383495331,0.6579077243804932,-0.5939658284187317,0.12518253922462463,-0.19428107142448425,-0.021550606936216354
0.29998302459716797,0.09558716416358948,-0.01851719617843628,-0.0020577311515808105,-0.715343567636985,-0.6632763426265006,2.4441398082914465,-0.46477359533309937,0.6558768153190613,-0.5948202610015869,0.2567848861217499,-0.14949655532836914,0.07761343568563461
0.3200678825378418,0.11977747082710266,0.010474562644958496,-0.03703504800796509,-0.7123356346298011,-0.6616365587199742,2.4515945456509707,-0.4650076627731323,0.6536032557487488,-0.5971354842185974,0.32522737979888916,-0.18980714678764343,0.17325405776500702
0.34222984313964844,0.173923522233963,-0.002637028694152832,-0.0807657241821289,-0.7095623277390715,-0.659029909027904,2.4627862931901756,-0.4645577073097229,0.6515017747879028,-0.5997762680053711,0.41968369483947754,-0.29065120220184326,0.3259832561016083
0.36119985580444336,0.2061975598335266,0.008720874786376953,-0.09260380268096924,-0.7072244373931138,-0.6556339652352885,2.4787905072722287,-0.4634455442428589,0.649726390838623,-0.6025561094284058,0.4785640239715576,-0.39970025420188904,0.503609836101532
0.38003110885620117,0.21202868223190308,0.010163724422454834,-0.08997797966003418,-0.7068319287074835,-0.6520431870836632,2.498285369151197,-0.46143361926078796,0.6494279503822327,-0.6044189929962158,0.46797582507133484,-0.5229635834693909,0.6575744152069092
0.4007899761199951,0.19551363587379456,0.03314942121505737,-0.12149280309677124,-0.7078880241741651,-0.6489126060011463,2.5210488056746585,-0.45912447571754456,0.6502307057380676,-0.6053138375282288,0.5235710144042969,-0.6408125758171082,0.7679123282432556
0.4207799434661865,0.135259747505188,0.06429237127304077,-0.14109182357788086,-0.7086116572354589,-0.6456085655202244,2.546507314835387,-0.45683878660202026,0.6507802605628967,-0.6064515113830566,0.5891826152801514,-0.6888049244880676,0.8179287314414978
0.4406299591064453,0.06706300377845764,0.09945940971374512,-0.15274053812026978,-0.708899001291269,-0.640735910028851,2.573605857586562,-0.4537665843963623,0.6509984135627747,-0.6085204482078552,0.6183518767356873,-0.5809450745582581,0.846544086933136
0.45966196060180664,0.017475277185440063,0.13005608320236206,-0.1841951608657837,-0.7099007420560582,-0.6340462165665923,2.6004822032328834,-0.44929900765419006,0.6517584919929504,-0.611016571521759,0.48030292987823486,-0.5108303427696228,0.8476089239120483
0.4800899028778076,0.016532152891159058,0.12470448017120361,-0.19352275133132935,-0.7129572941819159,-0.6282663355226539,2.6244764345057527,-0.44458702206611633,0.6540735960006714,-0.6119887232780457,0.36538252234458923,-0.5037060976028442,0.7979214191436768
0.500201940536499,-0.021644532680511475,0.15895545482635498,-0.1989620327949524,-0.7158319360468828,-0.6245618687437847,2.645349630124282,-0.4412156045436859,0.6562453508377075,-0.6121036410331726,0.3474060893058777,-0.4780762195587158,0.6991655230522156
0.5200319290161133,-0.07291826605796814,0.1856783628463745,-0.23798084259033203,-0.7180927203586775,-0.6222072870767966,2.6637935721593275,-0.43890732526779175,0.6579495668411255,-0.611933708190918,0.3035123944282532,-0.483395516872406,0.5849258303642273
0.5400159358978271,-0.0609719455242157,0.1776016354560852,-0.2497321367263794,-0.7194575510038549,-0.6186228851740114,2.6823548144284772,-0.4361899495124817,0.6589767336845398,-0.6127708554267883,0.4245911240577698,-0.36697348952293396,0.6275772452354431
0.5600399971008301,-0.04481685161590576,0.1367015838623047,-0.16962683200836182,-0.719466111056132,-0.6115179255238313,2.7022544386210794,-0.4318219721317291,0.6589831709861755,-0.6158497929573059,0.3817427158355713,-0.2656538784503937,0.5759223103523254
0.5800929069519043,-0.027810722589492798,0.032331228256225586,-0.0408669114112854,-0.721232767554189,-0.6065476071464925,2.7175002646615396,-0.4280913770198822,0.6603109836578369,-0.6170309782028198,0.11840412020683289,-0.2790524959564209,0.45109087228775024
0.600092887878418,-0.023027926683425903,-0.008749544620513916,0.0022965669631958008,-0.7257987351223071,-0.6073515446390954,2.7261990554466022,-0.42686226963996887,0.6637330651283264,-0.614204466342926,-0.11242862790822983,-0.38491761684417725,0.37382665276527405
0.6200318336486816,-0.0038143694400787354,0.017162024974822998,0.02443152666091919,-0.7326713487948525,-0.6120447041012703,2.732023164157314,-0.42710909247398376,0.6688578724861145,-0.6084463596343994,-0.1652010828256607,-0.46531790494918823,0.38251855969429016
0.6400289535522461,-0.03355526924133301,0.04821419715881348,0.014403998851776123,-0.7392379208389132,-0.6160838906423358,2.740065046227554,-0.42701610922813416,0.6737249493598938,-0.6031186580657959,-0.003090672194957733,-0.47094792127609253,0.48370304703712463
0.660027027130127,-0.0728742778301239,0.054421424865722656,0.014355838298797607,-0.7429030205371642,-0.6153957377274735,2.754164060764752,-0.4251725971698761,0.6764288544654846,-0.6013919711112976,0.3269253075122833,-0.4130219519138336,0.5810064673423767
0.6801159381866455,-0.09896314144134521,0.050530850887298584,0.036216914653778076,-0.7419084204717057,-0.608234864160415,2.7754778379106337,-0.4212395250797272,0.6756960153579712,-0.6049730181694031,0.6508021354675293,-0.2988967001438141,0.6327883005142212
0.7000069618225098,-0.12416619062423706,-0.014483451843261719,0.07911920547485352,-0.7363911444598238,-0.5950720157590643,2.8014592599766726,-0.41532355546951294,0.6716185212135315,-0.6135430335998535,0.8412390351295471,-0.12873180210590363,0.62429279088974
0.720026969909668,-0.1251124143600464,-0.09358972311019897,0.13972622156143188,-0.7300517485597978,-0.5796746950434284,2.8259103884499717,-0.4081517159938812,0.6669082045555115,-0.6234145164489746,0.6647757291793823,0.021300487220287323,0.52530437707901
0.7400169372558594,-0.086793452501297,-0.19992297887802124,0.18946778774261475,-0.7259567101128039,-0.5659925734442164,2.844256161869125,-0.4010453522205353,0.663851261138916,-0.6312402486801147,0.432990163564682,0.10989639908075333,0.3956754505634308
0.7600250244140625,-0.051009684801101685,-0.23423969745635986,0.22296351194381714,-0.7234901292991407,-0.5546643284088594,2.856836897584283,-0.3947300612926483,0.6620045304298401,-0.6371327638626099,0.28256672620773315,0.19011694192886353,0.26140475273132324
0.7800459861755371,-0.023782074451446533,-0.2506920099258423,0.24610775709152222,-0.7216231045953059,-0.5461931131838798,2.863818706730194,-0.38995999097824097,0.6606040596961975,-0.6415086984634399,0.13777931034564972,0.19019754230976105,0.08869649469852448
0.8000259399414062,-0.01060640811920166,-0.24340075254440308,0.25337862968444824,-0.719920426707605,-0.541739465421743,2.8652887494735855,-0.38767850399017334,0.6593248248100281,-0.644201934337616,0.04352123662829399,0.15914970636367798,-0.09215608239173889
0.8233108520507812,-0.023702681064605713,-0.21147871017456055,0.25550001859664917,-0.7183578376866945,-0.5418090133048374,2.860842485868677,-0.3882541060447693,0.6581491827964783,-0.6450568437576294,-0.08964212983846664,0.12787353992462158,-0.26638302206993103
0.8400039672851562,-0.018893569707870483,-0.1796032190322876,0.24413180351257324,-0.7181757035349515,-0.5461456063886893,2.850612711025952,-0.3911101222038269,0.6580120325088501,-0.6434695720672607,-0.27331578731536865,0.11606498807668686,-0.40256789326667786
0.8600168228149414,-0.009621649980545044,-0.11864262819290161,0.24608665704727173,-0.7195318768594031,-0.5535946644287286,2.8359056565991385,-0.39542290568351746,0.6590326428413391,-0.6397786736488342,-0.4285069704055786,0.10909159481525421,-0.4724556505680084
0.880094051361084,0.0005783140659332275,-0.07489430904388428,0.22019213438034058,-0.7224552053382104,-0.5639326988177724,2.817572439877171,-0.4009841978549957,0.6612285375595093,-0.6340256333351135,-0.5355889201164246,0.06697361171245575,-0.5410005450248718
0.9000298976898193,-0.0031882822513580322,-0.0359501838684082,0.18551331758499146,-0.7251587372982784,-0.5763057389927425,2.7975786310342414,-0.40782251954078674,0.6632542610168457,-0.627514660358429,-0.478551983833313,0.045507557690143585,-0.5731772780418396
0.9200930595397949,-0.017400234937667847,0.026669025421142578,0.14866113662719727,-0.7259580412027111,-0.5878479391145024,2.7788768968242037,-0.41474395990371704,0.6638522148132324,-0.6223244667053223,-0.3699555993080139,0.02804059349000454,-0.5552463531494141
0.9392828941345215,-0.014827489852905273,0.07025158405303955,0.07467728853225708,-0.7249744922226892,-0.5995520816194145,2.761921009650533,-0.4223673641681671,0.6631163358688354,-0.6179664731025696,-0.26346486806869507,-0.07444299757480621,-0.5535735487937927
0.9604918956756592,-0.03270143270492554,0.1144634485244751,0.01807260513305664,-0.7222366049951313,-0.6121836804919363,2.746062779537961,-0.43118104338645935,0.6610645055770874,-0.6140655875205994,-0.20406682789325714,-0.12441081553697586,-0.5998176336288452
0.980133056640625,-0.07544583082199097,0.16164946556091309,-0.009189307689666748,-0.7182094660625119,-0.6251852694802149,2.7298032441287323,-0.4406827688217163,0.6580374836921692,-0.6105616688728333,-0.19217664003372192,-0.09389116615056992,-0.625861406326294
1.0000619888305664,-0.08674097061157227,0.19097113609313965,-0.02680438756942749,-0.7151813544936425,-0.637414931347346,2.7126526445510573,-0.4493003487586975,0.6557543277740479,-0.60672527551651,-0.3501735031604767,-0.007898942567408085,-0.5995983481407166
1.0200181007385254,-0.03950345516204834,0.16197341680526733,-0.04860341548919678,-0.7158565492378839,-0.6502606069304089,2.6933001018974916,-0.45678871870040894,0.6562639474868774,-0.6005512475967407,-0.5480054020881653,-0.029936956241726875,-0.5242405533790588
1.0400569438934326,0.007889717817306519,0.15115106105804443,-0.1083381175994873,-0.7176426384544683,-0.6639083454212037,2.674984522540676,-0.4642190635204315,0.6576105356216431,-0.5933372974395752,-0.3839322328567505,-0.12634879350662231,-0.47465696930885315
1.0600249767303467,-0.05965736508369446,0.22724485397338867,-0.17828083038330078,-0.7149543780581638,-0.6756868547817135,2.661348111875054,-0.47227928042411804,0.6555829644203186,-0.5892056822776794,-0.046666219830513,-0.14407187700271606,-0.5109617114067078
1.0800228118896484,-0.14597457647323608,0.26727020740509033,-0.20985263586044312,-0.7080620042371687,-0.6846690117093472,2.6501324350780004,-0.4803987443447113,0.6503628492355347,-0.5884261727333069,-0.029933378100395203,0.01587687060236931,-0.5734507441520691
1.1000258922576904,-0.1390172839164734,0.21886765956878662,-0.14736056327819824,-0.7056762566960593,-0.6907068093171317,2.6358180555918906,-0.4849298894405365,0.6485487222671509,-0.5867092609405518,-0.5409891605377197,0.2973075807094574,-0.38190948963165283
1.1200339794158936,-0.012799113988876343,0.05849802494049072,-0.08521735668182373,-0.715297754237165,-0.6960639494778654,2.616565939100656,-0.48404234647750854,0.6558422446250916,-0.579287588596344,-1.0604649782180786,0.40852802991867065,-0.15179157257080078
1.1400609016418457,0.01623806357383728,-0.007333576679229736,-0.057993412017822266,-0.7306892104793452,-0.7004215588218546,2.596994746027981,-0.47999846935272217,0.667383074760437,-0.5693869590759277,-0.9903169870376587,0.42472606897354126,0.0042569516226649284
1.160048007965088,0.0016247034072875977,-0.04001259803771973,-0.0739240050315857,-0.7430029301260012,-0.7025863511075503,2.583468845656371,-0.4758831262588501,0.6765024662017822,-0.5620317459106445,-0.5641047358512878,0.2456703931093216,0.00022885901853442192
1.18007493019104,-0.03505927324295044,-0.07964324951171875,-0.08786576986312866,-0.7473677161324126,-0.7028650344970243,2.5776311691372986,-0.47412654757499695,0.6797103881835938,-0.5596408843994141,-0.06604045629501343,0.16112194955348969,-0.05167509242892265
1.2001237869262695,-0.09094607830047607,-0.08566009998321533,-0.04375934600830078,-0.7458776378836945,-0.7008391252088596,2.5755170569665196,-0.4736444056034088,0.6786167025566101,-0.5613737106323242,0.007623184472322464,0.2056192010641098,-0.1820831298828125
1.2200350761413574,-0.08843132853507996,-0.16305065155029297,0.03922426700592041,-0.7446290862567446,-0.7003240738597422,2.5681676415816335,-0.47390085458755493,0.677699089050293,-0.5622650384902954,-0.30842751264572144,0.35429033637046814,-0.3108161985874176
1.240020990371704,-0.04500839114189148,-0.23268568515777588,0.11467808485031128,-0.7477795332422975,-0.7022879166321235,2.552631205405378,-0.4736226201057434,0.6800124049186707,-0.5597006678581238,-0.6543196439743042,0.49999114871025085,-0.35692283511161804
1.2600197792053223,0.019103914499282837,-0.2452208399772644,0.12650692462921143,-0.754344756636413,-0.7060608195847257,2.5313655810867104,-0.4728240370750427,0.6848113536834717,-0.5545006990432739,-0.8053973317146301,0.5365050435066223,-0.4037993550300598
1.2801179885864258,0.08190885186195374,-0.24843895435333252,0.06404590606689453,-0.7609591708124254,-0.7118144491177599,2.5087229433566693,-0.47303739190101624,0.6896163821220398,-0.5483292937278748,-0.7403151988983154,0.44027671217918396,-0.40855640172958374
1.3000259399414062,0.13123080134391785,-0.25386345386505127,0.05583149194717407,-0.7654249944943369,-0.7187244205768818,2.4880096055196086,-0.47478246688842773,0.692843496799469,-0.5427241325378418,-0.5796709060668945,0.2888033092021942,-0.42101573944091797
1.3200459480285645,0.164524644613266,-0.256644606590271,0.06631457805633545,-0.7676336791770598,-0.7270397987288704,2.4702952933463633,-0.4782606363296509,0.6944344639778137,-0.5376127362251282,-0.43279314041137695,0.11056280881166458,-0.387881875038147
1.3401188850402832,0.15095564723014832,-0.223732590675354,0.05874347686767578,-0.7679535912798501,-0.736288628100558,2.455916294829585,-0.4830632209777832,0.6946646571159363,-0.5330018401145935,-0.2765007019042969,-0.02545139379799366,-0.371695876121521
1.3600199222564697,0.10527202486991882,-0.1722947359085083,0.018216490745544434,-0.7656433470130221,-0.7456268824579937,2.4446670457846955,-0.4891068637371063,0.6930009722709656,-0.5296453237533569,-0.1070641577243805,-0.11434868723154068,-0.37133586406707764
1.3800179958343506,0.08567509055137634,-0.11243253946304321,-0.015984296798706055,-0.7621330505771632,-0.7537467095516116,2.4369753808764893,-0.49505317211151123,0.6904659867286682,-0.5274269580841064,-0.03267662227153778,-0.17122937738895416,-0.26632434129714966
1.4000799655914307,0.10098814964294434,-0.09182572364807129,-0.05580031871795654,-0.7588583462279342,-0.7606423412455432,2.433098276241298,-0.5002343654632568,0.6880934834480286,-0.5256357789039612,0.09130904078483582,-0.2678762674331665,-0.16721418499946594
1.4200468063354492,0.13169974088668823,-0.063448965549469,-0.06108880043029785,-0.7547300268605085,-0.7664025282029282,2.4340704129646564,-0.5052196383476257,0.685092031955719,-0.5247876644134521,0.2584340572357178,-0.3708801567554474,-0.0656391903758049
1.44002103805542,0.12548011541366577,-0.07270324230194092,-0.07591784000396729,-0.7497665462107097,-0.7710796598357731,2.439027188008384,-0.5100321769714355,0.6814679503440857,-0.5248511433601379,0.3248889148235321,-0.42107605934143066,-0.03344106301665306
1.4600229263305664,0.10023248195648193,-0.08448874950408936,-0.06246381998062134,-0.7443461649968504,-0.7756939458970865,2.4446233703242974,-0.5150274038314819,0.6774910688400269,-0.5251215696334839,0.3323597311973572,-0.405704528093338,-0.04185657575726509
1.4800200462341309,0.08020371198654175,-0.0532950758934021,-0.04935181140899658,-0.7401573854643245,-0.7802039821584643,2.449077294799535,-0.5193821787834167,0.6744041442871094,-0.5248059034347534,0.20388604700565338,-0.35332441329956055,-0.019831525161862373
1.5000181198120117,0.05985361337661743,-0.062301695346832275,-0.07700270414352417,-0.7381187060696744,-0.7848879569820431,2.451582551236407,-0.5228053331375122,0.672897458076477,-0.5233390927314758,0.07782302051782608,-0.28992292284965515,0.006440268363803625
1.520047903060913,0.058968961238861084,-0.04648381471633911,-0.04456096887588501,-0.7375486158291891,-0.7889251945389588,2.4532692164884526,-0.5251859426498413,0.6724756360054016,-0.5214942693710327,0.07162436842918396,-0.2271530032157898,0.047152988612651825
1.540018081665039,0.06763982772827148,-0.021710991859436035,-0.020482778549194336,-0.7370846183537144,-0.791026041016878,2.456535783736204,-0.5265021920204163,0.672132134437561,-0.5206090807914734,0.14477302134037018,-0.20759260654449463,0.08117495477199554
1.5600199699401855,0.049320757389068604,-0.02875971794128418,0.016969144344329834,-0.7361153496785955,-0.7921129577321705,2.4611803014100824,-0.5275312662124634,0.6714141368865967,-0.5204938650131226,0.13882942497730255,-0.21266691386699677,0.0956064909696579
1.580078125,0.0035277605056762695,-0.04237020015716553,0.047978878021240234,-0.7360119861323806,-0.7944511960867803,2.464057673944121,-0.5287963151931763,0.6713375449180603,-0.519307553768158,0.017845701426267624,-0.22449782490730286,0.020892977714538574
1.6000170707702637,-0.02648109197616577,-0.009840428829193115,0.07521063089370728,-0.7355000232715532,-0.7993172655540833,2.4639397780647205,-0.5315633416175842,0.6709579825401306,-0.5169678330421448,0.03916080296039581,-0.2642735540866852,-0.05134965106844902
1.6200480461120605,-0.07159602642059326,0.027344465255737305,0.1174156665802002,-0.7335272697963237,-0.8062133438664708,2.4626460493754903,-0.536069929599762,0.6694939136505127,-0.5142050981521606,-0.018443197011947632,-0.3422740697860718,-0.18729257583618164
1.6400179862976074,-0.1545771360397339,0.04221874475479126,0.1381986141204834,-0.7298604562694888,-0.818653988144403,2.4555641967050037,-0.5442144274711609,0.6667656302452087,-0.5091702938079834,-0.06417595595121384,-0.4241971969604492,-0.4151622951030731
1.6600160598754883,-0.1117624044418335,0.0649154782295227,0.0892113447189331,-0.7239090254677635,-0.8328817063911902,2.447991583252758,-0.5543295741081238,0.6623184680938721,-0.5040367841720581,0.06967634707689285,-0.4880577325820923,-0.383382111787796
1.6800169944763184,0.004922211170196533,0.07812154293060303,0.116566002368927,-0.7172996534122601,-0.8446840856499114,2.445274699283834,-0.563500702381134,0.6573521494865417,-0.500355064868927,0.18819396197795868,-0.5098580718040466,-0.250923216342926
1.7000749111175537,0.040623247623443604,0.020965278148651123,0.22327467799186707,-0.7110556173616958,-0.8561717329523798,2.4444170025604577,-0.5723004937171936,0.6526339650154114,-0.4965290427207947,0.19532622396945953,-0.605989396572113,-0.29927894473075867
1.720012903213501,0.020386874675750732,-0.013677418231964111,0.26775652170181274,-0.7030946382410846,-0.87088019578187,2.4424326530074567,-0.5834972858428955,0.6465815305709839,-0.49138933420181274,0.20040468871593475,-0.763599157333374,-0.4145069718360901
1.7400169372558594,0.04174470901489258,-0.062283873558044434,0.25953778624534607,-0.6928867343957772,-0.8915110699332406,2.4380063429033516,-0.5986142158508301,0.6387609243392944,-0.4833689332008362,0.17371438443660736,-1.0028437376022339,-0.6113840341567993
1.7600159645080566,0.005396604537963867,-0.05610048770904541,0.28818774223327637,-0.6801966999648338,-0.9161562358261793,2.43123100308937,-0.6167247891426086,0.6289459466934204,-0.473368376493454,0.20989274978637695,-1.016910433769226,-0.699179470539093
1.7800140380859375,-0.026653409004211426,-0.0547635555267334,0.28338509798049927,-0.6659388621881289,-0.9404289691132006,2.4239633239503395,-0.6352118849754333,0.6177976727485657,-0.46349984407424927,0.22980040311813354,-0.9641587734222412,-0.7848984003067017
1.8000130653381348,-0.04810476303100586,0.00592195987701416,0.18386530876159668,-0.649720263749382,-0.9636292789493903,2.417602493389316,-0.6539369821548462,0.6049636602401733,-0.4542967975139618,0.2774704694747925,-0.9785086512565613,-0.8263962864875793
1.8200149536132812,0.0007311701774597168,-0.005705833435058594,0.13845223188400269,-0.6330767759081898,-0.9866206379562334,2.4121338753814285,-0.6725146770477295,0.5916280746459961,-0.4446350634098053,0.2643061876296997,-0.9814269542694092,-0.7817776799201965
1.8401989936828613,0.029762327671051025,-0.03095632791519165,0.16953924298286438,-0.618183219368381,-1.0093451823325275,2.4058222238092584,-0.689827024936676,0.5795555710792542,-0.4338825047016144,0.12501594424247742,-0.9233441948890686,-0.7782871127128601
1.8600220680236816,0.03425544500350952,-0.02333700656890869,0.1550399363040924,-0.6040916124611599,-1.0311730295490016,2.398135855988183,-0.7060694098472595,0.5680146813392639,-0.4228774607181549,0.1005411148071289,-0.8140713572502136,-0.7442219853401184
1.8800129890441895,0.06319582462310791,-0.02532583475112915,0.1207975447177887,-0.5908647166834853,-1.0499302670373996,2.3918492157364546,-0.7203308343887329,0.5570793151855469,-0.4132626950740814,0.12418992817401886,-0.7254490852355957,-0.6785538792610168
1.9000129699707031,0.06946355104446411,-0.016527771949768066,0.09960445761680603,-0.5777918438851934,-1.0661124030226912,2.3873264184876404,-0.7332361340522766,0.5461755394935608,-0.40503960847854614,0.1769886314868927,-0.6433562636375427,-0.6525862812995911
1.9200658798217773,0.051657259464263916,-0.014716863632202148,0.11879241466522217,-0.5653157670350992,-1.0799605805193735,2.384333421381598,-0.7447267174720764,0.5356824994087219,-0.3980282247066498,0.2087748795747757,-0.5775613188743591,-0.5685968399047852
1.9400420188903809,0.00821542739868164,-0.03467053174972534,0.08294856548309326,-0.5531413926869713,-1.0914867056131214,2.382745220384293,-0.7549960017204285,0.5253627300262451,-0.39239683747291565,0.20378641784191132,-0.4978819787502289,-0.5824759006500244
1.9600989818572998,0.03998386859893799,0.0008209943771362305,0.0679360032081604,-0.5415623807816831,-1.102632443634555,2.378866565975522,-0.7647001147270203,0.5154754519462585,-0.3866768479347229,0.010532435029745102,-0.40482771396636963,-0.6039720773696899
1.9800159931182861,0.08146315813064575,-0.029795408248901367,0.10739004611968994,-0.5319648932545123,-1.1128335469586703,2.3706484125507727,-0.773006796836853,0.5072276592254639,-0.38102591037750244,-0.18973761796951294,-0.19671599566936493,-0.565169632434845
2.000013828277588,0.12937712669372559,-0.02956026792526245,0.14221471548080444,-0.524079213136752,-1.1202052412536827,2.3606113899982657,-0.7793710231781006,0.5004160404205322,-0.37704747915267944,-0.22055023908615112,-0.05587410181760788,-0.5393174290657043
2.0200700759887695,0.09927886724472046,-0.044298797845840454,0.1460714340209961,-0.515883953817871,-1.1256438893734426,2.35129135438268,-0.7850852012634277,0.49330395460128784,-0.3745565414428711,-0.1609586626291275,-0.03957316279411316,-0.5525007843971252
2.03910493850708,0.11794024705886841,-0.06008189916610718,0.13429635763168335,-0.5071933501486029,-1.1311633322258365,2.342039743501848,-0.7909902334213257,0.48572584986686707,-0.3720282316207886,-0.22400018572807312,-0.06235766038298607,-0.5883235931396484
2.060011863708496,0.14972245693206787,-0.054435551166534424,0.178633451461792,-0.49895457987347647,-1.1388331742383004,2.329863553209329,-0.7974275946617126,0.4785078465938568,-0.3676135241985321,-0.3872233033180237,-0.11929808557033539,-0.6173476576805115
2.0800459384918213,0.176611065864563,-0.06908273696899414,0.2063244879245758,-0.4908384623445306,-1.1494002481417518,2.314456086090195,-0.8047851324081421,0.4713655114173889,-0.36074337363243103,-0.4846985638141632,-0.2128789871931076,-0.6891571283340454
2.1000118255615234,0.22270917892456055,-0.09948757290840149,0.22021067142486572,-0.4814603410074417,-1.1621256625930003,2.2990060052421892,-0.8133311867713928,0.4630739986896515,-0.35221442580223083,-0.3368571996688843,-0.3525431454181671,-0.7088764309883118
2.1200129985809326,0.17604011297225952,-0.12096890807151794,0.18910911679267883,-0.46874184012815245,-1.173890182423052,2.2915497381929577,-0.822783887386322,0.45176419615745544,-0.34487074613571167,0.24699942767620087,-0.477594792842865,-0.7191791534423828
2.1400208473205566,0.0060160160064697266,-0.03389942646026611,0.046635210514068604,-0.45216564870136167,-1.1820937952354111,2.294302034734044,-0.8324015736579895,0.4369145631790161,-0.3409009277820587,0.48909294605255127,-0.42667675018310547,-0.7518436908721924
2.160010814666748,-0.2483764886856079,0.04832252860069275,0.08275970816612244,-0.43401729833916214,-1.1896750873223432,2.29309413050498,-0.8421844244003296,0.42051902413368225,-0.33747461438179016,0.07405279576778412,-0.29308637976646423,-0.9916810989379883
2.1800670623779297,-0.4211108088493347,0.08893978595733643,0.006273329257965088,-0.4145629664759079,-1.198671842426945,2.283370941097605,-0.8526471257209778,0.4027899503707886,-0.3327960968017578,-0.12704244256019592,-0.21992233395576477,-1.1191974878311157
2.200009822845459,-0.4840373396873474,0.15468958020210266,-0.0382956862449646,-0.3947764172949168,-1.207661692869902,2.2700872632002635,-0.8628865480422974,0.38460180163383484,-0.3278846740722656,-0.32966896891593933,-0.14437635242938995,-1.182822823524475
2.2200398445129395,-0.5202390551567078,0.1638580560684204,0.03605097532272339,-0.3769909208406508,-1.215995495654382,2.2504978183861892,-0.8718661069869995,0.3681243658065796,-0.323007732629776,-0.7931424975395203,0.055214956402778625,-1.1142573356628418
2.24001407623291,-0.44366443157196045,0.14251679182052612,0.15217119455337524,-0.36357911066003623,-1.2231669117078217,2.2235659219728916,-0.8787232637405396,0.3556216359138489,-0.31840041279792786,-1.0005336999893188,0.1603238880634308,-0.9930388331413269
2.260039806365967,-0.4134559631347656,0.07697248458862305,0.09567460417747498,-0.3515172371818569,-1.2290175649646484,2.2017871648661997,-0.8845481872558594,0.34432265162467957,-0.3146687150001526,-0.41483235359191895,-0.013050828129053116,-0.8219296932220459
2.2800168991088867,-0.37206149101257324,0.04369381070137024,-0.01217198371887207,-0.33886843929640187,-1.2342475607629104,2.19417847206416,-0.890221893787384,0.33242008090019226,-0.3114517033100128,0.06047918274998665,-0.23553147912025452,-0.667890191078186
2.300008773803711,-0.3061408996582031,-0.042721718549728394,0.04849997162818909,-0.3264428707043708,-1.2408554583888158,2.1922237573155012,-0.8960990309715271,0.320675790309906,-0.3068769872188568,0.10734610259532928,-0.3478451371192932,-0.5826184153556824
2.3200669288635254,-0.22285699844360352,-0.08715876936912537,0.07238268852233887,-0.31541578167348655,-1.2489485443792965,2.189609998214446,-0.9018531441688538,0.31021177768707275,-0.3007151484489441,0.00011152541264891624,-0.36975452303886414,-0.5340881943702698
2.3401079177856445,-0.17406845092773438,-0.08696496486663818,0.04249802231788635,-0.3065732276596668,-1.256894817792757,2.1851556879670926,-0.9067878127098083,0.3017934262752533,-0.29437482357025146,-0.14194190502166748,-0.297586053609848,-0.4237343370914459
2.360008955001831,-0.15580999851226807,-0.07952365279197693,0.0057555437088012695,-0.30099760965784195,-1.2639370273581074,2.179229724696087,-0.9104284644126892,0.29647311568260193,-0.28848564624786377,-0.18439055979251862,-0.24261780083179474,-0.27680158615112305
2.3800110816955566,-0.16837430000305176,-0.04493248462677002,-0.052021145820617676,-0.2971659152796498,-1.2695367842567042,2.1758459203510387,-0.913107693195343,0.2928115129470825,-0.28371796011924744,-0.003681815229356289,-0.2182725965976715,-0.18766091763973236
2.400041103363037,-0.2058221697807312,-0.012740761041641235,-0.0779825747013092,-0.29461812525125974,-1.2733392749721755,2.1755836176908345,-0.9148902893066406,0.2903744578361511,-0.2804615795612335,0.0020233686082065105,-0.15646986663341522,-0.08176907151937485
2.420053005218506,-0.2466280460357666,-0.0182972252368927,-0.041178345680236816,-0.2936160425555858,-1.2768150192985512,2.174020198837252,-0.9161375164985657,0.2894153892993927,-0.2773641049861908,-0.07173848897218704,-0.16923634707927704,-0.06161554530262947
2.439642906188965,-0.2056296467781067,-0.0032746195793151855,-0.024519920349121094,-0.29308172482846606,-1.2817607012788992,2.1729260868241265,-0.9176461696624756,0.2889038920402527,-0.2728738784790039,0.009800744242966175,-0.31308379769325256,-0.02277066372334957
2.4600090980529785,-0.17370009422302246,-0.03879600763320923,-0.018360108137130737,-0.29166240426115153,-1.2892809369969433,2.175906375655875,-0.9200653433799744,0.2875448167324066,-0.26607897877693176,0.3410273790359497,-0.5157546997070312,-0.014880121685564518
2.480010986328125,-0.14982986450195312,-0.03332623839378357,-0.04186412692070007,-0.28831095481586183,-1.297948533344958,2.1851321978143994,-0.9232596755027771,0.2843332886695862,-0.25835251808166504,0.5233194828033447,-0.6088606119155884,-0.0879439041018486
2.5000438690185547,-0.08389091491699219,-0.04416513442993164,-0.012256652116775513,-0.28316360919566397,-1.3076596831920873,2.1947219577405055,-0.9271261096000671,0.27939465641975403,-0.2497519999742508,0.4909934103488922,-0.6033573150634766,-0.16762778162956238
2.519995927810669,0.0009983181953430176,-0.031964004039764404,-0.015261411666870117,-0.27719960943158206,-1.3161449396070288,2.2029731505653487,-0.9308079481124878,0.2736632525920868,-0.2422916293144226,0.41802263259887695,-0.4756004512310028,-0.1980917751789093
2.539721965789795,0.06864696741104126,-0.06216952204704285,-0.023810088634490967,-0.27147003471875847,-1.322896330039081,2.2074552446383175,-0.9339271783828735,0.26814791560173035,-0.23638275265693665,0.1283567249774933,-0.33352944254875183,-0.2720996141433716
2.560007095336914,0.12133634090423584,-0.029562175273895264,-0.02791963517665863,-0.2655992614232618,-1.3287703562877216,2.206600903744983,-0.9368118047714233,0.2624875605106354,-0.2312661111354828,-0.05409624055027962,-0.24003159999847412,-0.310680091381073
2.5800039768218994,0.12959998846054077,0.016427695751190186,-0.025937706232070923,-0.26076375575608113,-1.3340677721955596,2.2026716336995045,-0.9392467141151428,0.2578185498714447,-0.22659525275230408,-0.15909379720687866,-0.20695194602012634,-0.2501192092895508
2.600003957748413,0.08798295259475708,0.050625354051589966,-0.024931371212005615,-0.2578561699580872,-1.3391052839032476,2.1985145303352316,-0.9411019086837769,0.25500819087028503,-0.2220321148633957,-0.10011192411184311,-0.2020854502916336,-0.12136615812778473
2.620008945465088,0.01829540729522705,0.08840596675872803,-0.045579418540000916,-0.2574933792608784,-1.3442508850170056,2.1978939301383487,-0.9423218965530396,0.2546573877334595,-0.2172074019908905,-0.010929473675787449,-0.321865051984787,0.037298526614904404
2.6400680541992188,-0.03687286376953125,0.09536480903625488,-0.026392340660095215,-0.25900761987834486,-1.3514029007210688,2.1980095190591293,-0.9434738755226135,0.2561213970184326,-0.2103782594203949,0.012482641264796257,-0.3821637034416199,0.11218664050102234
2.660003900527954,-0.12913179397583008,0.07085973024368286,0.022276878356933594,-0.2622286352912069,-1.3585450376340389,2.197570938220362,-0.9441410303115845,0.25923365354537964,-0.203459694981575,-0.21193581819534302,-0.3079134225845337,0.1741299033164978
2.6800007820129395,-0.1970333456993103,0.02258312702178955,0.022444501519203186,-0.26719049831113373,-1.363495993072628,2.192526518334951,-0.9438663721084595,0.26402267813682556,-0.1985156238079071,-0.38232219219207764,-0.010607821866869926,0.2762461304664612
2.7000298500061035,-0.307628870010376,-0.0018123090267181396,0.018399149179458618,-0.2752484409884209,-1.3626857478340353,2.185295147691396,-0.9415929317474365,0.27178603410720825,-0.19883427023887634,-0.46376731991767883,0.2191823273897171,0.30223000049591064
2.72000789642334,-0.31074655055999756,0.00684511661529541,-0.007679745554924011,-0.28257547542545786,-1.3599371564790483,2.177062284028409,-0.9390703439712524,0.2788299024105072,-0.20099937915802002,-0.4279170334339142,0.24677008390426636,0.2862769663333893
2.740029811859131,-0.30456769466400146,0.00807163119316101,-0.0269014835357666,-0.29006135637926944,-1.3559736297374727,2.1711260856129195,-0.936200737953186,0.2860110104084015,-0.204269140958786,-0.3585275113582611,0.3144018054008484,0.34785598516464233
2.760004997253418,-0.3300931453704834,-0.04252961277961731,-0.036823198199272156,-0.2986906507560028,-1.350827331669625,2.1656169357855166,-0.9326937198638916,0.2942690849304199,-0.20853805541992188,-0.32179519534111023,0.375844806432724,0.35693085193634033
2.7800021171569824,-0.30476993322372437,0.010713309049606323,-0.05624878406524658,-0.3062620810085928,-1.3445228667297513,2.1623701652756604,-0.9291626214981079,0.3014967739582062,-0.21390803158283234,-0.13224387168884277,0.34213751554489136,0.3162953853607178
2.8000030517578125,-0.2724761366844177,0.053460270166397095,-0.08789592981338501,-0.3122296153704073,-1.3382054545299333,2.161763461939675,-0.9260255098342896,0.3071812093257904,-0.2193550020456314,-0.0692085325717926,0.3142423629760742,0.2758193612098694
2.8200039863586426,-0.25142449140548706,0.03671857714653015,-0.030713826417922974,-0.3173516491165989,-1.3327478341358876,2.1616024540666188,-0.9232733249664307,0.31205156445503235,-0.22403164207935333,-0.05937013402581215,0.2257220596075058,0.20972299575805664
2.84000301361084,-0.1942959427833557,0.044226378202438354,-0.04819723963737488,-0.3210313370887641,-1.329800617163899,2.161327078782891,-0.9214879274368286,0.31554538011550903,-0.22647620737552643,-0.06519259512424469,0.080266073346138,0.14733469486236572
2.8600049018859863,-0.15835773944854736,0.043173760175704956,-0.06609660387039185,-0.32392691892428443,-1.329911685236325,2.1591307534148703,-0.9206218123435974,0.31829169392585754,-0.22615490853786469,-0.24010445177555084,0.023312238976359367,0.08120585978031158
2.8799757957458496,-0.16158270835876465,0.034472256898880005,-0.047454655170440674,-0.3263787319308112,-1.3299453701162194,2.154824239027712,-0.9198688268661499,0.3206150233745575,-0.22593708336353302,-0.18935498595237732,0.12947064638137817,0.07989452034235
2.9000039100646973,-0.1885514259338379,0.06026175618171692,-0.08864030241966248,-0.32893897066016925,-1.3275250997924288,2.1520198274987705,-0.9185196757316589,0.32303905487060547,-0.22796429693698883,-0.14135174453258514,0.19244275987148285,0.10271614789962769
2.920001983642578,-0.18370002508163452,0.06693834066390991,-0.08065448701381683,-0.33249533494782535,-1.3245535940826045,2.149200430682227,-0.916718065738678,0.3264027237892151,-0.2304111272096634,-0.19413258135318756,0.18742340803146362,0.19491694867610931
2.940002918243408,-0.1715606451034546,0.05006164312362671,-0.08443938195705414,-0.3386204990369789,-1.3218975355714682,2.147127678082501,-0.9141479730606079,0.3321862518787384,-0.23234829306602478,-0.1334570348262787,0.1564655900001526,0.35654646158218384
2.9600069522857666,-0.21147435903549194,0.08038005232810974,-0.07797348499298096,-0.34709494520429457,-1.3186357269414155,2.1476094495932125,-0.9106265306472778,0.34016743302345276,-0.23461806774139404,-0.04099678993225098,0.16139669716358185,0.4832119941711426
2.980001926422119,-0.2558676600456238,0.08647534251213074,-0.0717240422964096,-0.3581274317809107,-1.3142611862840345,2.149952030979205,-0.9059060215950012,0.3505210876464844,-0.2376326322555542,-0.05061602219939232,0.20881836116313934,0.6365562081336975
3.0000109672546387,-0.28039753437042236,0.05450233817100525,-0.05240318179130554,-0.37190426304602375,-1.308398203816023,2.1517128531668486,-0.899747908115387,0.363390177488327,-0.24166420102119446,-0.15285439789295197,0.32590147852897644,0.7337844371795654
3.0200090408325195,-0.28932416439056396,0.032923370599746704,-0.061280056834220886,-0.38744924588227236,-1.3004857257277993,2.15235534776044,-0.892255425453186,0.3778279721736908,-0.24723733961582184,-0.149070143699646,0.4483697712421417,0.7878487706184387
3.0400071144104004,-0.31074756383895874,0.010815531015396118,-0.08473971486091614,-0.4036851423810398,-1.2886886911126139,2.1563497423097746,-0.8832679390907288,0.3928099274635315,-0.256004273891449,0.034331291913986206,0.5643150210380554,0.8661621809005737
3.060004949569702,-0.3095976710319519,0.03106313943862915,-0.08456933498382568,-0.41992076713565857,-1.2745890125441102,2.163550937795417,-0.8733552694320679,0.40768811106681824,-0.26653534173965454,0.11453524231910706,0.5771500468254089,0.9009864330291748
3.080000877380371,-0.2699543833732605,0.03634178638458252,-0.03383916616439819,-0.4367801387578692,-1.2591708730044804,2.1720042725405397,-0.862476646900177,0.42302408814430237,-0.2778215706348419,0.12803435325622559,0.6041532158851624,0.9340871572494507
3.100001811981201,-0.2305610179901123,0.024226218461990356,-0.026311665773391724,-0.45336501900076026,-1.242921711691522,2.1819525023769297,-0.8510889410972595,0.4379930794239044,-0.2894994616508484,0.22287802398204803,0.5988553762435913,0.9335559010505676
3.120123863220215,-0.1860191822052002,0.025322288274765015,0.01480838656425476,-0.46895845935242353,-1.225246214770448,2.195219748133183,-0.8393105864524841,0.45195743441581726,-0.3021466135978699,0.36063045263290405,0.5746495723724365,0.9339426159858704
3.140000820159912,-0.11807501316070557,0.003619551658630371,0.033778250217437744,-0.4831098712365937,-1.2073105579652672,2.21085880545793,-0.8276953101158142,0.4645353853702545,-0.31484511494636536,0.4689933955669403,0.5008144378662109,0.8755515813827515
3.159998893737793,-0.08015978336334229,-0.0020178258419036865,0.05082148313522339,-0.4953393350229264,-1.1897557313885785,2.22880801420076,-0.816706120967865,0.4753302335739136,-0.327188640832901,0.5339732766151428,0.409010112285614,0.8377939462661743
3.180001974105835,-0.05531054735183716,-0.0035468637943267822,0.0702211856842041,-0.5064938482334702,-1.1743511593524898,2.2461245817495503,-0.8066279888153076,0.48511427640914917,-0.3376619219779968,0.43848317861557007,0.2989109754562378,0.7875593900680542
3.200021982192993,-0.03775453567504883,0.018828898668289185,0.07739627361297607,-0.5173029908959025,-1.161924565261437,2.261414707991859,-0.7975115776062012,0.4945378303527832,-0.3455542027950287,0.4191616177558899,0.21193505823612213,0.7362815141677856
3.220025062561035,-0.029964148998260498,0.04131782054901123,0.0965433120727539,-0.5271474007311748,-1.1500453607452257,2.278219336258793,-0.7888683676719666,0.503070056438446,-0.352997750043869,0.4943201541900635,0.12939028441905975,0.7487310171127319
3.2400097846984863,0.008663415908813477,0.05525320768356323,0.10365977883338928,-0.5362949567578283,-1.139391321472314,2.295952100977701,-0.7808496952056885,0.5109546184539795,-0.359442800283432,0.529704213142395,0.05201534554362297,0.7402007579803467
3.259997844696045,0.06910854578018188,0.03568762540817261,0.12358120083808899,-0.545841119424773,-1.1292989992890186,2.314733745416921,-0.7727371454238892,0.5191371440887451,-0.3652040660381317,0.5172865390777588,-0.0272073931992054,0.7924039363861084
3.2799978256225586,0.10819369554519653,0.03523886203765869,0.12145432829856873,-0.5554996747292474,-1.1207572480920953,2.333762516902477,-0.765038788318634,0.527367889881134,-0.36959272623062134,0.5596588850021362,-0.10212105512619019,0.7968109250068665
3.300027847290039,0.13262933492660522,0.02951759099960327,0.10948541760444641,-0.5646300859053639,-1.1117330456803687,2.355176590468574,-0.7573241591453552,0.5351033806800842,-0.3743321895599365,0.6494442820549011,-0.13177801668643951,0.8212028741836548
3.320051908493042,0.16994279623031616,0.0023986101150512695,0.09421032667160034,-0.5729657467462659,-1.1019192122243426,2.3786670019964564,-0.7496089935302734,0.5421265363693237,-0.37971749901771545,0.7231635451316833,-0.14687609672546387,0.8134070038795471
3.3399999141693115,0.23083454370498657,-0.03135061264038086,0.08247533440589905,-0.5811550616491687,-1.0915932784437037,2.4022683272600918,-0.7416835427284241,0.5489897131919861,-0.3853774964809418,0.6524469256401062,-0.08503411710262299,0.822717010974884
3.3600220680236816,0.22794950008392334,-0.047097086906433105,0.07017183303833008,-0.5895021021787044,-1.0795145842515301,2.423602475912538,-0.7329086661338806,0.5559472441673279,-0.39213231205940247,0.596983790397644,0.12634435296058655,0.7504252195358276
3.3800158500671387,0.23520374298095703,-0.027277767658233643,0.027419686317443848,-0.5964779930411931,-1.0633642925134486,2.4449480010945175,-0.7230730652809143,0.5617321133613586,-0.4020228981971741,0.60248863697052,0.27043771743774414,0.7012889981269836
3.400007963180542,0.250374436378479,0.013268709182739258,-0.03192010521888733,-0.6020538071749129,-1.0458600899294992,2.4652015084169734,-0.7132040858268738,0.5663363337516785,-0.4130413830280304,0.5740392804145813,0.334240198135376,0.6245376467704773
3.4200379848480225,0.27024346590042114,-0.020194292068481445,-0.040467798709869385,-0.6071176357923735,-1.0283074490878372,2.4837190884622586,-0.7033795118331909,0.5705025792121887,-0.4240097403526306,0.4734993577003479,0.3592604398727417,0.589784562587738
3.440034866333008,0.2630733251571655,-0.049663424491882324,-0.007180988788604736,-0.6122040851063345,-1.0121827249576816,2.498901714216035,-0.6939815878868103,0.5746726393699646,-0.43375229835510254,0.32095739245414734,0.38989752531051636,0.49025586247444153
3.4599990844726562,0.2714291214942932,-0.0689050555229187,0.036346256732940674,-0.6170791533462865,-0.9972810182978942,2.5112691530334668,-0.6850796937942505,0.578655481338501,-0.4425199031829834,0.27403873205184937,0.37572595477104187,0.48469194769859314
3.479994773864746,0.2808384895324707,-0.07047045230865479,0.029974818229675293,-0.6217753429514068,-0.983917175651869,2.5223264109149897,-0.6768345832824707,0.5824791789054871,-0.4501255452632904,0.22341060638427734,0.3270898759365082,0.4085591733455658
3.4999938011169434,0.24961405992507935,-0.08503133058547974,0.05575120449066162,-0.6262363359174187,-0.9722494237749669,2.5315382944945193,-0.6693834066390991,0.5860994458198547,-0.4565232992172241,0.14030027389526367,0.3052341938018799,0.3847329020500183
3.520004987716675,0.27629417181015015,-0.09211015701293945,0.06680434942245483,-0.6312344519614151,-0.9616197973258636,2.539342668010561,-0.6620821356773376,0.590141773223877,-0.46193066239356995,0.10894057899713516,0.29590868949890137,0.4053806662559509
3.5400350093841553,0.32205379009246826,-0.10219365358352661,0.05644381046295166,-0.6370083124572797,-0.9507165030367568,2.5487161162762524,-0.6542224287986755,0.5947931408882141,-0.46713414788246155,0.18664473295211792,0.23603133857250214,0.4943591356277466
3.559998035430908,0.28558868169784546,-0.10842776298522949,0.014029443264007568,-0.6423632996439643,-0.939287526050568,2.560440061266042,-0.6462607383728027,0.5990893840789795,-0.4726932942867279,0.25791648030281067,0.2239600419998169,0.4938357174396515
3.579993963241577,0.23466521501541138,-0.10449951887130737,0.001801133155822754,-0.6476442841421709,-0.9274440896501754,2.571821697434304,-0.6380770802497864,0.6033093929290771,-0.47840943932533264,0.1380569487810135,0.29934486746788025,0.4696410298347473
3.5999948978424072,0.2182384729385376,-0.111064612865448,0.024395465850830078,-0.6545165794718689,-0.9154790925167435,2.5796548626142375,-0.6290051341056824,0.608775794506073,-0.4834713637828827,-0.036932192742824554,0.4291151463985443,0.46171286702156067
3.6201179027557373,0.2067488431930542,-0.12301206588745117,0.024284303188323975,-0.6628714044173184,-0.9029923201181336,2.584881478607577,-0.6189039945602417,0.615382730960846,-0.4881209433078766,-0.13440091907978058,0.5034626722335815,0.45522448420524597
3.640005111694336,0.19093769788742065,-0.1287938952445984,0.009381413459777832,-0.6717864454246576,-0.8903348916380874,2.588898966065813,-0.6083877086639404,0.6223852634429932,-0.49244412779808044,-0.17086006700992584,0.5091255307197571,0.4431103467941284
3.6599950790405273,0.16241931915283203,-0.1302003264427185,-0.01623174548149109,-0.6809074516506777,-0.8785854198969366,2.591988935007703,-0.5981645584106445,0.6294983625411987,-0.4959142208099365,-0.21504348516464233,0.48370805382728577,0.4076761305332184
3.679995059967041,0.1210864782333374,-0.1270776391029358,-0.035121917724609375,-0.6900408230786358,-0.8677720714395104,2.593869622211528,-0.5883564949035645,0.6365686655044556,-0.4986152946949005,-0.23296645283699036,0.49370744824409485,0.38220298290252686
3.7000129222869873,0.07549077272415161,-0.1158132553100586,-0.03528404235839844,-0.6982355026006903,-0.8556853346855218,2.596179023502963,-0.5783289074897766,0.6428671479225159,-0.5022525787353516,-0.15438438951969147,0.5775076746940613,0.36007773876190186
3.7200210094451904,0.03551071882247925,-0.10164833068847656,-0.04131108522415161,-0.7049815329620137,-0.8409397819983532,2.599536519958203,-0.5676152110099792,0.6480197906494141,-0.5078221559524536,-0.0940326377749443,0.681220531463623,0.3063061237335205
3.7399940490722656,-0.021269023418426514,-0.07882660627365112,-0.06029564142227173,-0.7093040363492467,-0.8234382317492912,2.603244471948677,-0.5565813183784485,0.6513057947158813,-0.5157693028450012,0.00520764384418726,0.8331777453422546,0.22298865020275116
3.7599940299987793,-0.050034284591674805,-0.07523912191390991,-0.06330114603042603,-0.7123624097307429,-0.8039392454472547,2.6063910877802745,-0.5449821949005127,0.6536235213279724,-0.5251387357711792,-0.0789727047085762,0.9125008583068848,0.14866556227207184
3.779994010925293,-0.05816763639450073,-0.11094945669174194,-0.046203434467315674,-0.7152555225967046,-0.7860544235843061,2.6053669085871842,-0.5341632962226868,0.6558103561401367,-0.5334627032279968,-0.16516008973121643,0.9520925879478455,0.0005696709267795086
3.799994945526123,-0.0779227614402771,-0.10839766263961792,-0.04934638738632202,-0.7168890576422886,-0.7700003498663076,2.6003585234357494,-0.5247840881347656,0.6570426821708679,-0.5411992073059082,-0.2380145788192749,0.9793491363525391,-0.15687696635723114
3.8200418949127197,-0.056243062019348145,-0.09551751613616943,-0.04441380500793457,-0.7185275022956183,-0.7573986057021956,2.590051747227582,-0.5171822905540466,0.6582769155502319,-0.5469862818717957,-0.43754056096076965,0.9523468613624573,-0.28802040219306946
3.8399930000305176,-0.007789552211761475,-0.1110771894454956,-0.038587093353271484,-0.7221966223381656,-0.7499363399880897,2.5738131747704873,-0.5114365220069885,0.6610345244407654,-0.5490593910217285,-0.6291781663894653,0.8696305155754089,-0.34060385823249817
3.8599929809570312,0.04511713981628418,-0.10347855091094971,-0.04803556203842163,-0.7272717319507329,-0.7459679736641719,2.5552955282844603,-0.5069701075553894,0.6648341417312622,-0.5486135482788086,-0.6355541348457336,0.7566344141960144,-0.33306509256362915
3.880035877227783,0.08106595277786255,-0.06774681806564331,-0.0722702145576477,-0.7310630457301744,-0.7426601394439255,2.539167232169805,-0.503444492816925,0.6676614284515381,-0.5484268069267273,-0.462851345539093,0.6513678431510925,-0.2898842990398407
3.8999900817871094,0.10423165559768677,-0.052845776081085205,-0.09430652856826782,-0.7330619795620416,-0.7393038880373537,2.5269053343994563,-0.5007007122039795,0.6691482067108154,-0.5491260290145874,-0.32379892468452454,0.5073246359825134,-0.25375494360923767
3.919987916946411,0.1228809654712677,-0.059550464153289795,-0.09555494785308838,-0.734015168833951,-0.7360930041307311,2.5177535781691263,-0.4985066056251526,0.6698562502861023,-0.5502580404281616,-0.20649422705173492,0.43053576350212097,-0.18367603421211243
3.9399890899658203,0.14424225687980652,-0.06830835342407227,-0.09455984830856323,-0.7343431036985039,-0.7319842960064792,2.512092141022811,-0.49609464406967163,0.670099675655365,-0.552138090133667,-0.1094479113817215,0.36078348755836487,-0.10645370930433273
3.960073947906494,0.16477131843566895,-0.07273197174072266,-0.10831689834594727,-0.7344441227059929,-0.7268102875127834,2.5096388779255943,-0.4931863248348236,0.6701746582984924,-0.5546469688415527,-0.028038378804922104,0.3351360857486725,-0.01795841194689274
3.979991912841797,0.1797129213809967,-0.08292895555496216,-0.11254268884658813,-0.7350047448985442,-0.7204584176458039,2.509756049171111,-0.4894053339958191,0.6705906987190247,-0.5574859380722046,-0.013546974398195744,0.3264254331588745,0.05270165205001831
3.9999899864196777,0.19175484776496887,-0.10469627380371094,-0.07289350032806396,-0.7363538729228808,-0.7117040593356107,2.5117909499200635,-0.48391497135162354,0.6715908646583557,-0.5610634088516235,0.03515594080090523,0.43069660663604736,0.14635328948497772
4.019991874694824,0.19579073786735535,-0.08621490001678467,-0.08422386646270752,-0.7375655527457369,-0.7001723290524895,2.516094793034775,-0.4768882095813751,0.6724881529808044,-0.5659836530685425,0.05780944228172302,0.44266557693481445,0.1728108823299408
4.0400190353393555,0.2174440622329712,-0.06528294086456299,-0.09907948970794678,-0.7400465510233775,-0.6888670918737508,2.520283757071426,-0.4693972170352936,0.6743223071098328,-0.5700488686561584,-0.04994676634669304,0.40974417328834534,0.21249766647815704
4.0599870681762695,0.23116376996040344,-0.11434364318847656,-0.09450018405914307,-0.7448145673352908,-0.6792379353334244,2.5230002668931317,-0.46186140179634094,0.6778354644775391,-0.5720341801643372,-0.19778279960155487,0.3777765929698944,0.24957647919654846
4.079989910125732,0.23970752954483032,-0.10264748334884644,-0.06934159994125366,-0.7515699663886444,-0.6712146674445482,2.524651838555649,-0.4543987214565277,0.6827866435050964,-0.5721225738525391,-0.22657138109207153,0.3108901381492615,0.2655143737792969
4.100021839141846,0.24677684903144836,-0.05958479642868042,-0.09799110889434814,-0.7581447861623478,-0.663827217938823,2.5275577409247876,-0.44738417863845825,0.6875755190849304,-0.5719155073165894,-0.18534807860851288,0.21436598896980286,0.3000972270965576
4.12004280090332,0.2439647614955902,-0.04127848148345947,-0.10970938205718994,-0.7640512270741947,-0.6577564150974383,2.531515659176058,-0.4414135217666626,0.6918522715568542,-0.5713971257209778,-0.1346893012523651,0.09724017232656479,0.305063396692276
4.14002799987793,0.2520350217819214,-0.02603614330291748,-0.11235213279724121,-0.7704546921045794,-0.6546427484884244,2.5358870288881046,-0.4369257688522339,0.6964616179466248,-0.5692426562309265,-0.15076544880867004,-0.08549787104129791,0.33961114287376404
4.160099983215332,0.2432718575000763,0.0038478970527648926,-0.1343996524810791,-0.7765225436776495,-0.6544501655711971,2.54197945514164,-0.4342356324195862,0.7008029818534851,-0.5659635066986084,-0.022602323442697525,-0.3498196303844452,0.35326167941093445
4.1801300048828125,0.17849254608154297,0.11389327049255371,-0.2005937099456787,-0.7789653644294323,-0.6575076511013485,2.5516956438722826,-0.43491649627685547,0.7025434970855713,-0.563276469707489,0.28204625844955444,-0.6332955360412598,0.347474068403244
4.2000439167022705,0.0441494882106781,0.2981557250022888,-0.28749990463256836,-0.7759717692477397,-0.6583611473138131,2.568813164536528,-0.436681866645813,0.700410008430481,-0.5645660758018494,0.6868485808372498,-0.6189876794815063,0.4362993538379669
4.219987869262695,-0.0005550384521484375,0.33529913425445557,-0.2758162021636963,-0.7698282248473598,-0.6535409487727739,2.5927042040839985,-0.43656352162361145,0.6960119009017944,-0.5700700283050537,0.7850542664527893,-0.5689375996589661,0.561331033706665
4.24015998840332,0.05373981595039368,0.322532594203949,-0.22199159860610962,-0.7660665686239546,-0.645541877706327,2.619146845610205,-0.4335615932941437,0.693306028842926,-0.5756310224533081,0.6207423806190491,-0.4691011905670166,0.7126837968826294
4.260128021240234,-0.0033198893070220947,0.27329081296920776,-0.1551477313041687,-0.7657090399797407,-0.6367405207032467,2.6440497269882335,-0.4286259710788727,0.6930482983589172,-0.5796239972114563,0.44642168283462524,-0.3948672413825989,0.710465133190155
4.280110836029053,-0.011564195156097412,0.23294126987457275,-0.10832947492599487,-0.7681745713887647,-0.6299854714685,2.665791974927375,-0.4236927926540375,0.6948235630989075,-0.5811235308647156,0.3397330939769745,-0.44415226578712463,0.7151468396186829
4.300018787384033,-0.011134177446365356,0.19177651405334473,-0.0929039716720581,-0.7706977015674271,-0.622660057827919,2.689389504966506,-0.4184007942676544,0.6966359615325928,-0.5827857255935669,0.5166873931884766,-0.4677722454071045,0.8016190528869629
4.3263258934021,-0.015152841806411743,0.1145666241645813,0.026851296424865723,-0.7673645074614133,-0.5990828413184078,2.7508843067946707,-0.40585246682167053,0.6942407488822937,-0.5944019556045532,0.7861722111701965,-0.5075710415840149,0.9033293724060059
4.348278999328613,-0.007450729608535767,0.03338813781738281,0.10235762596130371,-0.7648471609331152,-0.586594310600562,2.783980588734887,-0.39936384558677673,0.6924267411231995,-0.6008775234222412,0.7766109108924866,-0.540726900100708,0.9384897351264954
4.369667053222656,0.01138409972190857,-0.04017072916030884,0.14599233865737915,-0.76152671095277,-0.5739673991399457,2.81863006643988,-0.39299115538597107,0.6900272369384766,-0.6077995300292969,0.9141471982002258,-0.6010951399803162,0.9737904667854309
4.388061046600342,0.03071725368499756,-0.07333999872207642,0.15959525108337402,-0.7542739146434164,-0.5598100394933117,2.8575868037546845,-0.38699471950531006,0.6847596764564514,-0.6175267696380615,1.2367409467697144,-0.6567909121513367,1.0319325923919678
4.407752990722656,0.03156721591949463,-0.1118503212928772,0.1776808500289917,-0.7417389442544937,-0.5442296018783495,2.9005067660578296,-0.3817411959171295,0.6755710244178772,-0.6307752728462219,1.46480131149292,-0.7013197541236877,0.9598647952079773
4.430844783782959,0.01712191104888916,-0.15220755338668823,0.21920019388198853,-0.7253228216890134,-0.5302111906504117,2.941930553293779,-0.37841954827308655,0.663377046585083,-0.645546019077301,1.4814653396606445,-0.6718912124633789,0.8321767449378967
4.448671817779541,-0.004028379917144775,-0.14428263902664185,0.26131725311279297,-0.7091578899012079,-0.5204908790414259,2.9763246424066088,-0.3774108588695526,0.6511949300765991,-0.658411979675293,1.1904127597808838,-0.6196586489677429,0.5963783264160156
4.466239929199219,-0.02609562873840332,-0.13547271490097046,0.26242488622665405,-0.6969493767159807,-0.5174097298037563,2.999359169377113,-0.37928467988967896,0.6418814659118652,-0.6664318442344666,0.7409977316856384,-0.5577108860015869,0.33771392703056335
4.488027095794678,-0.03576567769050598,-0.09365701675415039,0.24236387014389038,-0.6893829572208058,-0.5199265705201456,3.0116740951334626,-0.383362740278244,0.6360611915588379,-0.6696709394454956,0.4243052005767822,-0.4820925295352936,0.1221989318728447
4.50806188583374,-0.047695696353912354,-0.029833734035491943,0.20021891593933105,-0.6834508579658344,-0.5250074670786877,3.017174389167143,-0.3886446952819824,0.6314725875854492,-0.6709677577018738,0.33278337121009827,-0.3790709674358368,-0.04640069976449013
4.527907848358154,-0.061832964420318604,0.041324615478515625,0.1328412890434265,-0.6768675251271503,-0.530002505670973,3.0190554247300105,-0.39408445358276367,0.6263542175292969,-0.672590434551239,0.2997194826602936,-0.2357727587223053,-0.14343450963497162
4.539299964904785,-0.061832964420318604,0.041324615478515625,0.1328412890434265,-0.6768675251271503,-0.530002505670973,3.0190554247300105,-0.39408445358276367,0.6263542175292969,-0.672590434551239,0.2997194826602936,-0.2357727587223053,-0.14343450963497162
4.567780017852783,-0.027141302824020386,0.09187167882919312,0.10849428176879883,-0.6688356654542014,-0.5334031792977857,3.0158010145123084,-0.3989146053791046,0.6200729608535767,-0.6755566596984863,-0.09141963720321655,0.15689373016357422,-0.14933647215366364
4.587740898132324,0.01976272463798523,0.05359458923339844,0.11838340759277344,-0.6705975697831845,-0.5321448982174177,3.010621063441277,-0.39750930666923523,0.6214542388916016,-0.6751155853271484,-0.2406575232744217,0.28074803948402405,-0.11515684425830841
4.607486009597778,0.05228722095489502,0.019917547702789307,0.11458402872085571,-0.6741288974027321,-0.5293969900174774,3.0050458022398963,-0.3945418894290924,0.6242170333862305,-0.6743069291114807,-0.278194785118103,0.32855167984962463,-0.09804925322532654
4.626638889312744,0.04871714115142822,-0.020954132080078125,0.12326705455780029,-0.6775038960624327,-0.5266967864304646,2.9990968410551098,-0.3916584551334381,0.6268501877784729,-0.6735448241233826,-0.25164276361465454,0.31121203303337097,-0.13753099739551544
4.6464879512786865,0.01914098858833313,-0.029838383197784424,0.11582136154174805,-0.6799589673688625,-0.5251193228785185,2.992443539437174,-0.3898228108882904,0.6287611126899719,-0.672828197479248,-0.21662841737270355,0.2679558992385864,-0.19735011458396912
4.66638708114624,-0.04727873206138611,0.010236620903015137,0.09252440929412842,-0.6813656931805373,-0.5248287484491202,2.9844642184364614,-0.3891837000846863,0.6298543810844421,-0.6721752882003784,-0.2450350522994995,0.2673933207988739,-0.2674447000026703
4.687273025512695,-0.0913967490196228,0.05059385299682617,0.057354509830474854,-0.6832953007787548,-0.5265493119689686,2.9734551633839033,-0.3897281289100647,0.6313519477844238,-0.6704526543617249,-0.33944904804229736,0.25541818141937256,-0.3670988976955414
4.707273006439209,-0.0977693498134613,0.08128827810287476,0.0032203197479248047,-0.6849375980752308,-0.5305318650921407,2.9601603929646836,-0.3918699622154236,0.6326246857643127,-0.6679999828338623,-0.30123093724250793,0.1773272007703781,-0.4675000309944153
4.727221965789795,-0.17165181040763855,0.1362001895904541,-0.05860811471939087,-0.6836830069464319,-0.5388295812592434,2.94355506985934,-0.39780622720718384,0.6316525340080261,-0.6654061079025269,-0.27799302339553833,0.033517204225063324,-0.7193817496299744
4.749546051025391,-0.2688599228858948,0.2709282636642456,-0.159995436668396,-0.6813521604275734,-0.5525027066070972,2.921332270469521,-0.4076385498046875,0.6298438310623169,-0.6611562967300415,-0.4630495607852936,0.07880754768848419,-0.8174442648887634
4.769463062286377,-0.2634567618370056,0.35126709938049316,-0.1754225492477417,-0.6852462720585352,-0.562481235603187,2.897270168402897,-0.4129043519496918,0.6328637003898621,-0.654975950717926,-0.8579002022743225,0.44540923833847046,-0.5196382403373718
4.78537392616272,-0.09229427576065063,0.2964405417442322,-0.14707493782043457,-0.6976885001575309,-0.5629424125795944,2.8777509696788846,-0.40897223353385925,0.6424480080604553,-0.6480758786201477,-0.9633142948150635,0.7382968664169312,-0.0999155044555664
4.804205894470215,-0.06022322177886963,0.1594107747077942,-0.1051863431930542,-0.7131284516115263,-0.5558708646939414,2.864435379799789,-0.39909684658050537,0.6542030572891235,-0.6424484848976135,-0.8466650247573853,0.8043651580810547,0.005926274694502354
4.823173999786377,-0.04484334588050842,-0.05613893270492554,-0.02356696128845215,-0.7257928681503837,-0.5471655497737595,2.8546742647623984,-0.38914716243743896,0.6637287139892578,-0.6387712359428406,-0.6116129159927368,0.699101448059082,0.017907947301864624
4.841932773590088,-0.016669392585754395,-0.18835794925689697,0.025212466716766357,-0.7341287247241646,-0.5398161297348367,2.846995502982878,-0.381585031747818,0.6699405908584595,-0.6368457078933716,-0.37717369198799133,0.5687322020530701,-0.08904451131820679
4.860756874084473,-0.04312103986740112,-0.21598434448242188,0.03478419780731201,-0.7371856197970408,-0.5323261368647547,2.840969970645681,-0.37576326727867126,0.6722069382667542,-0.6379183530807495,-0.08238007873296738,0.6318500638008118,-0.16235162317752838
4.881043910980225,-0.07865723967552185,-0.16959697008132935,0.0868915319442749,-0.7311829054581876,-0.5166563306081787,2.8397861921291714,-0.36770808696746826,0.6677506566047668,-0.6472247242927551,0.5595288872718811,1.0433783531188965,-0.18058067560195923
4.901160955429077,-0.11132857203483582,-0.08909821510314941,0.12591171264648438,-0.7167513301320496,-0.4897735023322732,2.8440847029127507,-0.3546748757362366,0.6569388508796692,-0.6653099060058594,0.7147181630134583,1.3131531476974487,-0.27840128540992737
4.922059059143066,-0.07434239983558655,-0.07161128520965576,0.09227508306503296,-0.7059134132746606,-0.4664404255797183,2.8398833611812306,-0.34223783016204834,0.6487292051315308,-0.6797232031822205,0.046609144657850266,1.2593361139297485,-0.48880109190940857
4.944989919662476,-0.0016122758388519287,-0.16396218538284302,0.038240909576416016,-0.7067218901266441,-0.45467916890016574,2.822701365502486,-0.33398956060409546,0.649344265460968,-0.683229923248291,-0.6384181976318359,1.0351834297180176,-0.6521624326705933
4.961835861206055,0.0386413037776947,-0.15455907583236694,0.028932392597198486,-0.7149724499470571,-0.4519144655089954,2.797974953027721,-0.3297485113143921,0.6555966138839722,-0.679307758808136,-0.8315896987915039,0.8799731135368347,-0.6801927089691162
4.985721111297607,0.05894032120704651,-0.10691428184509277,0.014193534851074219,-0.7236043001435082,-0.4517576332373904,2.772989102756473,-0.3271593153476715,0.6620901226997375,-0.6742429733276367,-0.7708040475845337,0.7836461663246155,-0.6280542016029358
5.003309965133667,0.09324836730957031,-0.11802470684051514,0.00359952449798584,-0.7321295928632184,-0.4533471807446188,2.7490615632103337,-0.3257465958595276,0.6684550642967224,-0.6686233282089233,-0.7862423062324524,0.638512909412384,-0.621155321598053
5.024094104766846,0.12777292728424072,-0.12017232179641724,-0.0037521719932556152,-0.7409402422840949,-0.4583791618727365,2.725290703195749,-0.3264881372451782,0.674981951713562,-0.6616683602333069,-0.7888233661651611,0.45106661319732666,-0.5611017942428589
5.0454559326171875,0.16952678561210632,-0.1209515929222107,-0.018598556518554688,-0.7496415432372312,-0.46600722666068384,2.7037816138811785,-0.3288743495941162,0.6813764572143555,-0.6538867950439453,-0.675956130027771,0.2627479135990143,-0.4543420374393463
5.066681861877441,0.19363781809806824,-0.1250329613685608,-0.028669118881225586,-0.7569100278162121,-0.4738359860879738,2.686785566354799,-0.33171460032463074,0.686678409576416,-0.6468679308891296,-0.5231077075004578,0.1229378953576088,-0.3228907883167267
5.086178779602051,0.2009197175502777,-0.11361771821975708,-0.04055076837539673,-0.7622104850019484,-0.4803516602565331,2.6754533672549603,-0.3342357277870178,0.6905220150947571,-0.6414560675621033,-0.34223201870918274,0.004390746355056763,-0.16557206213474274
5.1060380935668945,0.21876764297485352,-0.10168337821960449,-0.0606539249420166,-0.7661813871742822,-0.4855857115600286,2.669498964385587,-0.3363061249256134,0.6933887600898743,-0.6372677683830261,-0.20297987759113312,-0.11134552210569382,-0.031173719093203545
5.1264238357543945,0.21345862746238708,-0.09304678440093994,-0.08703237771987915,-0.7686829207566023,-0.4891699689031629,2.668849218077666,-0.3377719819545746,0.6951891183853149,-0.6345251798629761,-0.05215522274374962,-0.20246122777462006,0.10924920439720154
5.14609694480896,0.204694002866745,-0.07276177406311035,-0.0992322564125061,-0.7705442616106088,-0.4908688853133211,2.67280058581957,-0.3382389545440674,0.6965258717536926,-0.6328081488609314,0.01995941251516342,-0.24375788867473602,0.2190227061510086
5.1639580726623535,0.19482457637786865,-0.07467490434646606,-0.10313469171524048,-0.7723189401269579,-0.49124131614574523,2.6796501271215263,-0.33789101243019104,0.6977981328964233,-0.631591260433197,0.046426866203546524,-0.27828940749168396,0.2907334268093109
5.185763835906982,0.18289226293563843,-0.06147950887680054,-0.09397822618484497,-0.7744347345230025,-0.4913550348741721,2.6881990146398524,-0.3372654616832733,0.699312150478363,-0.6302496194839478,0.05828024819493294,-0.3404769003391266,0.346729040145874
5.205877780914307,0.17066001892089844,-0.028301477432250977,-0.12430191040039062,-0.7759866744038136,-0.4917414454026378,2.6986231464802737,-0.3369961380958557,0.700420618057251,-0.6291617751121521,0.17614735662937164,-0.43509796261787415,0.3884528875350952
5.225821018218994,0.14421087503433228,0.025973260402679443,-0.15916132926940918,-0.7753251912428865,-0.49184559917057163,2.7124350974961664,-0.33728036284446716,0.6999483704566956,-0.6295349597930908,0.35970568656921387,-0.5508647561073303,0.4413522183895111
5.245666027069092,0.07609382271766663,0.09548193216323853,-0.2224050760269165,-0.7712884108058614,-0.4903399445997141,2.729986088898019,-0.337660014629364,0.6970596313476562,-0.6325295567512512,0.49903783202171326,-0.5329545140266418,0.4840390086174011
5.265646934509277,0.025073379278182983,0.15831494331359863,-0.21351879835128784,-0.7664725102068278,-0.4879158100255548,2.747523463331103,-0.33769547939300537,0.6935985088348389,-0.6363041400909424,0.5194675326347351,-0.4505515694618225,0.43714019656181335
5.285489082336426,0.015301376581192017,0.19340550899505615,-0.23542040586471558,-0.7633699150914731,-0.48582666951522147,2.763807884866479,-0.3373686671257019,0.6913601756095886,-0.6389082074165344,0.3121429979801178,-0.46602097153663635,0.43416690826416016
5.305450916290283,-0.03564932942390442,0.22816681861877441,-0.2622925043106079,-0.7615316589227773,-0.4850887878660684,2.7780545729369477,-0.33748912811279297,0.6900308132171631,-0.6402800679206848,0.3500497043132782,-0.4378984570503235,0.4221707582473755
5.327052116394043,-0.01608353853225708,0.27146297693252563,-0.26776933670043945,-0.7591425162837789,-0.48166667721456397,2.794624149230351,-0.3360587954521179,0.6882996559143066,-0.6428903937339783,0.42803165316581726,-0.34439122676849365,0.5230146050453186
5.344624042510986,0.0062379539012908936,0.20496195554733276,-0.18811547756195068,-0.7564788934882111,-0.4745131335557944,2.813850486096796,-0.3322877883911133,0.6863649487495422,-0.6469064354896545,0.4288593828678131,-0.2671374976634979,0.5823718905448914
5.365265846252441,0.004660695791244507,0.12702620029449463,-0.0732654333114624,-0.755296180910689,-0.46779421600945376,2.8314634307105138,-0.3282996714115143,0.6855043172836304,-0.6498486399650574,0.2372363805770874,-0.2769910395145416,0.49957275390625
5.386096000671387,-0.01361796259880066,0.05830329656600952,0.01771414279937744,-0.7572433699566234,-0.4653392358455635,2.8443026601928856,-0.32610371708869934,0.686920702457428,-0.6494585275650024,0.020522737875580788,-0.3665315806865692,0.43258246779441833
5.402874946594238,-0.03206077218055725,0.05785667896270752,0.04700148105621338,-0.7620260306535217,-0.4664061428717782,2.854360841868127,-0.32531535625457764,0.690388560295105,-0.6461683511734009,-0.11489517241716385,-0.43324917554855347,0.4442678391933441
5.425253868103027,-0.061641544103622437,0.08230453729629517,0.06539398431777954,-0.7694299290508841,-0.4686338575221657,2.863981494069082,-0.32443633675575256,0.6957258582115173,-0.6408638954162598,-0.23217669129371643,-0.458715558052063,0.5175489187240601
5.443253040313721,-0.07686007022857666,0.08072143793106079,0.09016919136047363,-0.7795004898642199,-0.47027210181441637,2.874813435086661,-0.32229459285736084,0.7029242515563965,-0.6340534090995789,-0.3032848834991455,-0.45837292075157166,0.6290033459663391
5.465077877044678,-0.09048140048980713,0.044448018074035645,0.09996819496154785,-0.7903977919375743,-0.46973785529916734,2.8885513212678644,-0.31846943497657776,0.7106332182884216,-0.6273577213287354,-0.20189134776592255,-0.465894490480423,0.7295766472816467
5.485177993774414,-0.11704087257385254,0.01720970869064331,0.08671104907989502,-0.7993540734342675,-0.466305286573505,2.906281033382821,-0.3134400546550751,0.7169058918952942,-0.6227370500564575,-0.025440480560064316,-0.4577246904373169,0.775768518447876
5.504906892776489,-0.1552015244960785,0.002350449562072754,0.07057791948318481,-0.8043751091671589,-0.4590629917018823,2.927681275927044,-0.3073229193687439,0.720397412776947,-0.6217558979988098,0.23233433067798615,-0.34605300426483154,0.7885887622833252
5.524863958358765,-0.15297120809555054,-0.036672115325927734,0.11681151390075684,-0.8060570197410125,-0.4463037706765168,2.95201514687345,-0.29884156584739685,0.7215628623962402,-0.6245324611663818,0.32375368475914,-0.13104617595672607,0.7721459865570068
5.544843912124634,-0.12665149569511414,-0.1324518322944641,0.19283396005630493,-0.8067408558386794,-0.430224457881737,2.974506210442195,-0.28855541348457336,0.7220361828804016,-0.6288080215454102,0.22923077642917633,0.1055869609117508,0.666667640209198
5.565176010131836,-0.08554929494857788,-0.20971941947937012,0.25140219926834106,-0.809187869844777,-0.41470948523669476,2.9910538147522203,-0.278052419424057,0.7237269878387451,-0.6315901279449463,0.020023047924041748,0.23789110779762268,0.46396592259407043
5.584918975830078,-0.058478355407714844,-0.2653523087501526,0.2708325982093811,-0.8135085314719982,-0.4030138047863418,2.9996784811539454,-0.26941782236099243,0.7267018556594849,-0.6319165825843811,-0.174612358212471,0.288141131401062,0.24351651966571808
5.604694843292236,-0.027610689401626587,-0.27865636348724365,0.2662642002105713,-0.8186065742959645,-0.3965015385334288,3.000825901756732,-0.2638626992702484,0.7301945090293884,-0.630232036113739,-0.21782763302326202,0.2850283682346344,0.02809445559978485
5.621182918548584,-0.030491799116134644,-0.23268502950668335,0.23968011140823364,-0.8207802700912183,-0.39301913528064913,2.9975996779197285,-0.26105788350105286,0.7316779494285583,-0.6296793818473816,-0.0698695108294487,0.3072165846824646,-0.14281360805034637
5.639919996261597,-0.026646524667739868,-0.17046374082565308,0.22697526216506958,-0.8205177397474022,-0.39157047343610074,2.9909108947683802,-0.2602187395095825,0.7314989566802979,-0.6302345395088196,-0.0945836529135704,0.3133569359779358,-0.2924651801586151
5.660729885101318,8.854269981384277e-05,-0.15893477201461792,0.21911394596099854,-0.8207512976993263,-0.39378445636043435,2.9796347333069986,-0.26154789328575134,0.7316581606864929,-0.629499077796936,-0.22814446687698364,0.2973230183124542,-0.3888753056526184
5.6846818923950195,0.012823641300201416,-0.09176492691040039,0.17635959386825562,-0.8222288081081442,-0.39851876744298187,2.9653531413634404,-0.2641053795814514,0.7326645255088806,-0.6272566914558411,-0.2683056592941284,0.2943049371242523,-0.45968231558799744
5.704280853271484,-0.013011038303375244,-0.0036575794219970703,0.11889535188674927,-0.8230541979825523,-0.4042300014976698,2.9493135829207557,-0.26744553446769714,0.7332260608673096,-0.6251819729804993,-0.2334817498922348,0.3195945918560028,-0.5095576643943787
5.725207805633545,-0.028898179531097412,0.04944884777069092,0.07530683279037476,-0.822866088073985,-0.4096111511151797,2.9328335348820396,-0.2708607614040375,0.7330981492996216,-0.6238601803779602,-0.19849029183387756,0.3491193652153015,-0.5216944813728333
5.743278980255127,-0.04041251540184021,0.10732901096343994,0.01803302764892578,-0.8221881091737221,-0.41461297160515265,2.9167037456012994,-0.2741779685020447,0.7326368689537048,-0.6229524612426758,-0.1670415699481964,0.32984277606010437,-0.5195002555847168
5.764021873474121,-0.08413994312286377,0.23033547401428223,-0.09808099269866943,-0.8205002568471274,-0.41891192589390236,2.9018585346556764,-0.2773560583591461,0.7314870357513428,-0.6228967308998108,-0.07892623543739319,0.36614373326301575,-0.4531511664390564
5.785624980926514,-0.16742092370986938,0.3937852382659912,-0.1836124062538147,-0.8176884059691506,-0.4160156397454558,2.891652377074695,-0.2763809561729431,0.7295668721199036,-0.6255764365196228,0.06582990288734436,0.6815282106399536,-0.30850401520729065
5.803832054138184,-0.16613152623176575,0.43141913414001465,-0.1307505965232849,-0.8137837098126949,-0.4034723288211885,2.886816410816924,-0.26962900161743164,0.7268908619880676,-0.6316090226173401,0.10289014875888824,0.8750483989715576,-0.1482180953025818
5.824026107788086,-0.016417980194091797,0.31308579444885254,-0.1022942066192627,-0.813274856626749,-0.3878799317229017,2.884699323393057,-0.2598882019519806,0.72654128074646,-0.6360785961151123,-0.09762406349182129,0.8182572722434998,-0.024374384433031082
5.843844890594482,0.02562829852104187,0.19420933723449707,-0.1523125171661377,-0.8146457282632347,-0.3736089020769569,2.8835879837549534,-0.25042077898979187,0.7274825572967529,-0.6387946009635925,0.002966514090076089,0.6979857683181763,-0.009374834597110748
5.864695072174072,-0.027127385139465332,0.22186720371246338,-0.19798606634140015,-0.8118348301571607,-0.3594949609364445,2.8843198100739853,-0.24209870398044586,0.7255510687828064,-0.6441770195960999,0.25530028343200684,0.6916050910949707,-0.04442673549056053
5.8840460777282715,-0.0936681479215622,0.2164597511291504,-0.19100326299667358,-0.8059632880104092,-0.3434924675530256,2.885551499023662,-0.2331903725862503,0.7214979529380798,-0.6519684791564941,0.28788530826568604,0.8373884558677673,-0.08063247054815292
5.900559902191162,-0.09829102456569672,0.08161437511444092,-0.1001163125038147,-0.801329712308789,-0.3256234197441355,2.8848498173637354,-0.2225707769393921,0.7182818651199341,-0.6591914296150208,0.10124573111534119,0.9979503750801086,-0.13080397248268127
5.923573970794678,-0.09231296181678772,-0.06199181079864502,0.006467103958129883,-0.801886406852639,-0.3092505486095716,2.8786017553418546,-0.21162688732147217,0.718669056892395,-0.6623661518096924,-0.32700517773628235,1.0727531909942627,-0.2933884561061859
5.942507982254028,-0.08942486345767975,-0.18404865264892578,0.10402548313140869,-0.810729035530467,-0.2994209517519829,2.8626440190177185,-0.20322346687316895,0.7247896790504456,-0.6583161950111389,-0.8464972972869873,1.0497852563858032,-0.48499229550361633
5.963483810424805,-0.0604543536901474,-0.263109028339386,0.14224731922149658,-0.8269312066664934,-0.2975903308105967,2.838477557669311,-0.19854836165905,0.735856831073761,-0.6473742127418518,-1.1418712139129639,0.8932778835296631,-0.601154625415802
5.983417987823486,-0.04093705117702484,-0.2335197925567627,0.09668987989425659,-0.8446073876330832,-0.30180063195796725,2.8107891431727827,-0.19737471640110016,0.7477104663848877,-0.6340128779411316,-1.0139963626861572,0.7498051524162292,-0.6497217416763306
6.0036399364471436,-0.051404088735580444,-0.1872704029083252,0.054969072341918945,-0.8559630608222406,-0.3076392241185068,2.784613770495192,-0.19848909974098206,0.7552025318145752,-0.6247169375419617,-0.5736934542655945,0.6514487266540527,-0.6575748920440674
6.020397901535034,-0.049717992544174194,-0.13327264785766602,0.04726165533065796,-0.8586489320177506,-0.3119494470903034,2.762196924868086,-0.2005566507577896,0.756960391998291,-0.6219228506088257,-0.17074072360992432,0.6114287376403809,-0.6605452299118042
6.04354190826416,-0.014817312359809875,-0.16129142045974731,0.1008034348487854,-0.8571379301452089,-0.3158280370257235,2.7419518325383208,-0.20332232117652893,0.755972146987915,-0.6222267150878906,-0.16108489036560059,0.515886127948761,-0.6492356061935425
6.064899921417236,0.05629795789718628,-0.23416781425476074,0.14923185110092163,-0.8578851227868427,-0.32376891103931904,2.7203848785048637,-0.20807717740535736,0.7564610242843628,-0.6200570464134216,-0.34198448061943054,0.3127853274345398,-0.6690430045127869
6.082680940628052,0.10676994919776917,-0.2336881160736084,0.14254021644592285,-0.8603747256259568,-0.3358631463641619,2.6984278380036524,-0.21493950486183167,0.7580869793891907,-0.6157152056694031,-0.3194093108177185,0.1499411165714264,-0.5959123969078064
6.103202819824219,0.1281619817018509,-0.17494404315948486,0.10216569900512695,-0.8611974406321926,-0.34845352972890997,2.679555467403583,-0.22246131300926208,0.7586233019828796,-0.6123738288879395,-0.17594890296459198,0.022300947457551956,-0.5455200672149658
6.122459888458252,0.13478581607341766,-0.13594985008239746,0.07603418827056885,-0.8598045274685776,-0.362007226359941,2.6628913090981388,-0.23111455142498016,0.7577149868011475,-0.6102901101112366,-0.08671670407056808,-0.10763627290725708,-0.5134373903274536
6.143115997314453,0.1381530612707138,-0.09773147106170654,0.05354714393615723,-0.8578967848327617,-0.37599410118229054,2.6485905619278003,-0.2401580661535263,0.756468653678894,-0.60834139585495,-0.0739639401435852,-0.19640086591243744,-0.43408650159835815
6.162903785705566,0.11611780524253845,-0.021739542484283447,0.005370736122131348,-0.8566330730538114,-0.38839512263409653,2.637241066833704,-0.24804529547691345,0.7556415796279907,-0.6062007546424866,-0.09122206270694733,-0.17950505018234253,-0.29596951603889465
6.18284797668457,0.09094798564910889,0.044381797313690186,-0.07763111591339111,-0.8569749097890504,-0.39691837677062136,2.6296982796772874,-0.2531031370162964,0.7558653950691223,-0.6038263440132141,-0.12072792649269104,-0.10289842635393143,-0.15822981297969818
6.201730966567993,0.08231830596923828,0.04180347919464111,-0.08943319320678711,-0.8589809236754482,-0.40152992815533917,2.6254615414431535,-0.2552919387817383,0.7571772933006287,-0.6012558937072754,-0.18067723512649536,-0.04738669842481613,-0.00586514500901103
6.222975969314575,0.11443403363227844,-0.006064176559448242,-0.09501755237579346,-0.8632207560831121,-0.40362506007472965,2.6242548257846505,-0.25528791546821594,0.759939968585968,-0.5977619886398315,-0.21534229815006256,-0.07822690159082413,0.09292516857385635
6.242172002792358,0.12072229385375977,-0.034921109676361084,-0.10083973407745361,-0.868027096418091,-0.40386415320677577,2.6260787780912986,-0.2539925277233124,0.7630552649497986,-0.5943353772163391,-0.16622096300125122,-0.08175842463970184,0.20639672875404358
6.262773036956787,0.12070468068122864,-0.07712376117706299,-0.06938719749450684,-0.8725197147738859,-0.4019112127689328,2.6310848686814325,-0.2514877915382385,0.7659512758255005,-0.5916693210601807,-0.14146922528743744,-0.10898961126804352,0.260084867477417
6.2829179763793945,0.13861656188964844,-0.09219163656234741,-0.04963749647140503,-0.8775066816732691,-0.40043289247548886,2.637327336303152,-0.24912075698375702,0.7691478729248047,-0.58851557970047,-0.16654159128665924,-0.23662027716636658,0.29499661922454834
6.301578998565674,0.16474829614162445,-0.08764827251434326,-0.0764780044555664,-0.8828062423334265,-0.4016317049447972,2.644418284189184,-0.24822911620140076,0.772523820400238,-0.5844563841819763,-0.11206109821796417,-0.4433833062648773,0.3370571434497833
6.3239219188690186,0.16744866967201233,-0.028901338577270508,-0.135320246219635,-0.8856215293936694,-0.4048236196825736,2.654840346019824,-0.24923579394817352,0.774308443069458,-0.5816596746444702,0.13845853507518768,-0.6904911994934082,0.3930632174015045
6.341732978820801,0.13522875308990479,0.05201554298400879,-0.20482420921325684,-0.8836954820031725,-0.40888300105094366,2.670422458559576,-0.2521873414516449,0.7730882167816162,-0.5820104479789734,0.38937094807624817,-0.9275593161582947,0.436446875333786
6.362262964248657,0.08256623148918152,0.1625649333000183,-0.2846861481666565,-0.8787795270005577,-0.41401975425896387,2.6892306759623197,-0.2566995322704315,0.7699607014656067,-0.5841798186302185,0.5471946597099304,-1.0158389806747437,0.4863622188568115
6.383062839508057,0.05298152565956116,0.24839717149734497,-0.3066723346710205,-0.8720845768074935,-0.4150981989279965,2.7131933756228825,-0.25940242409706116,0.7656714916229248,-0.5886065363883972,0.6939948797225952,-0.9312407970428467,0.6479949355125427
6.402256965637207,0.026104778051376343,0.31355708837509155,-0.28248047828674316,-0.8643553464111694,-0.410958628890595,2.74096918945881,-0.25932013988494873,0.7606769800186157,-0.5950829386711121,0.6675645112991333,-0.7299326658248901,0.617053210735321
6.422010898590088,0.057324618101119995,0.31511884927749634,-0.30881601572036743,-0.8601731121314821,-0.4100626990939038,2.7641700335431763,-0.260052889585495,0.7579554915428162,-0.5982274413108826,0.353162556886673,-0.907379150390625,0.7038555145263672
6.441972970962524,0.03003525733947754,0.2759034037590027,-0.3250422477722168,-0.8593085958338801,-0.40645865728641806,2.791786497732999,-0.25815415382385254,0.7573912739753723,-0.5997624397277832,0.4971449673175812,-0.7962554693222046,0.8904812932014465
6.461993932723999,-0.022167086601257324,0.2739694118499756,-0.20362573862075806,-0.8520653961300103,-0.38984454982772804,2.8303394495415097,-0.2502328157424927,0.7526419162750244,-0.6090267896652222,1.0442625284194946,-0.4489603042602539,1.0687370300292969
6.481959819793701,0.010654479265213013,0.11842048168182373,-0.041976094245910645,-0.843556558189427,-0.37695244091012436,2.861884901174543,-0.2447090744972229,0.7470122575759888,-0.6181343793869019,0.5967700481414795,-0.5843425393104553,0.733657956123352
6.501806974411011,0.03937463462352753,-0.13400161266326904,0.06175529956817627,-0.8414184915066903,-0.3701821549023981,2.8876347260677484,-0.24109582602977753,0.7455891370773315,-0.6212645173072815,0.2314043790102005,-0.6849328279495239,0.6963130235671997
6.521791934967041,0.01130746304988861,-0.10211479663848877,0.15046930313110352,-0.8430288878578944,-0.3706024192232389,2.9062677004455155,-0.2409217655658722,0.746661365032196,-0.6200432777404785,0.10534519702196121,-0.7344174981117249,0.5723398923873901
6.541757106781006,-0.015215948224067688,-0.07873004674911499,0.15874367952346802,-0.8452442183480852,-0.37317094899055847,2.9226757671001056,-0.2419099360704422,0.7481331825256348,-0.617880642414093,0.08364412933588028,-0.7491044998168945,0.5281214118003845
6.561685085296631,-0.04772515594959259,-0.0567169189453125,0.18253403902053833,-0.8470476296634684,-0.3745258403262846,2.9394339505637554,-0.2422528713941574,0.74932861328125,-0.6162955164909363,0.19708946347236633,-0.6441587209701538,0.5612806677818298
6.5814878940582275,-0.12553496658802032,-0.02961444854736328,0.1907375454902649,-0.84451226324014,-0.3720128357567359,2.9581553279120576,-0.24139314889907837,0.7476472854614258,-0.6186702847480774,0.509821891784668,-0.5170304179191589,0.496051549911499
6.601610898971558,-0.18607674539089203,-0.013874650001525879,0.17095249891281128,-0.836334993964609,-0.36725699591708866,2.9772472512277144,-0.24063530564308167,0.7421918511390686,-0.625496506690979,0.661119282245636,-0.42248761653900146,0.3871335983276367
6.621454954147339,-0.23380924761295319,0.013536334037780762,0.16496646404266357,-0.8269260077673027,-0.36205133463840744,2.9933975770218475,-0.23983882367610931,0.7358533143997192,-0.6332434415817261,0.5805632472038269,-0.24778619408607483,0.3065272569656372
6.641424894332886,-0.24705195426940918,0.028436362743377686,0.16948097944259644,-0.8200452415771667,-0.3556483462851464,3.0060109624163824,-0.2375366985797882,0.7311766743659973,-0.6394974589347839,0.3701683282852173,-0.035691071301698685,0.25809940695762634
6.661354064941406,-0.22004416584968567,0.006639301776885986,0.1902611255645752,-0.8162169447872504,-0.34742021536264417,3.0155243166593535,-0.23321819305419922,0.7285597324371338,-0.6440575122833252,0.21939077973365784,0.15468765795230865,0.21637122333049774
6.68130898475647,-0.1653386503458023,-0.05748331546783447,0.20678377151489258,-0.813732825471536,-0.338404729336931,3.0222010036665146,-0.2280024141073227,0.7268558740615845,-0.6478390693664551,0.16843801736831665,0.2458639144897461,0.13323800265789032
6.7012810707092285,-0.10936403274536133,-0.10790038108825684,0.23408067226409912,-0.811538771963568,-0.3307470814980397,3.0260046149226953,-0.22355224192142487,0.7253472805023193,-0.6510728597640991,0.11093516647815704,0.2381969392299652,0.03724853694438934
6.721187114715576,-0.06229954957962036,-0.13055109977722168,0.24180269241333008,-0.8103522741241368,-0.3261655110345825,3.026477429509874,-0.22084255516529083,0.724530041217804,-0.6529049277305603,0.04316502809524536,0.1746925264596939,-0.04946434497833252
6.741231918334961,-0.04086372256278992,-0.10635310411453247,0.21172022819519043,-0.8096697720676602,-0.32430801863369224,3.024547157402869,-0.21978692710399628,0.7240594625473022,-0.6537826061248779,-0.01866758055984974,0.15800125896930695,-0.08965452015399933
6.7600860595703125,-0.04361005127429962,-0.05552542209625244,0.1845504641532898,-0.8097572520518577,-0.3230324438005097,3.0214185859044256,-0.21893268823623657,0.7241197824478149,-0.6540023684501648,-0.08763454854488373,0.19493770599365234,-0.11244088411331177
6.781307935714722,-0.02842351794242859,-0.02486288547515869,0.17380201816558838,-0.8116286259953445,-0.3219217732337441,3.016514858964304,-0.2177770584821701,0.7254091501235962,-0.6529584527015686,-0.20059332251548767,0.27053749561309814,-0.14245040714740753
6.799953937530518,0.0021706074476242065,-0.021013498306274414,0.15879929065704346,-0.8158216517308733,-0.3210583358284639,3.009758710191605,-0.2162514328956604,0.7282888889312744,-0.6502543687820435,-0.33298346400260925,0.2843806743621826,-0.1674853265285492
6.820727825164795,0.03311312198638916,-0.040455758571624756,0.13217729330062866,-0.8216775612781374,-0.32146666651414807,3.0015020932283853,-0.21516573429107666,0.7322892546653748,-0.6461085677146912,-0.3891291320323944,0.2729949653148651,-0.18872801959514618
6.840002059936523,0.03438189625740051,-0.0398823618888855,0.10265606641769409,-0.8262468356607221,-0.32254870169300087,2.992927318495898,-0.2148018181324005,0.7353932857513428,-0.6426951289176941,-0.1882314831018448,0.2617444396018982,-0.2076413482427597
6.85997200012207,0.03122071921825409,-0.01664966344833374,0.07241851091384888,-0.8261888394222786,-0.321859009772303,2.9865506479706254,-0.21437202394008636,0.735353946685791,-0.6428836584091187,0.029749590903520584,0.2759922444820404,-0.21172001957893372
6.880738973617554,0.017220184206962585,-0.01466834545135498,0.060645103454589844,-0.8235166208840367,-0.3211910527304273,2.9799583679264896,-0.21456211805343628,0.733540415763855,-0.6448888778686523,0.07564304769039154,0.29254618287086487,-0.3133787214756012
6.900563955307007,-0.02168196439743042,-0.0003228187561035156,0.04551565647125244,-0.8201965390880205,-0.3223040476761747,2.9698196816560913,-0.21604996919631958,0.7312799096107483,-0.6469560861587524,-0.010979462414979935,0.344237357378006,-0.4622161388397217
6.920580863952637,-0.061158210039138794,0.017756760120391846,0.04306638240814209,-0.8199759100919132,-0.32724897936006686,2.952962235153895,-0.2192983478307724,0.7311294078826904,-0.6460326313972473,-0.3918788731098175,0.39495617151260376,-0.6574535369873047
6.941236972808838,-0.07571777701377869,0.009142398834228516,0.05648601055145264,-0.8274210585114723,-0.3394148545614069,2.9253015572056666,-0.2253229022026062,0.7361884713172913,-0.6381663084030151,-0.9030473828315735,0.40551188588142395,-0.8673825263977051
6.959947109222412,-0.01094856858253479,0.03080880641937256,0.013779044151306152,-0.8400682107921987,-0.35822142706834287,2.890306467592674,-0.2340007871389389,0.7446886301040649,-0.6250461339950562,-1.0203570127487183,0.2794196307659149,-0.8983492851257324
6.979905128479004,0.031974226236343384,0.11958056688308716,-0.11165481805801392,-0.8503298246067862,-0.38227219565042675,2.8544048946702336,-0.24610085785388947,0.7514980435371399,-0.6121153831481934,-0.785131573677063,0.020954720675945282,-0.9439674615859985
6.999910831451416,-0.044739723205566406,0.34025222063064575,-0.27167820930480957,-0.8558531799683016,-0.40587184376425767,2.8218159440690394,-0.2588338851928711,0.7551305294036865,-0.6023147106170654,-0.5647931098937988,0.14807157218456268,-0.8062620162963867
7.019944906234741,-0.14385345578193665,0.4740915298461914,-0.27552860975265503,-0.8599991840651386,-0.41839524920467724,2.7968083955326244,-0.26508212089538574,0.7578420042991638,-0.5961601734161377,-0.5337602496147156,0.4714205861091614,-0.4980509281158447
7.040822982788086,-0.039174795150756836,0.36229199171066284,-0.23170948028564453,-0.8685287916380042,-0.4187304405055413,2.7815788989934536,-0.26264405250549316,0.7633794546127319,-0.590144157409668,-0.6169769167900085,0.639744758605957,-0.06968560069799423
7.0604047775268555,-0.005922943353652954,0.17627036571502686,-0.19682013988494873,-0.8784400886037824,-0.40895722824327113,2.776362306514772,-0.25384271144866943,0.7697440385818481,-0.5857115387916565,-0.3746500611305237,0.7255094051361084,0.12012524902820587
7.0817649364471436,-0.033499300479888916,0.04022073745727539,-0.14534229040145874,-0.882925736414136,-0.3930308777707287,2.778412960666962,-0.24315783381462097,0.7725996971130371,-0.5864844918251038,-0.0016814209520816803,0.7066875100135803,0.1517869383096695
7.100430011749268,-0.06004999577999115,-0.08719515800476074,-0.10307395458221436,-0.8811091585957392,-0.3762088553097877,2.782827527528413,-0.23377329111099243,0.771445095539093,-0.5917960405349731,0.23538115620613098,0.6620932221412659,0.012290926650166512
7.120096921920776,-0.12945763766765594,-0.14808052778244019,-0.04788106679916382,-0.8755923590340305,-0.36205984296481625,2.7824830201331556,-0.22688084840774536,0.7679230570793152,-0.5990152955055237,0.24728207290172577,0.7984915971755981,-0.23132160305976868
7.141613006591797,-0.15042084455490112,-0.16479569673538208,0.014965534210205078,-0.8705442417673901,-0.3510268419415793,2.7737911534950017,-0.22158844769001007,0.7646797895431519,-0.6051144599914551,-0.006596445105969906,0.9732673168182373,-0.4604501724243164
7.160069942474365,-0.11063985526561737,-0.18819433450698853,0.07010269165039062,-0.8709338201506824,-0.3446466006346497,2.7552149102130294,-0.21762248873710632,0.764930784702301,-0.6062354445457458,-0.4496256411075592,1.0704522132873535,-0.6441068053245544
7.179961919784546,-0.0541841983795166,-0.19332373142242432,0.09381294250488281,-0.878098816909687,-0.3441541018706086,2.7276992130555593,-0.2154691368341446,0.7695261240005493,-0.6011676788330078,-0.7923067212104797,1.0871185064315796,-0.7591514587402344
7.1999831199646,-0.008537515997886658,-0.16152340173721313,0.08610159158706665,-0.8897678632017977,-0.3482767991570632,2.694879552173283,-0.21486641466617584,0.7769256234169006,-0.5917931199073792,-0.991019070148468,1.0409839153289795,-0.8023452162742615
7.219960927963257,0.030121609568595886,-0.14022678136825562,0.08993703126907349,-0.9035128851925598,-0.35615053379254674,2.659439525961207,-0.2157752960920334,0.7855057120323181,-0.5800188183784485,-1.052754282951355,0.9329520463943481,-0.7961648106575012
7.2399609088897705,0.06828595697879791,-0.1203300952911377,0.08825051784515381,-0.9173199380542194,-0.3669189338539257,2.6241557353558407,-0.2180967777967453,0.7939751148223877,-0.5674833059310913,-0.9792078137397766,0.776494562625885,-0.7385118007659912
7.259961128234863,0.09010057151317596,-0.08473402261734009,0.07097333669662476,-0.9288054969565422,-0.3784647137883114,2.5924422700724876,-0.22124986350536346,0.8009052276611328,-0.556416392326355,-0.7810212969779968,0.6005220413208008,-0.6250001192092896
7.279961109161377,0.10279332101345062,-0.07213538885116577,0.04743015766143799,-0.9366273522861571,-0.3887392709763129,2.5668879950305983,-0.22457371652126312,0.8055643439292908,-0.5482999086380005,-0.5147677659988403,0.43102285265922546,-0.49419814348220825
7.299958944320679,0.11354157328605652,-0.07364881038665771,0.02400803565979004,-0.9405052948749908,-0.39667270136449523,2.5483999393253813,-0.2277078479528427,0.807856023311615,-0.5436155200004578,-0.2820758521556854,0.2743948996067047,-0.3669290244579315
7.320205926895142,0.12549878656864166,-0.08583754301071167,0.038522541522979736,-0.9428339178042661,-0.40254541827285306,2.5360332776550996,-0.23015883564949036,0.8092262744903564,-0.5405367016792297,-0.2689443528652191,0.13677692413330078,-0.21484526991844177
7.339964866638184,0.1425236165523529,-0.13368654251098633,0.06144291162490845,-0.9483567901333466,-0.4092315939914421,2.5264220561898485,-0.2319858968257904,0.8124585747718811,-0.534877359867096,-0.47169816493988037,-0.029598023742437363,-0.08582226186990738
7.359961032867432,0.1405341625213623,-0.15534573793411255,0.0473484992980957,-0.9589154093876594,-0.4186081736663502,2.5175048326955936,-0.2334907054901123,0.8185690641403198,-0.5248112082481384,-0.6984332799911499,-0.17091315984725952,0.03542495146393776
7.379960060119629,0.1197151243686676,-0.1464385986328125,0.026613831520080566,-0.9735260118094232,-0.4298864945330365,2.5093420342857065,-0.2343849390745163,0.8268738389015198,-0.5112176537513733,-0.7884995341300964,-0.2790921628475189,0.13159522414207458
7.400022983551025,0.09204763174057007,-0.1273512840270996,-0.014058470726013184,-0.9882865060572882,-0.44098535275799183,2.50396801305192,-0.23480889201164246,0.8350845575332642,-0.4974924325942993,-0.6377841830253601,-0.3856501281261444,0.21796487271785736
7.419960021972656,0.07349392771720886,-0.0928146243095398,-0.05889403820037842,-0.9991267716452231,-0.44942854010019373,2.504274573026239,-0.23505400121212006,0.8409988284111023,-0.4873095750808716,-0.31568801403045654,-0.49018293619155884,0.25214681029319763
7.439590930938721,0.07206696271896362,-0.06329071521759033,-0.08896929025650024,-1.0038858959629615,-0.45472285297561305,2.510925517641369,-0.23587004840373993,0.8435642123222351,-0.48245707154273987,0.04270794615149498,-0.603559672832489,0.2691032290458679
7.459959983825684,0.0698620080947876,-0.007970631122589111,-0.10505357384681702,-1.0029075499926416,-0.4570215729996346,2.5231349535032512,-0.2373424917459488,0.8430383801460266,-0.4826538860797882,0.3010264039039612,-0.6459439396858215,0.27862343192100525
7.479959964752197,0.05079278349876404,0.02326369285583496,-0.12055683135986328,-0.9990617252398295,-0.45851887452271356,2.5372231283573696,-0.23949824273586273,0.8409636616706848,-0.48520180583000183,0.36447712779045105,-0.691847026348114,0.21318772435188293
7.500060081481934,0.04788956046104431,0.09369635581970215,-0.15211862325668335,-0.9934776139266679,-0.46203755738659896,2.5493224301611037,-0.2432936131954193,0.8379290699958801,-0.48855212330818176,0.4188087284564972,-0.6614627242088318,0.14771249890327454
7.519990921020508,0.06170566380023956,0.14013713598251343,-0.169368177652359,-0.9875067041130995,-0.46651711473125956,2.5596517280128777,-0.24772559106349945,0.8346553444862366,-0.4919171929359436,0.3624965250492096,-0.688603401184082,0.06650642305612564
7.539979934692383,0.0671999454498291,0.17751342058181763,-0.1825956106185913,-0.9811517158037978,-0.4773632485272495,2.565035686443834,-0.2554781436920166,0.8311383724212646,-0.4939027726650238,0.3282099664211273,-0.8490591645240784,-0.0894843190908432
7.56006383895874,0.038593798875808716,0.3374176025390625,-0.26379427313804626,-0.9749110956298567,-0.49474945535332565,2.5661940355901924,-0.2664838135242462,0.8276519775390625,-0.49394187331199646,0.3014868497848511,-0.9231666326522827,-0.07542882859706879
7.579967021942139,-0.031522661447525024,0.43069976568222046,-0.2742214798927307,-0.9687849105292918,-0.5050469431575025,2.573044537325151,-0.2740040719509125,0.8241981863975525,-0.4955996572971344,0.3985535204410553,-0.6841919422149658,0.10027045011520386
7.598954916000366,-0.002064228057861328,0.3905818462371826,-0.1622975766658783,-0.9639297515354979,-0.5073691947324915,2.5848853074114864,-0.27709531784057617,0.8214390277862549,-0.49845370650291443,0.30834805965423584,-0.5458890199661255,0.25689685344696045
7.619965076446533,0.04560390114784241,0.21437782049179077,-0.014786750078201294,-0.963654387186423,-0.5083418060806144,2.595576136575046,-0.2776900827884674,0.8212819695472717,-0.49838152527809143,-0.0012438767589628696,-0.4581940174102783,0.21610894799232483
7.639956951141357,0.0874004065990448,-0.038620591163635254,0.12897086143493652,-0.9666968038072337,-0.5162612402148555,2.598495710741639,-0.2803936004638672,0.8230139017105103,-0.4939916431903839,-0.11918924003839493,-0.6258406639099121,0.0835423544049263
7.659964084625244,0.08603900671005249,-0.18007779121398926,0.2713157534599304,-0.9687021578074937,-0.533421460068688,2.5969864683945167,-0.2879891097545624,0.824151337146759,-0.4876853823661804,-0.11452071368694305,-0.9331473708152771,-0.06918114423751831
7.679967880249023,-0.02460440993309021,-0.12756001949310303,0.26578933000564575,-0.9670391328982038,-0.5552956564836999,2.593087993712072,-0.29930922389030457,0.8232083320617676,-0.4824336767196655,0.183530792593956,-0.9674819111824036,-0.17355738580226898
7.699966907501221,0.03687980771064758,-0.1430630087852478,0.18220102787017822,-0.9604589347311743,-0.574640412159516,2.5966044293910584,-0.3115227520465851,0.8194546699523926,-0.4810901880264282,0.4721071422100067,-1.299056053161621,0.04607478901743889
7.7199578285217285,0.059914737939834595,-0.06935477256774902,0.11536520719528198,-0.952344744886337,-0.5878170686025481,2.614066291697556,-0.321511447429657,0.8147771954536438,-0.4824611246585846,0.7941688895225525,-1.3847780227661133,0.3144950270652771
7.740020990371704,-0.11243045330047607,0.06284278631210327,0.07750177383422852,-0.9401658736497799,-0.5904354421527825,2.6436358458420672,-0.3282739222049713,0.807655930519104,-0.48982474207878113,1.1511390209197998,-1.2842791080474854,0.44743239879608154
7.759967803955078,-0.09367352724075317,0.05300778150558472,0.07725399732589722,-0.9254735212090538,-0.5855766120978771,2.6799773595506746,-0.3324129283428192,0.7989056706428528,-0.5012498497962952,1.244273066520691,-1.1202682256698608,0.5215684771537781
7.779958963394165,-0.10045784711837769,0.039144814014434814,0.11028236150741577,-0.9114853579475017,-0.5770747707616727,2.714517192273937,-0.3342039883136749,0.7904145121574402,-0.5133736729621887,1.025446891784668,-0.7619091868400574,0.44297218322753906
7.799957990646362,-0.09894558787345886,0.023343801498413086,0.16526108980178833,-0.9025084432412596,-0.569550364244185,2.738590936010281,-0.334144651889801,0.7848837375640869,-0.5218283534049988,0.503069281578064,-0.41049832105636597,0.3328592777252197
7.820006847381592,-0.024663835763931274,-0.030560851097106934,0.16955596208572388,-0.902008592675029,-0.5658512512322003,2.7508448386861506,-0.3324223756790161,0.7845739126205444,-0.5233919620513916,-0.0045021213591098785,-0.19969740509986877,0.2802017629146576
7.839954853057861,-0.03500920534133911,-0.04512441158294678,0.10869693756103516,-0.9057195823173045,-0.5650738571047595,2.7549708874060643,-0.3304540812969208,0.7868694067001343,-0.5211877226829529,-0.103430837392807,-0.05166693031787872,0.12800611555576324
7.859956979751587,-0.04245397448539734,-0.02862989902496338,0.0817449688911438,-0.9073534612972008,-0.5645238319979586,2.755636300104549,-0.32947903871536255,0.7878766655921936,-0.520282506942749,-0.014177678152918816,0.046871718019247055,0.002759350696578622
7.879990100860596,0.0061502158641815186,-0.05637103319168091,0.11226707696914673,-0.907404154001951,-0.5642223856520246,2.7538668700525024,-0.3293008506298065,0.7879078984260559,-0.520348072052002,-0.07543602585792542,0.1216384544968605,-0.08288644254207611
7.899960994720459,0.03533756732940674,-0.09197485446929932,0.1461348533630371,-0.908627624371024,-0.5651514050794221,2.748920426086774,-0.3292676508426666,0.7886607050895691,-0.5192275047302246,-0.1770264208316803,0.16979452967643738,-0.12664449214935303
7.919968128204346,0.0244407057762146,-0.03923225402832031,0.11768710613250732,-0.9098562253703113,-0.5675928516566927,2.741167331661872,-0.330013245344162,0.7894154787063599,-0.5176047682762146,-0.16876253485679626,0.20260077714920044,-0.19105468690395355
7.93996000289917,0.023352205753326416,-0.012665510177612305,0.08400523662567139,-0.9104012155983325,-0.5700678060795186,2.7328564925558685,-0.3310609459877014,0.7897499203681946,-0.5164240002632141,-0.14649054408073425,0.19714537262916565,-0.2154478132724762
7.959957122802734,0.047742992639541626,-0.027320265769958496,0.05931961536407471,-0.910137832878859,-0.5722881246958498,2.725360123743122,-0.33231937885284424,0.7895883321762085,-0.5158624649047852,-0.07343578338623047,0.17449155449867249,-0.18702173233032227
7.980041980743408,0.06630018353462219,-0.034181416034698486,0.05155777931213379,-0.9086139003614938,-0.5737496514144177,2.7197337830464456,-0.3337257206439972,0.788652241230011,-0.5163862705230713,0.019431453198194504,0.13653521239757538,-0.18830499053001404
7.99995493888855,0.06386354565620422,-0.04040926694869995,0.05347317457199097,-0.905521448458079,-0.575094222846124,2.714876596886171,-0.3357446491718292,0.7867471575737,-0.5179811120033264,0.0825575590133667,0.11235689371824265,-0.23884131014347076
8.019956111907959,0.04358553886413574,-0.01788252592086792,0.02601391077041626,-0.9006591021629932,-0.5769678639298569,2.7097900619668422,-0.33879733085632324,0.7837364673614502,-0.5205512642860413,0.15366539359092712,0.12651461362838745,-0.29217296838760376
8.039966106414795,-0.017815738916397095,0.03384047746658325,-0.011120080947875977,-0.8938165863110935,-0.5779217821401285,2.7036270891397445,-0.3422153890132904,0.779468297958374,-0.5247074961662292,0.17706391215324402,0.27577900886535645,-0.4143387973308563
8.059959888458252,-0.06923338770866394,0.07441407442092896,-0.004131138324737549,-0.8865653627123459,-0.5794367183100355,2.692904959156817,-0.34609559178352356,0.7749053835868835,-0.5289040207862854,0.04045312851667404,0.41302067041397095,-0.5466507077217102
8.079957008361816,-0.05291968584060669,0.0793999433517456,0.027376413345336914,-0.8822855237070519,-0.5830091440120037,2.6761072967078547,-0.3498055636882782,0.7721930742263794,-0.5304281711578369,-0.2826153039932251,0.5162415504455566,-0.5782751441001892
8.099955081939697,-0.0172044038772583,0.07970720529556274,0.006079256534576416,-0.8820661326062657,-0.5913296888647271,2.6531379194889237,-0.3543013334274292,0.7720536589622498,-0.5276399254798889,-0.4663925766944885,0.40533193945884705,-0.6595564484596252
8.120038032531738,-0.059752464294433594,0.19695192575454712,-0.1117982268333435,-0.8816160589083744,-0.6036615001757757,2.6269139209726733,-0.3609781265258789,0.7717675566673279,-0.5235166549682617,-0.391416996717453,0.41362264752388,-0.7503217458724976
8.139954090118408,-0.14059355854988098,0.3034985065460205,-0.18107116222381592,-0.8778661333568144,-0.6147149196930759,2.6010831471761637,-0.3684091567993164,0.7693775296211243,-0.5218554139137268,-0.3205946981906891,0.46666428446769714,-0.7864905595779419
8.159976959228516,-0.1009480357170105,0.28958648443222046,-0.16872304677963257,-0.8771196468861338,-0.623903471080919,2.5756530478509743,-0.3735240399837494,0.768900454044342,-0.5189142823219299,-0.6003413200378418,0.5934224128723145,-0.532045304775238
8.17997407913208,-0.017098277807235718,0.18411171436309814,-0.14969408512115479,-0.8852112251751082,-0.6286683021841692,2.55336856231178,-0.3723212778568268,0.7740487456321716,-0.5120795369148254,-0.825640082359314,0.6447651982307434,-0.16274313628673553
8.199958801269531,0.0027239322662353516,0.08752423524856567,-0.1113208532333374,-0.897057379451656,-0.6266185679464346,2.5385701846297533,-0.36586788296699524,0.7814943790435791,-0.5053783655166626,-0.6433983445167542,0.691332995891571,0.0901426449418068
8.219976902008057,-0.006374537944793701,-0.0017443299293518066,-0.07419878244400024,-0.9058689176074854,-0.6178925369218998,2.53380060462567,-0.3574407696723938,0.786961555480957,-0.50291907787323,-0.23756524920463562,0.5578166246414185,0.1555151343345642
8.239983081817627,-0.06404140591621399,-0.08010399341583252,-0.08869302272796631,-0.9085291035390632,-0.6062289903465689,2.53541343622248,-0.350356787443161,0.7886001467704773,-0.5053316354751587,0.021552275866270065,0.4976123571395874,0.05662626028060913
8.259954929351807,-0.12463095784187317,-0.1283257007598877,-0.040187716484069824,-0.9078161488410944,-0.5970933053581138,2.5343370174108135,-0.3460416793823242,0.7881615161895752,-0.5089760422706604,-0.02915918454527855,0.5188823938369751,-0.1407691240310669
8.279953956604004,-0.11491009593009949,-0.15688490867614746,0.04172158241271973,-0.9075597555545081,-0.5908912139273039,2.52751045796538,-0.342990905046463,0.78800368309021,-0.5112802386283875,-0.2048862725496292,0.6382510662078857,-0.20979875326156616
8.29995584487915,-0.09232315421104431,-0.15706241130828857,0.09762680530548096,-0.9103314339581512,-0.587453426349846,2.514781379317544,-0.3400194048881531,0.7897071242332458,-0.5106364488601685,-0.4488760828971863,0.7095009088516235,-0.30024752020835876
8.31992793083191,-0.06724247336387634,-0.13155293464660645,0.09455537796020508,-0.9150519145114813,-0.5870727420188767,2.496697329530673,-0.33775630593299866,0.7925942540168762,-0.5076565742492676,-0.523760199546814,0.7538066506385803,-0.34306439757347107
