timestamp,acceleration_x,acceleration_y,acceleration_z,attitude_pitch,attitude_roll,attitude_yaw,gravity_x,gravity_y,gravity_z,rotation_x,rotation_y,rotation_z
0.0,-0.0002743452787399292,0.01607382297515869,-0.019374489784240723,-1.4835236318178668,1.6629599200298388,0.41315198831334277,0.08679162710905075,0.9961941838264465,0.008021754212677479,0.18391269445419312,0.025074757635593414,0.01465512067079544
0.016524791717529297,0.015165567398071289,0.01949077844619751,0.008055806159973145,-1.4819745719198911,1.5611709270296097,0.3102965170565867,0.08870097249746323,0.99605792760849,-0.0008538087131455541,0.2903260886669159,0.00934319943189621,0.05187821388244629
0.03854799270629883,-0.009046487510204315,0.0005173683166503906,0.0057288408279418945,-1.475570695367481,1.3289333688483183,0.07622457793411003,0.09231363981962204,0.9954694509506226,-0.022773049771785736,0.4203791916370392,0.024082373827695847,0.042378876358270645
0.06699275970458984,0.004170596599578857,-0.012151956558227539,-0.003855224698781967,-1.4670133629329607,1.1491848359101113,-0.10465001402840667,0.09452320635318756,0.9946193695068359,-0.042394302785396576,0.27585044503211975,-0.0034535564482212067,0.046190064400434494
0.08410382270812988,-0.0025576427578926086,-0.009126245975494385,-0.003952678292989731,-1.4604048733463761,1.0575545697432107,-0.19725147194160664,0.09597189724445343,0.9939130544662476,-0.0540919229388237,0.2630821168422699,0.02961970679461956,0.03199319541454315
0.09994888305664062,-0.007817037403583527,-0.025238096714019775,-0.005558490753173828,-1.4551166681861227,1.0017657328456226,-0.25408426454336686,0.09723348915576935,0.9933165907859802,-0.0621907077729702,0.09561552852392197,0.02538670226931572,0.01593063771724701
0.11701178550720215,-0.005290478467941284,-0.018667280673980713,0.008960306644439697,-1.4550341443039623,0.9949119619661936,-0.2623011069511483,0.0968736857175827,0.9933070540428162,-0.06290027499198914,-0.02151322364807129,0.026143662631511688,-0.002642757957801223
0.1389908790588379,-0.0037966594099998474,0.023577392101287842,0.0063285231590271,-1.4527387870896544,0.9556034889457914,-0.3045613036751974,0.09618856757879257,0.9930393099784851,-0.06797420978546143,0.20800478756427765,0.05846875533461571,-0.01479062344878912
0.16571283340454102,0.001643165946006775,0.0054740309715271,-0.020823001861572266,-1.4489665775764597,0.8942803486910837,-0.37077052281669887,0.09476180374622345,0.9925879240036011,-0.07608569413423538,0.10438001900911331,0.0633608028292656,-0.030110420659184456
0.24359798431396484,0.00746714323759079,0.013500630855560303,0.005166888236999512,-1.4415296105498134,0.8320368370983431,-0.4359526006575224,0.09530076384544373,0.9916566610336304,-0.08680158853530884,0.32292234897613525,0.02335328981280327,-0.0038366166409105062
0.32140684127807617,0.004367493093013763,0.005030393600463867,0.0022618770599365234,-1.4308538958594321,0.7554988792707574,-0.5145600674749844,0.09563856571912766,0.9902240037918091,-0.10153569281101227,0.4389408528804779,0.023153819143772125,-0.010173608548939228
0.3390038013458252,0.007700569927692413,0.006419718265533447,0.02800630033016205,-1.4115975936869958,0.6508364949594447,-0.6194815866251493,0.09604392200708389,0.9873546361923218,-0.12612049281597137,0.4562733769416809,-0.09886174649000168,0.02888069488108158
0.3634018898010254,-0.00517735630273819,0.01285165548324585,-0.058599770069122314,-1.368892871173458,0.5126683487040109,-0.7540662611463079,0.0983627438545227,0.9796866178512573,-0.17475302517414093,0.8466782569885254,-0.020922472700476646,0.030498825013637543
0.37848377227783203,-0.006635487079620361,-0.052319109439849854,0.005628645420074463,-1.3398993036834606,0.4421121850651652,-0.8273851587221257,0.09791352599859238,0.9734615087509155,-0.2068464159965515,0.16835783421993256,0.03728117793798447,-0.04285731539130211
0.39842796325683594,0.005552105605602264,0.03074115514755249,0.003974318504333496,-1.329562484410507,0.41120310479726213,-0.8641014373069161,0.09549155831336975,0.9710439443588257,-0.21898603439331055,0.30668529868125916,0.0025653650518506765,-0.0002524809679016471
0.4189138412475586,-0.01442708820104599,-0.010140180587768555,0.03137555718421936,-1.241347565297117,0.29599332304817133,-0.9765075788577265,0.09436783194541931,0.9462208151817322,-0.3094518482685089,0.9252551794052124,-0.0387878455221653,-0.01584916189312935
0.4374847412109375,0.034000203013420105,-0.04069441556930542,0.042452991008758545,-1.174467472284325,0.23390419769039408,-1.0551198798930734,0.08947388082742691,0.9224843978881836,-0.3755219578742981,0.018018607050180435,0.17411723732948303,-0.09067555516958237
0.4554266929626465,0.06199707090854645,-0.03004932403564453,0.003598242998123169,-1.199208513259649,0.22180940605961935,-1.0708749024230073,0.07987909764051437,0.9317519664764404,-0.35419949889183044,-0.2699793875217438,-0.1557815819978714,-0.006894019898027182
0.4765908718109131,-0.009168960154056549,0.013043880462646484,-0.01262328028678894,-1.1941913694356845,0.230989202353555,-1.067624300022271,0.08419638127088547,0.9299185872077942,-0.3579975366592407,0.05159616470336914,0.10388612747192383,0.022240402176976204
0.4962007999420166,0.015545733273029327,0.029705822467803955,-0.00316774845123291,-1.1669558308637564,0.24851380347293398,-1.054348246644628,0.09665212035179138,0.9195586442947388,-0.3808809220790863,0.5224809646606445,-0.023175064474344254,0.17603068053722382
0.5181789398193359,-0.017832547426223755,0.012804627418518066,-0.183691143989563,-1.1437283273688728,0.21836843634004097,-1.0427218423698836,0.08973191678524017,0.9101840853691101,-0.4043674170970917,0.4551500976085663,-0.04916014522314072,-0.08085829019546509
0.5374348163604736,0.006893232464790344,0.01753842830657959,-0.0010328888893127441,-1.1076065264115293,0.19313520983273083,-1.0669726163299258,0.08575809001922607,0.8946318626403809,-0.4384966194629669,0.4843369424343109,-0.06563393026590347,0.00696157943457365
0.5583407878875732,-0.025918669998645782,-0.026546120643615723,-0.048017680644989014,-1.0617828533497036,0.16033304229830606,-1.0796341283376945,0.0777985155582428,0.8732256889343262,-0.48106566071510315,0.025959180667996407,-0.0546451061964035,0.049535609781742096
0.5766148567199707,0.01518712192773819,0.012104630470275879,0.019371449947357178,-1.0664674480979,0.16221886705712102,-1.0777569444281285,0.07804403454065323,0.8754989504814148,-0.47687581181526184,-0.21052509546279907,0.040961578488349915,0.011638831347227097
0.598193883895874,-0.006911046802997589,0.008492708206176758,0.008531689643859863,-1.0726825208267925,0.17439693217502933,-1.0688126246665481,0.08289977163076401,0.8784852623939514,-0.4705221354961395,0.06264843046665192,0.0020918550435453653,-0.008257230743765831
0.6170797348022461,0.003424696624279022,-0.003843367099761963,-0.0003489255905151367,-1.0787997405086165,0.17226031854219664,-1.0738209477726688,0.0809716209769249,0.8813914656639099,-0.4653951823711395,-0.014876825734972954,0.009756876155734062,-0.027389854192733765
0.6363587379455566,-0.009367294609546661,-0.0038003921508789062,0.008876502513885498,-1.0820131382915508,0.17589570715200536,-1.074451857075177,0.08216692507266998,0.8829048871994019,-0.46230679750442505,0.022005945444107056,0.028366513550281525,-0.006413023918867111
0.6581768989562988,-0.011968351900577545,0.022841155529022217,-0.09135100245475769,-1.044069716703458,0.174639393471669,-1.0966739449815786,0.08734671026468277,0.8644572496414185,-0.4950595796108246,0.8011466264724731,0.19666551053524017,-0.027032457292079926
0.676433801651001,-0.012097924947738647,0.006194472312927246,0.04565119743347168,-0.8996299031761924,0.182523621290446,-1.1421845991357273,0.11288217455148697,0.7830967903137207,-0.6115692257881165,0.8827007412910461,0.39343902468681335,-0.01754886470735073
0.6971778869628906,-0.030513793230056763,-0.0724077820777893,0.18303966522216797,-0.7614778507507948,0.20614824894804618,-1.175096052947289,0.148158997297287,0.6899918913841248,-0.7084913849830627,0.5871140956878662,0.2908526360988617,0.060394469648599625
0.7164618968963623,-0.02296064794063568,-0.003922164440155029,0.00029581785202026367,-0.6754645943633235,0.21245927929615113,-1.1783610833295,0.1645621508359909,0.6252599358558655,-0.762869119644165,0.33885812759399414,0.021207669749855995,0.040475837886333466
0.7383558750152588,-0.02188722789287567,0.00839608907699585,0.005254387855529785,-0.6687899052874052,0.21965170321778205,-1.1791289528906546,0.1709502786397934,0.6200370192527771,-0.7657219171524048,0.04048481956124306,-0.009363820776343346,0.01953175663948059
0.756779670715332,0.021403148770332336,0.012192010879516602,0.05115842819213867,-0.6109038310451749,0.1944578876244772,-1.1926203103976183,0.1582842916250229,0.5736080408096313,-0.8036913275718689,0.6369738578796387,-0.16168278455734253,0.06237901374697685
0.7776899337768555,0.07116572558879852,-0.02967846393585205,-0.017253398895263672,-0.5720434938350937,0.17369712501519985,-1.1947268481333393,0.1453106552362442,0.541351318359375,-0.8281446099281311,0.042948365211486816,-0.08853720128536224,0.009839093312621117
0.79803466796875,-0.0391642302274704,-0.027941524982452393,-0.003352344036102295,-0.5738987185114902,0.1897877197727134,-1.1781386527798474,0.15842688083648682,0.5429102778434753,-0.8247116804122925,-0.062142688781023026,0.031443528831005096,-0.025903286412358284
0.8180837631225586,0.0001872628927230835,-0.0023380517959594727,-0.014029502868652344,-0.5725556598731598,0.17946514774856898,-1.1856853757980248,0.15003545582294464,0.5417819023132324,-0.8270197510719299,0.01960703730583191,0.042173050343990326,-0.04192887991666794
0.8363547325134277,0.008872434496879578,0.007731914520263672,0.016295790672302246,-0.6001824450776125,0.18765785439587404,-1.195530392928257,0.15395404398441315,0.564793050289154,-0.8107446432113647,-0.6022379994392395,0.14916127920150757,-0.11463362723588943
0.8566899299621582,-0.008552029728889465,-0.007083415985107422,0.032078325748443604,-0.6772680486365926,0.22188986162234628,-1.1841545473127362,0.1715005785226822,0.6266663670539856,-0.7601820230484009,-0.5821864604949951,0.16889841854572296,-0.048661209642887115
0.877694845199585,-0.011256799101829529,0.040593624114990234,0.013232290744781494,-0.7278454997521179,0.2514408640098857,-1.196278058799048,0.18575625121593475,0.6652626395225525,-0.7231322526931763,0.2672019898891449,0.10178489238023758,-0.15579865872859955
0.8966128826141357,0.05663396418094635,0.014369606971740723,0.009081363677978516,-0.7360426527816513,0.23839014064999128,-1.2124098652508954,0.17500966787338257,0.6713602542877197,-0.7201714515686035,0.2350604087114334,-0.05750090256333351,0.08559423685073853
0.9176239967346191,-0.010649070143699646,0.010162055492401123,0.0012946128845214844,-0.7199913839658701,0.24175798846034835,-1.1995557814278643,0.17999105155467987,0.659378170967102,-0.7299476861953735,0.37480562925338745,-0.03292471915483475,0.04438600316643715
0.9388346672058105,0.04371361434459686,0.09192854166030884,-0.05148780345916748,-0.822732491863534,0.2725279743542215,-1.1645052167113055,0.18309296667575836,0.7330072522163391,-0.6551162600517273,-0.3126398026943207,0.01120927557349205,0.02834474667906761
0.9560918807983398,0.02261751890182495,0.0046950578689575195,-0.00037926435470581055,-0.8545289689671688,0.2930192103651746,-1.1394410835019424,0.18964743614196777,0.7542617321014404,-0.628588080406189,0.13118386268615723,-0.028806937858462334,0.080786794424057
0.9781908988952637,-0.06191717088222504,-0.019999027252197266,0.056134700775146484,-0.8953383914121413,0.3027692057473323,-1.138202854760237,0.18642883002758026,0.78042072057724,-0.596814751625061,-0.15243412554264069,0.07197418063879013,-0.39685800671577454
0.9970569610595703,-0.06517205387353897,0.013361036777496338,0.039510250091552734,-0.8553675596569384,0.16913487937821203,-1.2978437819032749,0.11041431874036789,0.7548120617866516,-0.6465812921524048,1.4480412006378174,-0.19675466418266296,-0.7332406044006348
1.0169408321380615,0.10408840328454971,0.01106184720993042,0.15978467464447021,-0.47726473087892535,-0.016587180076153212,-1.460219292943394,-0.0147329643368721,0.4593512713909149,-0.8881324529647827,2.1380958557128906,-0.9287452697753906,-0.5673425793647766
1.037302017211914,0.075681671500206,-0.08057594299316406,-0.1470344066619873,-0.352412717187823,-0.12189286428987292,-1.4885191134677118,-0.11411856859922409,0.3451632559299469,-0.9315789341926575,-0.6841803193092346,0.23877683281898499,0.016592632979154587
1.0576868057250977,0.040700748562812805,0.02171263098716736,0.06503868103027344,-0.37160779085150036,-0.12708612480575865,-1.4883982067285721,-0.118093341588974,0.3631139397621155,-0.9242305755615234,0.04035082459449768,-0.30990350246429443,0.020931655541062355
1.0775599479675293,-0.014226511120796204,-0.05917319655418396,-0.0733572244644165,-0.3350606264079068,-0.16642221293338702,-1.4809068242552204,-0.1564430445432663,0.3288264274597168,-0.9313424229621887,0.1800927221775055,-0.01446661539375782,-0.09734991937875748
1.0969088077545166,0.016618013381958008,0.009487658739089966,0.03208810091018677,-0.3266265873020507,-0.1708948710882135,-1.4835653102474802,-0.1610729694366455,0.32084980607032776,-0.9333332180976868,0.05517883971333504,-0.004887846298515797,-0.03599470481276512
1.118135929107666,-0.10681304335594177,0.0457460880279541,-0.14070087671279907,-0.3279925430133962,-0.17791139706357773,-1.4694194508744036,-0.16753998398780823,0.32214322686195374,-0.9317478537559509,0.09571412205696106,-0.24123477935791016,0.23163801431655884
1.138753890991211,-0.018689438700675964,-0.03248068690299988,0.11536329984664917,-0.27161742654230875,-0.22289979537090612,-1.4372295469566971,-0.21295420825481415,0.2682899236679077,-0.9395057559013367,0.5831037163734436,-0.5093048214912415,-0.011319689452648163
1.158552885055542,0.014569491147994995,-0.1346607208251953,0.1875312328338623,-0.22195839122620115,-0.3134175344916597,-1.4329648005183242,-0.3007480502128601,0.22014039754867554,-0.9279487133026123,-0.9834765791893005,-1.1474592685699463,-0.1484697312116623
1.1790390014648438,0.2897700071334839,0.2855947017669678,-0.09502160549163818,-0.4064920782157743,-0.45984424957673203,-1.5786580999246875,-0.407644122838974,0.39538970589637756,-0.8230997920036316,0.10661542415618896,0.4516133666038513,0.09197142720222473
1.1968748569488525,-0.05644771456718445,-0.057738274335861206,-0.0649154782295227,-0.41079323468265394,-0.44548211808222876,-1.5799485807246085,-0.39504456520080566,0.39933669567108154,-0.8273270130157471,-0.16864342987537384,0.035093747079372406,-0.028182029724121094
1.2168769836425781,-0.0010909736156463623,0.03381985425949097,-0.01624166965484619,-0.46122634015733005,-0.4586899802040396,-1.6155278852452315,-0.39650726318359375,0.44504663348197937,-0.8029417395591736,-0.20954082906246185,0.004542939364910126,-0.0474131815135479
1.2379357814788818,0.01813817024230957,-0.006122559309005737,-0.004845559597015381,-0.4855142273149481,-0.4817104339351468,-1.6270904455534472,-0.4097549319267273,0.4666632115840912,-0.7837896943092346,-0.2925586700439453,-0.14752799272537231,0.006921456195414066
1.2575087547302246,-0.030702292919158936,0.012435227632522583,0.005302906036376953,-0.5081102004662846,-0.49754671788659915,-1.6426099932780736,-0.41697531938552856,0.48652705550193787,-0.7677388191223145,-0.1259327083826065,-0.006165275815874338,-0.0009864368475973606
1.2768559455871582,0.0043627917766571045,-0.01066523790359497,-0.0007923245429992676,-0.5196732254799449,-0.5101495897584198,-1.6540488518794354,-0.4238421320915222,0.4965965449810028,-0.7574626803398132,-0.06932920217514038,-0.01515069231390953,-0.004943782929331064
1.296806812286377,0.004252225160598755,0.009961247444152832,-0.004674196243286133,-0.530664072572678,-0.5136622741594812,-1.6631086356213,-0.42379260063171387,0.5061061978340149,-0.7511699199676514,-0.02857416868209839,0.009725362062454224,-0.013506820425391197
1.3183708190917969,-0.01899629831314087,-0.010319113731384277,0.014323949813842773,-0.5264954495167145,-0.49703561900323695,-1.6505675690681845,-0.41224756836891174,0.5025064945220947,-0.7599599361419678,0.04665081202983856,0.03412479907274246,0.01023128628730774
1.3374748229980469,0.011506319046020508,-0.007069885730743408,0.006902635097503662,-0.5206997180343234,-0.4919689559738863,-1.648991728862643,-0.4097606837749481,0.49748724699020386,-0.7645931243896484,0.021584859117865562,0.08939426392316818,0.015643127262592316
1.3583548069000244,0.0038320720195770264,0.0036752521991729736,0.02320784330368042,-0.5136219102945913,-0.4699885674789086,-1.6474657112352358,-0.39444175362586975,0.49133503437042236,-0.7765342593193054,0.04438062757253647,0.08275607973337173,-0.0016338587738573551
1.3776450157165527,-0.039354920387268066,0.1121273934841156,0.09941893815994263,-0.4918803439854846,-0.4421404999564765,-1.6320601126762848,-0.37714895606040955,0.47228413820266724,-0.7966846227645874,1.042372226715088,0.18159450590610504,0.17598319053649902
1.3979907035827637,0.06602814793586731,-0.2595239579677582,-0.06660330295562744,-0.4276194161475517,-0.43120297843355115,-1.6158667997992326,-0.38032862544059753,0.414705753326416,-0.8266615271568298,-0.3772471249103546,-0.17337317764759064,-0.6733710765838623
1.418482780456543,-0.0004266500473022461,0.28013134002685547,-0.14673691987991333,-0.44924444568954625,-0.4538341497922517,-1.6598103489806382,-0.39491328597068787,0.43428507447242737,-0.8095924854278564,0.6709614992141724,0.24782660603523254,0.3857898712158203
1.4386630058288574,-0.06733185052871704,-0.03774192929267883,-0.006566226482391357,-0.3813938289887908,-0.3914154419979032,-1.5801633563675064,-0.35408535599708557,0.37221449613571167,-0.8579509854316711,0.4544273614883423,0.21089522540569305,0.003897555638104677
1.4577107429504395,0.01120305061340332,0.02355194091796875,-0.0038306713104248047,-0.3148774280701407,-0.36047378210538816,-1.546326406880963,-0.33537599444389343,0.3096999228000641,-0.8897240161895752,0.74739009141922,0.05434875562787056,0.13101308047771454
1.4786419868469238,-0.05456170439720154,0.18264615535736084,-0.166953444480896,-0.24413386439326482,-0.3561246368112383,-1.477018652450704,-0.3383063077926636,0.24171596765518188,-0.909462571144104,-0.16514255106449127,-0.0818747729063034,1.2086498737335205
1.4960699081420898,0.07449284195899963,-0.07719230651855469,0.09231764078140259,-0.4351063116369945,-0.3072169743042545,-1.4463134693595847,-0.27423036098480225,0.4215068221092224,-0.8643665909767151,0.4566026031970978,-0.013133703731000423,0.28778818249702454
1.5190348625183105,-0.03184574842453003,0.03963962197303772,-0.3791660666465759,-0.4137450466188106,-0.37423613912625675,-1.38900720461476,-0.3347161114215851,0.4020411968231201,-0.8522487878799438,0.5270984172821045,0.2163010835647583,0.03207830339670181
1.5385990142822266,0.01890215277671814,-0.06729665398597717,0.03199416399002075,-0.4052977707469158,-0.35545308101543444,-1.399451307358548,-0.31982073187828064,0.394292414188385,-0.861538290977478,-0.2553298771381378,-0.032667458057403564,-0.1538970023393631
1.5589888095855713,0.028181016445159912,-0.313816636800766,0.14629244804382324,-0.3157728396136042,-0.33413279053252204,-1.374748188591073,-0.3117350935935974,0.3105511963367462,-0.8979861736297607,1.2407830953598022,0.19341085851192474,-0.44710564613342285
1.5789477825164795,-0.057204753160476685,0.09104828536510468,-0.026710867881774902,-0.23215256489041772,-0.32942406246910916,-1.3842961731410905,-0.3148197531700134,0.23007287085056305,-0.9208446741104126,0.11141099035739899,-0.05307171121239662,-0.10708896815776825
1.5967059135437012,0.021011382341384888,-0.0323825478553772,0.00758892297744751,-0.22479213764090722,-0.33257919301972433,-1.3814494291578994,-0.318267822265625,0.22290372848510742,-0.92142254114151,0.16857324540615082,-0.033225033432245255,0.034763239324092865
1.618236780166626,0.010955065488815308,-0.043125420808792114,0.013027846813201904,-0.20221552936822323,-0.3548077611509016,-1.3915019785334755,-0.3403312861919403,0.20084020495414734,-0.9186064600944519,0.22423191368579865,-0.4000436067581177,-0.29804936051368713
1.6372900009155273,0.031172573566436768,0.09979288280010223,-0.01845318078994751,-0.2303641466098611,-0.42236770970544424,-1.4207600770957498,-0.3990924656391144,0.22833207249641418,-0.88802570104599,-0.5278022885322571,-0.5167832970619202,-0.018586739897727966
1.6577098369598389,0.017765671014785767,0.10842229425907135,-0.09259355068206787,-0.2436359581398173,-0.44899174955309623,-1.4406118461716708,-0.4212385416030884,0.24123279750347137,-0.8742795586585999,0.3297783434391022,0.12100990116596222,-0.020815663039684296
1.6767518520355225,-0.0007442831993103027,-0.02316400408744812,-0.023394882678985596,-0.24633558763190047,-0.4549480947002135,-1.4463490637220318,-0.4261508285999298,0.24385181069374084,-0.8711668848991394,-0.2664646804332733,-0.039543915539979935,-0.038469698280096054
1.6977238655090332,-0.008625209331512451,0.018642574548721313,-0.0029833316802978516,-0.25392914162792085,-0.4630482748228005,-1.4626744677986177,-0.43235376477241516,0.251209020614624,-0.8660047054290771,0.05900581553578377,0.011749542318284512,0.018351569771766663
1.7173256874084473,0.006279617547988892,0.015283435583114624,-0.004493534564971924,-0.25861627333063486,-0.4626351078238663,-1.4638388686118355,-0.43146568536758423,0.2557430863380432,-0.8651201128959656,0.0032965862192213535,0.015664566308259964,-0.006476849317550659
1.737271785736084,0.00975567102432251,-0.0011138617992401123,-0.004758596420288086,-0.26380660378992327,-0.4589297091313949,-1.4685722075804926,-0.42766332626342773,0.26075735688209534,-0.8655111789703369,-0.08608276396989822,0.014948619529604912,0.0038400311022996902
1.7585020065307617,0.0066907405853271484,-0.01364201307296753,0.00012600421905517578,-0.2733663880420508,-0.46113665485160854,-1.4731322367688586,-0.4284436106681824,0.26997435092926025,-0.8622933626174927,-0.15025854110717773,-0.04467485100030899,-0.004432045854628086
1.777052879333496,-0.012832671403884888,-0.018941015005111694,-0.011509537696838379,-0.2809380039370603,-0.46610700178809633,-1.4759089541734487,-0.4317931532859802,0.2772569954395294,-0.8583025336265564,-0.1030091717839241,0.0082993283867836,-0.0031710639595985413
1.796675682067871,-0.018910527229309082,0.0018488168716430664,0.0052318572998046875,-0.290201685411768,-0.46372934581197006,-1.4889031424546282,-0.42858394980430603,0.28614547848701477,-0.8569927215576172,-0.06143142282962799,0.05434822663664818,-0.03644231706857681
1.8170838356018066,0.0030429065227508545,0.0012181997299194336,0.0020601749420166016,-0.3120489525908219,-0.4661272201184118,-1.510891217546719,-0.42772549390792847,0.3070092797279358,-0.8501741886138916,-0.17650309205055237,0.02049296535551548,-0.04716866835951805
1.836594820022583,-0.00797736644744873,0.025349944829940796,-0.005826592445373535,-0.3354596061433824,-0.4712736601035261,-1.5330458828737972,-0.42871391773223877,0.32920318841934204,-0.841326117515564,-0.11727998405694962,-0.025296714156866074,-0.022688571363687515
1.8572728633880615,-0.06258371472358704,-0.035696566104888916,-0.010994374752044678,-0.34187804665390453,-0.4665126146522771,-1.5412088435069793,-0.4237443804740906,0.33525705337524414,-0.8414531350135803,0.06340862065553665,0.28736329078674316,-0.24135874211788177
1.8754796981811523,-0.129115492105484,0.04603743553161621,-0.018438756465911865,-0.2915405254488092,-0.39406250638681406,-1.569494765814919,-0.3677411675453186,0.287428081035614,-0.8843932747840881,0.4496510326862335,1.0565906763076782,-0.3551420569419861
1.8964767456054688,-0.04651499539613724,0.3307323157787323,-0.1900773048400879,-0.2714982223465733,-0.09626888617699127,-1.5741117132260434,-0.09259939193725586,0.26817506551742554,-0.9589095115661621,-0.07456385344266891,2.79451847076416,0.5993520617485046
1.9163618087768555,-0.09459620714187622,0.2115950882434845,0.08830410242080688,-0.16937097201871593,0.37011173307483697,-1.304936124584706,0.35654374957084656,0.16856235265731812,-0.9189468026161194,0.4299471378326416,2.897841453552246,2.882436752319336
1.9364967346191406,-0.2087181806564331,-0.06524603813886642,0.06896352767944336,0.06358097402514781,0.7320719013602555,-0.9513663297520873,0.6670615077018738,-0.06353814154863358,-0.7422882318496704,0.20539407432079315,1.7639696598052979,2.6078643798828125
1.9564478397369385,-0.29004842042922974,-0.11587700247764587,0.16112583875656128,0.23213416280930568,0.8560149725327778,-0.8247256987247439,0.7349792718887329,-0.23005495965480804,-0.6378714442253113,0.10465788096189499,0.18848009407520294,0.31471648812294006
1.9771528244018555,-0.005398392677307129,-0.06704723834991455,-0.11656737327575684,0.20630952995717897,0.8179353480443241,-0.8187302557561036,0.7142605781555176,-0.20484909415245056,-0.6692298054695129,-0.135280042886734,-0.22869423031806946,-0.2996610403060913
1.9971246719360352,0.01249682903289795,0.032247915863990784,0.03575289249420166,0.21735053803470303,0.8264355537408802,-0.85911929327509,0.7182158827781677,-0.2156432569026947,-0.6615616083145142,0.0065248701721429825,0.08299779891967773,0.1073400005698204
2.018641948699951,-0.053101956844329834,-0.08602738380432129,0.003362715244293213,0.22270907069245624,0.8207368284569565,-0.8550237949077164,0.713578462600708,-0.22087259590625763,-0.6648464798927307,-0.3170357346534729,-0.10960520803928375,-0.1105867400765419
2.036292791366577,0.07488995790481567,-0.0074800848960876465,-0.05063462257385254,0.2654632412611765,0.8362768473125765,-0.9201394587109731,0.7161560654640198,-0.26235631108283997,-0.6467531323432922,0.6638069748878479,0.0842614695429802,0.0004476429894566536
2.0588159561157227,-0.015680968761444092,0.04005172848701477,0.09655559062957764,0.2893099645861473,0.8637601740627151,-0.923003719894366,0.7286935448646545,-0.28529092669487,-0.6225872039794922,0.23664118349552155,0.041272103786468506,0.14112669229507446
2.078173875808716,-0.07583606243133545,-0.11206245422363281,-0.38321876525878906,0.30389413136384075,0.8934455953122782,-0.9771875195912342,0.7435300350189209,-0.2992381751537323,-0.5980130434036255,2.472851276397705,0.7702628374099731,-0.7506246566772461
2.0987539291381836,-0.105174720287323,0.0007132589817047119,0.068450927734375,0.20077461555268786,0.9758077265900416,-1.0772883772018564,0.8115191459655762,-0.19942843914031982,-0.5492401719093323,0.4311223030090332,-0.046402353793382645,-1.227477788925171
2.1178598403930664,-0.04518604278564453,-0.04862868785858154,0.11555534601211548,0.10075740306770056,0.9084723008955992,-1.2648586971064957,0.7845657467842102,-0.10058701038360596,-0.6118322610855103,0.42544615268707275,-1.074475884437561,-1.4968143701553345
2.1382858753204346,-0.06291699409484863,-0.055567026138305664,0.05321180820465088,-0.07784714241644239,0.7779092976525362,-1.4411879650888442,0.6996661424636841,0.07776854187250137,-0.7102248072624207,-0.5759759545326233,-0.790593683719635,-2.04636549949646
2.157075881958008,-0.057793378829956055,0.009692519903182983,-0.00831836462020874,-0.32990809380166275,0.6085001716943584,-1.5833448199094393,0.5408102869987488,0.32395607233047485,-0.776258111000061,0.09947497397661209,-1.5180439949035645,-1.696641445159912
2.176888942718506,-0.03268134593963623,0.024029314517974854,-0.05011802911758423,-0.31949811200400274,0.3133640843147951,-1.8306728333978926,0.29266053438186646,0.3140901029109955,-0.9031595587730408,-0.12665827572345734,-1.070486307144165,-1.4308342933654785
2.1962478160858154,0.09599371254444122,0.06905829906463623,0.0005474686622619629,-0.3731173930825034,0.15343500037759117,-1.9976753252041095,0.1423180252313614,0.3645201027393341,-0.9202557802200317,-0.7510277032852173,-0.650444746017456,-0.8573587536811829
2.21724796295166,0.026348980143666267,-0.010419964790344238,-0.0006615519523620605,-0.64621752009349,-0.0023471519248521263,-2.1270909561878493,-0.0018738872604444623,0.6021708846092224,-0.7983649373054504,-2.255720853805542,0.9079669713973999,-0.48891738057136536
2.237766742706299,-0.1433248519897461,0.06348937749862671,-0.1069638729095459,-0.6024191310176075,0.01666642568196867,-2.0881873141149376,0.013731952756643295,0.566637396812439,-0.8238527774810791,0.24947811663150787,0.08933745324611664,0.045026034116744995
2.257535934448242,-0.005570597946643829,0.03934353590011597,-0.08218550682067871,-0.6121263245333355,0.022525263565778553,-2.0858451834211134,0.018433747813105583,0.5746089816093445,-0.8182204365730286,-0.022191928699612617,0.028347782790660858,0.05996082350611687
2.277010917663574,-0.030765164643526077,0.35149794816970825,0.22019684314727783,-0.7150540958170792,0.07804920280554219,-1.9984905973650484,0.05887184292078018,0.6556582450866699,-0.7527591586112976,-0.7919887900352478,-0.19164681434631348,1.0622317790985107
2.2975168228149414,-0.06444095075130463,0.34622079133987427,-0.09123492240905762,-0.683605910740279,0.2978539386829564,-1.6041325655813596,0.22752684354782104,0.6315928101539612,-0.7411625981330872,-0.28418150544166565,-0.31672829389572144,3.140895366668701
2.3175477981567383,-0.24565178155899048,0.1465083360671997,-0.08722841739654541,-0.48267283139521744,0.5712472131949693,-1.1015950107551833,0.4789128005504608,0.46414831280708313,-0.7451233267784119,1.1365680694580078,0.37476646900177,4.3726487159729
2.3375120162963867,-0.3229473829269409,-0.3726137578487396,-0.038958609104156494,-0.2530050802001628,0.8308924763414339,-0.7413353710861341,0.7150217890739441,0.25031450390815735,-0.6527528762817383,-0.2638932764530182,1.0843740701675415,1.2187608480453491
2.3581557273864746,-0.032344043254852295,0.07415732741355896,-0.054334402084350586,-0.15850007401165064,0.932491872513333,-0.7509270397995204,0.7930402159690857,0.15783725678920746,-0.5883657932281494,1.5345489978790283,0.46005234122276306,0.30750811100006104
2.3778467178344727,-0.0035541653633117676,-0.024966426193714142,0.17349481582641602,0.0723868151972957,0.9680751946263654,-0.9389804486746013,0.8216387033462524,-0.07232361286878586,-0.5654016733169556,1.6682051420211792,0.16714872419834137,0.57937091588974
2.3977348804473877,-0.016881704330444336,-0.019249185919761658,0.017145633697509766,0.17422734176420904,1.0046792597667233,-1.0209137176430734,0.83121258020401,-0.17334723472595215,-0.5282388925552368,0.27320724725723267,0.22711768746376038,0.029788488522171974
2.4163198471069336,-0.003698110580444336,-0.0063670724630355835,0.01809549331665039,0.17423108862452277,1.0229992629333136,-1.0163961248480096,0.8407493233680725,-0.17335091531276703,-0.5129228830337524,-0.2957819700241089,0.03760688379406929,-0.008643406443297863
2.4389257431030273,-0.011540889739990234,-0.021779224276542664,0.05455964803695679,0.12109462757400366,1.0361471151579504,-0.9358819142713705,0.8541463017463684,-0.12079889327287674,-0.5058078169822693,-0.6528319716453552,0.06075028330087662,-0.0072537800297141075
2.4589998722076416,0.0019121170043945312,0.014754019677639008,0.0023941993713378906,0.10738275305299727,1.0372687730827759,-0.909177659227565,0.8560588955879211,-0.10717649757862091,-0.5056443810462952,0.42050808668136597,-0.09823279082775116,0.12347553670406342
2.4777297973632812,-0.014174282550811768,-0.026362061500549316,0.032305121421813965,0.16445696527464168,1.023397614979795,-0.9756212978929412,0.8423601388931274,-0.1637166440486908,-0.513445258140564,0.09446988999843597,-0.1309458166360855,0.04395679756999016
2.4972219467163086,-0.020981431007385254,-0.02551509439945221,-0.025814354419708252,0.16005818611310227,1.0101871043558133,-0.9702867214739254,0.8361058831214905,-0.1593756526708603,-0.5249060392379761,-0.06892642378807068,-0.04164532944560051,-0.04116123169660568
2.5174126625061035,0.0039452314376831055,0.02122291922569275,-0.01760345697402954,0.15587124497473795,0.9932417920638064,-0.95917669583513,0.8276432752609253,-0.15524083375930786,-0.5393576622009277,0.01846001297235489,-0.04666556417942047,0.024214167147874832
2.5371947288513184,0.004002809524536133,-0.012285605072975159,0.023143649101257324,0.16114033938911201,0.9947695837976401,-0.9647009724501798,0.8277689218521118,-0.16044387221336365,-0.5376395583152771,-0.09271804243326187,-0.026284214109182358,0.006233979016542435
2.558283805847168,0.004072785377502441,0.015705257654190063,0.0020403265953063965,0.1602964588539254,0.9950247759382242,-0.9674609607533083,0.828019380569458,-0.15961086750030518,-0.537501871585846,-0.02413695678114891,-0.0179227776825428,-0.003908345941454172
2.5763988494873047,-0.014616310596466064,0.004256546497344971,-0.0007485747337341309,0.16174490618926557,0.994757176912035,-0.967932884035324,0.8276806473731995,-0.16104058921337128,-0.5375968217849731,0.05035441741347313,-0.013728564605116844,0.0050941999070346355
2.5975918769836426,-0.04510277509689331,-0.02125774323940277,-0.001343369483947754,0.15429571478829598,0.9891830049993932,-0.9655852716177893,0.825650691986084,-0.15368421375751495,-0.5428460836410522,-0.10851414501667023,-0.06283850222826004,-0.14926426112651825
2.6185569763183594,0.009805023670196533,-0.011813774704933167,0.019856393337249756,0.1332025816688673,0.9664304247518215,-0.9748120415269818,0.8155733942985535,-0.13280902802944183,-0.5632067322731018,0.023022498935461044,-0.18762624263763428,-0.15977150201797485
2.6362738609313965,0.02976095676422119,0.04715656489133835,-0.008437395095825195,0.10605583961860895,0.9543687573526537,-0.9828448227157648,0.8113644123077393,-0.10585713386535645,-0.5748756527900696,-0.06090600788593292,-0.03175719082355499,-0.1453346461057663
2.6574788093566895,-0.024501264095306396,0.00965554267168045,0.013164877891540527,0.08993113904075144,0.9570708272255033,-0.9498691209290799,0.8142044544219971,-0.08980996906757355,-0.5735897421836853,0.048152483999729156,-0.020922916010022163,0.02870398759841919
2.6765668392181396,-0.02836740016937256,0.004186660051345825,0.06594038009643555,0.06896909397914978,0.9474229270900254,-0.9601415323666985,0.8099834322929382,-0.06891442835330963,-0.5823894739151001,-0.4326295852661133,-0.33472442626953125,-0.454977422952652
2.696122884750366,-0.1023634672164917,-0.08305312693119049,0.06240016222000122,-0.09626322981402968,0.8992123364139786,-0.9612250803573001,0.7792126536369324,0.0961146280169487,-0.619346022605896,-0.24042391777038574,-0.6389439702033997,-1.341242790222168
2.717942714691162,-0.04311025142669678,-0.06535102427005768,0.042514145374298096,-0.25228380699434627,0.7063062666502622,-1.1793095602700692,0.6284830570220947,0.2496161162853241,-0.7366822957992554,0.21501027047634125,-1.030115008354187,-1.9269057512283325
2.7389237880706787,0.034768134355545044,-0.19466137886047363,0.012078344821929932,-0.6223379144049899,0.6217037242851339,-1.2258310729001858,0.473227322101593,0.5829363465309143,-0.6604853868484497,-5.412933826446533,0.03512135520577431,-2.1887271404266357
2.757600784301758,0.022333800792694092,0.17381936311721802,-0.03502213954925537,-1.0749917475475073,0.8281516844238433,-0.9943603192094461,0.35046887397766113,0.8795862197875977,-0.3217132091522217,-2.410507917404175,0.4790903627872467,-1.5098563432693481
2.779730796813965,-0.07734860479831696,0.14018911123275757,0.0658281147480011,-1.2659614536617094,0.8587999984310236,-1.0201609240300265,0.22722041606903076,0.9538965225219727,-0.19609254598617554,0.4997054934501648,0.3761884868144989,-0.9251564741134644
2.7982888221740723,0.024546444416046143,0.03132373094558716,0.049851417541503906,-1.2651284425167242,0.5763273767202464,-1.337061015621602,0.16399112343788147,0.953646183013916,-0.25232043862342834,0.7358854413032532,0.07573997974395752,-0.5844916701316833
2.8180179595947266,0.0011668950319290161,0.2148553729057312,-0.07327353954315186,-1.224800934897283,0.4136463834938314,-1.5191964632544923,0.1363147646188736,0.940738320350647,-0.3105308711528778,0.523306131362915,0.3071259558200836,-0.15201300382614136
2.8368330001831055,0.021517425775527954,0.042329490184783936,-0.0029045045375823975,-1.2327467797920681,0.4006438191463045,-1.547196317805548,0.12934617698192596,0.9434033036231995,-0.30538418889045715,-0.01978949084877968,0.16652341187000275,-0.04946715012192726
2.8565497398376465,-0.007076621055603027,0.023639976978302002,-0.020047754049301147,-1.2846231688013268,0.4765903877110844,-1.489204186878558,0.12949787080287933,0.9593311548233032,-0.2508264482021332,-0.34211084246635437,0.09597005695104599,-0.02147647738456726
2.876235008239746,-0.02564769983291626,-4.64320182800293e-05,0.005530193448066711,-1.3214377750595292,0.5466220429096318,-1.4278545257232758,0.12827827036380768,0.9690709114074707,-0.21082204580307007,-0.36386382579803467,0.06985420733690262,-0.004432193469256163
2.896606922149658,0.0015853345394134521,-0.002599060535430908,-0.0220644474029541,-1.3560968826213449,0.6356002710545137,-1.3443519101361967,0.12648165225982666,0.9770404696464539,-0.17144766449928284,-0.3171440660953522,0.05577976256608963,-0.023398391902446747
2.917797803878784,-0.0031978338956832886,-0.00388413667678833,0.001880049705505371,-1.392798651991592,0.7787771578596332,-1.208670896940709,0.1243678480386734,0.9842001795768738,-0.1260257214307785,-0.235451340675354,0.08584152162075043,-0.015252580866217613
2.936224937438965,-0.007953502237796783,0.008349776268005371,0.01938776671886444,-1.400031869980588,0.8018198925511173,-1.1914547878434756,0.12211974710226059,0.9854551553726196,-0.11817336082458496,0.060804642736911774,0.007190565578639507,0.011796056292951107
2.9567458629608154,0.0010150745511054993,-0.003969728946685791,-0.013781800866127014,-1.4013269871251073,0.7924139533124296,-1.2007142763867877,0.1200939193367958,0.9856743812561035,-0.11842052638530731,0.052897948771715164,-0.004668845795094967,-0.007436087820678949
2.977630853652954,0.001139909029006958,-0.004418551921844482,-0.008546814322471619,-1.3940107168026639,0.7464551584063359,-1.2453880862146192,0.11941975355148315,0.9844141006469727,-0.12910287082195282,0.08822488784790039,-0.02276928722858429,-0.0009625545935705304
2.997903823852539,-0.0037421733140945435,-0.0005202889442443848,-0.008595362305641174,-1.3893457466841581,0.7264427466765173,-1.2639845164864465,0.11986155062913895,0.9835829734802246,-0.13489845395088196,0.009044540114700794,-0.0046582818031311035,0.0032331293914467096
3.0193467140197754,0.0006104335188865662,-0.005449652671813965,-0.0049473196268081665,-1.3848394854884725,0.6996947337132001,-1.2886557481755054,0.11906424164772034,0.9827597737312317,-0.14144565165042877,0.05444873124361038,-0.011418361216783524,0.007623203098773956
3.036343812942505,0.0011231675744056702,0.007190585136413574,0.0058838725090026855,-1.3772830813316532,0.6771139007248093,-1.3096402024994684,0.12048935890197754,0.9813346862792969,-0.14988119900226593,0.15920281410217285,-0.03624647855758667,0.01757313683629036
3.0565409660339355,-0.003572523593902588,-0.012769639492034912,-0.009519875049591064,-1.360549768729841,0.6262185537736252,-1.355412025692182,0.1223163902759552,0.9779794812202454,-0.16909968852996826,0.062331877648830414,-0.029477877542376518,0.018721098080277443
3.078782796859741,-0.0014971494674682617,-0.13322770595550537,-0.0040673017501831055,-0.887483368158792,0.3248984883155543,-1.8002613140459085,0.20153982937335968,0.7754852771759033,-0.5983344912528992,-0.6380106210708618,0.05974360927939415,-0.014252398163080215
3.0972588062286377,-0.032794490456581116,-0.05263477563858032,-0.0035387277603149414,-0.95264026135273,0.3493514135301499,-1.7797931899800645,0.19836758077144623,0.8149484395980835,-0.5445265769958496,-0.6893334984779358,0.023742377758026123,-0.19140677154064178
3.116252899169922,-0.06186714768409729,0.06955575942993164,0.05593785643577576,-1.035079025414632,0.34235550489728456,-1.7727575367052515,0.1713641732931137,0.8599026799201965,-0.48083415627479553,-0.3619089126586914,-0.07827169448137283,-0.19711840152740479
3.1397178173065186,0.019187554717063904,-0.07064276933670044,-0.0106123685836792,-1.0122898095797814,0.31984793362735253,-1.7746512296805557,0.1666186898946762,0.8480474948883057,-0.5030444264411926,0.3389412760734558,-0.2248561680316925,0.09059803187847137
3.156765937805176,-0.010139793157577515,-0.008502066135406494,-0.009709835052490234,-0.9366973242050264,0.26714594588611734,-1.8093025999377448,0.15639525651931763,0.8056058287620544,-0.5714365243911743,0.030852060765028,0.012004850432276726,-0.01637130230665207
3.1761927604675293,-0.00047129392623901367,0.010640382766723633,0.00879281759262085,-0.937405489009006,0.26015613300175916,-1.817267133607063,0.15225045382976532,0.8060251474380493,-0.5719643235206604,-0.038432978093624115,0.01835932955145836,-0.014852077700197697
3.199862003326416,0.01017637550830841,0.01581674814224243,0.006461977958679199,-0.9400594526975531,0.26257439308812225,-1.8169792049518867,0.1530773788690567,0.8075931668281555,-0.5695266127586365,0.021811148151755333,-0.010458113625645638,-0.008717101067304611
3.2180447578430176,-0.013654753565788269,0.017446696758270264,0.022192180156707764,-0.9368368872782333,0.2625364948766149,-1.813545023004884,0.1537303924560547,0.8056885004043579,-0.57204270362854,0.06320739537477493,-0.08391554653644562,0.057410068809986115
3.239766836166382,-0.01093873381614685,0.18912607431411743,0.22050446271896362,-0.9910193672418628,0.31179446623620055,-1.7130864279602553,0.16805845499038696,0.8365848660469055,-0.5214231014251709,-1.1477283239364624,-0.7022408843040466,0.8591570258140564
3.258080005645752,0.014540642499923706,0.3560366630554199,0.13189160823822021,-1.02739225395307,0.5160596642159709,-1.3726684634424287,0.2551431357860565,0.855953574180603,-0.44971704483032227,-1.953589916229248,-1.2532585859298706,2.2061753273010254
3.277402877807617,-0.13934791088104248,0.26043373346328735,-0.050530314445495605,-1.0087743138814431,0.9057500968250739,-0.7094376074878631,0.4193313419818878,0.8461793065071106,-0.32884910702705383,-1.77926766872406,-2.151811122894287,2.936357021331787
3.2997326850891113,-0.2216942310333252,-0.04616504907608032,-0.218102365732193,-0.8239018692459376,1.13460448860528,-0.09318601919961873,0.6157522797584534,0.7338021993637085,-0.28702470660209656,-1.4631673097610474,-1.7404310703277588,2.562108039855957
3.319098949432373,-0.174088716506958,0.048123061656951904,-0.31524333357810974,-0.7192242427842759,1.214137109293369,0.20062039819636432,0.7049723267555237,0.658801257610321,-0.2626681327819824,-0.5189869999885559,-0.720106303691864,1.2462207078933716
3.337845802307129,-0.06590777635574341,-0.058149874210357666,-0.02646923065185547,-0.6768901977481437,1.2399485879929446,0.30542671433892526,0.7372485995292664,0.6263718605041504,-0.2532244920730591,-0.4653926491737366,-0.2753366529941559,0.31985190510749817
3.3584558963775635,-0.020751535892486572,-0.0019932985305786133,-0.07474462687969208,-0.6678349535773334,1.2608721142744248,0.3802251106840428,0.7477563619613647,0.6192875504493713,-0.23946444690227509,-0.5384999513626099,-0.1732739359140396,0.24164524674415588
3.3767600059509277,-0.09692138433456421,-0.2135125994682312,-0.01052796095609665,-0.7077521876621004,1.4276851275589022,0.6527502396771742,0.7520573139190674,0.6501274704933167,-0.1083686575293541,-3.481438636779785,0.20396150648593903,-0.27673932909965515
3.3998618125915527,-0.07701671123504639,-0.19411396980285645,-0.17787958681583405,-0.732367251498667,1.3913177966448231,0.5563817038739549,0.7316491603851318,0.6686317920684814,-0.1327437311410904,-0.02957434579730034,-1.23514986038208,-0.31057101488113403
3.4193906784057617,0.16613346338272095,-0.21274268627166748,0.21163737773895264,-0.7326308474748091,1.321152020886614,0.36821623085715527,0.7203715443611145,0.6688277721405029,-0.1836681365966797,-1.418471336364746,0.6515997648239136,-0.31534451246261597
3.43812894821167,-0.04554325342178345,-0.22315210103988647,0.1724674254655838,-0.7051792163009974,1.3055231206804903,0.33726551080650596,0.7348588705062866,0.6481702923774719,-0.19964344799518585,-0.20133115351200104,-0.3354940116405487,0.012132416479289532
3.4597396850585938,0.03489118814468384,0.07255172729492188,-0.056391388177871704,-0.7175227723809783,1.305083042420029,0.3732112356785107,0.7269953489303589,0.6575202345848083,-0.19785070419311523,-0.25828516483306885,-0.08216496556997299,0.08300581574440002
3.4772276878356934,0.0048024654388427734,-0.011426568031311035,-0.003260791301727295,-0.7085375316982582,1.3072521087838291,0.40126075710581316,0.7330971956253052,0.6507239937782288,-0.19780442118644714,-0.32660627365112305,-0.18696986138820648,0.1637808382511139
3.499706745147705,-0.009007811546325684,-0.08906424045562744,-0.004451856017112732,-0.7083377828212636,1.387736633720099,0.5549351680112344,0.7467548251152039,0.6505722999572754,-0.13824844360351562,-2.10245680809021,-0.03805636242032051,0.17115990817546844
3.5185928344726562,-0.09132981300354004,0.0274164080619812,-0.10909180343151093,-0.7206658528486719,1.4006362490852133,0.5577239788372994,0.7405147552490234,0.6598851084709167,-0.12723645567893982,1.8812434673309326,0.3282090425491333,-0.16754300892353058
3.537935733795166,0.1921866536140442,0.6973088383674622,0.14468398690223694,-0.6635382514508011,1.2138378691993967,0.28046172757015647,0.738156795501709,0.6159082055091858,-0.2752840220928192,4.792689323425293,0.07372405380010605,0.1392691284418106
3.557013988494873,0.04328596591949463,0.35688257217407227,-0.003026127815246582,-0.6898266407364614,1.2430162497546224,0.24989315723072555,0.7302887439727783,0.6364034414291382,-0.24833203852176666,1.3110713958740234,0.21517109870910645,0.2652515172958374
3.5795397758483887,-0.01649630069732666,-0.049767911434173584,0.04899522662162781,-0.6905637554059131,1.2337360938906965,0.2726017416576662,0.7275099754333496,0.6369718909263611,-0.25494328141212463,-0.49153321981430054,-0.24633553624153137,-0.017439652234315872
3.599167823791504,0.007338345050811768,0.039499640464782715,-0.05919419229030609,-0.6927778658014563,1.2467700236333112,0.32679646699188125,0.7294321060180664,0.6386771202087402,-0.24498988687992096,-0.25337111949920654,-0.18701735138893127,0.16933704912662506
3.6189918518066406,0.005777120590209961,0.03312325477600098,-0.013600915670394897,-0.6834123542883492,1.2500501988249488,0.3604100315296419,0.7358761429786682,0.6314427256584167,-0.24447107315063477,-0.1336926519870758,-0.1657484471797943,0.257205069065094
3.637537956237793,-0.021381139755249023,-0.07511180639266968,0.015880107879638672,-0.6803717693191774,1.2827772826131636,0.43070891516383886,0.7453190088272095,0.6290820837020874,-0.22080574929714203,-1.3070471286773682,-0.038984209299087524,0.13023795187473297
3.6573328971862793,-0.10664218664169312,0.06944948434829712,-0.23567020893096924,-0.711388737169049,1.4098275951454593,0.6246032459949311,0.7476637959480286,0.6528863310813904,-0.12140084058046341,0.8752402663230896,0.1705169975757599,-0.08551496267318726
3.6768946647644043,-0.20705145597457886,-0.2765141725540161,0.0833892822265625,-0.7208973593623462,1.3350070106375107,0.502988279558797,0.7304278016090393,0.6600590348243713,-0.17549143731594086,-1.7295576333999634,-0.22983422875404358,0.9374269247055054
3.6966638565063477,0.0636293888092041,-0.24149280786514282,0.18237516283988953,-0.6325947459139762,1.108990584038639,0.12509577939072802,0.7220149636268616,0.5912393927574158,-0.3593466877937317,1.6614606380462646,0.06792377680540085,-0.26412075757980347
3.7193570137023926,-0.007701575756072998,0.14047092199325562,0.011769235134124756,-0.5447866989821845,0.9737604012880565,-0.10915580134595843,0.7072864174842834,0.5182356834411621,-0.48080921173095703,3.631239652633667,-0.029545700177550316,0.16393119096755981
3.7387948036193848,-0.06032097339630127,-0.37475982308387756,0.172185480594635,-0.47160769438284844,0.9133663562341545,-0.21509152960004063,0.7051572203636169,0.4543190598487854,-0.544377863407135,-2.807788848876953,0.025014039129018784,-0.3089545667171478
3.757347822189331,0.006964325904846191,-0.1027989387512207,0.07525593042373657,-0.5904839417114366,0.990243350272581,-0.06868368677200429,0.6945735812187195,0.5567631125450134,-0.45561185479164124,-1.805940866470337,-0.04526340961456299,-0.22754929959774017
3.778911828994751,0.03532540798187256,-0.00274580717086792,0.040127068758010864,-0.6971801895517705,1.0707569091389717,0.07467481129399196,0.6727890372276306,0.6420584321022034,-0.36758074164390564,-1.437996506690979,-0.06054036691784859,-0.2375376671552658
3.797661781311035,0.0464709997177124,0.04860794544219971,0.10502928495407104,-0.7756800729448425,1.1670185092190077,0.24449251518417303,0.656531810760498,0.7002017498016357,-0.2805054783821106,-1.6173490285873413,-0.36804458498954773,-0.1013479232788086
3.8194327354431152,0.052006661891937256,-0.05921286344528198,-0.014913782477378845,-0.8013789800658312,1.2202507350373362,0.41518912801566554,0.6534069776535034,0.7183161377906799,-0.23891624808311462,-1.3376299142837524,-0.6983751654624939,0.23866863548755646
3.8377268314361572,-0.08706164360046387,-0.09757423400878906,-0.03184349834918976,-0.8249167853004039,1.2931469352374194,0.5894885947513975,0.6526286005973816,0.7344912886619568,-0.1860063672065735,-1.3553645610809326,-0.3312825560569763,0.10740483552217484
3.8567519187927246,-0.03463387489318848,-0.010474622249603271,-0.04303114116191864,-0.8276602677922162,1.3495424593392669,0.6834687929259394,0.6601067185401917,0.7363502979278564,-0.14848200976848602,-0.3174593448638916,-0.02164827287197113,0.09286709129810333
3.8779869079589844,-0.022924721240997314,-0.02129983901977539,0.053050100803375244,-0.8287308758324797,1.3683390849488972,0.6922814514863156,0.6620084643363953,0.7370742559432983,-0.1358901709318161,0.09066546708345413,0.14245189726352692,-0.2659458816051483
3.8965718746185303,-0.05642606317996979,-0.019662363454699516,0.06696796417236328,-0.030699250032716067,-0.13457951244309466,-2.323559521216272,-0.13411042094230652,0.030694428831338882,-0.9904909133911133,-0.29732564091682434,0.07263889908790588,-0.0860036164522171
3.920405864715576,-0.0022731274366378784,0.0137193463742733,0.0024204254150390625,-0.037391007211849056,-0.11892426085225219,-2.3164790257846084,-0.11856120824813843,0.03738229349255562,-0.9922428131103516,-0.08012047410011292,0.14185002446174622,0.1150919646024704
3.9374709129333496,0.014653846621513367,0.07164334505796432,0.027751564979553223,-0.03619837948951844,-0.12613920647090396,-2.3148329352348616,-0.12572255730628967,0.03619047626852989,-0.9914051294326782,0.31875845789909363,-0.10637088119983673,-0.11986058950424194
3.9562668800354004,0.0056555792689323425,-0.05854343622922897,-0.005608797073364258,-0.07327263392925794,-0.12135986412235375,-2.3376577628021336,-0.12073734402656555,0.07320708781480789,-0.9899814128875732,-0.8006023168563843,0.04531193897128105,-0.13296598196029663
3.9779298305511475,-0.013339348137378693,0.09686990082263947,-0.0006069540977478027,-0.10749957158594262,-0.11148074144310104,-2.326617552515058,-0.11060778051614761,0.10729264467954636,-0.9880557656288147,0.51560378074646,0.05507970601320267,0.22674375772476196
3.9993557929992676,-0.020064570009708405,-0.19687461853027344,0.06866961717605591,-0.07972573422748214,-0.11880529863594391,-2.317042094360294,-0.1181495264172554,0.07964130491018295,-0.9897969365119934,-0.743735671043396,0.05825828015804291,-0.1438116580247879
4.017542839050293,0.01037520170211792,-0.06378794461488724,0.004940330982208252,-0.10134531872966217,-0.11233700699480846,-2.327538435591074,-0.11152568459510803,0.10117192566394806,-0.988598108291626,-0.29118290543556213,0.03553050383925438,-0.0070595089346170425
4.038585662841797,-0.0001665651798248291,0.09376008808612823,-0.006748318672180176,-0.10013268504035717,-0.10216065600711162,-2.320492149268667,-0.10147219896316528,0.09996543824672699,-0.98980313539505,0.2953588664531708,0.06814144551753998,0.0510176420211792
4.056363821029663,-0.0045935288071632385,-0.026340685784816742,0.01168358325958252,-0.11058074701709823,-0.10356852911321086,-2.320326085970135,-0.10275202989578247,0.11035551875829697,-0.9885664582252502,-0.22029249370098114,-0.006368918810039759,-0.012335210107266903
4.076643943786621,-0.005200035870075226,-0.03834250569343567,0.012588322162628174,-0.10018599901542391,-0.10663486305420442,-2.3197513087624135,-0.10589918494224548,0.10001848638057709,-0.9893339276313782,0.016357313841581345,-0.025062888860702515,-0.004417333751916885
4.096946716308594,-0.003947138786315918,0.009590879082679749,0.005445003509521484,-0.10200554303494043,-0.10880079781429862,-2.320770433329731,-0.10802183300256729,0.10182873904705048,-0.988919734954834,0.0035660183057188988,0.0021994467824697495,0.005162179470062256
4.118276834487915,0.007695302367210388,-0.0076776593923568726,0.0034803152084350586,-0.09885722278526922,-0.11135788118509082,-2.3211595539292436,-0.1105853021144867,0.0986962839961052,-0.9889539480209351,0.003978381864726543,-0.03508862853050232,0.007642877288162708
4.13755989074707,-0.002370283007621765,-0.03264705836772919,0.011120855808258057,-0.10326501210751221,-0.10959186031167552,-2.322596262799303,-0.10878998041152954,0.10308157652616501,-0.9887056946754456,-0.1505095362663269,0.03943612053990364,-0.11616192013025284
4.156423807144165,-0.0014999285340309143,-0.0069575235247612,0.00924617052078247,-0.09890023682130472,-0.11352459390731943,-2.3244270842667714,-0.1127273365855217,0.09873908758163452,-0.9887078404426575,0.0324101559817791,-0.014806968159973621,-0.003518574172630906
4.1766357421875,-0.0006510317325592041,-0.004704207181930542,0.006350398063659668,-0.09655945802035028,-0.11401739046394452,-2.3243013508960457,-0.11324054002761841,0.09640947729349136,-0.9888790845870972,-0.00046172039583325386,0.0039308564737439156,-0.0006789967883378267
4.195623874664307,-0.0026065483689308167,-0.011045761406421661,0.007255613803863525,-0.09627739159314688,-0.11367240391892751,-2.3242765580249873,-0.11290246993303299,0.09612872451543808,-0.9889450669288635,-0.01867770217359066,0.011988427489995956,-0.012483576312661171
4.21781587600708,-0.0004698634147644043,-0.011592797935009003,0.014688193798065186,-0.09576922861935044,-0.11300387020162166,-2.3237944801302928,-0.1122467890381813,0.09562289714813232,-0.9890686869621277,-0.01695755124092102,0.012079241685569286,0.007396110333502293
4.2387189865112305,-0.0009864643216133118,0.0039312392473220825,0.004011392593383789,-0.09846160811744223,-0.11076772341176189,-2.324362129927301,-0.1100059524178505,0.09830259531736374,-0.9890577793121338,-0.03595047444105148,0.02905520610511303,-0.001125055132433772
4.257467746734619,-0.00489729642868042,-0.00504661351442337,-0.0003300905227661133,-0.10036880816655186,-0.1071279368593819,-2.3238248766594793,-0.10638502985239029,0.10020037740468979,-0.9892634153366089,-0.06515531241893768,0.05169225111603737,0.006240952759981155
4.278444766998291,0.006580516695976257,0.0040755197405815125,0.005992531776428223,-0.09931331616963662,-0.10115308461271752,-2.322413074354504,-0.10048308968544006,0.0991501435637474,-0.9899860620498657,0.04344910755753517,0.06507596373558044,0.02420957013964653
4.299165725708008,0.002514384686946869,0.0035625100135803223,0.004353463649749756,-0.09662434357209053,-0.09831485348951734,-2.322277647488115,-0.09769869595766068,0.0964740589261055,-0.9905290007591248,0.05199624225497246,0.006881816312670708,-0.00410457095131278
4.319962978363037,-0.013318315148353577,-0.008935496211051941,0.022482335567474365,-0.09078617465737447,-0.09714285747792271,-2.320729820732169,-0.09659071266651154,0.09066151082515717,-0.9911864995956421,0.14143840968608856,0.05593298003077507,0.06166166067123413
4.339432716369629,0.010520361363887787,-0.002298697829246521,0.004853606224060059,-0.09771469526159138,-0.0897118110092237,-2.3179465402192667,-0.08916414529085159,0.09755927324295044,-0.9912275075912476,-0.08792359381914139,0.07508155703544617,0.035513728857040405
4.357776880264282,-0.00020533055067062378,-0.007044784724712372,0.009011924266815186,-0.09604425322745938,-0.08675909860222317,-2.3170065094531123,-0.08625095337629318,0.0958966612815857,-0.9916474223136902,-0.0341525599360466,0.02998642437160015,-0.001613777712918818
4.376381874084473,0.002688661217689514,0.0038245096802711487,-0.000635683536529541,-0.09418450397544914,-0.08273915024903304,-2.3164145757710912,-0.08227849006652832,0.09404531866312027,-0.9921621680259705,0.004938903730362654,0.030698200687766075,0.0023874095641076565
4.398269891738892,0.00442107766866684,-0.0010635331273078918,0.003911316394805908,-0.09221278972718784,-0.08124067940572301,-2.317493544052522,-0.08080656826496124,0.09208215773105621,-0.9924672245979309,-0.016042757779359818,-0.022327467799186707,-0.0061979955062270164
4.4174768924713135,0.002410680055618286,0.0006042271852493286,0.006738424301147461,-0.09344952380988074,-0.08128459419046216,-2.3186674188583454,-0.08084084093570709,0.09331356734037399,-0.99234938621521,-0.03025427833199501,-0.019253380596637726,-0.018893813714385033
4.439163684844971,0.006635136902332306,-0.005537375807762146,0.0036243796348571777,-0.09655336203123172,-0.08256775576237725,-2.321402753084732,-0.08208983391523361,0.09640341252088547,-0.9919514060020447,-0.015342691913247108,-0.02546156384050846,-0.0056187864392995834
4.458586692810059,0.0020351260900497437,-0.009281933307647705,0.006718277931213379,-0.09760205882066474,-0.08230750486368019,-2.3220140089402794,-0.08182331919670105,0.09744717180728912,-0.9918714761734009,-0.005461432039737701,0.009659050032496452,0.0006315296050161123
4.475945949554443,0.0008432716131210327,0.013126775622367859,0.0011554360389709473,-0.1002459406856377,-0.08146578470869048,-2.321583279212453,-0.08096716552972794,0.10007812827825546,-0.9916797280311584,-0.011605664156377316,0.0040223803371191025,-0.00021893263328820467
4.49807071685791,-0.0008858069777488708,0.009991280734539032,0.0023459792137145996,-0.10322901222397368,-0.07920802675805522,-2.320739939742533,-0.07870401442050934,0.10304576903581619,-0.9915580153465271,-0.02988494746387005,0.016615580767393112,-0.010039983317255974
4.517033815383911,0.00911024957895279,-0.006594210863113403,0.0018728375434875488,-0.09999189707276665,-0.08139882777301834,-2.32265894328325,-0.0809028297662735,0.09982535243034363,-0.9917104840278625,0.038508474826812744,-0.04716961085796356,0.003535267896950245
4.536870002746582,-0.0003097057342529297,0.00013546645641326904,0.0021651387214660645,-0.10083482835310927,-0.08089265363205518,-2.322578133260969,-0.08039401471614838,0.10066404193639755,-0.9916670322418213,-0.009954464621841908,0.010441930033266544,-0.0025178708601742983
4.559305667877197,0.0005111843347549438,0.0008643567562103271,0.003879845142364502,-0.10154389910658691,-0.08257280299884089,-2.324343078319322,-0.08205413818359375,0.10136948525905609,-0.9914591908454895,-0.00756797892972827,-0.007521713152527809,-0.02511649765074253
4.578662872314453,0.031113319098949432,-0.003167450428009033,0.005288243293762207,-0.08819686133399755,-0.08836447820839458,-2.320436864743535,-0.08790651708841324,0.08808256685733795,-0.9922267198562622,0.14843609929084778,-0.18997372686862946,0.060884445905685425
4.5987348556518555,0.011947296559810638,0.0418868213891983,0.004275023937225342,-0.09410093872504827,-0.08962691924792052,-2.319004484553499,-0.08911097049713135,0.09396212548017502,-0.9915797114372253,0.13515427708625793,-0.028826292604207993,0.046959083527326584
4.617559909820557,-0.007147900760173798,-0.028786875307559967,0.012338995933532715,-0.10002899665170444,-0.08928738067295186,-2.318522602819184,-0.0887230634689331,0.09986227005720139,-0.9910377264022827,-0.2725045680999756,0.06937014311552048,-0.03445141017436981
4.639293670654297,0.0036561042070388794,0.0034306496381759644,0.000564277172088623,-0.11001128359432695,-0.08292614320334762,-2.3233171912191217,-0.08233040571212769,0.10978951305150986,-0.9905392527580261,-0.008714137598872185,0.03844205290079117,-0.027654940262436867
4.656794786453247,0.006233446300029755,0.002179861068725586,-5.364418029785156e-07,-0.11209889626104773,-0.08178852573004494,-2.326963295001637,-0.08118459582328796,0.11186426877975464,-0.9904016852378845,-0.00888131745159626,-0.0034413058310747147,-0.026542741805315018
4.6763997077941895,-0.0009860694408416748,-0.0024244412779808044,0.0035874247550964355,-0.11218716070777407,-0.08069338261510366,-2.328793805133798,-0.08009912073612213,0.11195197701454163,-0.9904801249504089,-0.007066013291478157,0.008871553465723991,-0.010298529639840126
4.6996259689331055,-0.0026588737964630127,0.02405383437871933,0.007228732109069824,-0.11677530236829256,-0.07641129564995001,-2.327183771491557,-0.07581707090139389,0.11651008576154709,-0.9902914762496948,0.046444401144981384,0.036533717066049576,0.024240877479314804
4.717704772949219,-0.0015220269560813904,0.012737594544887543,0.002327561378479004,-0.12101084195564875,-0.0746542371254553,-2.32720665827513,-0.07403948158025742,0.12071571499109268,-0.9899221658706665,0.0035862582735717297,0.022799264639616013,-0.002619513776153326
4.737619876861572,0.0025717467069625854,0.0023294761776924133,0.003959953784942627,-0.12250361637201164,-0.07217504147781717,-2.3283072704757886,-0.0715719684958458,0.12219744175672531,-0.9899218082427979,0.014647244475781918,0.01626848243176937,-0.0027846007142215967
4.759265899658203,0.0049580782651901245,0.006117038428783417,0.002075672149658203,-0.12226961469648562,-0.07096135833509978,-2.3286881027418183,-0.07037249207496643,0.121965192258358,-0.9900364875793457,0.01940952241420746,-0.008431625552475452,0.00891250278800726
4.776712894439697,-0.0006688088178634644,0.0025598108768463135,0.004748404026031494,-0.12277889753422397,-0.07047624225017571,-2.328407736577838,-0.06988781690597534,0.12247065454721451,-0.9900084137916565,0.013037975877523422,0.002684319391846657,-0.009817980229854584
4.797677993774414,-7.318705320358276e-05,0.0006547719240188599,0.00390470027923584,-0.12165430803631713,-0.07031291994929377,-2.329154704316298,-0.06973575800657272,0.12135445326566696,-0.9901565909385681,0.003348877187818289,0.0016007681842893362,-0.008329327218234539
4.817035675048828,-0.0028208866715431213,-0.002583041787147522,0.0013852119445800781,-0.12185712254798342,-0.07020566854571683,-2.32936023441952,-0.06962783634662628,0.12155576795339584,-0.9901394844055176,0.0016321102157235146,0.004140624776482582,0.0002745509846135974
4.838581800460815,0.00018864870071411133,-0.0024375617504119873,0.0016380548477172852,-0.12261758200307038,-0.06918323987942528,-2.3286719838312866,-0.06860904395580292,0.12231054902076721,-0.990117609500885,-0.015234647318720818,0.008515843190252781,0.003263380378484726
4.858745813369751,0.001883968710899353,-0.002790294587612152,0.004751682281494141,-0.12357264077699572,-0.06789841868272664,-2.3289001831174048,-0.06732890754938126,0.12325838208198547,-0.9900879859924316,-0.0019422643817961216,0.008325338363647461,-0.001336996559984982
4.87949800491333,0.007913120090961456,0.011145994067192078,-0.018504858016967773,-0.11954005953886314,-0.06837520767021443,-2.3289678601129573,-0.06783436983823776,0.11925556510686874,-0.9905436038970947,0.10291635245084763,-0.06252042949199677,0.036424990743398666
4.899044990539551,-0.0022682175040245056,-0.00018859654664993286,-0.001701056957244873,-0.11618769117904831,-0.06826728516297388,-2.327411775497156,-0.0677543580532074,0.11592645198106766,-0.9909442067146301,0.11682961881160736,0.005924321245402098,-0.012659040279686451
4.916459798812866,-0.024601809680461884,-0.019113712012767792,0.02227187156677246,-0.08946918115309763,-0.07556449590269919,-2.3213030987977237,-0.07519065588712692,0.08934986591339111,-0.9931581020355225,0.14694611728191376,-0.007231606170535088,-0.008940624073147774
4.937966823577881,-0.012474499642848969,-0.0772550106048584,0.015336036682128906,-0.09132840418619574,-0.07866284374224786,-2.3203550464817027,-0.07825425267219543,0.09120149910449982,-0.9927530288696289,-0.33454641699790955,0.07652667164802551,-0.02239162288606167
4.9573259353637695,0.004456929862499237,-0.007820084691047668,-0.001325070858001709,-0.11328680752230308,-0.06984137966582864,-2.330825454454728,-0.06933728605508804,0.11304464191198349,-0.9911676049232483,-0.0775298997759819,0.040642354637384415,-0.06258140504360199
4.9764978885650635,8.284300565719604e-05,-0.005827978253364563,0.0025978684425354004,-0.11593549194689219,-0.06694233895537123,-2.3342388039756727,-0.0664433017373085,0.11567594856023788,-0.9910622239112854,-0.005969084333628416,0.019225744530558586,-0.020992610603570938
4.996142864227295,0.00258471816778183,-0.012690581381320953,0.011201798915863037,-0.11497922747158815,-0.06770409252198013,-2.3365737825077506,-0.06720568239688873,0.11472605168819427,-0.991121232509613,-0.006479000207036734,0.0064705354161560535,-0.0034508949611335993
5.017724990844727,-0.0034113675355911255,-0.03358878195285797,0.003881096839904785,-0.1127612551695182,-0.06753360091594938,-2.3376438262975983,-0.06705371290445328,0.11252244561910629,-0.9913841485977173,-0.04367142915725708,0.01854521781206131,-0.005857975222170353
5.036482810974121,0.002813577651977539,-0.002432301640510559,-0.003853440284729004,-0.11112025792870499,-0.06750509137162455,-2.3395409980994697,-0.06703781336545944,0.11089172214269638,-0.991568922996521,-0.03447512164711952,0.0039668092504143715,-0.011534678749740124
5.0594258308410645,0.0041038841009140015,-0.04077387601137161,0.015224456787109375,-0.12408454582859253,-0.06308685840116356,-2.338396417120473,-0.06256029009819031,0.12376637011766434,-0.9903373718261719,-0.15474297106266022,0.051231347024440765,0.026792043820023537
5.077417850494385,-0.015788283199071884,0.0461040660738945,-0.003817141056060791,-0.11973966732241206,-0.055699295532954746,-2.3309016988448876,-0.05527188628911972,0.11945374310016632,-0.9913000464439392,0.0651908591389656,0.04616175591945648,-0.010191970504820347
5.099149703979492,0.008229199796915054,0.040628544986248016,-0.0037203431129455566,-0.11664869944769286,-0.05826419893496805,-2.3370726205477315,-0.05783551558852196,0.1163843423128128,-0.9915189146995544,0.2383008450269699,-0.10005804151296616,-0.10227042436599731
5.116842746734619,-0.002623036503791809,0.043377406895160675,-0.006242334842681885,-0.12056492462863169,-0.06475596044354422,-2.344656766649462,-0.0642409697175026,0.12027305364608765,-0.9906601309776306,0.06790800392627716,-0.0004017516039311886,0.007133215665817261
5.1362409591674805,0.0003394223749637604,0.08672639727592468,-0.003680884838104248,-0.12767039609938757,-0.0548752313972528,-2.336154596407587,-0.054401300847530365,0.12732385098934174,-0.9903681874275208,0.1296035200357437,0.10271362215280533,0.15898342430591583
5.157705783843994,-0.020342137664556503,0.03254693001508713,0.01930779218673706,-0.123590148920308,-0.055949753680000484,-2.3314272167788936,-0.0554940290749073,0.1232757568359375,-0.9908196330070496,-0.028629586100578308,0.004241825081408024,-0.09312854707241058
5.179593801498413,0.005126640200614929,0.05976438522338867,-0.00835728645324707,-0.9699615555380724,3.005843300488405,-3.0255640421190058,0.07650785148143768,0.8248639702796936,0.56013023853302,-0.737482488155365,0.09929661452770233,-0.20943866670131683
5.198121786117554,0.03657941520214081,0.1255996823310852,-0.0059049129486083984,-0.9340364115996423,3.034974990795968,-3.0033503931652996,0.06327404081821442,0.8040264844894409,0.5912163853645325,0.12915173172950745,0.10233049094676971,0.08714602887630463
5.216882705688477,-0.014380089938640594,-0.03439265489578247,-0.0316166877746582,-0.9620361634715628,3.018017811838006,-3.0354923935048603,0.0704866498708725,0.820357620716095,0.5674900412559509,0.24318252503871918,0.14356820285320282,0.13591623306274414
5.238781929016113,0.005367152392864227,-0.06580626964569092,0.036900460720062256,-0.8796058806944084,3.063736389733398,-3.0060972241688897,0.04957973212003708,0.7704877257347107,0.6355238556861877,-1.141600251197815,0.16612286865711212,-0.4544665217399597
5.256755828857422,0.0195103008300066,-0.028769373893737793,-0.03983175754547119,-0.8288781431752302,3.1258890434852367,-2.9397276532870773,0.010610537603497505,0.7371737957000732,0.6756194829940796,-0.2970291078090668,0.14650319516658783,-0.3429739773273468
5.278376817703247,-0.01670786738395691,-0.07137209177017212,-0.008804380893707275,-0.8398056088124095,-3.1096566999706154,-2.8992980818259637,-0.021317042410373688,0.7445133328437805,0.6672665476799011,-0.053247224539518356,0.16140525043010712,-0.38838204741477966
5.2980568408966064,0.00477294996380806,0.015004456043243408,-0.010595619678497314,-0.8191122931780878,-3.0750042236402195,-2.8703671797880697,-0.04543764516711235,0.7305399179458618,0.6813566088676453,0.002541113644838333,0.08076376467943192,0.010316348634660244
5.316555976867676,-0.01737971231341362,-0.045020103454589844,0.02660924196243286,-0.8426904418132057,-3.080538451878721,-2.8901126085424975,-0.04060371220111847,0.7464361786842346,0.6642171740531921,0.6529751420021057,0.03633362799882889,0.08504053950309753
5.337407827377319,0.0032378248870372772,-0.06882786750793457,-0.07884842157363892,-0.8490704853748683,-3.0843260550309197,-2.913194386657623,-0.03781425952911377,0.750666618347168,0.659597635269165,-0.5416377782821655,0.23339387774467468,0.11525086313486099
5.359224796295166,0.004829376935958862,-0.11243659257888794,0.04674261808395386,-0.7966981702974841,-3.048901620949789,-2.9219223477467406,-0.06470488011837006,0.7150517702102661,0.6960701942443848,-0.8449451327323914,0.36714544892311096,-0.2729393243789673
5.3771278858184814,-0.021514907479286194,0.1443580985069275,0.06958872079849243,-0.73542663249885,-3.0173790773324356,-2.90915498592817,-0.0918731689453125,0.6709035634994507,0.7358308434486389,-0.2777039706707001,0.11792728304862976,-0.10189980268478394
5.399429798126221,-0.002742461860179901,0.013166725635528564,-0.02131199836730957,-0.7311499580230408,-3.003153327794627,-2.9002287204659516,-0.1027262806892395,0.6677260994911194,0.7372846007347107,0.041281841695308685,0.049101706594228745,-0.009026913903653622
5.417140960693359,-0.01675877720117569,0.01485896110534668,-0.022649705410003662,-0.729779474448015,-3.002902072778263,-2.9037350970296187,-0.10303798317909241,0.666705310344696,0.7381646633148193,-0.3964034914970398,-0.09876258671283722,0.15684524178504944
5.43935489654541,-0.0032341182231903076,0.030115067958831787,0.0034799575805664062,-0.7111836715476926,-3.0329983465488217,-2.9326530367019084,-0.08210831135511398,0.6527309417724609,0.7531269192695618,0.24342502653598785,-0.06839882582426071,0.4012675881385803
5.456902980804443,0.009509861469268799,0.0035332441329956055,-0.040310442447662354,-0.7111847014518123,-3.0514545319557165,-2.9702341412141937,-0.0681951642036438,0.652731716632843,0.7545129060745239,-0.18613989651203156,0.1810966581106186,0.2291572093963623
5.478679895401001,-0.0009616240859031677,-0.019865810871124268,0.04186439514160156,-0.6778106718457996,-3.053328008796391,-3.0023186924541365,-0.06866424530744553,0.6270891427993774,0.77591472864151,-0.3906286656856537,0.1364625245332718,0.17222173511981964
5.496791839599609,0.027508437633514404,-0.10431414842605591,-0.009017586708068848,-0.6305124685476045,-3.055706653435099,-3.0336925358810554,-0.06928703933954239,0.5895587801933289,0.804747998714447,-0.6503979563713074,0.194249227643013,0.04312529414892197
5.517770767211914,0.004493109881877899,0.021343529224395752,0.007047116756439209,-0.5634688570629707,-3.0474277698213346,-3.040623596021399,-0.079490065574646,0.5341219902038574,0.8416617512702942,-0.2815278172492981,0.05434209853410721,-0.0011737674940377474
5.536669731140137,-0.0064542293548583984,-0.039074718952178955,-0.05530285835266113,-0.5653213594596453,-3.0581919795717907,-3.067174157772785,-0.07034328579902649,0.5356872081756592,0.8414813876152039,0.18373216688632965,0.08344876766204834,0.19599582254886627
5.557977676391602,0.009875461459159851,0.0006388425827026367,-0.024678409099578857,-0.5598796173010682,-3.057210001314407,-3.0732085335717487,-0.07141420245170593,0.5310841798782349,0.844304084777832,-0.17195680737495422,0.061595216393470764,0.0707058534026146
5.576635837554932,-0.017068028450012207,0.010376214981079102,0.04294395446777344,-0.5511306021139611,-3.0569988700517845,-3.0841425218102265,-0.07198228687047958,0.5236507654190063,0.848886251449585,-0.08063561469316483,-0.007360946852713823,0.11335379630327225
5.595469951629639,0.0035690292716026306,-0.000529170036315918,0.010849297046661377,-0.5490310070753224,-3.0592894358214275,-3.092589114357124,-0.07012788206338882,0.5218608975410461,0.8501425981521606,0.12494541704654694,-0.057444795966148376,0.026280174031853676
5.619175910949707,-0.01387951523065567,-0.14840078353881836,0.01848280429840088,-0.563204760090657,-3.0616105236859577,-3.0999585200010307,-0.06755666434764862,0.5338987112045288,0.84284508228302,0.08096358925104141,0.02946036122739315,-0.018887890502810478
5.639384746551514,0.0255337655544281,-0.0156516432762146,-0.011016547679901123,-0.5715124682809174,-3.0629687842681754,-3.1055405559159617,-0.0660611242055893,0.5409047603607178,0.8384851813316345,-0.036108385771512985,0.0746135488152504,-0.01190603245049715
5.659276008605957,-0.0006112158298492432,0.0068669915199279785,0.04051566123962402,-0.5648002559626327,-3.0542140823732344,-3.10180577182561,-0.07371436059474945,0.5352470874786377,0.8414725065231323,0.03759247809648514,0.0379258394241333,-0.022990450263023376
5.676699876785278,-0.005908317863941193,0.02317202091217041,0.011784970760345459,-0.5589842385184264,-3.053922752427764,-3.1026533375112244,-0.0742308646440506,0.5303252935409546,0.8445382714271545,-0.0829707607626915,-0.0007869333494454622,0.04233395308256149
5.697295665740967,0.003893449902534485,0.017051517963409424,-0.029763758182525635,-0.5749589998409205,-3.0547696172271723,-3.107115032826388,-0.07277162373065948,0.5438003540039062,0.836053192615509,0.5747330188751221,0.040437113493680954,0.055927932262420654
5.719206809997559,-0.012734584510326385,-0.02516716718673706,-0.05130404233932495,-0.6090865004088779,-3.056721179736224,-3.1033402292821157,-0.0695255845785141,0.5721184611320496,0.8172188997268677,0.11167269945144653,0.02902103029191494,0.06370332837104797
5.736755847930908,0.019357241690158844,0.023371219635009766,0.030048608779907227,-0.6061496698536375,-3.047179480862995,-3.0994595821433353,-0.07747799903154373,0.5697073340415955,0.8181872367858887,-0.0030486485920846462,0.0378233976662159,-0.024120505899190903
5.7580389976501465,0.0007078945636749268,0.009572148323059082,-0.010580241680145264,-0.6066574414991239,-3.0478775037059256,-3.0989946165046702,-0.07687980681657791,0.5701245665550232,0.8179532289505005,-0.0861608013510704,0.006901080254465342,0.025813378393650055
5.7764058113098145,-0.005763515830039978,-0.01464235782623291,-0.007034242153167725,-0.6067299833385708,-3.0448148027968363,-3.0973346587728554,-0.07938053458929062,0.5701841115951538,0.8176721930503845,0.006441712845116854,-0.0027220749761909246,-0.014080971479415894
5.797983884811401,0.011504650115966797,0.05884677171707153,0.053791821002960205,-0.6340891376692371,-3.045244765885129,-3.0917173925702044,-0.0774989128112793,0.5924439430236816,0.8018749356269836,0.27497434616088867,-0.05314449965953827,-0.007850686088204384
5.816005706787109,0.0006786957383155823,-0.019736170768737793,-0.021825850009918213,-0.6472032708600841,-3.045841855881529,-3.0905224823548614,-0.07627075165510178,0.6029576063156128,0.7941189408302307,0.005676413420587778,0.0551447719335556,-0.03591274842619896
5.836169719696045,-0.0025420337915420532,-0.0070503950119018555,-0.004059493541717529,-0.6448456501030305,-3.040795458031585,-3.088864889234466,-0.08042003214359283,0.6010751128196716,0.7951361536979675,-0.0345398485660553,0.025475919246673584,-0.006546216085553169
5.857032775878906,-0.004085913300514221,-0.0029348134994506836,-0.004184305667877197,-0.6420282062817559,-3.040035677561319,-3.08884729834038,-0.08119548857212067,0.5988210439682007,0.7967562079429626,0.01727939210832119,-0.006950996816158295,0.015096772462129593
5.878530979156494,-0.0153006911277771,0.006552934646606445,-0.004702746868133545,-0.6447213598154712,-3.0399058920505144,-3.087581683942975,-0.08113489300012589,0.600975751876831,0.795138418674469,0.011465153656899929,-0.008088788948953152,0.018663672730326653
5.899017810821533,-0.006175585091114044,-0.006446182727813721,-0.0042040348052978516,-0.6390805493061138,-3.0410608901619933,-3.0891585821051235,-0.08055539429187775,0.5964577198028564,0.798591673374176,-0.08974228799343109,-0.01467380952090025,0.01593061536550522
5.919282913208008,1.68532133102417e-05,-0.005804955959320068,0.00827711820602417,-0.6406206361251298,-3.0429759771228633,-3.0891395501260206,-0.07893529534339905,0.597693145275116,0.7978289723396301,0.39289912581443787,-0.07864471524953842,-0.004412790294736624
5.937776803970337,-0.006454087793827057,0.015173077583312988,0.005625128746032715,-0.6477424150436579,-3.039485163072866,-3.085862492186213,-0.08128396421670914,0.6033876538276672,0.7932942509651184,0.006488704588264227,0.02962823025882244,0.02632204256951809
5.957133769989014,-0.005148589611053467,-0.009601056575775146,0.011795639991760254,-0.6345021671897385,-3.036977354960644,-3.0919709576615024,-0.08410007506608963,0.5927766561508179,0.8009635806083679,0.030905015766620636,-0.0009300338570028543,0.028527112677693367
5.977602958679199,0.007480032742023468,-0.00507885217666626,-0.013121366500854492,-0.6438491545295433,-3.037595263595252,-3.089093853523556,-0.08302632719278336,0.600278377532959,0.7954698204994202,-0.01791679672896862,-0.004519087262451649,-0.007900821976363659
5.9961256980896,-0.007387563586235046,0.0013837814331054688,-0.002837657928466797,-0.6397813178560693,-3.038205855883872,-3.0901800689401444,-0.08279190212488174,0.5970200300216675,0.7979423999786377,-0.05138127878308296,-0.0004561688983812928,0.031214088201522827
6.017482757568359,-0.001397155225276947,-0.008963942527770996,0.0028371214866638184,-0.6387765745726991,-3.038023721336501,-3.0913941344222486,-0.08299924433231354,0.596213698387146,0.7985239028930664,0.06693295389413834,-0.005449507385492325,-0.015615258365869522
6.037793874740601,-0.0015562474727630615,0.0010544061660766602,0.0035889744758605957,-0.6401157230098895,-3.0368953143952226,-3.0903954497467807,-0.08381667733192444,0.5972882509231567,0.7976344227790833,0.007537257857620716,-0.003668739926069975,-0.019035236909985542
6.057941913604736,0.015041559934616089,-0.004896283149719238,0.018316268920898438,-0.6412002936846942,-3.0369107622760274,-3.090085175631666,-0.08373662084341049,0.5981577634811401,0.7969909906387329,0.09123332053422928,-0.019123507663607597,-0.017810504883527756
6.07736873626709,-0.003681264817714691,0.008152544498443604,-0.02228677272796631,-0.6279151549775877,-3.0427853837067804,-3.0941724592594904,-0.0798300951719284,0.5874588489532471,0.8053064942359924,-0.48525410890579224,-0.01821652427315712,0.04014802351593971
6.096181869506836,0.013604246079921722,0.01841127872467041,-0.010984480381011963,-0.5817723960175188,-3.0397345110961758,-3.093922512879908,-0.08495437353849411,0.5495055913925171,0.8311595916748047,-0.799026608467102,0.02152334339916706,-0.09649135172367096
6.119110822677612,-0.0170760378241539,0.007795572280883789,0.034737586975097656,-0.5467149378546243,-3.0378775359128967,-3.090427978330442,-0.08843851089477539,0.5198838114738464,0.8496463894844055,0.246499165892601,-0.06634055823087692,0.031311776489019394
6.138978004455566,0.014706343412399292,-0.0061424970626831055,-0.00606149435043335,-0.5532558341294255,-3.04223853382699,-3.095139868489895,-0.08439328521490097,0.5254601240158081,0.8466222882270813,0.006779427640140057,-0.005534195341169834,0.035691600292921066
6.1576337814331055,0.003417462110519409,0.023675203323364258,0.025794565677642822,-0.5639417279216954,-3.039299005832167,-3.089061568403351,-0.0863032117486,0.5345216989517212,0.8407362103462219,0.12625277042388916,0.0028185429982841015,-0.034378912299871445
6.176204681396484,-0.005348376929759979,-0.040893495082855225,-0.015205621719360352,-0.5810892256738577,-3.0424972645184267,-3.084514325915285,-0.08269485086202621,0.5489346981048584,0.8317641019821167,0.3152151107788086,-0.024419467896223068,-0.06844180077314377
6.197839736938477,0.01619647443294525,0.004809200763702393,-0.006194949150085449,-0.5871039990904591,-3.045656087883549,-3.085849400755406,-0.07974933832883835,0.5539522767066956,0.8287196755409241,0.04576081037521362,0.020260294899344444,-0.0102697080001235
6.218347787857056,0.005664370954036713,-0.0012999773025512695,0.005617797374725342,-0.6076886941519698,-3.0490453839775307,-3.090209685932995,-0.075870081782341,0.5709714889526367,0.8174563050270081,0.05630539357662201,-0.017184017226099968,0.002293037949129939
6.236599922180176,0.013918347656726837,0.030516743659973145,-0.0036449432373046875,-0.6146917107097203,-3.0484963044804405,-3.088867368487465,-0.07594534754753113,0.5767067074775696,0.8134133815765381,0.16118474304676056,0.02954735979437828,0.014054917730391026
6.2582807540893555,-0.0029684826731681824,0.008272767066955566,-0.007109642028808594,-0.622253649030319,-3.042081564842403,-3.084141267708158,-0.08072599768638611,0.5828678607940674,0.8085467219352722,-0.0678434669971466,0.023869143798947334,-0.009643238969147205
6.27773380279541,-0.0008972808718681335,-0.003633856773376465,-0.0036159753799438477,-0.6191831218588079,-3.0423807673622765,-3.087272924528962,-0.08066096156835556,0.5803701281547546,0.8103477954864502,-0.057590268552303314,0.005452319979667664,0.015632202848792076
6.298858880996704,-0.00454585999250412,0.005506992340087891,-0.003345489501953125,-0.622671736589666,-3.044418120245626,-3.0882047276074034,-0.07881291955709457,0.5832075476646423,0.808490514755249,0.030517365783452988,-0.014585303142666817,0.001398497261106968
6.316885948181152,0.003040328621864319,0.004653453826904297,0.0061675310134887695,-0.6188436738989621,-3.0464316223475185,-3.090868757629375,-0.07739642262458801,0.5800936818122864,0.8108639717102051,-0.08190663158893585,-0.0052590020932257175,0.026050280779600143
6.338472843170166,-0.0016692429780960083,0.013132870197296143,-0.0011976957321166992,-0.607709751119974,-3.046161855024861,-3.0929060798260104,-0.07822577655315399,0.5709887742996216,0.8172221779823303,-0.1262042373418808,0.01821516454219818,-0.01008402369916439
6.35645866394043,-0.0003426745533943176,-0.0002409815788269043,0.015093684196472168,-0.6116828429215537,-3.0447547627865603,-3.091741076388206,-0.07915563136339188,0.5742459893226624,0.8148468136787415,0.03639782592654228,0.021097948774695396,-0.04599757492542267
6.377785682678223,0.009514354169368744,0.012398183345794678,0.004416346549987793,-0.6072107182783557,-3.045095089462643,-3.0939120133567126,-0.07912495732307434,0.5705789923667908,0.8174217343330383,-0.07529294490814209,0.010555647313594818,0.040031418204307556
6.398097991943359,0.001400873064994812,0.000491023063659668,0.0049436092376708984,-0.6052674253353416,-3.046692852110616,-3.0964694254861036,-0.07792370766401291,0.5689820051193237,0.818649172782898,-0.004016347695142031,0.003723218571394682,0.0003803056897595525
6.416301727294922,-0.001028202474117279,-0.0020357370376586914,0.0010341405868530273,-0.6050003451456496,-3.0459686044531886,-3.095948729549743,-0.07853114604949951,0.5687623620033264,0.8187442421913147,-0.004544133320450783,0.00988080259412527,-0.005702505819499493
6.436791896820068,-0.0009787678718566895,0.0005976557731628418,0.0012431740760803223,-0.599859936731576,-3.0450583210235567,-3.0970322124663965,-0.07955716550350189,0.5645268559455872,0.8215717673301697,-0.03349463641643524,0.010692977346479893,0.008394376374781132
6.457770824432373,-0.005560792982578278,-0.003127753734588623,-0.0001550912857055664,-0.6011201807343839,-3.0464298732079396,-3.0973182106290413,-0.07836256921291351,0.5655666589736938,0.820970892906189,0.0040482631884515285,-0.0033870660699903965,0.006056502461433411
6.47866678237915,-0.0005474463105201721,0.006681084632873535,-0.0004343986511230469,-0.5996808598116979,-3.045510881735831,-3.0967129564941365,-0.07919502258300781,0.5643790364265442,0.821708083152771,-0.021970300003886223,0.003104477422311902,0.010752486996352673
6.496488809585571,-0.0035715997219085693,-0.0038289427757263184,0.005922377109527588,-0.5992147381605147,-3.0451738561223873,-3.0967897502409776,-0.07949725538492203,0.5639941692352295,0.821942925453186,-0.0032433257438242435,-0.00029114156495779753,0.001456247759051621
6.518657684326172,-0.0006233155727386475,-1.996755599975586e-05,-0.005080878734588623,-0.5984826165559286,-3.0454036407062124,-3.09686136727202,-0.07934799790382385,0.5633894801139832,0.822371780872345,0.005828506778925657,-0.0027100020088255405,-0.0008885391289368272
6.537437915802002,0.002076961100101471,-0.0024510622024536133,0.0035399794578552246,-0.5976764499761865,-3.044715500108959,-3.096891944787821,-0.07995785027742386,0.5627232193946838,0.8227693438529968,-0.0024123922921717167,0.0017597588011994958,0.001563487108796835
6.557349681854248,-0.00018956512212753296,0.0027211904525756836,-0.003990530967712402,-0.5982862216113862,-3.0448891883913465,-3.096493104743069,-0.07978177070617676,0.5632271766662598,0.8224412798881531,-0.003118290565907955,1.9837170839309692e-06,-0.0031111957505345345
6.585449695587158,0.0008342117071151733,-0.0014919638633728027,-0.001843094825744629,-0.5971070316235085,-3.0450765288669883,-3.0968325419570943,-0.07969164848327637,0.5622524619102478,0.8231167793273926,0.010633554309606552,-0.005208401940762997,-0.008905140683054924
6.596084833145142,-0.0011615082621574402,0.0030323266983032227,-0.0026932954788208008,-0.5968024893354311,-3.045759892727729,-3.0968836063885257,-0.07914552092552185,0.562000572681427,0.823341429233551,-0.016624245792627335,0.002382849808782339,0.005409588105976582
6.6163318157196045,0.001654103398323059,-0.0021783113479614258,0.003393411636352539,-0.594212472916853,-3.04486416444975,-3.0975984903433686,-0.08002326637506485,0.5598564147949219,0.8247160315513611,-0.025509189814329147,0.008230263367295265,-0.003441903041675687
6.641875743865967,0.002102494239807129,-0.002131342887878418,0.0026252269744873047,-0.5932170383738067,-3.044866769305699,-3.0973797442072275,-0.08007492870092392,0.5590313076972961,0.8252708315849304,-0.005466491915285587,-0.0028374786488711834,-0.0028073254507035017
6.65842866897583,-0.004179634153842926,-0.0015052556991577148,-0.004599332809448242,-0.5928482954019567,-3.0452550873758923,-3.097387583482653,-0.07977423816919327,0.5587255358695984,0.8255065679550171,-0.0008350424468517303,-0.001248459331691265,-0.0024764095433056355
6.67854380607605,-0.0028098002076148987,0.0017570853233337402,0.0011421442031860352,-0.5924289848488307,-3.045914838940207,-3.097693745591499,-0.07925198972225189,0.558377742767334,0.8257924318313599,-0.019040517508983612,-0.0072711980901658535,0.007762192282825708
6.699234962463379,0.0023634806275367737,-0.0017348527908325195,0.0004279017448425293,-0.5916172458551274,-3.045006193555352,-3.097536316923006,-0.08004601299762726,0.5577041506767273,0.8261711001396179,0.0151100754737854,0.006868411786854267,0.012592662125825882
6.725412845611572,-0.0037500932812690735,0.00161665678024292,0.0008838772773742676,-0.5914764405741362,-3.045581530437294,-3.0979530957545203,-0.07957815378904343,0.5575872659683228,0.8262946605682373,-0.01894974336028099,0.0011109239421784878,0.0035278843715786934
6.74218487739563,-0.0012516975402832031,-0.0015042424201965332,-0.0001976490020751953,-0.5903653665964195,-3.0456766398042436,-3.0983217657250424,-0.0795588493347168,0.5566645860671997,0.8269184827804565,-0.038715776056051254,0.00804783683270216,0.00926448404788971
6.759133815765381,0.0007079914212226868,-0.0017938017845153809,0.0006000995635986328,-0.5875940700944166,-3.044778380847976,-3.0995242747175533,-0.08045046031475067,0.5543602108955383,0.8283794522285461,-0.021790098398923874,0.01332071889191866,-0.0007326367776840925
6.77727484703064,0.0011126026511192322,-0.001806497573852539,0.003022134304046631,-0.587022869629484,-3.044327051569058,-3.1001617160037847,-0.08085506409406662,0.553884744644165,0.8286580443382263,-0.015974048525094986,0.01924119144678116,0.004388175439089537
6.7976977825164795,0.0006857812404632568,-0.0007476806640625,0.002012014389038086,-0.5856050252355296,-3.0439584458777142,-3.101054879669788,-0.08123693615198135,0.5527036786079407,0.8294084668159485,-0.008186710998415947,0.014249362982809544,-0.0007104349788278341
6.827348709106445,-0.004002861678600311,-0.0030548572540283203,0.00031322240829467773,-0.5842547157541856,-3.0427827136417074,-3.101235289295997,-0.08228564262390137,0.5515778660774231,0.8300548195838928,-0.030271507799625397,0.012167481705546379,0.0016038944013416767
6.844545841217041,-0.10903093218803406,0.6610285043716431,-0.009115815162658691,-0.2156074967444528,0.23185563514869972,-1.7841052594570777,0.22446362674236298,0.21394090354442596,-0.9507077932357788,2.6684467792510986,-0.8727560043334961,-3.197418689727783
6.860857963562012,0.16543161869049072,0.3773044943809509,0.3683745861053467,-0.16810276290038,0.16880708074099743,-1.9031790044620078,0.1656382828950882,0.1673121601343155,-0.9718902111053467,0.6760026216506958,-1.1919269561767578,-1.997541069984436
6.877898693084717,0.2771107256412506,0.2919347882270813,0.1328555941581726,-0.1735964022024262,0.11182328870798944,-1.9651510430874002,0.1099131777882576,0.17272581160068512,-0.9788181185722351,-0.28518012166023254,-1.0722672939300537,-1.158176302909851
6.901871681213379,0.21800310909748077,0.31314218044281006,0.16820883750915527,-0.16805543623643351,0.033837987377422704,-2.01547389853443,0.03335490822792053,0.16726550459861755,-0.9853475093841553,0.43095824122428894,-1.2524166107177734,-0.6885228157043457
6.916225910186768,0.0561579093337059,0.0863415002822876,0.1722061038017273,-0.16540340639689793,-0.012273605279851815,-2.044634867978377,-0.01210579089820385,0.16465024650096893,-0.98627769947052,-0.19372820854187012,-0.7097854614257812,-0.7497184872627258
6.943580865859985,0.03871338814496994,0.4518718421459198,0.44037705659866333,-0.15792990657028141,-0.01831241820810888,-2.08258329195628,-0.01808350905776024,0.15727421641349792,-0.9873893857002258,0.8229143619537354,0.04957148805260658,-0.90199875831604
6.961477756500244,-0.04564880579710007,-0.19088266789913177,0.08979493379592896,-0.16214267375576885,-0.014292564072173592,-2.0961950764811967,-0.01410461775958538,0.161433145403862,-0.9867828488349915,-0.3414161503314972,0.10779254138469696,-0.1527780294418335
6.978042840957642,-0.11579478532075882,0.2828526496887207,-0.07015466690063477,-0.15296961459278205,-0.015104207614190924,-2.0855920764081475,-0.014927267096936703,0.15237373113632202,-0.9882102012634277,0.2961333096027374,-0.1669388860464096,0.30563437938690186
6.999311923980713,-0.04159360006451607,-0.015231922268867493,-0.01294773817062378,-0.16889624951797175,-0.015760208640047447,-2.0588540624065694,-0.01553531177341938,0.16809441149234772,-0.9856484532356262,-0.09285955876111984,-0.07411795854568481,0.43062031269073486
7.01620078086853,0.014070481993258,-0.07039591670036316,0.018419384956359863,-0.18061390676232,-0.013450444060041436,-2.045536416246837,-0.013231255114078522,0.17963352799415588,-0.9836446046829224,-0.6694718599319458,0.108425572514534,0.26397064328193665
7.044427871704102,0.015940504148602486,0.1271653175354004,0.023191452026367188,-0.21223876366301134,-0.007097131969253147,-2.0333151604429602,-0.00693782651796937,0.21064895391464233,-0.9775371551513672,-0.06688937544822693,-0.019244946539402008,0.07710614800453186
7.060860872268677,-0.004953376948833466,0.013066262006759644,0.03229415416717529,-0.21873039055127488,-0.005836356490691247,-2.0344699417605074,-0.005697265733033419,0.21699044108390808,-0.9761571288108826,-0.43429216742515564,0.11410663276910782,-0.09529192745685577
7.077500820159912,-0.0006072053220123053,0.1367255300283432,0.0095672607421875,-0.23198786731830143,-0.0034212266883782527,-2.040797869217885,-0.0033295699395239353,0.22991259396076202,-0.97320556640625,0.02619558945298195,0.06756921857595444,-0.20742982625961304
7.1007537841796875,0.020566172897815704,-0.1281784474849701,-0.006124377250671387,-0.2588675330854575,0.0074058631545731776,-2.0466741610082995,0.007159037981182337,0.25598597526550293,-0.9666540026664734,-0.6735401749610901,0.20630456507205963,0.11029393970966339
7.119683742523193,0.020754411816596985,0.0524575412273407,-0.003804624080657959,-0.26347693912863374,0.009258828422995798,-2.0308409555289844,0.008939181454479694,0.26043906807899475,-0.9654489159584045,0.0876307487487793,-0.07066500186920166,0.33312922716140747
7.136270999908447,0.030408089980483055,0.11674773693084717,0.048330843448638916,-0.2599650161661396,0.008908056971501188,-2.0125566535480632,0.008608623407781124,0.25704672932624817,-0.9663606286048889,0.3256235718727112,-0.18174998462200165,0.18112488090991974
7.159228801727295,0.02021610736846924,0.08749151229858398,-0.015793681144714355,-0.24965805671309288,0.002741816141761518,-2.002482473270399,0.0026568081229925156,0.24707263708114624,-0.9689933061599731,0.057677656412124634,-0.11709649860858917,-0.0012035085819661617
7.179567813873291,-0.06897526234388351,0.042290687561035156,0.010492146015167236,-0.2663749523763009,0.0009547262217640752,-2.008354858553212,0.0009210542775690556,0.26323598623275757,-0.9647310376167297,-0.08417602628469467,-0.003627993632107973,-0.16251392662525177
7.195858955383301,0.026727329939603806,0.08622264862060547,-0.007582902908325195,-0.2636535190906611,-0.003123106041801609,-2.0138462791384844,-0.0030151798855513334,0.26060956716537476,-0.9654395580291748,0.031034180894494057,-0.058612413704395294,-0.1318601369857788
7.226682662963867,0.06550617516040802,-0.05095139145851135,0.00016266107559204102,-0.2761899887716924,-0.007153064250396417,-2.018319870758122,-0.006881914101541042,0.2726920247077942,-0.9620767831802368,-0.349252849817276,-0.10389600694179535,0.037016935646533966
7.24351692199707,0.010437286458909512,0.028434276580810547,-0.0011664032936096191,-0.2818626076680736,-0.010278492087639058,-2.0147722913533985,-0.009872718714177608,0.2781452238559723,-0.9604882597923279,-0.07704857736825943,-0.1025160476565361,0.12313874065876007
7.25971794128418,-0.029842928051948547,0.06139731407165527,0.007790505886077881,-0.2758587974927845,-0.009137947669841766,-2.0084023478373814,-0.008792334236204624,0.27237337827682495,-0.9621514678001404,0.35330215096473694,-0.1505642682313919,0.1542515605688095
7.277193784713745,0.029787790030241013,0.08839502930641174,-0.03445625305175781,-0.2540978706282379,-0.014633166775413197,-2.0009266921402857,-0.014162796549499035,0.2513723373413086,-0.9677868485450745,0.5829354524612427,-0.2133578658103943,0.06389033049345016
7.30022668838501,-0.031777817755937576,-0.13300317525863647,0.05267423391342163,-0.26770471194708334,-0.014436982358699314,-2.0036960774725436,-0.013922262005507946,0.2645186185836792,-0.9642800688743591,-0.8679103255271912,0.0567329041659832,-0.05436727777123451
7.317340850830078,-0.0016649682074785233,0.028088033199310303,0.030120849609375,-0.2885043577303115,-0.013145674819104048,-2.0039472347039284,-0.012602007016539574,0.2845187187194824,-0.958587646484375,-0.02751685120165348,0.06802506744861603,0.12244489789009094
7.335999965667725,0.09972833096981049,0.03477323055267334,0.09838396310806274,-0.27893406531478826,-0.006440950692681709,-1.99674981756773,-0.006191961467266083,0.2753310799598694,-0.9613295197486877,0.14910085499286652,0.12222083657979965,0.24024517834186554
7.361845016479492,0.15001735091209412,0.06828731298446655,-0.025360465049743652,-0.25431511989556027,-0.05946512952601813,-2.0422009548160203,-0.057518571615219116,0.25158262252807617,-0.9661251306533813,0.4923607110977173,-0.7801585793495178,-0.9517742395401001
7.378050804138184,-0.19575220346450806,-0.057766154408454895,-0.045029282569885254,-0.23961796525453452,-0.08155272218345334,-2.061721526839561,-0.07913486659526825,0.23733152449131012,-0.9682000875473022,0.44960832595825195,-0.029927952215075493,0.17845521867275238
7.402429819107056,-0.008871577680110931,-0.046265870332717896,0.00020295381546020508,-0.22994265508571607,-0.06127525321892676,-2.039722818280444,-0.05962512642145157,0.22792169451713562,-0.9718521237373352,-0.06719039380550385,0.33617067337036133,0.16280585527420044
7.419707775115967,0.07382825016975403,0.028413578867912292,-0.0005611777305603027,-0.2351770517998148,-0.054542957092933116,-2.0427212692820853,-0.05301526188850403,0.23301516473293304,-0.9710269570350647,-0.23096193373203278,0.009134850464761257,-0.3022179901599884
7.445275783538818,0.027051284909248352,-0.028210192918777466,-0.00040924549102783203,-0.2635819541418686,-0.0694196492582958,-2.0739443279781646,-0.06696827709674835,0.2605404555797577,-0.9631375074386597,-0.5437285304069519,-0.13410060107707977,-0.5095405578613281
7.461402893066406,-0.05102400481700897,0.006638854742050171,0.016337692737579346,-0.20911529240018342,-0.22378594576098904,0.7158629442778107,-0.21708814799785614,0.20759454369544983,-0.9538224339485168,0.04740356653928757,0.0835069939494133,-0.12649929523468018
7.478968858718872,0.03921712934970856,-0.03187035024166107,0.0063318610191345215,-0.208768063076449,-0.224441782760912,0.7137057750131021,-0.21772968769073486,0.20725487172603607,-0.9537500739097595,-0.0423118993639946,-0.07768358290195465,-0.07668152451515198
7.502304792404175,0.04671594500541687,0.026003867387771606,0.03797805309295654,-0.21226561890283416,-0.23069208387694318,0.7105840035899341,-0.22351950407028198,0.2106752097606659,-0.951659083366394,-0.07166051864624023,-0.07514070719480515,0.0613577663898468
7.515946865081787,0.03437216579914093,0.03656744956970215,0.052903592586517334,-0.21257319313821213,-0.23128555808640283,0.712176101618643,-0.22406938672065735,0.21097587049007416,-0.9514631032943726,-0.1025453731417656,-0.10907408595085144,0.024908896535634995
7.544789791107178,-0.0025240927934646606,0.028620645403862,-0.041200876235961914,-0.2154432812781029,-0.2388204505718737,0.7096492149368776,-0.23108793795108795,0.213780477643013,-0.9491555690765381,0.9272105097770691,-0.3624454438686371,-0.4839896261692047
7.561738967895508,0.11770652234554291,0.19479838013648987,0.03406524658203125,-0.23938132509614857,-0.24952162509804862,0.7239069620608003,-0.23989887535572052,0.23710164427757263,-0.9413986206054688,-1.0157333612442017,-0.5223615765571594,0.8530145883560181
7.578794956207275,0.028926879167556763,0.22501617670059204,-0.015016257762908936,-0.2849905255697019,-0.25719242270706905,0.7563981845551494,-0.24410627782344818,0.28114834427833557,-0.9280989766120911,-0.10306572914123535,0.4122447371482849,1.8637546300888062
7.601033687591553,-0.05606883764266968,-0.1478680670261383,0.0037404298782348633,-0.338273062739752,-0.23670763690337515,0.8073502593862567,-0.22121384739875793,0.3318585157394409,-0.9170247316360474,-1.012352466583252,-0.04174972325563431,0.6450859308242798
7.618836879730225,0.031726181507110596,-0.10655614733695984,-0.05203747749328613,-0.3756925453893455,-0.23575748826220996,0.8147568131625229,-0.2172882854938507,0.36691686511039734,-0.9045207500457764,-0.7116510272026062,-0.07019174844026566,0.4551815986633301
7.636387825012207,0.06334033608436584,-0.09797903895378113,-0.083748459815979,-0.4108968086333521,-0.2406625729079545,0.826426936936622,-0.21850693225860596,0.39943164587020874,-0.890342116355896,-0.9517861008644104,-0.26260271668434143,0.46933603286743164
7.66186785697937,-0.04264900088310242,-0.06430897116661072,-0.12996888160705566,-0.47598544247558566,-0.23986758745086822,0.8349603025491605,-0.2111656665802002,0.45821458101272583,-0.8633935451507568,-0.9788257479667664,0.2247045934200287,0.25185626745224
7.678567886352539,-0.02511163055896759,-0.10511323809623718,-0.06064319610595703,-0.5172620637976438,-0.22989450419639168,0.8316563826501083,-0.19806338846683502,0.4945022463798523,-0.846308708190918,-1.000779151916504,0.3109706938266754,0.04029817879199982
7.7012619972229,-0.036373138427734375,0.0059514641761779785,-0.010827481746673584,-0.5432506906480435,-0.20940673757651196,0.815529059236189,-0.17795179784297943,0.5169214010238647,-0.8373323082923889,0.10293637216091156,0.4903513789176941,-0.1910051703453064
7.716906785964966,-0.03556308150291443,0.02403801679611206,0.01488649845123291,-0.5265197224501731,-0.1954955905823969,0.8081366478078492,-0.16794335842132568,0.5025274753570557,-0.8480926156044006,0.5593388676643372,0.3819604516029358,-0.25749340653419495
7.745453834533691,-0.058401405811309814,0.06667962670326233,-0.04841446876525879,-0.476595518273322,-0.18961220307730953,0.7881829706244778,-0.1674744188785553,0.4587567448616028,-0.8726365566253662,0.8864041566848755,0.003021386917680502,-0.5948731899261475
7.760711669921875,0.03297260403633118,0.019380390644073486,-0.011875271797180176,-0.43786788957792666,-0.20530169486579433,0.7719925189546797,-0.1846296787261963,0.4240094721317291,-0.8866385221481323,0.9036283493041992,-0.4292837679386139,-0.5172364711761475
7.778005838394165,0.07038220763206482,0.0555213987827301,0.00860297679901123,-0.4032729753755126,-0.2307728424468476,0.7648944119717014,-0.21038156747817993,0.3924308717250824,-0.8953980207443237,0.5993512272834778,-0.6956161260604858,-0.19971108436584473
7.799929857254028,-0.02569545805454254,-0.04067021608352661,0.045351386070251465,-0.38305337221783087,-0.2709280368854274,0.7565667206574571,-0.24823029339313507,0.3737542927265167,-0.8936942219734192,0.036039259284734726,-0.3616742193698883,-0.177242711186409
7.82831883430481,-0.1778969168663025,-0.18004220724105835,0.13964098691940308,-0.3842032840674326,-0.2960236595652741,0.7131536111684003,-0.27045202255249023,0.37482061982154846,-0.8867723345756531,-1.5855966806411743,0.25320184230804443,-2.03029727935791
7.845233917236328,0.012282833456993103,0.132217675447464,-0.14846724271774292,-0.4223239080537463,-0.25789257058920867,0.7000701777158577,-0.23263497650623322,0.4098812937736511,-0.8819740414619446,0.25562071800231934,0.5959330797195435,0.673114001750946
7.862071990966797,0.1463872641324997,-0.2295340895652771,-0.07297062873840332,-0.41000803651985646,-0.2749397933865859,0.6923422886573503,-0.2489873319864273,0.3986167013645172,-0.8826720714569092,-0.0796487107872963,-0.3163061738014221,-0.024185268208384514
7.879079818725586,-0.07773254811763763,-0.0028491318225860596,-0.14190399646759033,-0.3905063447607811,-0.2674190382968557,0.6926024604215324,-0.24434992671012878,0.3806566894054413,-0.8918483853340149,0.9834491610527039,0.28078073263168335,-0.728760838508606
7.8998448848724365,0.04258467257022858,0.04033839702606201,-0.07203269004821777,-0.3480389828730243,-0.25719514386537046,0.6709398706321059,-0.2391178458929062,0.3410550355911255,-0.9091227054595947,0.6125278472900391,0.28230300545692444,-0.30244171619415283
7.917647838592529,0.051981523633003235,0.27875229716300964,0.01362234354019165,-0.3044989142721631,-0.24732127693477818,0.66497147156694,-0.23354580998420715,0.29981517791748047,-0.9249687194824219,1.2608898878097534,0.37585026025772095,-0.3050823509693146
7.943863868713379,0.10813340544700623,0.10084030032157898,0.07126331329345703,-0.24997581390253076,-0.2341470797779504,0.679662911816361,-0.22480207681655884,0.24738052487373352,-0.942479133605957,0.696189284324646,-0.12674006819725037,0.25481900572776794
7.961835861206055,0.010068893432617188,0.11837731301784515,-0.008072316646575928,-0.22083076179044986,-0.23459547390277913,0.6974730802069653,-0.2268047034740448,0.21904028952121735,-0.9489894509315491,0.9226552248001099,-0.029870782047510147,0.33817461133003235
7.977696895599365,-0.006024092435836792,-0.014332607388496399,0.012405872344970703,-0.19544514717039557,-0.22803416895784245,0.7187354131604845,-0.22175908088684082,0.1942032277584076,-0.9555668830871582,0.4663631021976471,0.0349636971950531,0.3728877007961273
7.999579906463623,-0.03196130692958832,0.0734051913022995,-0.050086021423339844,-0.14435024012798767,-0.21948228737739586,0.7262434767072109,-0.2154599279165268,0.1438494622707367,-0.9658593535423279,1.1160719394683838,0.17862720787525177,-0.9662063717842102
8.017948865890503,0.05342681705951691,0.059452325105667114,0.02088332176208496,-0.08617739945741668,-0.227894100509869,0.6896566836046222,-0.22508816421031952,0.08607077598571777,-0.970529317855835,1.1981678009033203,0.03987190127372742,-0.6812469959259033
8.045321941375732,0.049674391746520996,0.016245197504758835,-0.009796202182769775,-0.03982615262484984,-0.22234631585634262,0.6892389317749975,-0.2203439176082611,0.03981562703847885,-0.9746093153953552,0.3650336265563965,-0.04449881985783577,-0.05811994522809982
8.062745809555054,0.013971790671348572,0.032321665436029434,-0.03546297550201416,-0.02467244863236684,-0.22264573203627228,0.691913254602614,-0.22074361145496368,0.024669945240020752,-0.9750198125839233,0.4177030026912689,0.0793900191783905,-0.10035078972578049
8.079376697540283,0.0035463422536849976,0.040303003042936325,-0.029254138469696045,-0.0057633453911400245,-0.2186360137642522,0.6907369394370926,-0.2168947011232376,0.005763313267379999,-0.976177990436554,0.6185489892959595,0.20878715813159943,-0.058609917759895325
8.101828813552856,0.022507041692733765,0.004107702523469925,0.062572181224823,0.025243767244975148,-0.205940061359961,0.6919965375722953,-0.20442229509353638,-0.02524108625948429,-0.978557288646698,0.3386310636997223,0.15553608536720276,-0.10998259484767914
8.117839813232422,0.00714661180973053,0.011716645210981369,0.038447439670562744,0.036077453768525745,-0.20093229899793813,0.689869463943928,-0.19945308566093445,-0.03606962785124779,-0.979243278503418,0.17610757052898407,0.07547721266746521,-0.1483030766248703
8.136967897415161,-0.012326940894126892,0.048395365476608276,0.020325303077697754,0.04725323441333744,-0.19712791715179429,0.6865354237153413,-0.19563506543636322,-0.047235652804374695,-0.9795385003089905,0.377627432346344,0.14673063158988953,-0.161162868142128
8.16262674331665,0.00797349214553833,0.008209489285945892,0.04749035835266113,0.07228299457170814,-0.19066702458007956,0.6734526505462073,-0.18901899456977844,-0.07222006469964981,-0.9793140888214111,0.1811513751745224,-0.0063205379992723465,-0.34335392713546753
8.179774761199951,-0.010147884488105774,0.018372081220149994,0.029713690280914307,0.07953680257362328,-0.18950151184518566,0.6652267343388897,-0.18777383863925934,-0.07945296913385391,-0.9789934754371643,0.19393527507781982,0.053212475031614304,-0.16904640197753906
8.196831703186035,0.0042990148067474365,0.2145688384771347,0.18686836957931519,0.10216708550390656,-0.18350961755680859,0.6615055034644493,-0.18152981996536255,-0.10198944061994553,-0.9780823588371277,-0.3048272430896759,-0.12034057825803757,-0.12241585552692413
8.218581676483154,-0.1310095638036728,0.006594739854335785,-0.007736802101135254,0.08521953639028929,-0.18138323235723722,0.6726656904678426,-0.17973564565181732,-0.0851164236664772,-0.9800256490707397,-0.23402035236358643,0.34526482224464417,0.13621611893177032
8.24577283859253,-0.032222092151641846,-0.08080385625362396,-0.00347059965133667,0.08274262379501317,-0.1693427456570167,0.6746815855078455,-0.16795793175697327,-0.08264824002981186,-0.9823234677314758,0.30673420429229736,0.22085705399513245,-0.15467095375061035
8.262610912322998,0.02025371789932251,-0.06965717673301697,0.058459579944610596,0.08679326161316599,-0.16315912848852443,0.6620878006919666,-0.16182474792003632,-0.08668433129787445,-0.9830048680305481,-0.03282645344734192,0.03792610764503479,-0.36839425563812256
8.279631853103638,-0.029740899801254272,-0.07099975645542145,0.0938919186592102,0.08559882896335681,-0.1571625441467691,0.6498898861833247,-0.15594328939914703,-0.08549433201551437,-0.9840591549873352,-0.14708203077316284,0.16426993906497955,-0.29741185903549194
8.302527904510498,0.008509710431098938,-0.09341932833194733,0.09835058450698853,0.08709534688720096,-0.14594628444045202,0.6237171034413633,-0.14487747848033905,-0.0869852751493454,-0.9856186509132385,-0.10502023994922638,0.13186219334602356,-0.3980705738067627
8.317498683929443,0.03627866506576538,-0.07093899697065353,0.15431934595108032,0.07800478913846365,-0.1433590404340511,0.6031856346788511,-0.14243406057357788,-0.07792570441961288,-0.9867320656776428,-0.3432397246360779,-0.06528168171644211,-0.6378474235534668
8.346409797668457,0.015398070216178894,-0.07210680097341537,0.24325507879257202,0.0587558101560739,-0.14776578983607422,0.5557490036472585,-0.146974578499794,-0.058722008019685745,-0.9873956441879272,-0.5942957401275635,-0.2111257165670395,-0.8203694224357605
8.36262583732605,-0.026098087430000305,-0.14415138959884644,0.30172884464263916,0.03303964730344941,-0.15369753317311316,0.5129675841870701,-0.1530095636844635,-0.03303363546729088,-0.9876724481582642,-1.069335699081421,-0.2795204520225525,-1.1112923622131348
8.379628896713257,-0.06031593680381775,-0.2242593914270401,0.4411032199859619,-0.02484486698775868,-0.17145626374661274,0.44965994679612536,-0.17056478559970856,0.024842310696840286,-0.9850332736968994,-2.491429090499878,-0.6162862777709961,-1.6227993965148926
