timestamp,acceleration_x,acceleration_y,acceleration_z,attitude_pitch,attitude_roll,attitude_yaw,gravity_x,gravity_y,gravity_z,rotation_x,rotation_y,rotation_z
0.0,0.006308376789093018,0.6376209855079651,-0.5180910229682922,0.03846362040580625,-1.5627888607650253,2.4470615736643335,-0.9992284178733826,-0.03845413774251938,-0.008001458831131458,-0.4037923514842987,-0.4070907235145569,0.7885966300964355
0.01999688148498535,-0.08067786693572998,0.7521209716796875,-0.5971181392669678,0.024202829421353548,-1.568930222310533,2.4515965148356234,-0.99970543384552,-0.02420046739280224,-0.0018655569292604923,0.7596349120140076,-0.17857758700847626,0.5899712443351746
0.03931593894958496,-0.059834957122802734,0.6834667921066284,-0.5525400638580322,0.013911588605353771,-1.5704189243302287,2.4721944318009434,-0.9999032616615295,-0.013911140151321888,-0.0003773659700527787,1.1635066270828247,0.05264701694250107,0.5335124731063843
0.06005406379699707,0.021846532821655273,0.48340746760368347,-0.44537782669067383,-0.0009522248166800077,-1.5680846038377307,2.491959594863634,-0.9999960660934448,0.0009522246546112001,-0.002711718901991844,0.733934223651886,0.17543604969978333,0.9943606853485107
0.07997894287109375,-0.06250011920928955,0.33377140760421753,-0.3970748782157898,-0.025209505372100083,-1.5626256564587673,2.502138387246054,-0.9996488690376282,0.025206835940480232,-0.008167983032763004,0.33624744415283203,0.3987005352973938,1.412000060081482
0.09999299049377441,-0.2278679609298706,0.34021034836769104,-0.3843011260032654,-0.056074481786590566,-1.5512111022082944,2.509135898752475,-0.9982367753982544,0.05604510009288788,-0.01955319195985794,0.4074157774448395,0.6913115382194519,1.6474902629852295
0.11997604370117188,-0.30057650804519653,0.41046756505966187,-0.370034396648407,-0.08919288576026278,-1.535317369641028,2.523388022732148,-0.9953982830047607,0.08907467126846313,-0.03533051908016205,0.9828441739082336,0.7695457339286804,1.6843587160110474
0.1390831470489502,-0.300290048122406,0.3904068171977997,-0.3307744264602661,-0.12207265623742776,-1.51671221473472,2.5505514982037747,-0.9911072254180908,0.12176969647407532,-0.0536554791033268,1.5388489961624146,0.7934198975563049,1.7358274459838867
0.1593949794769287,-0.31710827350616455,0.28844594955444336,-0.23964303731918335,-0.15615764204218882,-1.4940472528830964,2.5870843700358903,-0.9849242568016052,0.15552376210689545,-0.07574079930782318,1.7866510152816772,0.9876298308372498,1.8877341747283936
0.17958402633666992,-0.3597315549850464,0.17523689568042755,-0.15094874799251556,-0.1926051119857547,-1.463845444106264,2.626139493446324,-0.9759007096290588,0.19141648709774017,-0.10477323085069656,1.708504557609558,1.3533347845077515,2.0894687175750732
0.20000100135803223,-0.2987595796585083,0.08405950665473938,-0.06142139434814453,-0.23226261169128962,-1.4259626669960355,2.6638319735409928,-0.9629592299461365,0.23017996549606323,-0.14045237004756927,1.4479576349258423,1.5948896408081055,2.302258253097534
0.22002696990966797,-0.17821919918060303,0.0076940953731536865,-0.005810722708702087,-0.2747884776839136,-1.3847907534308994,2.6993308989081934,-0.9458805322647095,0.2713433504104614,-0.17799659073352814,1.26698899269104,1.6361174583435059,2.466123580932617
0.24001598358154297,-0.11481106281280518,-0.05136486887931824,0.03923329710960388,-0.31956304767011334,-1.341013181112701,2.7346965166053128,-0.9244194626808167,0.3141517639160156,-0.2162352353334427,1.124524474143982,1.7019801139831543,2.606194257736206
0.26002001762390137,-0.09146273136138916,-0.11377477645874023,0.11074262857437134,-0.36487446968059734,-1.2945729842880411,2.770639714842544,-0.8987564444541931,0.35683202743530273,-0.25477030873298645,1.0192880630493164,1.7409809827804565,2.6180708408355713
0.2800769805908203,-0.09557050466537476,-0.18140161037445068,0.1876998245716095,-0.4083213840793488,-1.2455990493851674,2.806828776880138,-0.869685173034668,0.3970692753791809,-0.2932295501232147,0.9128680229187012,1.7878913879394531,2.518057346343994
0.3000061511993408,-0.11718177795410156,-0.23957708477973938,0.2639206349849701,-0.4475954270475806,-1.194961473627928,2.8429630742672503,-0.8385677933692932,0.4327991008758545,-0.33089137077331543,0.8186175227165222,1.7604646682739258,2.2957262992858887
0.32004284858703613,-0.15549826622009277,-0.2997802197933197,0.32306963205337524,-0.48163901730508735,-1.1444934056826905,2.8769732087584927,-0.8069193959236145,0.4632323682308197,-0.36646556854248047,0.6444854736328125,1.7854869365692139,2.0298094749450684
0.34003615379333496,-0.17243081331253052,-0.34132862091064453,0.3749464154243469,-0.5107542059488379,-1.094684437340925,2.9067645571660146,-0.7753536701202393,0.48883533477783203,-0.3998335003852844,0.4392227530479431,1.7750554084777832,1.7348310947418213
0.36010003089904785,-0.13379186391830444,-0.356290340423584,0.4230674207210541,-0.535104595124875,-1.0486387587191146,2.9299602408406322,-0.7455874085426331,0.5099310278892517,-0.4290335774421692,0.17448994517326355,1.6608494520187378,1.3611927032470703
0.3812530040740967,-0.08130460977554321,-0.397177517414093,0.4495012164115906,-0.5545632870548807,-1.01054374649508,2.945162940611797,-0.7201634049415588,0.5265721082687378,-0.4517595171928406,-0.05917744338512421,1.338992714881897,0.9870543479919434
0.40010714530944824,-0.07870769500732422,-0.40644073486328125,0.45413973927497864,-0.5701661955570636,-0.9831362601698603,2.953001954451041,-0.7005892395973206,0.5397719740867615,-0.46671292185783386,-0.22251398861408234,0.9777777194976807,0.676791250705719
0.41962099075317383,-0.1454458236694336,-0.37534868717193604,0.4529842734336853,-0.5819449895878077,-0.9643315746246606,2.954768372124454,-0.6864176392555237,0.5496498346328735,-0.4761470854282379,-0.29777276515960693,0.8286706805229187,0.3673969507217407
0.44000697135925293,-0.19121086597442627,-0.36893415451049805,0.4740123152732849,-0.5896289557978732,-0.9497165801638798,2.9517280162394393,-0.675930917263031,0.5560526847839355,-0.4836558401584625,-0.38892942667007446,0.7962874174118042,0.1355501413345337
0.4600350856781006,-0.160535991191864,-0.39523863792419434,0.5117269158363342,-0.5960295287880867,-0.9398637682236096,2.942993705494535,-0.6682451963424683,0.5613610744476318,-0.48818254470825195,-0.5777438282966614,0.6531878113746643,-0.04012990742921829
0.4800870418548584,-0.13898742198944092,-0.4298064708709717,0.5216033458709717,-0.6022274628587316,-0.9380192773567178,2.9276386095665288,-0.6645252108573914,0.566479504108429,-0.4873473048210144,-0.8268862366676331,0.410571426153183,-0.20555126667022705
0.5001208782196045,-0.18638837337493896,-0.4249255061149597,0.5308007001876831,-0.6089667427204226,-0.9449813475696711,2.9046312370060385,-0.6647927165031433,0.5720202326774597,-0.48046189546585083,-1.1064900159835815,0.2035810500383377,-0.3730473816394806
0.5200479030609131,-0.2768113613128662,-0.4543224573135376,0.5696736574172974,-0.6162881775686472,-0.9610797864288504,2.8722418440686366,-0.6689894795417786,0.5780102014541626,-0.4672871530056,-1.499533772468567,0.07644973695278168,-0.5792620778083801
0.5391349792480469,-0.36838555335998535,-0.4739797115325928,0.6169639229774475,-0.6230783787269325,-0.9848987610993735,2.8280850193871427,-0.6766431927680969,0.5835378170013428,-0.4490409195423126,-1.852738618850708,0.12083974480628967,-0.9056789875030518
0.5600330829620361,-0.3911345601081848,-0.4518170952796936,0.5917479395866394,-0.6258912395371252,-1.01568097481534,2.772233152608189,-0.6887452602386475,0.5858197808265686,-0.4271361231803894,-2.0962367057800293,0.01054519321769476,-1.3159629106521606
0.5800340175628662,-0.32713645696640015,-0.37719088792800903,0.4922756552696228,-0.6205974642596229,-1.0574982817093876,2.7086324716023946,-0.7086912393569946,0.5815213322639465,-0.3994868993759155,-2.0116350650787354,-0.506432294845581,-1.7950422763824463
0.6000339984893799,-0.3516167402267456,-0.2563563585281372,0.37946295738220215,-0.6008906441039694,-1.1073181851016642,2.646210059239438,-0.7378150820732117,0.5653773546218872,-0.36875125765800476,-1.572066068649292,-0.7882624268531799,-2.35949444770813
0.6200320720672607,-0.4069362282752991,-0.13214200735092163,0.3389856815338135,-0.5652538372620587,-1.1541685686854761,2.5889030380834526,-0.7722172737121582,0.5356301665306091,-0.3417322635650635,-1.3154789209365845,-0.7608439326286316,-2.881960391998291
0.64003586769104,-0.29585325717926025,-0.11173871159553528,0.29521510004997253,-0.5204109371483272,-1.2015176730795745,2.5323244601633377,-0.8091272115707397,0.4972367286682129,-0.31315934658050537,-1.4800626039505005,-1.1541681289672852,-3.086531400680542
0.6600339412689209,-0.19840770959854126,-0.09981578588485718,0.22677862644195557,-0.4721776789952123,-1.257675127005495,2.4761244859906144,-0.8472771644592285,0.4548267722129822,-0.2743249833583832,-1.51779305934906,-1.7294420003890991,-3.1295177936553955
0.6800358295440674,-0.35655665397644043,-0.023504823446273804,0.14517736434936523,-0.4198399541810011,-1.3141062909637382,2.426967435991225,-0.8832352757453918,0.4076143205165863,-0.23183199763298035,-1.2418497800827026,-1.7360773086547852,-3.1559834480285645
0.7001450061798096,-0.5124894380569458,0.09605824947357178,0.040196746587753296,-0.36323152205013254,-1.3623136388530472,2.3890088089603863,-0.9145126342773438,0.3552967607975006,-0.193471297621727,-0.8731808662414551,-1.6560839414596558,-3.1901793479919434
0.7200348377227783,-0.46000510454177856,0.23531675338745117,-0.06326417624950409,-0.30273345849427763,-1.404435108821403,2.362203222797382,-0.9413468241691589,0.29813048243522644,-0.15806449949741364,-0.5128995776176453,-1.6765493154525757,-3.2269809246063232
0.7400360107421875,-0.3306800127029419,0.3169434070587158,-0.08979891240596771,-0.24170814533722831,-1.4428216478309757,2.343426540469296,-0.9629905223846436,0.2393614649772644,-0.12391562014818192,-0.48171865940093994,-1.6382566690444946,-3.049657106399536
0.7600319385528564,-0.24325984716415405,0.2941274344921112,-0.08235502243041992,-0.18642748257982275,-1.477060716276886,2.3240226374759243,-0.978358805179596,0.1853494644165039,-0.091976597905159,-0.8013758063316345,-1.3475217819213867,-2.6063246726989746
0.7836658954620361,-0.1675230860710144,0.26217615604400635,-0.10366970300674438,-0.14220274528921567,-1.5059658457759233,2.296922501235346,-0.9878267049789429,0.14172396063804626,-0.06413115561008453,-1.5292702913284302,-1.1210813522338867,-2.0460855960845947
0.8000550270080566,-0.08470118045806885,0.3099537789821625,-0.14666545391082764,-0.10728985717109868,-1.531173241153866,2.2582443912364205,-0.9934695363044739,0.10708414018154144,-0.03938494250178337,-2.0736024379730225,-0.9500633478164673,-1.6642134189605713
0.8191499710083008,-0.009027302265167236,0.4058988392353058,-0.19061005115509033,-0.07811305677741576,-1.553497592826242,2.2132082912426347,-0.9968016147613525,0.07803364098072052,-0.017245125025510788,-2.2964351177215576,-0.8782539963722229,-1.404889464378357
0.840073823928833,0.033473074436187744,0.48574575781822205,-0.19183528423309326,-0.05216543599985909,-1.573028969602283,2.168405056596388,-0.9986371994018555,0.05214178189635277,0.0022296039387583733,-2.0985491275787354,-0.7832631468772888,-1.2393079996109009
0.8600418567657471,0.04798763990402222,0.5592311024665833,-0.2192922830581665,-0.027930677402654747,-1.5895508443688537,2.1315880339292397,-0.9994341731071472,0.02792704664170742,0.01874610409140587,-1.5815149545669556,-0.7434418797492981,-1.168912410736084
0.8800389766693115,0.04775083065032959,0.6264381408691406,-0.28053510189056396,-0.004207609260585937,-1.6048632004446524,2.106866475316606,-0.9994110465049744,0.0042075966484844685,0.03405998647212982,-0.9898461699485779,-0.7323766350746155,-1.1486849784851074
0.8995239734649658,0.05997747182846069,0.6308760046958923,-0.34554076194763184,0.01874030232886682,-1.619535828330123,2.0918037071283293,-0.9986372590065002,-0.018739204853773117,0.048711661249399185,-0.6539358496665955,-0.7648487091064453,-1.0754072666168213
0.9201281070709229,0.08774173259735107,0.5920274257659912,-0.361926794052124,0.03913521983325138,-1.6341996891968495,2.0791200361606825,-0.9972266554832458,-0.0391252301633358,0.06331238150596619,-0.8240533471107483,-0.7191910147666931,-0.8901577591896057
0.9400360584259033,0.08247679471969604,0.5636201500892639,-0.37053072452545166,0.05650912537986956,-1.6458476921427698,2.06037676135879,-0.995593249797821,-0.05647905543446541,0.07486124336719513,-1.1175802946090698,-0.5163795948028564,-0.7197189331054688
0.9600319862365723,0.08289086818695068,0.6057205200195312,-0.4385029077529907,0.07016411997172241,-1.6519983570349797,2.0400893226094228,-0.9942525625228882,-0.07010656595230103,0.080913245677948,-0.9511982202529907,-0.2437172681093216,-0.47677817940711975
0.9799988269805908,0.14733368158340454,0.6952001452445984,-0.4884331226348877,0.07838283639984937,-1.6543859318726022,2.025300502067054,-0.993448793888092,-0.07830259948968887,0.08323594182729721,-0.5921672582626343,-0.1331992894411087,-0.23067715764045715
1.0000669956207275,0.2029705047607422,0.7271669507026672,-0.5109158754348755,0.08159710856065981,-1.6572721454677786,2.016248927054512,-0.9929486513137817,-0.08150659501552582,0.08608072996139526,-0.37408486008644104,-0.24714067578315735,-0.01217727828770876
1.0200319290161133,0.17378205060958862,0.688545823097229,-0.5195248126983643,0.07962119471423153,-1.6621483943335016,2.010209028344712,-0.9926756024360657,-0.07953709363937378,0.0909360721707344,-0.18562451004981995,-0.2544504404067993,0.27657705545425415
1.0400421619415283,0.06717658042907715,0.6737587451934814,-0.5352046489715576,0.07075992814055093,-1.6663982452577408,2.0100553047015106,-0.9929426908493042,-0.07070089131593704,0.09521748870611191,0.30816465616226196,-0.18494370579719543,0.594106137752533
1.0600309371948242,-0.06689256429672241,0.7223717570304871,-0.5463160276412964,0.05585112842819496,-1.6701495160824271,2.021500945837871,-0.9935169816017151,-0.05582209676504135,0.09903515875339508,0.9636176824569702,-0.0925663635134697,0.7540578842163086
1.0800368785858154,-0.2088930606842041,0.7313821315765381,-0.5141712427139282,0.037863994975400904,-1.6706234891928375,2.0429868029215923,-0.9943081736564636,-0.03785494714975357,0.099590003490448,1.2584089040756226,0.14183105528354645,0.8267199397087097
1.1000478267669678,-0.3181927800178528,0.6399039030075073,-0.3975348472595215,0.017224113182891194,-1.6665813422850229,2.0648718989035553,-0.9952685832977295,-0.017223261296749115,0.09562443941831589,1.1190117597579956,0.354625940322876,1.0477665662765503
1.1200311183929443,-0.46939510107040405,0.5566051006317139,-0.36422228813171387,-0.008946777604542343,-1.6543574065846602,2.084089795375925,-0.9964709877967834,0.008946658112108707,0.08346053957939148,1.062493085861206,0.9176374673843384,1.3849371671676636
1.14003586769104,-0.46562469005584717,0.520918071269989,-0.3223990201950073,-0.04064703468199436,-1.6316100240824931,2.1030121467115612,-0.9973270893096924,0.0406358428299427,0.06072602793574333,1.059601902961731,1.2212656736373901,1.6387922763824463
1.1600301265716553,-0.31380951404571533,0.46392256021499634,-0.23902642726898193,-0.07729202802476537,-1.6062923802284146,2.1218308116062996,-0.9963864684104919,0.07721509039402008,0.035382647067308426,0.9922529458999634,1.1875004768371582,1.939851999282837
1.1799328327178955,-0.3027306795120239,0.3937463164329529,-0.13082671165466309,-0.11900075783151108,-1.5808293960460582,2.1408646703050436,-0.9928780198097229,0.11872009187936783,0.009961947798728943,1.0322321653366089,1.198984980583191,2.1463115215301514
1.2000300884246826,-0.4263586401939392,0.331524133682251,-0.06049853563308716,-0.16345007661970734,-1.5512449372652433,2.164253483590932,-0.9864832758903503,0.16272325813770294,-0.01928957737982273,1.3016340732574463,1.380739450454712,2.2527992725372314
1.220041036605835,-0.4833987355232239,0.30468061566352844,-0.028697967529296875,-0.2077979047466431,-1.5165914742898066,2.197012482566876,-0.9770505428314209,0.20630568265914917,-0.05301281064748764,1.7896497249603271,1.456804633140564,2.2740864753723145
1.240077018737793,-0.4292856454849243,0.2551765441894531,0.03060007095336914,-0.25007690335204436,-1.4765047697335514,2.240758589808245,-0.964589536190033,0.24747847020626068,-0.09122316539287567,2.0975024700164795,1.5335298776626587,2.270308494567871
1.26003098487854,-0.3289557695388794,0.16255223751068115,0.1069217175245285,-0.2906977420155323,-1.4323433005982773,2.2916599277735297,-0.9488764405250549,0.28662076592445374,-0.13222075998783112,2.3064165115356445,1.5389264822006226,2.3582897186279297
1.2800638675689697,-0.24821263551712036,0.0913659930229187,0.18063116073608398,-0.33059286190219167,-1.3833255732667324,2.348930660142569,-0.9292775988578796,0.3246038556098938,-0.1762823909521103,2.4258365631103516,1.5994372367858887,2.4676971435546875
1.3002078533172607,-0.20964384078979492,0.019551128149032593,0.23394548892974854,-0.3689669312882388,-1.3304734308921675,2.4108866163258185,-0.9058957099914551,0.3606520891189575,-0.22199787199497223,2.453279733657837,1.621358871459961,2.5222909450531006
1.3200340270996094,-0.22757411003112793,-0.025945723056793213,0.3120866119861603,-0.40420264957998314,-1.272318223366689,2.47597476354769,-0.8787643909454346,0.3932857811450958,-0.2703689932823181,2.4246084690093994,1.7801140546798706,2.4807705879211426
1.3400959968566895,-0.27176088094711304,-0.08704355359077454,0.40532445907592773,-0.43543640971543845,-1.2073414616873293,2.542241948582052,-0.8474560976028442,0.42180612683296204,-0.32233190536499023,2.2502074241638184,2.0122592449188232,2.4649040699005127
1.3600318431854248,-0.2737963795661926,-0.16686174273490906,0.4360469877719879,-0.4651640810339901,-1.1388319209566358,2.605236891480539,-0.8116528391838074,0.4485694468021393,-0.374172568321228,1.8207508325576782,2.06933856010437,2.4690041542053223
1.3800299167633057,-0.26467305421829224,-0.21784082055091858,0.4547507166862488,-0.4947527642659463,-1.0723454263041565,2.6613550464960167,-0.773000955581665,0.4748140871524811,-0.4207388162612915,1.3311539888381958,1.9906013011932373,2.4037187099456787
1.400033950805664,-0.2618792653083801,-0.23550182580947876,0.5062676072120667,-0.524177530924103,-1.0089040252192607,2.7108037435737993,-0.7326275706291199,0.5005011558532715,-0.4612541198730469,0.8923317790031433,1.9714977741241455,2.3219902515411377
1.420032024383545,-0.26458704471588135,-0.25323212146759033,0.572293758392334,-0.5532963960291288,-0.9479600605950089,2.753289027197851,-0.6910403966903687,0.5254946351051331,-0.4963048994541168,0.5357691049575806,1.9788527488708496,2.1400811672210693
1.4400279521942139,-0.24161094427108765,-0.31387996673583984,0.6314142346382141,-0.5812618044202217,-0.889164730963338,2.7900783481190214,-0.6490141153335571,0.5490789413452148,-0.5265863537788391,0.24668525159358978,1.8858205080032349,1.989862084388733
1.4600870609283447,-0.225366473197937,-0.3766067624092102,0.6343634724617004,-0.6087135389313146,-0.835326883754337,2.8230676925865215,-0.6083280444145203,0.5718125700950623,-0.5504248738288879,0.06515614688396454,1.6586565971374512,1.866871953010559
1.4800279140472412,-0.2324296236038208,-0.39217209815979004,0.6300621032714844,-0.6337478945392125,-0.7871756269036443,2.8527290103441514,-0.5708082914352417,0.5921689867973328,-0.5687826871871948,-0.030177857726812363,1.4488216638565063,1.5941169261932373
1.5000300407409668,-0.21872484683990479,-0.4274812936782837,0.6467443704605103,-0.6541643596410476,-0.746143310903707,2.8775549834673835,-0.5386756658554077,0.6084963083267212,-0.5827184915542603,-0.08942031860351562,1.1509100198745728,1.2657853364944458
1.5200409889221191,-0.17977815866470337,-0.47404420375823975,0.6649038791656494,-0.6709547325311683,-0.7153725957949443,2.8960749362382234,-0.5137186050415039,0.6217340230941772,-0.5912191867828369,-0.1812431365251541,0.7590764164924622,0.9053797125816345
1.5400550365447998,-0.18765977025032043,-0.5151246190071106,0.6525272727012634,-0.6821334527030706,-0.6987554659795039,2.905794944220914,-0.49932146072387695,0.6304504871368408,-0.5943148732185364,-0.1383424997329712,0.2988519072532654,0.4010807275772095
1.5600309371948242,-0.2394600510597229,-0.5356399416923523,0.6177849769592285,-0.6863374267793525,-0.6958538928922363,2.9082061706812143,-0.4958915710449219,0.6337081789970398,-0.5937218070030212,-0.10965462028980255,-0.1456160992383957,0.032255180180072784
1.580070972442627,-0.3016164302825928,-0.5244866013526917,0.6350210905075073,-0.6869304081951503,-0.7059065629830638,2.9011413714225047,-0.5015909671783447,0.6341667771339417,-0.5884207487106323,-0.3211706876754761,-0.391906201839447,-0.43753179907798767
1.6000311374664307,-0.34911686182022095,-0.5647400617599487,0.6462551355361938,-0.6857282372097874,-0.7293450368791317,2.879676663422753,-0.5157513618469238,0.633236825466156,-0.5770717263221741,-0.6780539751052856,-0.5912582278251648,-0.8539313673973083
1.6200931072235107,-0.344058096408844,-0.5902530550956726,0.6125583052635193,-0.6842705169134968,-0.7656828666807766,2.8459611014176525,-0.5370149612426758,0.6321079134941101,-0.5586184859275818,-0.9747677445411682,-0.980892539024353,-1.2055163383483887
1.640058994293213,-0.3687294125556946,-0.5185837745666504,0.5302802324295044,-0.6779868610664294,-0.8193943270091509,2.8009855198367424,-0.5691215991973877,0.6272264122962952,-0.5316839814186096,-1.0441704988479614,-1.5580703020095825,-1.7081682682037354
1.6601579189300537,-0.4983927607536316,-0.3960111737251282,0.4559701383113861,-0.6616574972110677,-0.8858886672565903,2.748992722802798,-0.6110432744026184,0.6144254207611084,-0.4991067051887512,-0.9433315992355347,-1.733431339263916,-2.205979108810425
1.6800768375396729,-0.6035671830177307,-0.33535778522491455,0.46667763590812683,-0.6356734692692299,-0.9516045557740886,2.693074659978851,-0.6552829742431641,0.5937195420265198,-0.46701329946517944,-1.0904289484024048,-1.5041630268096924,-2.5552682876586914
1.7001190185546875,-0.4837976098060608,-0.3218613862991333,0.43104469776153564,-0.6041675455423722,-1.0195330669849298,2.63209604652613,-0.7010626792907715,0.5680772066116333,-0.43104466795921326,-1.2819385528564453,-1.8589869737625122,-2.816757917404175
1.720041036605835,-0.40141695737838745,-0.25255757570266724,0.31716299057006836,-0.566095224646302,-1.0954697773894255,2.5717888739905375,-0.7504385113716125,0.5363405346870422,-0.38623952865600586,-1.1749428510665894,-2.3285083770751953,-2.9691689014434814
1.7400338649749756,-0.5590300559997559,-0.13263627886772156,0.21357855200767517,-0.5204029262568707,-1.167899004909138,2.5201649260135652,-0.7981477379798889,0.49722975492477417,-0.3401806354522705,-0.8750724792480469,-2.200732707977295,-3.0622212886810303
1.7600910663604736,-0.6340726017951965,-0.07209986448287964,0.15524834394454956,-0.4688670201881368,-1.2287896821735338,2.478992603640618,-0.8404147624969482,0.45187586545944214,-0.2991844713687897,-0.7138994336128235,-1.9902491569519043,-3.0426738262176514
1.7800590991973877,-0.4794178009033203,-0.021704941987991333,0.09269732236862183,-0.4177362082382059,-1.2855958247015549,2.440775669054358,-0.8770885467529297,0.40569236874580383,-0.25715652108192444,-1.0392110347747803,-2.0793988704681396,-2.895590305328369
1.8000638484954834,-0.37533730268478394,0.031145751476287842,0.05136658251285553,-0.3699018127971925,-1.3421379289927076,2.3994278607408086,-0.9080947041511536,0.36152389645576477,-0.21133965253829956,-1.4452095031738281,-1.9531872272491455,-2.695808172225952
1.8196518421173096,-0.3501155376434326,0.06446757912635803,0.012092769145965576,-0.32591523179484505,-1.3934107298732277,2.355245116674031,-0.9324924945831299,0.32017597556114197,-0.1671677827835083,-1.7254265546798706,-1.681775689125061,-2.458627223968506
1.8400399684906006,-0.2725032567977905,0.11662724614143372,-0.04168212413787842,-0.28510780890993703,-1.439151273156422,2.308811262289446,-0.951327919960022,0.2812609076499939,-0.1259661465883255,-2.078979253768921,-1.5152480602264404,-2.279817819595337
1.8600280284881592,-0.1928250789642334,0.19708652794361115,-0.09971165657043457,-0.244977427772102,-1.4815088225255624,2.259083362977418,-0.9662783741950989,0.24253442883491516,-0.08650659024715424,-2.2599198818206787,-1.4951488971710205,-2.239922523498535
1.880129098892212,-0.14441633224487305,0.2964029908180237,-0.15353792905807495,-0.20432917863765207,-1.5217568463869802,2.209817449277987,-0.9780202507972717,0.20291033387184143,-0.048000089824199677,-2.2124929428100586,-1.4082050323486328,-2.1688337326049805
1.9000329971313477,-0.10210567712783813,0.361794114112854,-0.1736094355583191,-0.16261855013763624,-1.557214522325605,2.1660716311159165,-0.9867157936096191,0.1619027554988861,-0.01340220496058464,-1.9680052995681763,-1.3293479681015015,-2.1428000926971436
1.920119047164917,-0.06961184740066528,0.4253048002719879,-0.18284738063812256,-0.11982730874839133,-1.5884575778369863,2.129053107442897,-0.9926745891571045,0.1195407584309578,0.017533699050545692,-1.7099066972732544,-1.2796409130096436,-2.1470274925231934
1.9400420188903809,-0.060495197772979736,0.4961079955101013,-0.22310161590576172,-0.07575704253288783,-1.6169684561323565,2.0983362960669707,-0.9960691928863525,0.07568459957838058,0.04602334648370743,-1.4976274967193604,-1.2767994403839111,-2.1520612239837646
1.9602110385894775,-0.06908577680587769,0.5612770915031433,-0.2834852933883667,-0.03194429338377699,-1.6443635143411854,2.072374492063159,-0.9967864751815796,0.031938862055540085,0.07346335798501968,-1.3830029964447021,-1.3321545124053955,-2.0656511783599854
1.9800019264221191,-0.10548412799835205,0.6154835820198059,-0.3627117872238159,0.010167603400764521,-1.6705254234949967,2.0486460297587596,-0.9949797987937927,-0.01016742829233408,0.09955871850252151,-1.4005687236785889,-1.2199636697769165,-1.9184752702713013
2.0001039505004883,-0.10691326856613159,0.6353254914283752,-0.40956592559814453,0.049148425078383295,-1.6922941967466825,2.0236583111710487,-0.9914295673370361,-0.049128640443086624,0.1210528165102005,-1.4862765073776245,-1.0278522968292236,-1.675184965133667
2.020028829574585,-0.07191687822341919,0.6652743220329285,-0.4454001188278198,0.08271178228157594,-1.7093725661350505,2.000514083777724,-0.9870278239250183,-0.08261750638484955,0.1376609206199646,-1.1882169246673584,-0.875808835029602,-1.33275306224823
2.0400288105010986,-0.04028254747390747,0.7692664265632629,-0.5281461477279663,0.10788505497448309,-1.724180377429921,1.9853977270132381,-0.9825140833854675,-0.10767589509487152,0.15189506113529205,-0.6235594153404236,-0.7207645773887634,-0.9628240466117859
2.060058832168579,-0.0072029829025268555,0.8387201428413391,-0.5553607940673828,0.12525653169201834,-1.7364982917965328,1.9826012363066337,-0.9785757660865784,-0.12492925673723221,0.16365249454975128,0.08185625821352005,-0.5845960378646851,-0.7363303303718567
2.08000111579895,0.01063239574432373,0.8607890009880066,-0.5797333717346191,0.13549522797499933,-1.74866887424541,1.9923314107667551,-0.9752017259597778,-0.13508102297782898,0.17531442642211914,0.6530755758285522,-0.5551275014877319,-0.4298239052295685
2.1000559329986572,-0.030931532382965088,0.8072441220283508,-0.6166393756866455,0.13835842108941254,-1.760612826113567,2.0081017572239244,-0.9726544618606567,-0.1379174143075943,0.18687567114830017,0.7905669212341309,-0.4073145389556885,-0.1464850753545761
2.119982957839966,-0.1169968843460083,0.71710205078125,-0.6274601221084595,0.13613179109750664,-1.7676653015324348,2.023091199685527,-0.971610963344574,-0.13571171462535858,0.19379013776779175,0.6987777352333069,0.0014945288421586156,0.08153476566076279
2.140022039413452,-0.14815360307693481,0.6638843417167664,-0.585578203201294,0.13004033764569417,-1.763678949464343,2.0338511970223756,-0.9731690287590027,-0.12967413663864136,0.19007036089897156,0.4562423527240753,0.4692714214324951,0.2845533490180969
2.1600310802459717,-0.09940266609191895,0.6677610874176025,-0.4882110357284546,0.12313491398415101,-1.7524586927209005,2.041176069734497,-0.976097822189331,-0.12282398343086243,0.17929694056510925,0.522605299949646,0.746951699256897,0.1915222555398941
2.1804440021514893,-0.169001042842865,0.6401922106742859,-0.5980300903320312,0.11872720464433409,-1.7358406017643722,2.059966971499738,-0.9794670343399048,-0.11844846606254578,0.16313940286636353,1.3200161457061768,1.1762107610702515,-0.04823958873748779
2.200092077255249,-0.08763599395751953,0.5166751742362976,-0.5555423498153687,0.11459739699298935,-1.7119429313538563,2.0851406453299908,-0.9835614562034607,-0.11434673517942429,0.13975568115711212,1.0800961256027222,1.4043071269989014,0.16515180468559265
2.2200348377227783,0.14266574382781982,0.32332196831703186,-0.3460332155227661,0.10586829213751428,-1.6875064668679176,2.101809830243464,-0.9876365065574646,-0.10567063838243484,0.11579342186450958,0.7205728888511658,1.2230427265167236,0.46643537282943726
2.240028142929077,0.18198060989379883,0.2983398735523224,-0.19792282581329346,0.09497615688489444,-1.6677446898389805,2.1180449294995514,-0.9908185005187988,-0.09483343362808228,0.09636031836271286,1.2224042415618896,0.8446460962295532,0.40527254343032837
2.260035991668701,0.02860844135284424,0.45140883326530457,-0.15961039066314697,0.08295846829275005,-1.6575714640343433,2.1483142877759374,-0.9928113222122192,-0.08286334574222565,0.08636823296546936,1.6849485635757446,0.5975492596626282,0.6092890501022339
2.2800469398498535,-0.15916693210601807,0.42422914505004883,0.20119106769561768,0.06288145499646997,-1.6404596098912714,2.181242604611279,-0.9956030249595642,-0.06284002214670181,0.0694693848490715,1.7917516231536865,1.4586752653121948,1.14811372756958
2.3000271320343018,-0.040666937828063965,0.11165956407785416,0.4747079610824585,0.03341873150022835,-1.608905720356885,2.2172760491791372,-0.9987159371376038,-0.03341251239180565,0.03807889297604561,1.9930039644241333,1.690178632736206,1.5521571636199951
2.320032835006714,0.28385627269744873,0.038075074553489685,0.49359405040740967,0.0009199510808110468,-1.5865872004808073,2.259759783333023,-0.999875009059906,-0.0009199509513564408,0.015790212899446487,2.2870023250579834,0.33456355333328247,1.527368426322937
2.340024948120117,0.2611016035079956,-0.003265267238020897,0.6258282661437988,-0.029743610984225257,-1.5886690574620808,2.300811806367804,-0.9993981719017029,0.029739225283265114,0.01786387711763382,1.7025151252746582,0.0015137923182919621,1.5838022232055664
2.3600828647613525,-0.05966615676879883,-0.24863961338996887,0.9031518697738647,-0.0632110883261856,-1.5742829973544659,2.3268851261247634,-0.9979968070983887,0.06316900253295898,0.003479700069874525,1.1580275297164917,1.1519126892089844,1.6403992176055908
2.380028009414673,0.09958070516586304,-0.5060734152793884,0.796962559223175,-0.09324460595033038,-1.550692126727263,2.351884465611861,-0.9954547882080078,0.09310954809188843,-0.020015519112348557,1.4379596710205078,0.7819451689720154,1.352466106414795
2.40002703666687,0.4685232639312744,-0.3353757858276367,0.5907926559448242,-0.11300562633311008,-1.5400137069354543,2.3901332424671016,-0.9931508302688599,0.11276526004076004,-0.03058144450187683,2.34745454788208,-0.06483940035104752,0.6657677292823792
2.420027017593384,0.5473294854164124,-0.16164487600326538,0.4285085201263428,-0.1160678705647224,-1.53741231777232,2.4455558013061047,-0.9927183389663696,0.1158074364066124,-0.033153235912323,3.0585217475891113,-0.1559819132089615,-0.08865969628095627
2.4400241374969482,0.5472747683525085,-0.21075090765953064,0.4293089509010315,-0.11061929797505067,-1.5369805314138854,2.5035196492481164,-0.9933198690414429,0.11039383709430695,-0.03360271081328392,2.5074245929718018,-0.6235355734825134,-0.1900266408920288
2.460078001022339,0.3858489394187927,-0.412127822637558,0.42720043659210205,-0.10849222947444462,-1.5474942726302303,2.5366193367968943,-0.9938507080078125,0.1082795187830925,-0.023162955418229103,0.6442612409591675,-0.5959250330924988,0.14241868257522583
2.480059862136841,0.032528817653656006,-0.5595327019691467,0.41144996881484985,-0.1167281024167358,-1.5506416029104202,2.5300186621389917,-0.9929932355880737,0.11646320670843124,-0.02001621387898922,-1.2043752670288086,0.4386354684829712,0.645078182220459
2.5000288486480713,-0.07164514064788818,-0.47216325998306274,0.3453027009963989,-0.13216988555827103,-1.5371599473673931,2.4966277616104597,-0.9907175898551941,0.13178540766239166,-0.03333672508597374,-1.8439204692840576,1.1843688488006592,0.7291094064712524
2.520026922225952,0.21533828973770142,-0.19962061941623688,0.29851382970809937,-0.14461265895077108,-1.5212725369796225,2.466929723510664,-0.9883487224578857,0.14410914480686188,-0.048986829817295074,-0.9701856374740601,0.6421088576316833,0.3746055066585541
2.5400350093841553,0.32307201623916626,-0.05651623010635376,0.24397927522659302,-0.1510072948855048,-1.518860496021071,2.4596796689899225,-0.987287163734436,0.15043404698371887,-0.05132173001766205,0.0275495033711195,-0.23217575252056122,0.3057742714881897
2.5600669384002686,0.08311605453491211,-0.2434738576412201,0.27845609188079834,-0.15787084187513464,-1.5217215803475717,2.4610362138950648,-0.9863752126693726,0.157215878367424,-0.04844500869512558,-0.010252004489302635,0.16456156969070435,0.35506558418273926
2.580068826675415,-0.16018187999725342,-0.36610013246536255,0.283674418926239,-0.1659946324451294,-1.5106553030640653,2.457944322613152,-0.9844713807106018,0.16523337364196777,-0.05927860364317894,-0.3356491029262543,0.8837331533432007,0.4975355863571167
2.6000349521636963,0.09425264596939087,-0.3815246820449829,0.2825010418891907,-0.1785999826886704,-1.496985711075814,2.449401312576202,-0.9814139604568481,0.1776520013809204,-0.07257060706615448,-0.5743263959884644,0.49036869406700134,0.6529454588890076
2.620025873184204,0.3394560217857361,-0.4168887138366699,0.2978142499923706,-0.189085812468954,-1.4980320528924256,2.4370184544420224,-0.9795774221420288,0.18796108663082123,-0.07140430808067322,-0.7163528800010681,-0.34958094358444214,0.24848905205726624
2.640043020248413,0.274860680103302,-0.3460441529750824,0.23196512460708618,-0.19019095808430772,-1.5133939108532581,2.423498096826663,-0.9803507328033447,0.18904641270637512,-0.05633639171719551,-0.4819788634777069,-0.8357347846031189,-0.16468073427677155
2.6600539684295654,-0.0031859278678894043,-0.24890315532684326,0.1429550051689148,-0.18712708123114882,-1.528453879891922,2.418407278016165,-0.9816619753837585,0.18603689968585968,-0.04159082844853401,-0.08070521056652069,-0.49466168880462646,-0.12907715141773224
2.6800248622894287,-0.18048149347305298,-0.2526927888393402,0.19645458459854126,-0.18430695833655109,-1.5342215230472471,2.417367207042767,-0.9824061393737793,0.18326526880264282,-0.03594734147191048,-0.06071193888783455,-0.18172739446163177,-0.19952715933322906
2.7000370025634766,-0.11297917366027832,-0.23495988547801971,0.18850165605545044,-0.18025510315095888,-1.5395905066791202,2.4148312970426495,-0.9833191633224487,0.17928054928779602,-0.030695244669914246,-0.13072465360164642,-0.33336201310157776,-0.17954875528812408
2.72002911567688,-0.030988574028015137,-0.16633553802967072,0.21288913488388062,-0.1780164329336055,-1.5470438836523985,2.4125110618688455,-0.9839192628860474,0.17707769572734833,-0.023374881595373154,-0.08634096384048462,-0.3405626714229584,-0.0710538849234581
2.740056037902832,-0.06014847755432129,-0.20583298802375793,0.19754505157470703,-0.17647409505552558,-1.5531521413221743,2.4131476993366308,-0.9843156933784485,0.17555953562259674,-0.01736924983561039,0.12151125818490982,-0.31595978140830994,-0.08638612180948257
2.7600290775299072,-0.10204511880874634,-0.18983469903469086,0.15070319175720215,-0.17510307804894365,-1.5589962788079583,2.416231774133444,-0.9846399426460266,0.17420963943004608,-0.01161933783441782,0.19644515216350555,-0.320553719997406,-0.06036730483174324
2.7800259590148926,-0.16376221179962158,-0.22870191931724548,0.16920238733291626,-0.1732315462753787,-1.5641222379562325,2.4209854051173147,-0.9850109815597534,0.1723664253950119,-0.006574148777872324,0.27571919560432434,-0.2757966220378876,-0.12734420597553253
2.800050973892212,-0.21009773015975952,-0.18123669922351837,0.18607956171035767,-0.16973667682898774,-1.5685220024887911,2.427172597577645,-0.9856266975402832,0.1689228117465973,-0.002241638721898198,0.35533544421195984,-0.2566559612751007,-0.22309017181396484
2.8200759887695312,-0.243155837059021,-0.19185702502727509,0.191015362739563,-0.1647540458719292,-1.5716103296832267,2.435181467929915,-0.986458420753479,0.1640097051858902,0.0008029802120290697,0.41404804587364197,-0.2548538148403168,-0.2717394530773163
2.8400518894195557,-0.21674489974975586,-0.19172132015228271,0.20003914833068848,-0.15901966470056003,-1.5781096862441553,2.4447495734700353,-0.9873566627502441,0.15835031867027283,0.007221023086458445,0.5619474053382874,-0.5816927552223206,-0.304959237575531
2.860111951828003,-0.2715674042701721,-0.14417950809001923,0.19293487071990967,-0.15343254140428164,-1.5888441611190671,2.4578388233819304,-0.9880915284156799,0.15283124148845673,0.017834849655628204,0.7344072461128235,-0.5914226770401001,-0.2535909116268158
2.880038022994995,-0.39733731746673584,-0.05763472616672516,0.16061055660247803,-0.15003965121959706,-1.59540120821109,2.4750030874078415,-0.9884659647941589,0.14947733283042908,0.02432599663734436,0.8802171945571899,-0.32624855637550354,-0.10909895598888397
2.8995721340179443,-0.40821629762649536,-0.14444491267204285,0.2306736707687378,-0.14911678609713389,-1.5977801527540132,2.489839692912329,-0.9885427951812744,0.14856477081775665,0.026681143790483475,0.561917245388031,-0.1883431375026703,-0.06602135300636292
2.9200079441070557,-0.3728224039077759,-0.2233416587114334,0.251717209815979,-0.14707378295050638,-1.6011034002142799,2.496325993234868,-0.9887499213218689,0.14654414355754852,0.029975293204188347,0.097752146422863,-0.22262148559093475,-0.1385577768087387
2.940027952194214,-0.3559480309486389,-0.13708603382110596,0.15638363361358643,-0.14409968110051197,-1.6077051702622371,2.496574302421011,-0.9889616966247559,0.14360150694847107,0.03651801496744156,-0.02320159785449505,-0.5069507360458374,-0.15362729132175446
2.9600579738616943,-0.31712692975997925,-0.06692150235176086,0.10281991958618164,-0.14061130816240583,-1.6212050556523772,2.496815877414773,-0.9888728260993958,0.14014841616153717,0.04989008605480194,0.04140526428818703,-0.8035442233085632,-0.214837908744812
2.9800589084625244,-0.4083683490753174,0.01644451916217804,0.06971251964569092,-0.13528918385959984,-1.6362343218127429,2.500491072882236,-0.9887416958808899,0.13487686216831207,0.06479378789663315,0.2911723256111145,-0.6705415844917297,-0.31108322739601135
2.999234914779663,-0.49910879135131836,0.030484646558761597,0.04855452477931976,-0.13043785002623115,-1.6441767975175279,2.50971726423615,-0.9888366460800171,0.13006828725337982,0.07269182056188583,0.5394256711006165,-0.27121075987815857,-0.21704626083374023
3.0200459957122803,-0.4225587248802185,0.0003864020109176636,0.037076354026794434,-0.1278454715394717,-1.6488614048427082,2.5181448048451935,-0.9888182878494263,0.12749749422073364,0.07734936475753784,0.22220437228679657,-0.3409876227378845,-0.08843933790922165
3.040024995803833,-0.35078442096710205,0.01102951169013977,0.03244435787200928,-0.12788382142494864,-1.6567276294447413,2.5184541702329892,-0.9881743788719177,0.12753553688526154,0.08512473851442337,-0.10393593460321426,-0.4428085386753082,0.058439940214157104
3.0600321292877197,-0.3510400056838989,0.026552125811576843,0.014782905578613281,-0.12821781129122659,-1.666718386179964,2.5173811190974025,-0.9872320890426636,0.12786678969860077,0.09498884528875351,0.14572900533676147,-0.5531663298606873,-0.05882566422224045
3.0800578594207764,-0.3533034324645996,0.0962800607085228,-0.04977142810821533,-0.12376217333286234,-1.6828451765082117,2.524512429543641,-0.9861283898353577,0.12344647198915482,0.11095930635929108,0.531157374382019,-0.8505814075469971,-0.34644007682800293
3.1003811359405518,-0.5335701704025269,-0.1255958378314972,0.04941914975643158,-0.12326794573029287,-1.6916998829852916,2.5354221202882727,-0.9851675629615784,0.12295600771903992,0.1196940466761589,0.27851250767707825,-0.46617528796195984,0.2574136257171631
3.1201059818267822,-0.5729612112045288,-0.08226995170116425,0.11982691287994385,-0.1318305194760347,-1.7037003447425438,2.5303342206819934,-0.982580840587616,0.13144899904727936,0.13136330246925354,-0.5998247861862183,-0.6508558392524719,0.457961767911911
3.140031099319458,-0.6138216853141785,0.23062299191951752,0.18278704583644867,-0.13696174517159687,-1.717323438968857,2.5254208712652226,-0.9800198674201965,0.1365339457988739,0.1446360945701599,0.4435408115386963,-0.7544135451316833,0.3263912498950958
3.1600420475006104,-0.669689416885376,-0.038732126355171204,0.23453211784362793,-0.15322254496366453,-1.7311552470041367,2.52972013089023,-0.975604772567749,0.15262371301651,0.15780188143253326,-0.11020780354738235,-0.7394447326660156,1.0910226106643677
3.180277109146118,-0.7326189875602722,-0.04750038683414459,0.3020843267440796,-0.17476189283055749,-1.7459702938903423,2.521533951806101,-0.9696973562240601,0.1738736629486084,0.1716248244047165,-0.2312382608652115,-0.6098969578742981,1.2310476303100586
3.2000839710235596,-0.7758496999740601,0.08636115491390228,0.21945405006408691,-0.20210603579952358,-1.7585401209809954,2.512066428521093,-0.9624316096305847,0.20073294639587402,0.1828439086675644,-0.19796250760555267,-0.44440627098083496,1.6080830097198486
3.2202210426330566,-0.7634501457214355,0.07432369887828827,0.14658930897712708,-0.2345061736930224,-1.7688998552934982,2.5009068440968973,-0.9536063075065613,0.23236270248889923,0.19142349064350128,-0.22271917760372162,-0.3967765271663666,1.7503280639648438
3.240125894546509,-0.6584797501564026,0.061332643032073975,0.13870620727539062,-0.26817957776203394,-1.779137517717552,2.491847031671482,-0.9434031844139099,0.26497653126716614,0.19944381713867188,0.08050210773944855,-0.3809632658958435,1.71246337890625
3.260061025619507,-0.6137858629226685,0.07029852271080017,0.1045759916305542,-0.3010815328758435,-1.7857232446383697,2.4921831869877553,-0.9330434203147888,0.29655325412750244,0.20368212461471558,0.6839995384216309,-0.2938227951526642,1.4786244630813599
3.288512945175171,-0.4663282632827759,-0.011959344148635864,0.03547510504722595,-0.3612413836509619,-1.7920546550341405,2.521021640952129,-0.9126542210578918,0.353435754776001,0.20529340207576752,0.9203743934631348,-0.5378474593162537,1.2680093050003052
3.3076980113983154,-0.4682694673538208,-0.03416517376899719,0.07164143025875092,-0.3884500218267046,-1.799176113647342,2.5249277290760572,-0.9014662504196167,0.3787543773651123,0.20953227579593658,-0.01865658164024353,-0.3066113591194153,1.3229496479034424
3.328273057937622,-0.4291014075279236,-0.14138031005859375,0.09034132957458496,-0.41455059298948166,-1.8086998382179764,2.5113299490763836,-0.8895174264907837,0.40277862548828125,0.21570423245429993,-0.4933977723121643,-0.13026989996433258,1.54403555393219
3.3485500812530518,-0.2960319519042969,-0.04033967852592468,0.03923223912715912,-0.4427057169150926,-1.8192123701850003,2.4903783148013,-0.8758583068847656,0.4283859133720398,0.22216615080833435,-0.6090767979621887,-0.06771880388259888,1.5957053899765015
3.3683040142059326,-0.21385550498962402,0.043855637311935425,-0.041355252265930176,-0.4684863266279372,-1.8289661760532352,2.4705424870977315,-0.8626826405525208,0.45153623819351196,0.22780242562294006,-0.4580235481262207,-0.020043520256876945,1.3280662298202515
3.388267993927002,-0.13564646244049072,0.025507748126983643,-0.024606317281723022,-0.4903180368474804,-1.8346921509212455,2.454208806982743,-0.8516431450843811,0.47090646624565125,0.23011177778244019,-0.42013558745384216,0.22256512939929962,1.2156122922897339
3.408247947692871,-0.04281651973724365,-0.03612974286079407,-0.04036165773868561,-0.511514961464107,-1.8361163179984163,2.4370255255158986,-0.8414912819862366,0.4894988536834717,0.22865518927574158,-0.4053993225097656,0.42600712180137634,1.2308473587036133
3.428063154220581,0.07579243183135986,-0.03378826379776001,-0.1191270500421524,-0.5349361508043572,-1.8352171830702335,2.4212430475845506,-0.8304005861282349,0.5097861289978027,0.2248399704694748,-0.34729158878326416,0.46639004349708557,1.3764489889144897
3.4481208324432373,0.18742400407791138,-0.06368070840835571,-0.10066831111907959,-0.5580122277808531,-1.8346336682406632,2.4051008121407285,-0.8189547657966614,0.5295010209083557,0.22122807800769806,-0.3632142245769501,0.453655868768692,1.1908700466156006
3.466871976852417,0.2356758713722229,-0.12331151962280273,-0.09927918016910553,-0.5777222608051206,-1.8307703923919638,2.3926132931605806,-0.8095589280128479,0.5461172461509705,0.2153376340866089,-0.08688852936029434,0.5880515575408936,1.0396469831466675
3.4878549575805664,0.2913587689399719,-0.11472368240356445,-0.10868515074253082,-0.5980068719375189,-1.8203902639654213,2.3878173721360887,-0.8008497357368469,0.5629963278770447,0.20414415001869202,0.20038798451423645,0.7285839319229126,1.0179738998413086
3.5078470706939697,0.32614749670028687,-0.19346988201141357,-0.1714276224374771,-0.6177804532261788,-1.8052300564111676,2.387820088593132,-0.7928680777549744,0.5792272686958313,0.1893567591905594,0.21493244171142578,0.7784788608551025,0.9209805130958557
3.526715040206909,0.3733052611351013,-0.2715604901313782,-0.12142564356327057,-0.6357110171233405,-1.7936096715262067,2.3817107876128656,-0.7847583889961243,0.5937497615814209,0.17780688405036926,-0.37027159333229065,0.7662723660469055,0.9198921918869019
3.547027826309204,0.3523685932159424,-0.27917927503585815,-0.05720163881778717,-0.6504177448918652,-1.7868663092071042,2.3655515954987525,-0.7773258686065674,0.6055189371109009,0.17062029242515564,-0.4773847758769989,0.9310661554336548,0.8187897205352783
3.5678369998931885,0.30609291791915894,-0.2301599383354187,-0.14239418506622314,-0.6655269968237275,-1.772390465194372,2.3548783179551473,-0.7706620693206787,0.6174737215042114,0.15750037133693695,-0.031043890863656998,1.0989028215408325,0.8139855861663818
3.587597131729126,0.357410728931427,-0.19937121868133545,-0.12557995319366455,-0.6798707701075574,-1.7530481378918705,2.352521857286424,-0.7647746801376343,0.6286925077438354,0.14094556868076324,0.019227564334869385,0.9846652150154114,0.6435273289680481
3.607686996459961,0.3761789798736572,-0.3053908944129944,-0.002265334129333496,-0.6920791408248855,-1.7369957999858348,2.346915983545063,-0.7593119740486145,0.6381393074989319,0.12737219035625458,-0.2578783333301544,1.0184135437011719,0.6478813886642456
3.626654863357544,0.3468708395957947,-0.30597996711730957,0.0017296075820922852,-0.7030213889248929,-1.7213265163044256,2.3388797066042346,-0.754265308380127,0.6465256214141846,0.11440511792898178,-0.05666651949286461,1.0475016832351685,0.5231748223304749
3.6479580402374268,0.348686158657074,-0.18190521001815796,-0.082290418446064,-0.7123516291548204,-1.698503356853416,2.3432281280365355,-0.750663697719574,0.6536153554916382,0.09638960659503937,0.5177216529846191,0.940635621547699,0.35681870579719543
3.6683270931243896,0.3665305972099304,-0.17141598463058472,-0.07535088062286377,-0.7195025147547346,-1.6699039299413083,2.3608398755141424,-0.7484428882598877,0.6590105891227722,0.07442019879817963,0.7830907702445984,0.8012415170669556,0.21309198439121246
3.687617063522339,0.35175830125808716,-0.22736376523971558,0.01763438805937767,-0.7238235871906674,-1.6418535426207628,2.377770334289863,-0.7473881840705872,0.6622544527053833,0.05319688841700554,0.46820464730262756,0.8909438252449036,0.11790718138217926
3.707556962966919,0.32798081636428833,-0.2784983515739441,0.02611374482512474,-0.7265590060917876,-1.6191682125097657,2.385047582534022,-0.7465904355049133,0.6643015742301941,0.03614218160510063,0.13795338571071625,0.9015809297561646,0.14436255395412445
3.727605104446411,0.33742427825927734,-0.2544119358062744,-0.012239215895533562,-0.7294917767029985,-1.6004809138356768,2.38800558967212,-0.7451850175857544,0.6664908528327942,0.02212700992822647,0.13599637150764465,0.7931962013244629,0.12910515069961548
3.747451066970825,0.3223339319229126,-0.1791924238204956,-0.03344142436981201,-0.7312823203662625,-1.582248432636672,2.3927895105432557,-0.7442700266838074,0.6678246259689331,0.008523832075297832,0.22571370005607605,0.7412315011024475,0.06260722875595093
3.765211820602417,0.2790096402168274,-0.17632365226745605,-0.020460844039916992,-0.7324308648724441,-1.5637764066162294,2.3976201123453853,-0.7435330152511597,0.6686790585517883,-0.005219628103077412,0.10678476095199585,0.7667363882064819,0.062177326530218124
3.7886698246002197,0.24785661697387695,-0.18847739696502686,0.015433132648468018,-0.7340019569788914,-1.5486528500221808,2.3981008111701354,-0.7423177361488342,0.6698464155197144,-0.01644018292427063,-0.04613330587744713,0.7198358774185181,0.0905982181429863
3.8088560104370117,0.20677310228347778,-0.13157600164413452,0.03044581413269043,-0.7352132514884413,-1.5355619457538587,2.396900941513238,-0.7412275075912476,0.670745313167572,-0.02612750604748726,-0.028927447274327278,0.6924149990081787,0.04928870126605034
3.8265249729156494,0.16130971908569336,-0.1084756851196289,0.04421347379684448,-0.7352357842815138,-1.522932976285844,2.3960555069784464,-0.7408232688903809,0.6707620620727539,-0.03548538684844971,-0.03401773422956467,0.6445605754852295,-0.01407537143677473
3.8467459678649902,0.13291674852371216,-0.09347659349441528,0.05706453323364258,-0.7334477327606053,-1.5120629175043208,2.395358733158178,-0.7415899038314819,0.6694348454475403,-0.04360625892877579,0.039865970611572266,0.48329028487205505,-0.15719754993915558
3.867102861404419,0.09659022092819214,-0.08116966485977173,0.04360335320234299,-0.7289269093705052,-1.5023425380643551,2.397822671327678,-0.7441427707672119,0.6660696268081665,-0.05101910978555679,0.12489193677902222,0.3471830487251282,-0.25094568729400635
3.885838031768799,0.05326622724533081,-0.0627785325050354,0.04454236477613449,-0.7224549245468236,-1.4960559374510423,2.398784355399938,-0.7480905055999756,0.6612282991409302,-0.05601692199707031,0.04760659486055374,0.2544959783554077,-0.37593379616737366
3.9058048725128174,0.019512534141540527,-0.03870135545730591,0.02082914113998413,-0.7139656246262223,-1.491042115381739,2.3991048353462787,-0.7533687353134155,0.6548359990119934,-0.06021204963326454,0.0696549043059349,0.25195738673210144,-0.43624719977378845
3.9266068935394287,0.012542724609375,-0.06376975774765015,0.00048810988664627075,-0.7049532613752824,-1.48609148293812,2.399016078882697,-0.7589110732078552,0.6479982137680054,-0.0644376277923584,0.02473926916718483,0.23296645283699036,-0.49142682552337646
3.946002960205078,-0.016876280307769775,-0.0620417594909668,-0.05414574593305588,-0.6963847969917977,-1.48291946413091,2.400969973785105,-0.764205813407898,0.641448438167572,-0.06732941418886185,0.21431860327720642,0.10043655335903168,-0.36452507972717285
3.966667890548706,-0.04766350984573364,-0.038318753242492676,-0.06722211837768555,-0.6871377484074209,-1.4750086313170812,2.407778389349628,-0.7695209980010986,0.6343270540237427,-0.07393691688776016,0.36239710450172424,0.22771887481212616,-0.5186269283294678
3.987981081008911,-0.042373478412628174,-0.10641777515411377,-0.04981934279203415,-0.6758587630921753,-1.465494893605593,2.414889315581636,-0.7758485674858093,0.6255675554275513,-0.08200127631425858,0.293061226606369,0.25816458463668823,-0.550509512424469
4.006565809249878,-0.01673412322998047,-0.1321132779121399,-0.06207626312971115,-0.6627446360858694,-1.4573419167555974,2.420633239684527,-0.783238410949707,0.6152827739715576,-0.08924509584903717,0.30720919370651245,0.25323525071144104,-0.7447819113731384
4.025414943695068,-0.03613924980163574,-0.1885966658592224,-0.06445848941802979,-0.6439069106610107,-1.4480633781782069,2.4239768327072535,-0.7937405705451965,0.6003245711326599,-0.09791023284196854,0.153702512383461,0.5013611316680908,-1.0599346160888672
4.04651403427124,0.019183218479156494,-0.38127946853637695,-0.0049204230308532715,-0.6222105023403035,-1.4397169749982548,2.420009111014102,-0.8056212663650513,0.5828328132629395,-0.10620930045843124,-0.2154790163040161,0.4508354067802429,-1.1106001138687134
4.06645393371582,0.07545942068099976,-0.489498496055603,-0.07629089802503586,-0.5999881938463028,-1.441237602531723,2.4082652530685693,-0.8184251189231873,0.5646327137947083,-0.10663140565156937,-0.3944886326789856,0.11100513488054276,-1.2648146152496338
4.086107969284058,0.02912658452987671,-0.35353630781173706,-0.02731066197156906,-0.5723584064674138,-1.4458571426228355,2.39560066843961,-0.8340734839439392,0.5416160821914673,-0.10475409030914307,-0.25579363107681274,0.2366178184747696,-1.6391475200653076
4.105931043624878,-0.09804165363311768,-0.219815194606781,0.06003749370574951,-0.534571961726338,-1.4393981302218644,2.388723301661628,-0.8530692458152771,0.5094727873802185,-0.11274135112762451,0.16910159587860107,0.8600627183914185,-2.1876630783081055
4.1258440017700195,-0.16514474153518677,-0.21145784854888916,0.10842390358448029,-0.48758323527939446,-1.4171732976081217,2.387644349460487,-0.8730632662773132,0.4684921205043793,-0.1351877748966217,0.2420976459980011,1.3102141618728638,-2.403428554534912
4.14606785774231,-0.057615578174591064,-0.3835139870643616,0.2161276936531067,-0.4413429678621319,-1.3978328290649764,2.3755674997706713,-0.8906877040863037,0.4271541237831116,-0.1556113362312317,-0.6846287846565247,1.0511757135391235,-2.3882830142974854
4.165170907974243,-0.06122773885726929,-0.4494421184062958,0.25438231229782104,-0.39718065793540375,-1.3974246625372742,2.336432077075747,-0.9083309769630432,0.3868200182914734,-0.15907587110996246,-2.0519912242889404,0.6714051365852356,-2.5747487545013428
4.185719966888428,-0.25907057523727417,-0.26190611720085144,0.3230546712875366,-0.3559537415864363,-1.4055975658801145,2.2743907753404575,-0.9245536923408508,0.34848448634147644,-0.15413987636566162,-2.8308916091918945,0.8327884078025818,-2.421480894088745
4.205754041671753,-0.4135891795158386,-0.16930821537971497,0.3775259256362915,-0.32032713135773777,-1.4110150603339682,2.2047069657424743,-0.9370426535606384,0.31487706303596497,-0.15100914239883423,-3.085766077041626,0.8653388619422913,-2.1991734504699707
4.225703954696655,-0.39508378505706787,-0.04197746515274048,0.3991057276725769,-0.2869101390707427,-1.416651152428999,2.1349192242624557,-0.9477507472038269,0.282990038394928,-0.14725938439369202,-2.8382461071014404,0.5791327357292175,-2.1834309101104736
4.245713949203491,-0.3127315640449524,0.05903498828411102,0.34937065839767456,-0.24959395600998568,-1.425472789405666,2.077043323367602,-0.9587985873222351,0.2470105141401291,-0.14032523334026337,-2.1365315914154053,0.12878209352493286,-2.3369879722595215
4.26546311378479,-0.27247923612594604,0.10446672141551971,0.3204403519630432,-0.2083939443161565,-1.4349982212011734,2.033884887383371,-0.9693573713302612,0.2068888545036316,-0.1324520856142044,-1.5123145580291748,-0.1403721421957016,-2.305060863494873
4.285645961761475,-0.19910269975662231,0.12787266075611115,0.26857393980026245,-0.16782055419099265,-1.4469759529362716,2.000253643453413,-0.978402853012085,0.16703392565250397,-0.12176914513111115,-1.2976716756820679,-0.3891564905643463,-2.1621110439300537
4.305562973022461,-0.11364305019378662,0.18697355687618256,0.22607237100601196,-0.12742739645409507,-1.46157354500222,1.9703790654343591,-0.9859815835952759,0.12708282470703125,-0.10812194645404816,-1.123134732246399,-0.606667697429657,-2.216209888458252
4.324398994445801,-0.05151927471160889,0.26352110505104065,0.16279101371765137,-0.08518413353295426,-1.4790317935725428,1.9442236979890033,-0.9921818971633911,0.08508115261793137,-0.09130353480577469,-1.1370450258255005,-0.8274832367897034,-2.215850830078125
4.3453309535980225,-0.019526541233062744,0.30463463068008423,0.11879819631576538,-0.04434838037133839,-1.4986634508525123,1.91589454481832,-0.9964189529418945,0.044333845376968384,-0.07199948281049728,-1.3572927713394165,-0.9227766394615173,-2.0815606117248535
4.364384889602661,-0.018682479858398438,0.405104398727417,0.10183924436569214,-0.0056774698887801945,-1.5174233239359565,1.886021439658919,-0.9985599517822266,0.005677439272403717,-0.05334680899977684,-1.3428785800933838,-0.8919819593429565,-2.021270990371704
4.384340047836304,-0.05163586139678955,0.5576511025428772,0.02246219292283058,0.03557917523334649,-1.5351815432058185,1.8612096501780664,-0.9987333416938782,-0.03557166829705238,-0.035584717988967896,-0.9420399069786072,-0.8876640200614929,-2.180410623550415
4.405457019805908,-0.06864053010940552,0.6364942789077759,-0.0818132758140564,0.07889792848805169,-1.5528213266018092,1.8438977966297938,-0.9967281818389893,-0.07881610095500946,-0.017918119207024574,-0.7465903759002686,-0.9679074287414551,-2.160439968109131
4.4242188930511475,-0.0661778450012207,0.5975988507270813,-0.07011008262634277,0.1186749838376889,-1.5692248360614045,1.8255837264723114,-0.9929652810096741,-0.11839661747217178,-0.0015604370273649693,-1.1308553218841553,-0.8842192888259888,-1.7867294549942017
4.444324016571045,-0.07314234972000122,0.5875989198684692,-0.11327648162841797,0.1505602923861518,-1.5819963857840942,1.7981122713388913,-0.9886252284049988,-0.14999210834503174,0.011073123663663864,-1.5432602167129517,-0.7216077446937561,-1.441488265991211
4.46488881111145,-0.1220889687538147,0.736909806728363,-0.2502162456512451,0.17918176978011066,-1.5900754514524966,1.7679837487254066,-0.9838069677352905,-0.17822450399398804,0.01896928809583187,-1.3424257040023804,-0.6605518460273743,-1.398055911064148
4.483008146286011,-0.13167786598205566,0.8876069784164429,-0.37388622760772705,0.2077474130457255,-1.5995404119774417,1.748078116723045,-0.9780937433242798,-0.20625627040863037,0.028122154995799065,-0.7159008383750916,-0.6600426435470581,-1.4018995761871338
4.506598949432373,-0.10832381248474121,0.8968361616134644,-0.4299602508544922,0.2343796671280299,-1.6112953947673148,1.7374905949474284,-0.9718611836433411,-0.23223966360092163,0.0393810048699379,-0.4857214093208313,-0.7145802974700928,-1.1829137802124023
4.526505947113037,-0.08175456523895264,0.8363925218582153,-0.46734166145324707,0.25483703458467705,-1.6217603087207983,1.729312889587282,-0.9664480090141296,-0.25208771228790283,0.049296725541353226,-0.34933650493621826,-0.5565473437309265,-0.8313366770744324
4.543215990066528,-0.03241860866546631,0.8662533760070801,-0.5280637741088867,0.26821572504700003,-1.6314922257718907,1.726636814897898,-0.962469756603241,-0.26501137018203735,0.058489810675382614,0.0704537108540535,-0.5158072113990784,-0.519507884979248
4.565327882766724,0.012994170188903809,0.9087260961532593,-0.6356064081192017,0.2754308794268213,-1.6459966924533058,1.735497079507983,-0.9595884084701538,-0.27196159958839417,0.07229772955179214,0.6756902933120728,-0.6821008324623108,-0.25089868903160095
4.584594964981079,0.0232391357421875,0.8775246143341064,-0.685559868812561,0.2766707614539252,-1.6653615153633434,1.7539060066481886,-0.957672119140625,-0.27315452694892883,0.09083337336778641,1.0342676639556885,-0.728468656539917,-0.027641741558909416
4.60477614402771,-0.03506350517272949,0.7792582511901855,-0.6534953117370605,0.27283446005954126,-1.6835571307646369,1.7747980903174694,-0.956895112991333,-0.26946213841438293,0.1083599179983139,0.9666005969047546,-0.4891279935836792,0.1902039498090744
4.62456488609314,-0.14199590682983398,0.7171239852905273,-0.6091383695602417,0.26473052456965007,-1.6935252674912848,1.7906961701003161,-0.9579034447669983,-0.2616491913795471,0.1181563064455986,0.6151446104049683,-0.04889034852385521,0.44047197699546814
4.644650936126709,-0.21522784233093262,0.6812752485275269,-0.5733027458190918,0.25179871800553477,-1.693286853145108,1.8002328790555706,-0.9612095952033997,-0.24914635717868805,0.11833147704601288,0.5500162243843079,0.24533292651176453,0.758702278137207
4.6644980907440186,-0.2913244962692261,0.6573132276535034,-0.6085809469223022,0.23021858281708768,-1.6880577964329715,1.8112461377864368,-0.9669306874275208,-0.2281903475522995,0.11390627175569534,0.7689507603645325,0.5926480293273926,1.272047758102417
4.684415102005005,-0.2549513578414917,0.6450985670089722,-0.5332001447677612,0.19852407678060208,-1.67615739269394,1.8240341509917446,-0.974922239780426,-0.19722260534763336,0.10310063511133194,0.7982873916625977,0.7905570268630981,1.7085931301116943
4.7048070430755615,-0.1823563575744629,0.6209703683853149,-0.41119420528411865,0.1600129737552797,-1.6634812987217016,1.8365938797625667,-0.9829878807067871,-0.15933100879192352,0.09136999398469925,0.8720992803573608,0.7259865403175354,2.003246784210205
4.724449872970581,-0.30275958776474,0.5649362802505493,-0.3003730773925781,0.11494821779370194,-1.6492327251284564,1.852575268535407,-0.9903464913368225,-0.11469525098800659,0.07783890515565872,1.0812113285064697,0.9688878655433655,2.374537944793701
4.744487047195435,-0.47624415159225464,0.4998641014099121,-0.1553882360458374,0.06267984760316594,-1.6281228624715378,1.8733359250971682,-0.9963968992233276,-0.06263881176710129,0.057182636111974716,1.394579529762268,1.310449242591858,2.6805365085601807
4.764230012893677,-0.5607477426528931,0.43099159002304077,-0.0759199857711792,0.005881799551159692,-1.6005634655703698,1.903685240082558,-0.999539852142334,-0.005881765857338905,0.029762232676148415,1.8980871438980103,1.5052211284637451,2.846109390258789
4.784087896347046,-0.5432040095329285,0.37792864441871643,-0.015438675880432129,-0.052209776994205453,-1.5688678781072376,1.944998499467846,-0.9986355900764465,0.052186060696840286,-0.0019258199026808143,2.2848403453826904,1.5276433229446411,2.8915271759033203
4.806710958480835,-0.5347215533256531,0.29414820671081543,0.08209550380706787,-0.10995809053300773,-1.5333266849204619,1.9933378648898066,-0.9932630658149719,0.10973664373159409,-0.03723463788628578,2.380213975906372,1.6402761936187744,2.930777072906494
4.826391935348511,-0.5707904100418091,0.19594429433345795,0.2048625349998474,-0.16524983387970274,-1.490642243054641,2.0441379880774373,-0.9832103848457336,0.16449876129627228,-0.07897753268480301,2.398489236831665,1.8840590715408325,2.8609371185302734
4.8422510623931885,-0.49569231271743774,0.1059848815202713,0.28210192918777466,-0.2171908337968816,-1.4403122235676467,2.0967295422824144,-0.9682055711746216,0.2154873013496399,-0.12705735862255096,2.1191418170928955,2.096558094024658,2.8917341232299805
4.861058950424194,-0.3645550608634949,-0.030879199504852295,0.2968730628490448,-0.26862573029729814,-1.389625595345638,2.1461439921267607,-0.9483568072319031,0.26540669798851013,-0.17371933162212372,1.8743910789489746,1.8429479598999023,2.9177141189575195
4.8800599575042725,-0.34323519468307495,-0.03992542624473572,0.30043959617614746,-0.31656378573998634,-1.3378720032071771,2.1970247118159705,-0.924648106098175,0.31130293011665344,-0.21935439109802246,1.9563076496124268,1.927284598350525,2.779849052429199
4.900032043457031,-0.32178008556365967,-0.04978764057159424,0.35694101452827454,-0.35824360003817735,-1.2801832688539203,2.251393265804314,-0.8972445726394653,0.35062989592552185,-0.26834842562675476,1.8850862979888916,2.0061051845550537,2.5764055252075195
4.919960975646973,-0.2199499011039734,-0.1291976273059845,0.41766056418418884,-0.3943934005714881,-1.2212213597723778,2.3041830674354133,-0.8673914074897766,0.3842482268810272,-0.31620484590530396,1.6345388889312744,1.9358360767364502,2.4376513957977295
4.9393370151519775,-0.1518957018852234,-0.22534480690956116,0.4537520110607147,-0.42778776180854794,-1.1640140812467008,2.354385035958012,-0.8356378674507141,0.41485893726348877,-0.36000192165374756,1.4474316835403442,1.7998888492584229,2.3625993728637695
4.960072994232178,-0.14368337392807007,-0.28742697834968567,0.48691073060035706,-0.45714505906974595,-1.108116153976078,2.403649392017364,-0.8029718995094299,0.4413881301879883,-0.4005153775215149,1.3752470016479492,1.6713175773620605,2.1603140830993652
4.980046033859253,-0.16857486963272095,-0.28753581643104553,0.5051473379135132,-0.47970388718834883,-1.0535058569828026,2.4527338565160246,-0.771061360836029,0.46151649951934814,-0.438710480928421,1.4573160409927368,1.5979782342910767,1.9102063179016113
4.999966859817505,-0.18659836053848267,-0.27395179867744446,0.5202656984329224,-0.49442838712994225,-1.0004431078701364,2.501879130751733,-0.7409071922302246,0.47452858090400696,-0.4752674996852875,1.457655429840088,1.394622802734375,1.586179256439209
5.019965887069702,-0.2012907862663269,-0.3260246515274048,0.5636180639266968,-0.5022395081785304,-0.9528905679394991,2.545737067812063,-0.7144349813461304,0.48138970136642456,-0.507786214351654,1.3019436597824097,1.2722020149230957,1.2405850887298584
5.040497064590454,-0.2118682861328125,-0.3774559795856476,0.5949487090110779,-0.5062758460033143,-0.9114410158329853,2.581900823750393,-0.6912384033203125,0.4849236309528351,-0.5357598662376404,0.9938326478004456,1.1180968284606934,0.9678639769554138
5.06047511100769,-0.2085627317428589,-0.3898056447505951,0.6294048428535461,-0.5087087247130172,-0.8777137163831715,2.6084243331239962,-0.6718693971633911,0.4870498776435852,-0.5580089092254639,0.6574991941452026,0.9728279113769531,0.6873023509979248
5.08011794090271,-0.20073139667510986,-0.4181614816188812,0.6368088126182556,-0.5112495941010528,-0.8514476858836665,2.6256967920744847,-0.6560496687889099,0.4892674386501312,-0.5746445059776306,0.3320849537849426,0.8063685894012451,0.5038519501686096
5.102763891220093,-0.17513877153396606,-0.4411523938179016,0.6461567878723145,-0.5151683195936649,-0.8318680991780946,2.6357972718718194,-0.6432511210441589,0.4926813244819641,-0.586082935333252,0.09011604636907578,0.6045294404029846,0.3446507751941681
5.121977090835571,-0.1516932249069214,-0.46009495854377747,0.6518540382385254,-0.5179659109904845,-0.8203228750073669,2.6405984151406217,-0.6354314684867859,0.49511387944221497,-0.5925278663635254,0.031106408685445786,0.2944258451461792,0.13744546473026276
5.140897989273071,-0.1627582311630249,-0.455251008272171,0.6490774750709534,-0.5179228963239487,-0.8177724616096538,2.640777014641165,-0.6339337229728699,0.4950765073299408,-0.5941611528396606,-0.027051398530602455,-0.04183270409703255,-0.136006698012352
5.161712884902954,-0.23438507318496704,-0.4557538628578186,0.6360006928443909,-0.5158684403766517,-0.8250683723019854,2.6339737621370767,-0.638997495174408,0.4932904541492462,-0.5902090072631836,-0.33926108479499817,-0.3587416708469391,-0.41644224524497986
5.182950019836426,-0.3321688771247864,-0.4710652828216553,0.6887686252593994,-0.5161570190090253,-0.8431524484671341,2.615217366911331,-0.6494595408439636,0.4935414791107178,-0.5784627795219421,-0.893315851688385,-0.4660307466983795,-0.6505063772201538
5.203042030334473,-0.4123929738998413,-0.5051564574241638,0.738501787185669,-0.5199190552496993,-0.8658227344766678,2.5843229758955175,-0.660986602306366,0.4968098998069763,-0.5623847842216492,-1.359423279762268,-0.2982412278652191,-0.8368358016014099
5.22271203994751,-0.384408175945282,-0.5295228362083435,0.7124255299568176,-0.5245823204318132,-0.8937374949557746,2.544421951428596,-0.674612820148468,0.5008515119552612,-0.5422594547271729,-1.6193480491638184,-0.5706051588058472,-1.0097135305404663
5.242696046829224,-0.4160889983177185,-0.4496138095855713,0.6040070056915283,-0.52926192621909,-0.9334992293264615,2.496589609035787,-0.6937437653541565,0.5048964023590088,-0.5136139392852783,-1.9894136190414429,-0.9350736737251282,-1.178835153579712
5.262652158737183,-0.547744870185852,-0.2926982641220093,0.538716733455658,-0.5294632488442106,-0.9820286270354135,2.43756595139204,-0.7177581191062927,0.505070149898529,-0.47929903864860535,-2.1520228385925293,-0.9037212133407593,-1.8066561222076416
5.2832190990448,-0.4624391198158264,-0.1984044909477234,0.49030768871307373,-0.5166817356741036,-1.0337861644221382,2.3706869328169233,-0.7470793128013611,0.4939977526664734,-0.44479069113731384,-2.0302422046661377,-1.0187246799468994,-2.3195760250091553
5.302287817001343,-0.2099195122718811,-0.15454712510108948,0.40631669759750366,-0.49184200452175586,-1.0921137918631507,2.3072293978182596,-0.7823901176452637,0.4722503423690796,-0.40601152181625366,-1.6041479110717773,-1.8242875337600708,-2.5161972045898438
5.322227954864502,-0.2386419177055359,-0.07013958692550659,0.2936915159225464,-0.4580610687465214,-1.1578615246535982,2.2540105868594718,-0.8215235471725464,0.4422098994255066,-0.3599298894405365,-1.1841250658035278,-2.1725125312805176,-2.62373948097229
5.342747926712036,-0.47809427976608276,-0.00950080156326294,0.22394490242004395,-0.4157702833154278,-1.2167661632686178,2.2118143270165693,-0.8580721616744995,0.40389472246170044,-0.31714555621147156,-0.8564435839653015,-1.933448314666748,-2.704941511154175
5.362468004226685,-0.487773060798645,0.045858949422836304,0.17551714181900024,-0.37019243163481036,-1.2697261085085818,2.1764376525317743,-0.8903245329856873,0.3617948293685913,-0.27645400166511536,-0.8152461051940918,-2.078094959259033,-2.6746890544891357
5.3844709396362305,-0.36497634649276733,0.12056434154510498,0.12536877393722534,-0.3238002398041469,-1.3257288866379016,2.1421831250104386,-0.9197069406509399,0.31817159056663513,-0.23001348972320557,-1.0635112524032593,-2.3412296772003174,-2.682772159576416
5.4023730754852295,-0.37582892179489136,0.15644580125808716,0.0757954865694046,-0.2766819878039256,-1.3827986855086902,2.10654292185369,-0.9450175762176514,0.27316534519195557,-0.1797841340303421,-1.2267658710479736,-2.2773478031158447,-2.6277856826782227
5.422077894210815,-0.3729379177093506,0.17726798355579376,0.01660110056400299,-0.2311885014217058,-1.4356993277952133,2.0721319297864302,-0.9645254015922546,0.22913455963134766,-0.131103053689003,-1.3389195203781128,-2.1655242443084717,-2.4137258529663086
5.442162036895752,-0.26924532651901245,0.22066442668437958,-0.0727047324180603,-0.18783248498585176,-1.4855901298579215,2.039396376330989,-0.9788473844528198,0.18672993779182434,-0.0836062878370285,-1.356886625289917,-2.1519861221313477,-2.2599194049835205
5.462666034698486,-0.16527509689331055,0.28829318284988403,-0.16521602869033813,-0.14637197251162204,-1.5336721486210612,2.0087934605080076,-0.9886252284049988,0.14584986865520477,-0.03671876713633537,-1.3918126821517944,-2.1403322219848633,-2.0528926849365234
5.483496904373169,-0.09456920623779297,0.35009583830833435,-0.23188042640686035,-0.10846014129818654,-1.5797221830530026,1.980381825327632,-0.9940842986106873,0.10824762284755707,0.008873289451003075,-1.3782308101654053,-2.116032838821411,-1.8015799522399902
5.502719163894653,-0.09128808975219727,0.44697272777557373,-0.27751052379608154,-0.07239284311476124,-1.62298811924727,1.9543710823376743,-0.9960227012634277,0.07232962548732758,0.05203146114945412,-1.3258031606674194,-1.9450325965881348,-1.7384365797042847
5.521837949752808,-0.1196863055229187,0.4927002787590027,-0.30940139293670654,-0.03732239802239955,-1.660807839165661,1.929704867405312,-0.995258092880249,0.037313733249902725,0.08982741087675095,-1.4094693660736084,-1.7374712228775024,-1.5690041780471802
5.542040109634399,-0.14966201782226562,0.5213245749473572,-0.3718761205673218,-0.004615347506931899,-1.6942228564947672,1.9035435470400976,-0.9923821687698364,0.004615331068634987,0.12311208993196487,-1.5177831649780273,-1.5296250581741333,-1.4290544986724854
5.562364816665649,-0.15832161903381348,0.5881609320640564,-0.45301103591918945,0.026686443051093196,-1.7215904886323226,1.8784690281063061,-0.9883001446723938,-0.026683276519179344,0.15016984939575195,-1.3974963426589966,-1.2484169006347656,-1.3041263818740845
5.582005023956299,-0.10336047410964966,0.6590545773506165,-0.562251091003418,0.054589514381921014,-1.7444516010976898,1.8555744759036263,-0.9834925532341003,-0.05456240475177765,0.17252640426158905,-1.3467369079589844,-1.1363661289215088,-1.0762168169021606
5.602028131484985,-0.0421069860458374,0.6676781177520752,-0.6285198926925659,0.07820399882132337,-1.763329034569597,1.8319183372617418,-0.9785230159759521,-0.07812430709600449,0.19076062738895416,-1.442818284034729,-0.8792338967323303,-0.7977423667907715
5.621963977813721,-0.0063433051109313965,0.6801772117614746,-0.662122368812561,0.09658713852864849,-1.7744664370635164,1.8041475837176117,-0.9747663736343384,-0.09643702954053879,0.20132221281528473,-1.6375939846038818,-0.4603124260902405,-0.45162588357925415
5.641602993011475,0.05445784330368042,0.7035284042358398,-0.668168306350708,0.1090790847136465,-1.7765079424122696,1.7724934421407395,-0.9730980396270752,-0.10886290669441223,0.20304985344409943,-1.646108627319336,-0.11552858352661133,-0.14478576183319092
5.663010835647583,0.11643511056900024,0.7577716112136841,-0.714913010597229,0.11517330251939512,-1.7733643118054416,1.743851412943946,-0.9730634689331055,-0.11491884291172028,0.1998525857925415,-1.2016736268997192,0.06566623598337173,0.1220415011048317
5.683160066604614,0.14199399948120117,0.8382839560508728,-0.7653759717941284,0.11387479894605558,-1.770326504712792,1.7271620872644893,-0.9738115668296814,-0.11362884938716888,0.1969251036643982,-0.36019086837768555,0.019866611808538437,0.3248765766620636
5.69999098777771,0.11666113138198853,0.8567699790000916,-0.7847903966903687,0.10566955556430553,-1.770477729420999,1.7263093074713274,-0.9746628403663635,-0.10547301173210144,0.19725067913532257,0.38715070486068726,-0.04864666610956192,0.4947221577167511
5.721606969833374,0.002717912197113037,0.8151978254318237,-0.700442373752594,0.09206122496957243,-1.7711456346457675,1.7355923511565174,-0.9758474826812744,-0.09193123877048492,0.19816897809505463,0.7078089118003845,0.13948380947113037,0.6633754968643188
5.741998910903931,-0.17943644523620605,0.7377400398254395,-0.5485047101974487,0.0742951955914719,-1.7643795855819884,1.7452203547607283,-0.9786142706871033,-0.07422686368227005,0.19184578955173492,0.5779039263725281,0.6415854692459106,0.9014660716056824
5.76128888130188,-0.38446134328842163,0.6652451157569885,-0.4578045606613159,0.05218593560442352,-1.7471288559297347,1.7517310448288559,-0.9831534624099731,-0.052162252366542816,0.17518135905265808,0.4931001365184784,1.1366817951202393,1.1523007154464722
5.780972957611084,-0.5760534405708313,0.6787011623382568,-0.46650731563568115,0.025719386389322158,-1.7185226071224269,1.7587400748258333,-0.9887813329696655,-0.025716550648212433,0.14714090526103973,0.6247221827507019,1.7312383651733398,1.3499802350997925
5.8011181354522705,-0.5122031569480896,0.6008307337760925,-0.3679317235946655,-0.005706128052362955,-1.6815710714799506,1.7662397429617829,-0.9938544631004333,0.00570609699934721,0.1105465218424797,0.4909030795097351,1.8981130123138428,1.7270033359527588
5.821007966995239,-0.36593520641326904,0.45851370692253113,-0.22296977043151855,-0.0465843101946012,-1.6447284162636133,1.7712967956850785,-0.996186375617981,0.046567462384700775,0.07378462702035904,0.44872382283210754,1.7740167379379272,2.3022122383117676
5.840862989425659,-0.4702019691467285,0.3887891471385956,-0.15045547485351562,-0.09709637051223349,-1.6081398358090744,1.779725522988816,-0.9945960640907288,0.09694387763738632,0.03715898096561432,0.7216589450836182,1.8531180620193481,2.6268093585968018
5.861572027206421,-0.6553733944892883,0.3772578835487366,-0.10534435510635376,-0.15062421831652267,-1.5667658607423165,1.7980526631151674,-0.9886696338653564,0.15005531907081604,-0.003984821029007435,1.201966404914856,2.007551431655884,2.6569855213165283
5.880790948867798,-0.6802800893783569,0.3343769311904907,-0.05519837141036987,-0.20350867645386148,-1.5213629761876823,1.828888140295235,-0.9781672358512878,0.20210683345794678,-0.04839351028203964,1.6815298795700073,1.9503793716430664,2.735861301422119
5.900914907455444,-0.6128509640693665,0.23516741394996643,0.01816745102405548,-0.2567335110546771,-1.4743095782949027,1.871203067091845,-0.9627256989479065,0.2539224922657013,-0.0931796133518219,2.020650863647461,1.7936817407608032,2.885892152786255
5.92079496383667,-0.6048066020011902,0.13333353400230408,0.1140376478433609,-0.3097040395337988,-1.4241829343776886,1.922292334080624,-0.9422056674957275,0.30477675795555115,-0.1391383558511734,2.220568895339966,1.837659239768982,2.9744837284088135
5.940502882003784,-0.6082158088684082,0.04463663697242737,0.2046850323677063,-0.3608161174106562,-1.3663411178964129,1.9810873843602643,-0.9161220192909241,0.35303792357444763,-0.18996022641658783,2.347578763961792,1.9977095127105713,3.0289418697357178
5.9604408740997314,-0.5092330574989319,-0.04148763418197632,0.27162763476371765,-0.4089300575191629,-1.3020522820165474,2.0454181696072826,-0.8846117258071899,0.3976278305053711,-0.24362777173519135,2.3014886379241943,2.013845682144165,3.065795421600342
5.98063588142395,-0.4100450277328491,-0.14498287439346313,0.3285260796546936,-0.45433751640918046,-1.233855767372699,2.111776903667082,-0.8480269312858582,0.43886712193489075,-0.29706239700317383,2.095961570739746,2.05311918258667,3.065964698791504
6.001017808914185,-0.34899193048477173,-0.26252132654190063,0.3828640282154083,-0.4970112929871899,-1.1624097920383074,2.1777301629190142,-0.8067241907119751,0.4768005609512329,-0.3490810692310333,1.803928017616272,2.0672695636749268,3.048110008239746
6.020559072494507,-0.296683132648468,-0.3455525040626526,0.4330742657184601,-0.5370264971658433,-1.0904594346392829,2.2406967912028537,-0.762002170085907,0.5115833282470703,-0.3970329463481903,1.4331732988357544,2.0219409465789795,2.9003617763519287
6.040210008621216,-0.28396904468536377,-0.38730502128601074,0.47499921917915344,-0.5724322316889111,-1.0205319700922302,2.2990001896673045,-0.716503918170929,0.5416781306266785,-0.4395529627799988,1.1592904329299927,1.9088211059570312,2.6312026977539062
6.060174942016602,-0.31821954250335693,-0.40435004234313965,0.5220862627029419,-0.6023142573085524,-0.9521025804067921,2.3532083002976485,-0.6712824702262878,0.5665509700775146,-0.477912038564682,0.9685854911804199,1.956620693206787,2.3640871047973633
6.080358982086182,-0.32865458726882935,-0.45296764373779297,0.5918089151382446,-0.6272549974555585,-0.8838057867610963,2.4029789195070617,-0.6259810328483582,0.5869244933128357,-0.5134854912757874,0.7246766686439514,1.9906665086746216,2.094797372817993
6.100222826004028,-0.2931932210922241,-0.5151562690734863,0.6555765271186829,-0.6489996139175451,-0.8193222586011982,2.4452048070119257,-0.5821272730827332,0.6043897271156311,-0.5439127087593079,0.40684768557548523,1.9388595819473267,1.7813235521316528
6.120000123977661,-0.25066977739334106,-0.5661160945892334,0.6778550744056702,-0.6684250762144354,-0.7615867050977326,2.4788273280699475,-0.5415665507316589,0.6197507381439209,-0.5679917931556702,0.13255417346954346,1.7772239446640015,1.4846867322921753
6.1400110721588135,-0.20478546619415283,-0.5854666829109192,0.6757990121841431,-0.6859911898572228,-0.7121839078803263,2.504441719108192,-0.5056638121604919,0.6334403157234192,-0.5857111215591431,-0.06736119836568832,1.5489583015441895,1.1732631921768188
6.1599860191345215,-0.163822203874588,-0.6055572032928467,0.6744512319564819,-0.7005856541935018,-0.6720738387136659,2.522964306226283,-0.4759635925292969,0.644665539264679,-0.5982183218002319,-0.1414378136396408,1.2816500663757324,0.8574320077896118
6.1800830364227295,-0.12373852729797363,-0.6280257701873779,0.6608180999755859,-0.7114238041050006,-0.6424236201919444,2.5347574269828095,-0.45380669832229614,0.6529128551483154,-0.6064357757568359,-0.17641587555408478,0.8936156630516052,0.4986986815929413
6.200098037719727,-0.10443738102912903,-0.6132054924964905,0.6356672644615173,-0.7168301289972815,-0.6281145146053331,2.5379439716410026,-0.44300225377082825,0.6569982171058655,-0.6100019812583923,-0.09700541943311691,0.2943863272666931,0.011806642636656761
6.220037937164307,-0.17873984575271606,-0.5560545921325684,0.5933694243431091,-0.7144151498936339,-0.6321266696042833,2.532406018459328,-0.4463822841644287,0.6551756858825684,-0.6094979643821716,0.009864835068583488,-0.268754780292511,-0.500092089176178
6.240134954452515,-0.29777905344963074,-0.5020991563796997,0.5988589525222778,-0.7054212834748634,-0.6490670459906229,2.51688990505298,-0.46018609404563904,0.6483546495437622,-0.6065188646316528,-0.03147399052977562,-0.3498680293560028,-0.9698846340179443
6.26000714302063,-0.36197152733802795,-0.5193838477134705,0.6473800539970398,-0.6957360714561949,-0.6706999613619875,2.490796788074869,-0.4770788252353668,0.640950620174408,-0.6013137698173523,-0.46541839838027954,-0.18505263328552246,-1.1665873527526855
6.28007698059082,-0.2637495696544647,-0.5763665437698364,0.6328504681587219,-0.690052514935261,-0.7027384959865048,2.453488684239461,-0.4984422028064728,0.6365776658058167,-0.5884931087493896,-0.8762831687927246,-0.7545849680900574,-1.4820398092269897
6.300011873245239,-0.22791755199432373,-0.4843045473098755,0.5361721515655518,-0.6808009455455958,-0.7553830013565224,2.4064131583185437,-0.5327332019805908,0.6294156312942505,-0.565713107585907,-0.7933071255683899,-1.51435124874115,-1.8479777574539185
6.320011854171753,-0.4111454486846924,-0.3139720559120178,0.4524291753768921,-0.6605070451381401,-0.8206946034942603,2.357937504882804,-0.5777462124824524,0.6135173439979553,-0.5383360981941223,-0.4554494619369507,-1.9074480533599854,-2.312614679336548
6.340133905410767,-0.6774344444274902,-0.2337002158164978,0.4434034824371338,-0.627181330797694,-0.8850895490662463,2.3087597575429872,-0.62667316198349,0.5868648290634155,-0.5127087831497192,-0.44369277358055115,-1.4762717485427856,-2.74027419090271
6.36001181602478,-0.6424514055252075,-0.22749578952789307,0.5076056718826294,-0.5917911749320561,-0.9431335641910992,2.252749526749504,-0.6717575788497925,0.5578485131263733,-0.48738768696784973,-1.0751312971115112,-1.3249027729034424,-2.857755661010742
6.380097150802612,-0.35916316509246826,-0.26068007946014404,0.4420901834964752,-0.5591736857216763,-1.0136182098092497,2.187056814426595,-0.7194806337356567,0.5304859280586243,-0.44825470447540283,-1.6327412128448486,-2.1850080490112305,-2.927870750427246
6.400008916854858,-0.44104528427124023,-0.20369356870651245,0.3803943395614624,-0.526336452196543,-1.0952203816297257,2.1170017794524214,-0.76870197057724,0.5023690462112427,-0.3958819806575775,-1.9276529550552368,-2.1739442348480225,-2.8897628784179688
6.420011043548584,-0.7256821990013123,-0.1363697350025177,0.34410330653190613,-0.49130068695124834,-1.1675088170505088,2.048030992726015,-0.8109846711158752,0.4717731177806854,-0.34602591395378113,-2.0434696674346924,-1.752502202987671,-2.868042469024658
6.43997597694397,-0.679373562335968,-0.015397995710372925,0.2667561173439026,-0.451970390913281,-1.232482480859748,1.9805506365589174,-0.8485958576202393,0.43673890829086304,-0.2985706925392151,-2.133162021636963,-1.7714654207229614,-3.0048491954803467
6.460103988647461,-0.5150379538536072,0.11714303493499756,0.17623502016067505,-0.40615412405940315,-1.2969110018467653,1.9164707182306469,-0.8844066858291626,0.39507925510406494,-0.24847014248371124,-2.041395902633667,-1.9672465324401855,-3.1106514930725098
6.480054140090942,-0.4776601791381836,0.1607172191143036,0.12604303658008575,-0.35663682488305476,-1.3565427651847706,1.858596396743896,-0.9156504273414612,0.3491246700286865,-0.19923940300941467,-2.0035245418548584,-1.829714059829712,-2.9643781185150146
6.500110864639282,-0.4292941689491272,0.16340553760528564,0.08086811006069183,-0.3085219872743733,-1.4089681407360688,1.8055392202253184,-0.9403349161148071,0.30365073680877686,-0.15351514518260956,-2.0451114177703857,-1.6998764276504517,-2.712775945663452
6.520107984542847,-0.32494598627090454,0.23586007952690125,0.01586689054965973,-0.2622213005580221,-1.4561641797681428,1.755417436048516,-0.9594777822494507,0.25922656059265137,-0.11047130823135376,-2.0797247886657715,-1.623572587966919,-2.5575292110443115
6.5401389598846436,-0.2316170334815979,0.310194194316864,-0.0655176043510437,-0.21667423362436064,-1.4996585618606568,1.7083812672967629,-0.9741477966308594,0.21498282253742218,-0.06941583007574081,-2.0493266582489014,-1.6268157958984375,-2.40617299079895
6.560061931610107,-0.1669277548789978,0.37965869903564453,-0.13305652141571045,-0.17181400579939077,-1.5414289995913815,1.6659292383156372,-0.9848514795303345,0.17096993327140808,-0.028930772095918655,-1.8891738653182983,-1.713773488998413,-2.2960822582244873
6.580115079879761,-0.17625945806503296,0.44586169719696045,-0.15693652629852295,-0.12755826488630098,-1.5802266921379866,1.6281677584266736,-0.991831362247467,0.12721262872219086,0.009353609755635262,-1.8489229679107666,-1.589738368988037,-2.1573097705841064
6.600056886672974,-0.1870984435081482,0.46307313442230225,-0.17954695224761963,-0.08540098661127644,-1.615020860981122,1.5913294131121667,-0.9953814744949341,0.08529721200466156,0.04404900223016739,-1.9423433542251587,-1.498481273651123,-1.9579802751541138
6.620090961456299,-0.18385636806488037,0.5211796760559082,-0.21496319770812988,-0.04545585692413287,-1.6458928872918512,1.555570792368041,-0.9961516261100769,0.045440204441547394,0.0749485045671463,-1.8155536651611328,-1.3579919338226318,-1.8181902170181274
6.6400158405303955,-0.18216878175735474,0.6232211589813232,-0.3170887231826782,-0.007394130311863178,-1.672977669765811,1.524853995285207,-0.994756817817688,0.0073940628208220005,0.10200083255767822,-1.5837608575820923,-1.285512924194336,-1.7137161493301392
6.659996032714844,-0.15191435813903809,0.6927846670150757,-0.41092824935913086,0.029519910472913805,-1.6972807313577627,1.5007338231104426,-0.9915792346000671,-0.029515624046325684,0.12609244883060455,-1.2181590795516968,-1.1396862268447876,-1.6243934631347656
6.68000602722168,-0.09006291627883911,0.7494980692863464,-0.49746596813201904,0.0622060442350835,-1.7177092655843071,1.4842747646889456,-0.9873144626617432,-0.06216593459248543,0.1461019068956375,-0.9140583276748657,-0.9513726234436035,-1.342954158782959
6.700044870376587,-0.00022071599960327148,0.7518763542175293,-0.517586350440979,0.0888309525876656,-1.7333048784944107,1.4692549467331981,-0.9829335808753967,-0.08871417492628098,0.1611562818288803,-1.0158225297927856,-0.7199456691741943,-1.043067455291748
6.720010042190552,0.05898857116699219,0.7390754222869873,-0.5484042167663574,0.10962572397009651,-1.7435576635221077,1.4508281793545543,-0.9792004823684692,-0.10940627753734589,0.17087134718894958,-1.1226733922958374,-0.4936728775501251,-0.6899842023849487
6.740008115768433,0.08599573373794556,0.7848955988883972,-0.6130367517471313,0.12355813794235776,-1.7490547328572796,1.4306774072546016,-0.9766512513160706,-0.12324399501085281,0.17596407234668732,-1.0485460758209229,-0.3101280629634857,-0.3594951629638672
6.7600390911102295,0.09119009971618652,0.8419765830039978,-0.6678986549377441,0.13120154760299502,-1.75231971060818,1.414910392983047,-0.975116491317749,-0.1308254599571228,0.17897658050060272,-0.571900486946106,-0.24105916917324066,-0.10709167271852493
6.780010938644409,0.06507682800292969,0.9081037640571594,-0.699260950088501,0.13150493329560337,-1.7559330452319617,1.4096406675732849,-0.9744242429733276,-0.13112622499465942,0.1824914962053299,0.025529667735099792,-0.17273427546024323,0.16763584315776825
6.800011873245239,-0.009313225746154785,0.8966276049613953,-0.665847659111023,0.12458029580588276,-1.7568650841645788,1.411628279557143,-0.9751229286193848,-0.12425829470157623,0.183563232421875,0.187148779630661,0.13576489686965942,0.49249744415283203
6.82000994682312,-0.07561039924621582,0.7984240651130676,-0.5525861978530884,0.11086112495221459,-1.7495548526757392,1.4093295439472493,-0.9780243039131165,-0.11063417792320251,0.17671650648117065,-0.1915770322084427,0.5799643993377686,0.9325125813484192
6.840059041976929,-0.0936616063117981,0.6861769556999207,-0.4991295337677002,0.0880852898837975,-1.7330211090008378,1.3976597669572437,-0.9830443859100342,-0.08797142654657364,0.16088800132274628,-0.5330294370651245,0.9151914715766907,1.498037576675415
6.860008001327515,-0.045100390911102295,0.6678932309150696,-0.5197951793670654,0.056473046221129204,-1.7139421239062522,1.3825401648410853,-0.9881942868232727,-0.05644303187727928,0.14243002235889435,-0.3517013192176819,0.8087835907936096,1.8188544511795044
6.880009889602661,-0.035955727100372314,0.7309112548828125,-0.573914647102356,0.01869309986660096,-1.7012712395571896,1.3793074118389226,-0.9913269281387329,-0.018692011013627052,0.13008229434490204,0.6624979376792908,0.43773043155670166,1.964797854423523
6.900008916854858,-0.20693862438201904,0.8064538240432739,-0.5716474056243896,-0.023794406835747975,-1.693721697358425,1.4014517423904647,-0.9921733140945435,0.02379216067492962,0.12258132547140121,2.081261396408081,0.39498358964920044,1.9344983100891113
6.9200098514556885,-0.48792433738708496,0.7612489461898804,-0.46309030055999756,-0.0662531076514402,-1.6787724599299632,1.449191465431414,-0.9919952154159546,0.06620465219020844,0.10753002017736435,3.052224636077881,0.930092453956604,1.7605559825897217
6.940026044845581,-0.6703649759292603,0.598713219165802,-0.2923862934112549,-0.10799373669140501,-1.6488264376165036,1.5092852761654887,-0.9911494255065918,0.10778394341468811,0.07749684900045395,3.1800107955932617,1.5226593017578125,1.8831806182861328
6.960018873214722,-0.7478238344192505,0.392480731010437,-0.1147608757019043,-0.15198802966040262,-1.6058907939924314,1.5662484698076709,-0.9878634810447693,0.151403546333313,0.03468278422951698,2.644263505935669,2.007823944091797,2.192075729370117
6.980000019073486,-0.8189039826393127,0.2335243672132492,0.028425870463252068,-0.20016744081073,-1.5530161922360355,1.6111178459059823,-0.9798785448074341,0.1988334357738495,-0.01742420718073845,1.8339389562606812,2.4790754318237305,2.5589513778686523
7.000010967254639,-0.8465531468391418,0.13283875584602356,0.051376163959503174,-0.25307864308375855,-1.4929540316757905,1.6467664832799338,-0.9652144908905029,0.25038573145866394,-0.07528664171695709,1.4759494066238403,2.6773903369903564,2.8976283073425293
7.0200090408325195,-0.7165007591247559,0.10592421889305115,-0.018451333045959473,-0.3104619141786673,-1.4303451564358227,1.6865049628690032,-0.9428162574768066,0.30549851059913635,-0.13329730927944183,1.7630966901779175,2.4464964866638184,3.233891487121582
7.040010929107666,-0.6043449640274048,0.11593237519264221,0.007950395345687866,-0.3687143096830737,-1.366219310367777,1.7379929493015398,-0.9133399128913879,0.360416442155838,-0.1894993931055069,1.9857540130615234,2.302027940750122,3.3012633323669434
7.060006856918335,-0.607611358165741,0.006363540887832642,0.12780660390853882,-0.4230095112589373,-1.2966930085407922,1.7967646904020593,-0.8778164982795715,0.41050654649734497,-0.24682514369487762,1.963958501815796,2.4065589904785156,3.2983617782592773
7.080009937286377,-0.5883980393409729,-0.1423308253288269,0.22735518217086792,-0.47480542968310807,-1.2201455064223568,1.8597749848034608,-0.8352622389793396,0.4571654200553894,-0.3055106997489929,1.8700801134109497,2.5042288303375244,3.388381242752075
7.100005865097046,-0.5407000780105591,-0.23261180520057678,0.3206862807273865,-0.522884409169398,-1.1377349123881328,1.9276117923174623,-0.7864026427268982,0.4993812143802643,-0.36357876658439636,1.8153846263885498,2.489515781402588,3.311223268508911
7.120007038116455,-0.5261216759681702,-0.2607958912849426,0.41076308488845825,-0.5632938171472177,-1.0512898072023427,1.9983139443056372,-0.7339491844177246,0.5339739918708801,-0.41975048184394836,1.7167993783950806,2.527535915374756,3.0520615577697754
7.140007972717285,-0.5108643174171448,-0.31006377935409546,0.4937470555305481,-0.594518045911948,-0.9614811254714478,2.0687835876754486,-0.6793364882469177,0.560109555721283,-0.4741089642047882,1.6083341836929321,2.599590301513672,2.767601490020752
7.16004490852356,-0.44036853313446045,-0.3629639148712158,0.5466793775558472,-0.6174803084353199,-0.8707480971211636,2.137437125659178,-0.623581051826477,0.5789825916290283,-0.5252864956855774,1.475584864616394,2.547288417816162,2.4958362579345703
7.1800079345703125,-0.3531525731086731,-0.4085967540740967,0.5748881101608276,-0.6328659297374831,-0.7840724724401005,2.201825496002532,-0.5694091320037842,0.5914580821990967,-0.5709208250045776,1.3123719692230225,2.3605573177337646,2.1758878231048584
7.199396848678589,-0.28651511669158936,-0.4352983832359314,0.6153375506401062,-0.6428549100054236,-0.7046458673305939,2.2582617871871973,-0.5184623003005981,0.5994828939437866,-0.6097680330276489,1.027631402015686,2.2302820682525635,1.8406182527542114
7.220010995864868,-0.22857296466827393,-0.4507383108139038,0.634297251701355,-0.6495034944210762,-0.634220081255456,2.3045649733809013,-0.4718970060348511,0.6047910451889038,-0.6415145993232727,0.767673909664154,2.044576406478882,1.487457513809204
7.240041017532349,-0.172217458486557,-0.4494587182998657,0.6470316648483276,-0.6536128059449765,-0.5734808271115551,2.3416644920651755,-0.4307335913181305,0.6080585718154907,-0.6668833494186401,0.5745724439620972,1.7905439138412476,1.193755865097046
7.260008096694946,-0.13118049502372742,-0.4448121190071106,0.6839021444320679,-0.6562579688645485,-0.5227648706777627,2.3704496296709676,-0.39556819200515747,0.6101564168930054,-0.6864655613899231,0.39894986152648926,1.533099889755249,0.8940351009368896
7.280005931854248,-0.1346338391304016,-0.4448445439338684,0.7249540090560913,-0.6579177103517359,-0.48349020642013435,2.390340045299866,-0.3678380846977234,0.6114705204963684,-0.7005704641342163,0.21633777022361755,1.195335030555725,0.5748547315597534
7.300006151199341,-0.13712745904922485,-0.44126564264297485,0.7228456139564514,-0.6597211126136403,-0.4566784202812012,2.4008708099748333,-0.34843775629997253,0.6128965020179749,-0.7091889977455139,-0.01398391928523779,0.8499408960342407,0.2459639310836792
7.320050001144409,-0.17061680555343628,-0.42905181646347046,0.7232603430747986,-0.6632512150199518,-0.44225023070514086,2.4013907417905163,-0.3372414708137512,0.615682065486908,-0.7121824622154236,-0.27906325459480286,0.5796181559562683,-0.04634175822138786
7.340003967285156,-0.19944152235984802,-0.41584521532058716,0.6833710670471191,-0.6687915847656013,-0.4371984272820246,2.3940553707660133,-0.33218997716903687,0.6200383305549622,-0.7107758522033691,-0.4784916341304779,0.369840532541275,-0.2358974665403366
7.360006093978882,-0.18556028604507446,-0.41696858406066895,0.6758888959884644,-0.6768225318580134,-0.4424029394438589,2.3796338648915216,-0.3337421119213104,0.626319169998169,-0.7045144438743591,-0.7433014512062073,-0.019812358543276787,-0.4609212875366211
7.380012035369873,-0.16911137104034424,-0.43282341957092285,0.6770854592323303,-0.6865902241802658,-0.4631513991903326,2.355337234397986,-0.3455370366573334,0.6339036822319031,-0.6919322609901428,-0.921751856803894,-0.5635199546813965,-0.8392700552940369
7.400006055831909,-0.23063912987709045,-0.4133719205856323,0.5925368070602417,-0.6921513450999783,-0.5040165996003543,2.32030584224467,-0.37180840969085693,0.6381949186325073,-0.6741408109664917,-0.8141372799873352,-1.2626811265945435,-1.3092470169067383
7.4200170040130615,-0.38211381435394287,-0.33144426345825195,0.4834809899330139,-0.6888418291832901,-0.5584531962473922,2.2762433720765753,-0.40905439853668213,0.6356435418128967,-0.6546998620033264,-0.6137464046478271,-1.2548885345458984,-1.8067958354949951
7.440015077590942,-0.4658955931663513,-0.25327450037002563,0.38435715436935425,-0.6741075763942825,-0.6128076762533644,2.2253499118833235,-0.4493570625782013,0.6242003440856934,-0.6391026377677917,-0.3678167164325714,-1.0631998777389526,-2.2776296138763428
7.4600441455841064,-0.26707303524017334,-0.24081414937973022,0.3157079219818115,-0.6512368372946511,-0.6725584039925351,2.172025124653066,-0.49548497796058655,0.6061705946922302,-0.6221349239349365,-0.3815661370754242,-1.7842336893081665,-2.406738042831421
7.480005979537964,-0.15569591522216797,-0.26263582706451416,0.3378008008003235,-0.6294130519641262,-0.7470313217783467,2.119301744128913,-0.5492601990699768,0.5886703729629517,-0.5931108593940735,-0.7933601140975952,-2.3590521812438965,-2.193758487701416
7.500046014785767,-0.39115506410598755,-0.23788338899612427,0.23100680112838745,-0.6153058938982234,-0.8239496768306859,2.0646042579276163,-0.5992471575737,0.5772083401679993,-0.5547372698783875,-1.3055084943771362,-2.0605571269989014,-1.9527716636657715
7.5200090408325195,-0.6579234004020691,-0.09291583299636841,0.12500804662704468,-0.6063166830920013,-0.8899298485341699,2.009399894911579,-0.6385244131088257,0.5698445439338684,-0.5172657370567322,-1.4981991052627563,-1.4081063270568848,-1.6958763599395752
7.540007829666138,-0.5825942158699036,0.10910040140151978,0.08517935872077942,-0.5993083931845143,-0.9466185504481978,1.9550431463874434,-0.6700302958488464,0.564071536064148,-0.48257923126220703,-1.689358115196228,-1.2815606594085693,-1.6146425008773804
7.560007810592651,-0.3724748492240906,0.14853990077972412,0.12180736660957336,-0.5961941437789445,-1.0075123093416016,1.8955210216607619,-0.6996381878852844,0.5614972710609436,-0.44184520840644836,-2.304161310195923,-1.4506253004074097,-1.3315606117248535
7.580009937286377,-0.352206826210022,0.101162850856781,0.145550936460495,-0.6040689553197409,-1.0713986200327137,1.828590851238471,-0.7225154042243958,0.5679960250854492,-0.394147127866745,-2.7666220664978027,-1.0701667070388794,-0.7508777379989624
7.6000049114227295,-0.4162200093269348,0.11149412393569946,0.04040476679801941,-0.6206075008161257,-1.123134415708388,1.7655710954623633,-0.7333618402481079,0.5815294981002808,-0.35214176774024963,-2.508305549621582,-0.5424345135688782,-0.17510457336902618
7.620004892349243,-0.26954180002212524,0.18164557218551636,-0.05811285972595215,-0.6383815732716446,-1.165578564834897,1.710551668362758,-0.7380266189575195,0.5958965420722961,-0.31658193469047546,-2.3431811332702637,-0.532821536064148,-0.15275758504867554
7.64007306098938,-0.10070204734802246,0.13684213161468506,-0.024772852659225464,-0.6494905306600899,-1.2120352762695776,1.6534692908911999,-0.74568772315979,0.6047807335853577,-0.27962470054626465,-2.3252193927764893,-0.6507260799407959,-0.5174028873443604
7.660003900527954,-0.0982256531715393,0.037585675716400146,-0.001317739486694336,-0.6531912016183692,-1.2582982453147507,1.595300754752577,-0.7556867599487305,0.6077237725257874,-0.24415038526058197,-2.141432285308838,-0.4401746690273285,-0.6195247173309326
7.68000602722168,-0.13482993841171265,0.00909501314163208,-0.013105928897857666,-0.6510824605784956,-1.295326525841557,1.5438089731713853,-0.7654386758804321,0.6060478091239929,-0.21635574102401733,-1.67362380027771,-0.135738343000412,-0.8200808167457581
7.700023889541626,-0.11872917413711548,0.07620179653167725,-0.13391882181167603,-0.637666684321611,-1.3222295542763318,1.5044081374241094,-0.7787927985191345,0.5953222513198853,-0.19766992330551147,-1.079174280166626,-0.23527735471725464,-1.309938907623291
7.720002889633179,-0.019165515899658203,0.07789480686187744,-0.1857299655675888,-0.6131242831222409,-1.349512705875215,1.4713201701746068,-0.7979121208190918,0.5754254460334778,-0.17950439453125,-1.0526214838027954,-0.5540047287940979,-1.6712110042572021
7.740003824234009,0.040411531925201416,-0.01794201135635376,-0.11554116010665894,-0.5849983598636724,-1.3816167092647522,1.434106588588978,-0.8188386559486389,0.5521979928016663,-0.15678241848945618,-1.436156988143921,-0.4949413537979126,-1.6563037633895874
7.7600181102752686,0.009456276893615723,0.01769435405731201,-0.12687020003795624,-0.5586059183267041,-1.4103870928994833,1.3922143145679737,-0.8371082544326782,0.5300045609474182,-0.13544359803199768,-1.4418869018554688,-0.06387710571289062,-1.5442899465560913
7.7800071239471436,0.038708388805389404,0.2154192328453064,-0.25396114587783813,-0.5325600484004268,-1.4238921399673574,1.3606915964334803,-0.8522306680679321,0.5077404975891113,-0.1261047124862671,-0.7755421996116638,0.2812633216381073,-1.467756748199463
7.8000099658966064,0.16182023286819458,0.4299262762069702,-0.37374043464660645,-0.5030752262107406,-1.4239071125307738,1.346817871526365,-0.8666694760322571,0.4821220338344574,-0.12822796404361725,0.15104494988918304,0.28475189208984375,-1.7456109523773193
7.820003032684326,0.2673664093017578,0.441268652677536,-0.4756220579147339,-0.4603309515659533,-1.4232502683160402,1.3513783045390448,-0.886171281337738,0.4442446231842041,-0.13170823454856873,0.4817971885204315,-0.4452511966228485,-2.2605092525482178
7.840041875839233,0.39077281951904297,0.1673317849636078,-0.2885581851005554,-0.42201886691894397,-1.4448651799493226,1.334398569190325,-0.9050398468971252,0.4096030294895172,-0.11457903683185577,-1.6612040996551514,-0.947429358959198,-1.7240108251571655
7.860085964202881,0.36062783002853394,-0.014757156372070312,-0.22005325555801392,-0.3926921542275583,-1.488195563971502,1.283692459038138,-0.9207321405410767,0.38267701864242554,-0.0762266218662262,-2.067800998687744,-1.893592119216919,-1.7392470836639404
7.8800108432769775,0.34617048501968384,0.5314743518829346,0.14502489566802979,-0.36262057726885427,-1.5505196964128798,1.242260486138244,-0.9347783327102661,0.35472559928894043,-0.018956752493977547,-1.6310166120529175,-1.5888029336929321,-1.4717093706130981
7.899623155593872,0.09192728996276855,0.6840234994888306,-0.4805394411087036,-0.33081228672910007,-1.5715648279153747,1.2226878739743867,-0.9457786083221436,0.3248113691806793,0.0007268320769071579,-0.26728343963623047,-0.7436320185661316,-1.8597118854522705
7.920053958892822,-0.11007356643676758,0.7854636311531067,-0.527995228767395,-0.28771879251581683,-1.5902064702074248,1.2189548507011048,-0.9587132334709167,0.2837655246257782,0.01861109770834446,-0.3744591474533081,-0.4621202051639557,-2.3608391284942627
7.940008878707886,0.011911630630493164,0.4974285662174225,-0.34177088737487793,-0.24318142010864638,-1.598883141551836,1.1927090798738726,-0.9701941609382629,0.24079164862632751,0.027256831526756287,-2.6621458530426025,-0.039913009852170944,-1.9266009330749512
7.96000599861145,-0.1435200572013855,0.3974519371986389,-0.3828362226486206,-0.2079404185245705,-1.614046971891639,1.1195035303165035,-0.9775431156158447,0.2064451277256012,0.042305752635002136,-4.112525463104248,0.3478482961654663,-1.3438290357589722
7.9799721240997314,-0.31414395570755005,0.895752489566803,-0.5181671380996704,-0.18336783688870983,-1.6160743765553385,1.043396616053904,-0.9822273850440979,0.18234197795391083,0.04450375586748123,-3.202122449874878,0.7577202916145325,-0.796544075012207
7.99994683265686,-0.18058085441589355,1.146690845489502,-0.5831232070922852,-0.17108286313475768,-1.6119908562823841,0.9998905599600988,-0.9845650792121887,0.17024950683116913,0.04058165103197098,-1.1189517974853516,0.3761008679866791,-0.20030587911605835
8.020004987716675,-0.018279314041137695,1.0879037380218506,-0.4491124153137207,-0.17558559269580934,-1.6086808061476345,0.9942456678856626,-0.9839180111885071,0.17468476295471191,0.03729306533932686,0.4375520348548889,0.08095482736825943,0.6506176590919495
8.039996862411499,-0.1147003173828125,0.9379801154136658,-0.2749670743942261,-0.19456221878824922,-1.6030765796633002,1.0113697699434303,-0.9806213974952698,0.19333703815937042,0.031665705144405365,1.223776936531067,0.24421405792236328,1.1148920059204102
8.06001591682434,-0.3128846287727356,0.7498566508293152,-0.22330641746520996,-0.22061759595872715,-1.5873671199585564,1.0413801555878581,-0.9756285548210144,0.21883229911327362,0.016168419271707535,1.7275599241256714,0.6395463943481445,1.4026318788528442
8.079684972763062,-0.3106730580329895,0.5780019760131836,-0.20398610830307007,-0.2529649258327167,-1.5637740037886276,1.0805256289936163,-0.968150794506073,0.2502756118774414,-0.006798779591917992,2.1387641429901123,0.7162466049194336,1.7940776348114014
8.100003957748413,-0.23002469539642334,0.4306791424751282,-0.1986902952194214,-0.2898223616786217,-1.536147130452222,1.1301690446384052,-0.9577195048332214,0.28578200936317444,-0.033197496086359024,2.5447001457214355,0.7313846945762634,1.9573272466659546
8.120004892349243,-0.2107791304588318,0.2944941520690918,-0.15877515077590942,-0.32746148422943794,-1.5038119161738601,1.186784679737937,-0.944738507270813,0.3216404318809509,-0.06337756663560867,2.6298696994781494,0.7814929485321045,2.095376491546631
8.140056848526001,-0.19745194911956787,0.1403660774230957,-0.09763860702514648,-0.3655544420121946,-1.4656591549927653,1.246294951551218,-0.9287688136100769,0.3574671447277069,-0.09800951927900314,2.640101671218872,1.0378655195236206,2.1648313999176025
