timestamp,acceleration_x,acceleration_y,acceleration_z,attitude_pitch,attitude_roll,attitude_yaw,gravity_x,gravity_y,gravity_z,rotation_x,rotation_y,rotation_z
0.0,-0.3258291482925415,-0.20313337445259094,0.08853566646575928,-0.4437504834609252,-1.0852424277378498,0.9785476322388093,-0.7987589836120605,0.4293297231197357,-0.4214976131916046,-0.7875053286552429,2.0855491161346436,1.9339649677276611
0.019971847534179688,-0.30192720890045166,-0.25834891200065613,0.14913693070411682,-0.48558177868781355,-1.0419361248324854,0.9835864159399873,-0.7635787725448608,0.4667229652404785,-0.44622546434402466,-0.8371985554695129,2.0160200595855713,1.939599871635437
0.039877891540527344,-0.3026653528213501,-0.3006640672683716,0.18943476676940918,-0.5265671213812201,-0.9991573177199673,0.9908959908167503,-0.7270894050598145,0.5025684833526611,-0.4677245020866394,-0.7513607144355774,1.909241795539856,1.8843591213226318
0.05992889404296875,-0.32923394441604614,-0.3361746668815613,0.24366164207458496,-0.5644136425463335,-0.9561825729552234,1.0015221440289148,-0.6902821063995361,0.5349205136299133,-0.4872070848941803,-0.6229163408279419,1.8400192260742188,1.759839415550232
0.07991480827331543,-0.33727437257766724,-0.3765007257461548,0.3179965615272522,-0.5980591769308524,-0.9130789757561782,1.0141638941631592,-0.6540282368659973,0.5630396008491516,-0.5052065849304199,-0.5343949198722839,1.7713074684143066,1.5650323629379272
0.09988975524902344,-0.3142949342727661,-0.4070087671279907,0.38522201776504517,-0.6270109278073835,-0.8718249327199531,1.0264583647138459,-0.6198939681053162,0.5867269039154053,-0.5210404396057129,-0.510760486125946,1.6476892232894897,1.317926287651062
0.11989188194274902,-0.2970541715621948,-0.43630069494247437,0.43229925632476807,-0.651628492825415,-0.8347471002763172,1.0357288690347792,-0.5892678499221802,0.6064820289611816,-0.5338006019592285,-0.558615505695343,1.5108604431152344,1.0188274383544922
0.13968896865844727,-0.2957446575164795,-0.4751996397972107,0.4713039994239807,-0.6722943192951256,-0.8038882567336921,1.0392532690631278,-0.5633710026741028,0.6227827072143555,-0.5429133176803589,-0.6645157933235168,1.3569239377975464,0.6747274994850159
0.15986180305480957,-0.2830243706703186,-0.5023398995399475,0.5023293495178223,-0.6893324595849701,-0.7814561371380414,1.0345208459908473,-0.5434984564781189,0.6360222101211548,-0.5478004217147827,-0.8127982020378113,1.187835931777954,0.27147963643074036
0.17984580993652344,-0.2637935280799866,-0.5190168023109436,0.530113697052002,-0.7028331460260343,-0.7694114318644436,1.0193933651824747,-0.5308384895324707,0.6463820338249207,-0.5480884313583374,-0.9714812636375427,0.9818854331970215,-0.1636735051870346
0.19995498657226562,-0.21174806356430054,-0.5310708284378052,0.5333319902420044,-0.712350146355435,-0.770363520253864,0.9924161963807206,-0.5270520448684692,0.6536142230033875,-0.5431432723999023,-1.146651268005371,0.672387957572937,-0.6686608791351318
0.21987581253051758,-0.25379323959350586,-0.5228087306022644,0.5288379192352295,-0.716481321507411,-0.7868502546148409,0.9510741014841917,-0.5340180993080139,0.6567352414131165,-0.5324694514274597,-1.3665333986282349,0.39003390073776245,-1.290040373802185
0.23987770080566406,-0.38809776306152344,-0.49192702770233154,0.5403323173522949,-0.7140989131011671,-0.8213921809995005,0.8907934791794786,-0.5532322525978088,0.6549367308616638,-0.5147737860679626,-1.7931556701660156,0.1467709094285965,-2.0644869804382324
0.25989389419555664,-0.4989359974861145,-0.4568610191345215,0.6588530540466309,-0.7041648544631026,-0.8734129727272861,0.8080339365663675,-0.584209144115448,0.647397518157959,-0.4894651472568512,-2.239013910293579,0.019974272698163986,-2.8338449001312256
0.27991390228271484,-0.4033752679824829,-0.369021475315094,0.692158043384552,-0.6847308496769613,-0.9398642628596633,0.7089772404910188,-0.6254639625549316,0.6324645280838013,-0.45692846179008484,-2.583784580230713,-0.3406692147254944,-3.3587512969970703
0.2998487949371338,-0.21653246879577637,-0.345012903213501,0.5555513501167297,-0.658138317604135,-1.0175919231421242,0.6002591051312662,-0.6731312870979309,0.6116451025009155,-0.4156739413738251,-3.022911548614502,-0.6215938329696655,-3.5572850704193115
0.3198738098144531,-0.13692748546600342,-0.34356528520584106,0.3323473632335663,-0.6274097855161497,-1.0974119345272095,0.4884017175943878,-0.7205249667167664,0.5870498418807983,-0.36907514929771423,-3.30493426322937,-0.5932498574256897,-3.5187125205993652
0.33986687660217285,-0.2180119752883911,-0.276073694229126,0.04216715693473816,-0.5933107262415348,-1.169712815642607,0.37940969283482895,-0.7632960677146912,0.5591089725494385,-0.323691725730896,-3.281308174133301,-0.4265803098678589,-3.3759589195251465
0.3596618175506592,-0.26589012145996094,-0.1977660059928894,0.024625927209854126,-0.553959682033221,-1.2303779241153572,0.2823968046391023,-0.8016452193260193,0.5260588526725769,-0.2839489281177521,-2.868649959564209,-0.3622964024543762,-3.2711403369903564
0.3795328140258789,-0.3293214440345764,-0.13539719581604004,0.1520000696182251,-0.5081338965150213,-1.2769474909119338,0.20158052056343892,-0.8362060189247131,0.4865477681159973,-0.25304362177848816,-2.356856107711792,-0.18094952404499054,-3.289011240005493
0.40008068084716797,-0.4163197875022888,-0.0817292332649231,0.2167612910270691,-0.45597884321959686,-1.310761436586148,0.1343735567862637,-0.8676463961601257,0.44034135341644287,-0.23084503412246704,-1.9854240417480469,-0.11409635841846466,-3.3835697174072266
0.41989898681640625,-0.39291346073150635,-0.011739462614059448,0.139861062169075,-0.3984505306068681,-1.337945601391915,0.07634568377107628,-0.8967899680137634,0.38799071311950684,-0.21267588436603546,-1.774723768234253,-0.19690318405628204,-3.491464376449585
0.4398946762084961,-0.35604506731033325,0.04343858361244202,0.08703717589378357,-0.33745682513192005,-1.361888285289702,0.023833525516780894,-0.9230839610099792,0.33108842372894287,-0.19569484889507294,-1.6921844482421875,-0.32702717185020447,-3.5371286869049072
0.4599437713623047,-0.27991724014282227,0.10104158520698547,0.08586429059505463,-0.27462020425987244,-1.3852350679639003,-0.024731324697715162,-0.9460046291351318,0.2711814045906067,-0.17758475244045258,-1.6227940320968628,-0.5353692770004272,-3.5368356704711914
0.47989583015441895,-0.2410576343536377,0.15602761507034302,0.05836571753025055,-0.21085735620931786,-1.4083740307293142,-0.06938502252588999,-0.9649818539619446,0.20929834246635437,-0.1581275314092636,-1.5473157167434692,-0.693830668926239,-3.4997670650482178
0.49922800064086914,-0.2105022668838501,0.22317591309547424,-0.0137939453125,-0.14693539831638866,-1.4301352527578006,-0.1093499120460796,-0.9794544577598572,0.14640724658966064,-0.13868699967861176,-1.3591039180755615,-0.7621179223060608,-3.410552978515625
0.5198979377746582,-0.1954439878463745,0.347821980714798,-0.09008318185806274,-0.08397837197493706,-1.4490148223122556,-0.1422377397332864,-0.98909592628479,0.08387970179319382,-0.12105261534452438,-1.0485169887542725,-0.7304830551147461,-3.2577381134033203
0.5398938655853271,-0.19980394840240479,0.44047921895980835,-0.12059562653303146,-0.023542723887128737,-1.464155569629819,-0.16742825561919852,-0.99404376745224,0.023540548980236053,-0.10640925914049149,-0.7919514179229736,-0.641757071018219,-3.035310983657837
0.5598959922790527,-0.19986653327941895,0.5251307487487793,-0.08833134174346924,0.03313246071858338,-1.4759349604063776,-0.18842094108620752,-0.9949578046798706,-0.03312639892101288,-0.09466718882322311,-0.779998779296875,-0.5425547361373901,-2.8158164024353027
0.5799360275268555,-0.1923283338546753,0.5856665968894958,-0.06499093025922775,0.08558793999880442,-1.4845780416441383,-0.21139692347760725,-0.9926387667655945,-0.08548348397016525,-0.0857963114976883,-1.0716718435287476,-0.4585018455982208,-2.6119110584259033
0.5998997688293457,-0.15639132261276245,0.6417806148529053,-0.1009681299328804,0.1331866197752996,-1.4900080545619396,-0.2411640859766241,-0.9879112839698792,-0.13279320299625397,-0.07998573780059814,-1.4879893064498901,-0.42609384655952454,-2.3728244304656982
0.6199049949645996,-0.09436476230621338,0.6882441639900208,-0.15101593732833862,0.175192457094723,-1.4924147251068642,-0.2780433683884571,-0.9816699028015137,-0.17429764568805695,-0.07710282504558563,-1.776166319847107,-0.370083749294281,-2.0972657203674316
0.6399669647216797,-0.052747249603271484,0.7792240381240845,-0.1772308349609375,0.21155416091057447,-1.4914152950216906,-0.3168885042077343,-0.9746271371841431,-0.20997966825962067,-0.07752982527017593,-1.658745288848877,-0.2755410075187683,-1.8337061405181885
0.6598978042602539,-0.010563194751739502,0.9044009447097778,-0.21142899990081787,0.24359492899021068,-1.4909838441030536,-0.34795407532395284,-0.9673879146575928,-0.24119296669960022,-0.07737398892641068,-1.065856695175171,-0.40025559067726135,-1.5919601917266846
0.6800956726074219,-0.007307708263397217,1.0185024738311768,-0.2720194458961487,0.27141041576368347,-1.4959219510458082,-0.3645667145319651,-0.9606947302818298,-0.26809048652648926,-0.07206614315509796,-0.32550886273384094,-0.50721675157547,-1.3060863018035889
0.6998958587646484,-0.11012625694274902,1.0805878639221191,-0.325922429561615,0.29390740650047426,-1.5064028764358421,-0.3657197313293375,-0.9551356434822083,-0.28969427943229675,-0.06158963218331337,0.35249072313308716,-0.5671523213386536,-0.937785267829895
0.7198939323425293,-0.17280054092407227,1.1076849699020386,-0.3680042624473572,0.30846097203597306,-1.5216201324400227,-0.35357466454787034,-0.9516503810882568,-0.30359262228012085,-0.046836305409669876,0.8844180107116699,-0.6299199461936951,-0.4403730630874634
0.7399039268493652,-0.21197348833084106,1.1367080211639404,-0.45612603425979614,0.312179456216204,-1.54175001297125,-0.3295699927324193,-0.9512651562690735,-0.3071334660053253,-0.027638519182801247,1.43112313747406,-0.5844394564628601,0.17362400889396667
0.7598958015441895,-0.3472515940666199,1.1626839637756348,-0.5305836200714111,0.3018764242817387,-1.5610688340283587,-0.29369826082347106,-0.9547354578971863,-0.29731228947639465,-0.009287474676966667,1.9532370567321777,-0.2206685096025467,0.9390245079994202
0.7797338962554932,-0.315706729888916,1.0969364643096924,-0.5555064678192139,0.27458359972943003,-1.572154548971375,-0.25144644264613103,-0.962537407875061,-0.27114614844322205,0.0013073404552415013,1.987675666809082,0.3147636651992798,1.8219935894012451
0.7999019622802734,-0.11917710304260254,0.8591905832290649,-0.46060478687286377,0.22876494582981616,-1.570799551519663,-0.21599371640835321,-0.9739474058151245,-0.22677482664585114,3.140712351523689e-06,1.396164059638977,0.6723834872245789,2.749448537826538
0.8198947906494141,0.02981257438659668,0.6326582431793213,-0.38524121046066284,0.16547110120351083,-1.559613950438868,-0.1948605128721432,-0.986279308795929,-0.16471701860427856,-0.011029406450688839,0.679744303226471,0.8514795303344727,3.5681562423706055
0.8398957252502441,-0.059419453144073486,0.4836421608924866,-0.4053763747215271,0.08792716638223821,-1.5426037678544662,-0.1832112892100032,-0.9957411885261536,-0.08781391382217407,-0.028079932555556297,0.4104740023612976,0.9972957372665405,4.181662082672119
0.8598978519439697,-0.2808607816696167,0.39361244440078735,-0.43077510595321655,0.0005460551431592691,-1.5215406543053458,-0.17199317270747466,-0.9987871050834656,-0.0005460550892166793,-0.0492357537150383,0.40476682782173157,1.159376859664917,4.575721740722656
0.8799219131469727,-0.5074418783187866,0.26020851731300354,-0.2829331159591675,-0.09237029181471892,-1.4960263641767966,-0.15738819600094037,-0.9929548501968384,0.09223899245262146,-0.07438185811042786,0.4954017102718353,1.3246783018112183,4.773055553436279
0.8999629020690918,-0.7432607412338257,0.14100424945354462,-0.1647140383720398,-0.18666170572421872,-1.4637043230205162,-0.13731071073987397,-0.9769999384880066,0.18557962775230408,-0.10503070801496506,0.6235569715499878,1.6341818571090698,4.782675743103027
0.9199697971343994,-0.8918902277946472,0.03475549817085266,-0.05385768413543701,-0.28019087526299274,-1.4210096022263754,-0.11169676212427782,-0.9502424597740173,0.2765390872955322,-0.14340782165527344,0.6211378574371338,1.912033200263977,4.73413610458374
0.9398448467254639,-0.8771838545799255,-0.10302722454071045,0.0101633220911026,-0.37080477744610846,-1.3717492114175693,-0.08330591108747944,-0.9136335253715515,0.36236563324928284,-0.18429648876190186,0.42729395627975464,2.0901761054992676,4.665950298309326
0.9599118232727051,-0.8096303343772888,-0.22126421332359314,0.09874933958053589,-0.4595946231722083,-1.3178214293493706,-0.054991700717182235,-0.8677074313163757,0.4435848295688629,-0.22431382536888123,0.09704656898975372,2.128950357437134,4.58869743347168
0.9798979759216309,-0.6913888454437256,-0.3253270387649536,0.16356387734413147,-0.5471532594202224,-1.2631839720870786,-0.027615623705721692,-0.8139213919639587,0.5202581882476807,-0.2585802972316742,-0.19372841715812683,1.9893652200698853,4.505739688873291
0.9999408721923828,-0.6538113355636597,-0.3846283555030823,0.1648300290107727,-0.6329078110110768,-1.2089095376977417,0.0016379593599960126,-0.7540867328643799,0.5914918780326843,-0.28546592593193054,-0.3047436773777008,1.8456870317459106,4.398713111877441
1.0199189186096191,-0.6966516375541687,-0.44817203283309937,0.1842471957206726,-0.7147547933352225,-1.1506819078541934,0.03695518890973348,-0.6895789504051208,0.6554322242736816,-0.30804166197776794,-0.243570014834404,1.7536661624908447,4.223911762237549
1.0399727821350098,-0.6311308741569519,-0.5132812857627869,0.2102794647216797,-0.7895382745000091,-1.0863362189966888,0.08214682120911353,-0.6231417059898376,0.7100282311439514,-0.32795512676239014,-0.038497064262628555,1.590198278427124,3.9476282596588135
1.059985876083374,-0.5580059885978699,-0.5641629695892334,0.2404644787311554,-0.8534069852505011,-1.013503390028672,0.14033563451191905,-0.5579455494880676,0.7535246014595032,-0.3477031886577606,0.3220058083534241,1.4268743991851807,3.57196307182312
1.0798969268798828,-0.5125293135643005,-0.6065052151679993,0.25248873233795166,-0.902601842664965,-0.930197745299791,0.2128087520501045,-0.49673283100128174,0.7849416136741638,-0.3703017234802246,0.7173213362693787,1.345481514930725,3.115063428878784
1.09989595413208,-0.46862366795539856,-0.6527760624885559,0.28725746273994446,-0.9358774817931553,-0.8382614589360836,0.29504962325677,-0.44096803665161133,0.8051198124885559,-0.3966476023197174,1.011565923690796,1.2904608249664307,2.631138324737549
1.1199488639831543,-0.37242913246154785,-0.7032707333564758,0.33823704719543457,-0.9543562999343037,-0.7456133630272838,0.3786394781173437,-0.3922193646430969,0.8159417510032654,-0.4247390627861023,1.152815341949463,1.192728877067566,2.1318166255950928
1.1398839950561523,-0.30115577578544617,-0.7443437576293945,0.37664955854415894,-0.9608193718324934,-0.6614740256659406,0.45390126315164037,-0.3518899381160736,0.8196612000465393,-0.45202791690826416,1.1463968753814697,1.0668781995773315,1.5934653282165527
1.1591029167175293,-0.26708921790122986,-0.7655333280563354,0.4062741994857788,-0.9582584123249894,-0.5935670771965451,0.5129120370700546,-0.32157963514328003,0.8181914687156677,-0.4766019284725189,1.035343050956726,0.89467453956604,0.9971553087234497
1.1798717975616455,-0.2709093689918518,-0.7658862471580505,0.43939781188964844,-0.9498197752060898,-0.5470864716117659,0.5499382247399343,-0.3026685416698456,0.8133106827735901,-0.49690812826156616,0.7907769680023193,0.7198691368103027,0.35490551590919495
1.199903964996338,-0.26035672426223755,-0.7623671293258667,0.47090452909469604,-0.9389238340016952,-0.5257663473715546,0.5614554149490707,-0.29643651843070984,0.8069229125976562,-0.5108824968338013,0.47613903880119324,0.4687364399433136,-0.3284931480884552
1.2198948860168457,-0.22583162784576416,-0.7492141723632812,0.49066126346588135,-0.9272369448956338,-0.5312374358707465,0.546958485589982,-0.3039840757846832,0.7999650239944458,-0.5173488855361938,0.06454776227474213,0.13558119535446167,-1.0004398822784424
1.2398958206176758,-0.19239574670791626,-0.729602038860321,0.486747145652771,-0.9170250382822311,-0.5637399075738275,0.5069431935236378,-0.32498401403427124,0.7937958240509033,-0.514075517654419,-0.4567109942436218,-0.180587500333786,-1.593727707862854
1.2599968910217285,-0.21698477864265442,-0.661598801612854,0.45071399211883545,-0.906988347484335,-0.6194401391132272,0.4441767390724527,-0.35770705342292786,0.787651777267456,-0.5016477704048157,-0.8162260055541992,-0.42717739939689636,-2.164862632751465
1.2798957824707031,-0.29921868443489075,-0.5558792948722839,0.37190887331962585,-0.8914785970497359,-0.692009134962759,0.3645398464370984,-0.40088510513305664,0.7780015468597412,-0.4837404489517212,-0.9648865461349487,-0.5889369249343872,-2.712515115737915
1.2999939918518066,-0.3882288932800293,-0.4276079535484314,0.30242371559143066,-0.8670627633787062,-0.7755499921100919,0.27298008680314556,-0.4530187249183655,0.7624316215515137,-0.4620305895805359,-1.1553443670272827,-0.688505232334137,-3.277556896209717
1.3199429512023926,-0.5065866112709045,-0.3907732367515564,0.3402860760688782,-0.8331402317990347,-0.8658002668114692,0.1713404003540077,-0.5122275352478027,0.7400469779968262,-0.435836523771286,-1.4832777976989746,-0.7002403736114502,-3.763448715209961
1.3399178981781006,-0.49879539012908936,-0.3193780779838562,0.33957916498184204,-0.7921715423461576,-0.960296671761843,0.06172349379091537,-0.5754387378692627,0.7118800282478333,-0.40261310338974,-2.0130152702331543,-0.8036355972290039,-4.074214458465576
1.3599138259887695,-0.4235464334487915,-0.3269387483596802,0.3099561333656311,-0.7457413569505669,-1.057233104376575,-0.053395959687687594,-0.6398233771324158,0.6785165667533875,-0.3608899414539337,-2.5093576908111572,-0.8705270290374756,-4.267798900604248
1.3799018859863281,-0.49375301599502563,-0.2706668972969055,0.22369810938835144,-0.6928786146283603,-1.150637252783184,-0.16937488999788966,-0.7024903297424316,0.638754665851593,-0.3138469159603119,-2.902153253555298,-0.8100967407226562,-4.388190269470215
1.3998918533325195,-0.5918251276016235,-0.18591660261154175,0.14238622784614563,-0.6326849390788094,-1.2357437172656132,-0.2820765725769677,-0.7615988850593567,0.5913121104240417,-0.2651735842227936,-3.1429224014282227,-0.7917894721031189,-4.485920429229736
1.4198908805847168,-0.6316966414451599,-0.074909508228302,0.09981894493103027,-0.5654383924996299,-1.3118802664583367,-0.3885160457008485,-0.8162099123001099,0.5357860326766968,-0.21618236601352692,-3.3047373294830322,-0.7958635687828064,-4.539947032928467
1.4399299621582031,-0.6991921663284302,-0.008750945329666138,0.0905437022447586,-0.4918610769240308,-1.3769160127111706,-0.4874623427578438,-0.8649405241012573,0.47226715087890625,-0.16982822120189667,-3.377052068710327,-0.7074254751205444,-4.559288024902344
1.4598958492279053,-0.6943501830101013,0.0686914324760437,0.041580259799957275,-0.413596242296968,-1.4293826051888152,-0.5771892741721003,-0.9065409898757935,0.4019049406051636,-0.12905877828598022,-3.2447965145111084,-0.5965582132339478,-4.510798931121826
1.479893684387207,-0.6122010350227356,0.2069334089756012,-0.025884345173835754,-0.33282288544401833,-1.467080080706889,-0.65278609728778,-0.9400452971458435,0.32671231031417847,-0.09784907847642899,-2.709538698196411,-0.41040000319480896,-4.371764659881592
1.4999358654022217,-0.43718862533569336,0.321195125579834,-0.09672390669584274,-0.25228878251398823,-1.4900122639933524,-0.7087118230755387,-0.9651857018470764,0.2496209442615509,-0.07814168184995651,-1.8836621046066284,-0.2647239565849304,-4.137818336486816
1.5198957920074463,-0.2615599036216736,0.38921111822128296,-0.12347786873579025,-0.17537672231125637,-1.5022986972602748,-0.7455621503487796,-0.9823518991470337,0.17447909712791443,-0.0673942118883133,-1.198487401008606,-0.18750089406967163,-3.800114870071411
1.539896011352539,-0.16544485092163086,0.413900762796402,-0.04265773296356201,-0.10435495426879836,-1.5095827547876832,-0.7707647772387862,-0.9926973581314087,0.10416565090417862,-0.06084256246685982,-0.9054431915283203,-0.20096653699874878,-3.4674174785614014
1.559910774230957,-0.18214905261993408,0.45930561423301697,0.02843374013900757,-0.03898003843054376,-1.5153757911856935,-0.7931313938387018,-0.997706413269043,0.03897016867995262,-0.055350106209516525,-0.99385666847229,-0.2177700251340866,-3.2013120651245117
1.579892873764038,-0.21756523847579956,0.5101146697998047,0.031125187873840332,0.021255207278598576,-1.520290258606651,-0.8185892205466132,-0.9984992742538452,-0.02125360630452633,-0.05047319829463959,-1.2483950853347778,-0.2572053074836731,-2.9424750804901123
1.5999116897583008,-0.2186862826347351,0.5778454542160034,-0.007102247327566147,0.0759041780827374,-1.524465084534101,-0.8487251299022138,-0.9960507154464722,-0.07583131641149521,-0.046181317418813705,-1.4992395639419556,-0.31424984335899353,-2.6528968811035156
1.6199238300323486,-0.20018929243087769,0.6115624904632568,-0.005929287523031235,0.1243645463029391,-1.5273193729328394,-0.882488674879118,-0.9913390278816223,-0.12404420971870422,-0.043127577751874924,-1.6145836114883423,-0.30533209443092346,-2.32165789604187
1.639901876449585,-0.16538864374160767,0.6357137560844421,0.0003857649862766266,0.1661555805007076,-1.5275811793387395,-0.9164406493015619,-0.9853072166442871,-0.16539210081100464,-0.04260672256350517,-1.5553922653198242,-0.22892005741596222,-1.9845268726348877
1.659942865371704,-0.10162168741226196,0.7447900176048279,-0.02800428494811058,0.20181519008375853,-1.5255248235464414,-0.9484039931761388,-0.978700578212738,-0.20044800639152527,-0.04433754086494446,-1.4346002340316772,-0.18283529579639435,-1.7020981311798096
1.6798949241638184,-0.01913309097290039,0.793498694896698,-0.05768907070159912,0.23188096872784258,-1.5226562683776061,-0.9781323596592337,-0.9721084833145142,-0.22980855405330658,-0.046833544969558716,-1.3291317224502563,-0.20241841673851013,-1.4259792566299438
1.6998929977416992,0.03582584857940674,0.8121387958526611,-0.09940803050994873,0.256232938892127,-1.5213539805060234,-1.0045851908663201,-0.9661695957183838,-0.2534382939338684,-0.047808654606342316,-1.089158535003662,-0.3202468752861023,-1.1255725622177124
1.7199196815490723,0.016491591930389404,0.8458082675933838,-0.15596288442611694,0.2743467468457569,-1.523242513408482,-1.023801616606375,-0.9615142941474915,-0.2709181606769562,-0.045758169144392014,-0.6511176824569702,-0.36244964599609375,-0.7782069444656372
1.739893913269043,-0.06013244390487671,0.8843734860420227,-0.20089787244796753,0.28575319090048185,-1.52735053089098,-1.0329543429695398,-0.9585442543029785,-0.2818801701068878,-0.041670940816402435,-0.18887919187545776,-0.30731403827667236,-0.4121900796890259
1.7598919868469238,-0.07081431150436401,0.8914470672607422,-0.2023601531982422,0.2900749539820133,-1.5333801448100746,-1.033637423942126,-0.9575518369674683,-0.2860240340232849,-0.03584466502070427,0.11052262783050537,-0.3520013988018036,-0.02321767993271351
1.7799220085144043,-0.10066801309585571,0.8600609302520752,-0.21114379167556763,0.2867657420165615,-1.541958752742243,-1.0288374179594775,-0.9587652087211609,-0.28285151720046997,-0.027656128630042076,0.3596712648868561,-0.3394213616847992,0.36498820781707764
1.7999019622802734,-0.2728216052055359,0.8793129920959473,-0.2641373872756958,0.27575414493071165,-1.5499498728964014,-1.0177391377980525,-0.9620112776756287,-0.27227267622947693,-0.020057428628206253,0.682255208492279,-0.1249476745724678,0.7753201723098755
1.8199548721313477,-0.32299184799194336,0.8473742008209229,-0.29591506719589233,0.25563655709067706,-1.5540952910498929,-1.0010988017406899,-0.9673677682876587,-0.2528613209724426,-0.016157547011971474,0.8472322225570679,0.13847588002681732,1.2858860492706299
1.8398947715759277,-0.17816859483718872,0.7164303660392761,-0.2681102752685547,0.22419363982343596,-1.5528111894349834,-0.9842528695330954,-0.974816083908081,-0.22232025861740112,-0.01753409206867218,0.6782111525535583,0.3649255335330963,1.8951387405395508
1.859893798828125,0.017772436141967773,0.5806214809417725,-0.20776331424713135,0.18007336889784642,-1.5467849882228983,-0.9741130347724426,-0.9835471510887146,-0.17910175025463104,-0.02362082339823246,0.2156362235546112,0.41261371970176697,2.52463436126709
1.8798928260803223,0.07247304916381836,0.46718472242355347,-0.18525534868240356,0.12436542603172482,-1.5388194350378632,-0.9717754451877697,-0.9917694926261902,-0.12404508888721466,-0.03172452002763748,-0.08588919043540955,0.4245699644088745,3.036010980606079
1.8999457359313965,-0.051783084869384766,0.40388333797454834,-0.175775945186615,0.059787489265574534,-1.5299506375882863,-0.971545768495439,-0.997380793094635,-0.05975187569856644,-0.04076137766242027,-0.10080832242965698,0.4372214674949646,3.4044058322906494
1.919895887374878,-0.16433358192443848,0.30042487382888794,-0.16310089826583862,-0.009954321946453997,-1.5218392633602622,-0.968856261018504,-0.9987524747848511,0.009954157285392284,-0.04893508926033974,0.08623483777046204,0.3805348575115204,3.5541133880615234
1.9399909973144531,-0.3167552947998047,0.18605057895183563,-0.10834246873855591,-0.08007195668394869,-1.5135802676306533,-0.9592813496841294,-0.9951650500297546,0.07998642325401306,-0.05700163543224335,0.5395371317863464,0.39939093589782715,3.4702391624450684
1.9599719047546387,-0.38620197772979736,0.08530683815479279,-0.03423713892698288,-0.14589253766491345,-1.5032366259831271,-0.9381275676660193,-0.9871196746826172,0.1453755497932434,-0.06679115444421768,1.1722757816314697,0.3373715877532959,3.208437919616699
1.9798927307128906,-0.3518058657646179,0.010949403047561646,0.01234656572341919,-0.20464846476588147,-1.4901844280921535,-0.9034478022491433,-0.9759530425071716,0.20322297513484955,-0.07884428650140762,1.7992609739303589,0.3058314025402069,2.8893680572509766
1.9998927116394043,-0.3217567205429077,-0.06726360321044922,0.07367140054702759,-0.25646729627552034,-1.4726442034169094,-0.857886443563429,-0.9626367092132568,0.2536650002002716,-0.09478943049907684,2.094329357147217,0.37053370475769043,2.6201021671295166
2.0199007987976074,-0.2863955497741699,-0.22875136137008667,0.1951732486486435,-0.303759512067644,-1.4502393229363122,-0.8095572830088427,-0.9472930431365967,0.29910969734191895,-0.11475932598114014,1.9296678304672241,0.4133639931678772,2.5142858028411865
2.0397987365722656,-0.1869022250175476,-0.32071107625961304,0.24610815942287445,-0.3488627789050117,-1.4274058335192643,-0.7663918921653448,-0.930117666721344,0.3418292999267578,-0.13429167866706848,1.5382506847381592,0.44904085993766785,2.4699323177337646
2.059220790863037,-0.10047227144241333,-0.3866615891456604,0.24419386684894562,-0.3925291748493581,-1.4055161431935774,-0.7277397069291546,-0.9113532900810242,0.3825264573097229,-0.15201540291309357,1.2947736978530884,0.29428163170814514,2.4057435989379883
2.0799198150634766,-0.08771681785583496,-0.4430217742919922,0.23316580057144165,-0.4365203500719719,-1.3870114838440315,-0.6972715537572896,-0.8909667730331421,0.42278867959976196,-0.165615051984787,0.6926317811012268,0.33451977372169495,2.374119281768799
2.09989070892334,-0.10433143377304077,-0.5312493443489075,0.24154208600521088,-0.4784489953481295,-1.3696085920994558,-0.6739388382024877,-0.869805097579956,0.46040287613868713,-0.17739403247833252,0.6621526479721069,0.31757330894470215,2.099172830581665
2.1199917793273926,-0.012240707874298096,-0.5020391941070557,0.2357427179813385,-0.5136834929575921,-1.3510022855425792,-0.6475284368559243,-0.8499879240989685,0.4913886785507202,-0.18988999724388123,0.8398131728172302,0.24294006824493408,1.791567087173462
2.139922857284546,0.06819701194763184,-0.5653075575828552,0.2687053084373474,-0.5407042891877252,-1.3307770423398992,-0.6177294457004678,-0.8327692747116089,0.5147399306297302,-0.20380957424640656,1.0892977714538574,0.28492310643196106,1.4303807020187378
2.1600208282470703,0.09277099370956421,-0.5189600586891174,0.24673551321029663,-0.5580876289840055,-1.3051264127346172,-0.5815848599066028,-0.8185096383094788,0.5295649766921997,-0.22271806001663208,1.4659340381622314,0.39091575145721436,1.0218052864074707
2.1798648834228516,0.12444591522216797,-0.45864778757095337,0.22367531061172485,-0.5646917268698136,-1.2748918561347908,-0.5399095488585101,-0.8080397844314575,0.5351554155349731,-0.24633453786373138,1.7132283449172974,0.3853095471858978,0.599781334400177
2.199960708618164,0.17828965187072754,-0.4658995270729065,0.2218959629535675,-0.5620793605156023,-1.2455209824290987,-0.498872792388498,-0.8017792701721191,0.5329468250274658,-0.27040359377861023,1.6103603839874268,0.3457925021648407,0.2248193472623825
2.219892978668213,0.17964816093444824,-0.4951080083847046,0.25370877981185913,-0.5538091462082716,-1.2221925983836546,-0.46703656136930627,-0.799368679523468,0.5259308218955994,-0.29052814841270447,1.1897599697113037,0.31399106979370117,-0.10884653776884079
2.23989200592041,0.14339900016784668,-0.4921812415122986,0.3202160596847534,-0.5422640876200361,-1.206662991018277,-0.44836072421133866,-0.8003815412521362,0.5160766243934631,-0.30504876375198364,0.7255908846855164,0.24637776613235474,-0.4079514741897583
2.259913921356201,0.13657784461975098,-0.44396281242370605,0.36478564143180847,-0.528195550647938,-1.198057153209243,-0.44014911858062655,-0.8044093251228333,0.5039756298065186,-0.3145383298397064,0.4861731231212616,0.20380331575870514,-0.6413043141365051
2.2799220085144043,0.12066072225570679,-0.38090136647224426,0.3439781963825226,-0.5117592055778956,-1.1955856389969193,-0.43806632473130214,-0.8112277984619141,0.48971182107925415,-0.31951823830604553,0.25429007411003113,-0.08168462663888931,-0.8220420479774475
2.2999420166015625,-0.022959768772125244,-0.31683671474456787,0.3446103036403656,-0.49457588851752315,-1.2014215680054952,-0.4451371304993177,-0.820805549621582,0.47465839982032776,-0.31776997447013855,-0.2508467435836792,-0.1022842675447464,-0.9867885112762451
2.3198938369750977,-0.1819358468055725,-0.3162611424922943,0.468393474817276,-0.4795414085484168,-1.2129454653845615,-0.46574494925239096,-0.8310037851333618,0.46137234568595886,-0.3107548654079437,-0.9379786252975464,-0.16196800768375397,-1.0497297048568726
2.3398919105529785,0.1626240611076355,-0.35350683331489563,0.4752514958381653,-0.46945364057497513,-1.2353647058519837,-0.49990688615578455,-0.8421133160591125,0.4523991048336029,-0.2935650050640106,-1.5414423942565918,-0.53834468126297,-0.9221131801605225
2.359891891479492,0.3999219536781311,-0.3435688018798828,0.3033018112182617,-0.46329855563741806,-1.2676596869062053,-0.5408200833570099,-0.8537947535514832,0.4469013512134552,-0.26704683899879456,-1.6520564556121826,-0.8364952206611633,-0.8222505450248718
2.3799328804016113,0.29080623388290405,-0.21298295259475708,0.09578831493854523,-0.4559251607224097,-1.301772634301462,-0.5770361516104797,-0.8655591011047363,0.44029316306114197,-0.23864099383354187,-1.194581389427185,-0.9477843642234802,-0.8194125294685364
2.399909019470215,0.12481385469436646,-0.14481312036514282,0.011238828301429749,-0.4440026170507022,-1.3309717112738444,-0.6003107138965207,-0.8771942853927612,0.4295574128627777,-0.2145010381937027,-0.5466369986534119,-0.9541707634925842,-0.8729095458984375
2.4199867248535156,0.06533652544021606,-0.17695385217666626,0.05673207342624664,-0.42784904368891336,-1.3535406565335797,-0.6105714838870768,-0.8884719610214233,0.41491469740867615,-0.1961209625005722,-0.03683124855160713,-0.8473529815673828,-0.908443033695221
2.439955711364746,0.1039665937423706,-0.17659828066825867,0.03572237491607666,-0.4101046085095439,-1.3683726051884277,-0.6112742228470861,-0.8983545303344727,0.39870527386665344,-0.18437343835830688,0.30980074405670166,-0.5777958035469055,-0.8184665441513062
2.460378885269165,0.21940410137176514,-0.12456279993057251,-0.07404790818691254,-0.3951911023113345,-1.3728752688921952,-0.6060296759070575,-0.9049052596092224,0.3849845826625824,-0.1814756542444229,0.3984943926334381,-0.05010370537638664,-0.5434980988502502
2.480109691619873,0.31049156188964844,-0.07425230741500854,-0.01587998867034912,-0.3867549914283203,-1.3700402634439521,-0.6037685727301515,-0.907537579536438,0.37718507647514343,-0.18468143045902252,-0.15162265300750732,0.21911941468715668,-0.25301072001457214
2.5000247955322266,0.2831294536590576,-0.11547371745109558,0.12193435430526733,-0.38674653371805773,-1.369758516554627,-0.6201429822391906,-0.9074886441230774,0.37717723846435547,-0.1849377602338791,-1.391801118850708,0.39016440510749817,-0.07308483123779297
2.519925832748413,0.14397811889648438,-0.16768968105316162,0.1938900351524353,-0.3953624805459023,-1.37782348232103,-0.6634280058621105,-0.9057275056838989,0.3851427435874939,-0.17698314785957336,-2.673144578933716,0.41927045583724976,0.14934349060058594
2.539700984954834,0.2440689206123352,-0.19259312748908997,0.16213543713092804,-0.4108573762308939,-1.395696057487673,-0.7261107159609846,-0.9027604460716248,0.39939549565315247,-0.159709170460701,-3.05983567237854,0.26038020849227905,0.2846517264842987
2.5599279403686523,0.2609798312187195,-0.21254798769950867,0.1118343323469162,-0.42477720905106997,-1.4142393238987558,-0.7807716234032243,-0.8999876379966736,0.4121178090572357,-0.14206191897392273,-1.953479528427124,0.08490977436304092,0.2603292167186737
2.5884289741516113,0.13379138708114624,-0.3030930459499359,0.2523828148841858,-0.4321239486737837,-1.4350257830194668,-0.8133624049306712,-0.8997215628623962,0.4188004434108734,-0.12291185557842255,0.043982576578855515,-0.47761014103889465,-0.15612219274044037
2.6082277297973633,0.0245245099067688,-0.31106075644493103,0.29033130407333374,-0.42638767306225406,-1.446404101912825,-0.8103401364367074,-0.9034308791160583,0.4135846197605133,-0.11296302080154419,0.27222687005996704,-0.7685238122940063,-0.3650020360946655
2.6281800270080566,-0.07844525575637817,-0.29756543040275574,0.19264990091323853,-0.4173321707258535,-1.460619390904751,-0.8028992095154547,-0.9086306691169739,0.4053230285644531,-0.10051719844341278,0.5215224623680115,-0.947030782699585,-0.42938047647476196
2.6481289863586426,-0.12435036897659302,-0.2851051390171051,0.1402115821838379,-0.40746230160635405,-1.4741218392491464,-0.7893293271895079,-0.9138424396514893,0.3962806761264801,-0.08862150460481644,0.8485701084136963,-0.9290509223937988,-0.423463374376297
2.66827392578125,-0.22417664527893066,-0.23600077629089355,0.12471842020750046,-0.39674910888776843,-1.482410827384247,-0.7652852159810237,-0.9187221527099609,0.3864220082759857,-0.08141382783651352,1.4796032905578613,-0.8492903709411621,-0.4369121193885803
2.688027858734131,-0.2813544273376465,-0.10489380359649658,0.06658077239990234,-0.385785133751774,-1.485226106203916,-0.7296781887505581,-0.9231134653091431,0.37628668546676636,-0.0791843831539154,1.8125866651535034,-0.7840674519538879,-0.3632653057575226
2.7078919410705566,-0.30771273374557495,-0.11758124828338623,0.051228709518909454,-0.3769155545327687,-1.4867841532763384,-0.6934834011650037,-0.9265249371528625,0.3680543005466461,-0.0780230239033699,1.550856351852417,-0.750283420085907,-0.22465424239635468
2.7268548011779785,-0.2983095049858093,-0.11746737360954285,0.09312068670988083,-0.37141637541567013,-1.4920190438855907,-0.6656063918835794,-0.9289246201515198,0.3629356026649475,-0.07332991063594818,1.1029430627822876,-0.7743690013885498,-0.12728047370910645
2.746771812438965,-0.454800546169281,-0.09791606664657593,0.08867490291595459,-0.36810551434456823,-1.4996703417411077,-0.6452314310021251,-0.930651843547821,0.3598484992980957,-0.06630537658929825,0.8869290947914124,-0.7120001912117004,-0.06498931348323822
2.7678637504577637,-0.5860576629638672,-0.08609992265701294,0.07212972640991211,-0.36576163243928567,-1.505160569161775,-0.6245453585840585,-0.9318409562110901,0.3576606512069702,-0.061250071972608566,1.1132944822311401,-0.5952139496803284,-0.04410923644900322
2.7876298427581787,-0.685982882976532,-0.0011556744575500488,0.029925107955932617,-0.3631827410171198,-1.5069742485192361,-0.5995081333312161,-0.9328678846359253,0.35525116324424744,-0.05961853638291359,1.1719272136688232,-0.4988766312599182,-0.05833182483911514
2.8060789108276367,-0.6933674812316895,-0.04138180613517761,-0.0070419274270534515,-0.36085372346071765,-1.509345587216157,-0.5776004178089428,-0.9338298439979553,0.3530730903148651,-0.05745687708258629,0.9031035900115967,-0.48832306265830994,-0.057631589472293854
2.827533721923828,-0.7622683644294739,-0.061491459608078,-0.07703101634979248,-0.35698977525855313,-1.5108836647163866,-0.557155984242914,-0.9352720379829407,0.3494553864002228,-0.056101780384778976,1.148342490196228,-0.3722682595252991,-0.22601498663425446
2.8474769592285156,-0.7830502390861511,-0.013488799333572388,-0.11209231615066528,-0.34938043168910715,-1.5061503714589761,-0.5277559501116841,-0.9376224875450134,0.3423157334327698,-0.06069808080792427,1.5842212438583374,-0.1674242913722992,-0.3260851204395294
2.8674259185791016,-0.678421139717102,0.005529314279556274,-0.03632216900587082,-0.34061871762692886,-1.4970607580658981,-0.4954823562929998,-0.9399871230125427,0.3340703248977661,-0.06943637132644653,1.4469116926193237,-0.008351021446287632,-0.34350883960723877
2.887363910675049,-0.6090047359466553,0.03390395641326904,-0.05632377415895462,-0.3322362239358874,-1.4894381412569866,-0.47450473157353207,-0.9421887397766113,0.3261577785015106,-0.07682434469461441,0.4700983762741089,0.06827495992183685,-0.35062989592552185
2.9063758850097656,-0.5287752151489258,-0.03980123996734619,-0.08409035950899124,-0.3243752776691173,-1.488133214854108,-0.4749056770164578,-0.9446136951446533,0.31871670484542847,-0.0782630518078804,-0.25532427430152893,0.07102440297603607,-0.4414709508419037
2.9279427528381348,-0.4575153589248657,0.08050292730331421,-0.09371794015169144,-0.31448701756751535,-1.488773278654322,-0.47887780864111823,-0.9477583169937134,0.30932867527008057,-0.0779128298163414,0.06907667219638824,-0.0011398021597415209,-0.5829436182975769
2.9472179412841797,-0.4324619770050049,0.11692824959754944,-0.12688040733337402,-0.30135439514842144,-1.4879829437188712,-0.47313935188054035,-0.9516628384590149,0.29681384563446045,-0.07899107784032822,0.5289321541786194,-0.10126631706953049,-0.6506068110466003
2.9670019149780273,-0.4171558618545532,0.07068312168121338,-0.09720301628112793,-0.2897061826838711,-1.4880860772586906,-0.46622796257907995,-0.9550518989562988,0.285670667886734,-0.07917320728302002,0.16627316176891327,-0.11985713243484497,-0.5798505544662476
2.9868826866149902,-0.4421052932739258,0.20279204845428467,-0.17307531833648682,-0.27659727901424713,-1.4911606475406844,-0.4618636644070288,-0.9589416980743408,0.2730838656425476,-0.07652781903743744,0.2292293906211853,-0.31220972537994385,-0.6001696586608887
3.0070338249206543,-0.3552623987197876,0.18459805846214294,-0.13595491647720337,-0.26230841623497364,-1.4973263002497927,-0.45878440484523836,-0.9631887674331665,0.25931069254875183,-0.07089310884475708,0.1806924045085907,-0.3570658564567566,-0.6536704301834106
3.0268728733062744,-0.3496795892715454,0.0950791984796524,-0.0386664941906929,-0.2507564283240354,-1.5050980633575681,-0.46258264849980835,-0.9666353464126587,0.24813680350780487,-0.06359779089689255,-0.5048563480377197,-0.23033331334590912,-0.42116329073905945
3.0468478202819824,-0.4401226043701172,0.22125029563903809,0.007503323256969452,-0.24595913404433734,-1.5120855118955827,-0.47914278168961155,-0.9682333469390869,0.2434867024421692,-0.056911174207925797,-1.0250492095947266,-0.056498222053050995,-0.11271865665912628
3.0667877197265625,-0.5834401845932007,0.46291786432266235,-0.009106695652008057,-0.2501157562368283,-1.5172219170020533,-0.5036919011475136,-0.9674937725067139,0.24751611053943634,-0.051882557570934296,-1.3505717515945435,0.14194989204406738,0.4754396378993988
3.086756706237793,-0.5472936630249023,0.4800320863723755,0.07910716533660889,-0.269669233919224,-1.520807397359407,-0.533322584515282,-0.9626551866531372,0.2664126455783844,-0.048162225633859634,-1.6224689483642578,0.2472294420003891,1.3569704294204712
3.106688976287842,-0.5613551735877991,0.5254309177398682,0.1429317593574524,-0.30570949071721487,-1.5247273986122403,-0.5651839116137638,-0.9526219367980957,0.30096983909606934,-0.04391734302043915,-1.485065221786499,0.23260709643363953,2.095134735107422
3.1269450187683105,-0.6293540000915527,0.622516393661499,0.15819448232650757,-0.3563524085807719,-1.5273036222471765,-0.5880686922947708,-0.9362894296646118,0.348858118057251,-0.04074745625257492,-0.9348442554473877,0.3033158779144287,2.8909778594970703
3.1456148624420166,-0.6609320044517517,0.5263657569885254,0.15943044424057007,-0.42153967426253136,-1.5256895806920288,-0.6014615738078571,-0.9115319848060608,0.4091658294200897,-0.041144151240587234,-0.6292669177055359,0.3267742395401001,3.516535758972168
3.166958808898926,-0.5746475458145142,0.44934070110321045,0.25108569860458374,-0.49443370346589444,-1.5258120707062495,-0.609285927314641,-0.8793473243713379,0.4745332598686218,-0.039583489298820496,-0.37146538496017456,-0.06671898812055588,3.6948914527893066
3.186460018157959,-0.4297005534172058,0.347695529460907,0.2457149624824524,-0.5674304365735481,-1.533528209434596,-0.6081006063026634,-0.8426995277404785,0.5374669432640076,-0.03142037242650986,0.22737400233745575,-0.7671669125556946,3.6068592071533203
3.2063958644866943,-0.20226413011550903,0.016568303108215332,0.1631917953491211,-0.6359234059692495,-1.5413578205426215,-0.5863893703994445,-0.8041751980781555,0.5939206480979919,-0.023680558428168297,1.4481415748596191,-1.2056324481964111,3.287322998046875
3.2261829376220703,0.01528233289718628,-0.1997184157371521,0.12054252624511719,-0.6960821566554591,-1.5333870195608024,-0.5318799023188227,-0.7668235301971436,0.6412162184715271,-0.02869972586631775,2.4422988891601562,-1.3404167890548706,2.890054702758789
3.246497869491577,0.23611414432525635,-0.46957600116729736,0.22738325595855713,-0.7471312924103473,-1.5172394161853893,-0.4675479034555168,-0.7325893640518188,0.6795369386672974,-0.03927277773618698,1.988046646118164,-1.2646828889846802,2.4255385398864746
3.2663989067077637,0.3433918356895447,-0.6524224877357483,0.27276599407196045,-0.7882985996008689,-1.510552077212377,-0.42342244744193314,-0.7037739157676697,0.7091547250747681,-0.042449697852134705,0.9528613686561584,-1.11872136592865,1.8655673265457153
3.286362886428833,0.4054378271102905,-0.7778976559638977,0.17183130979537964,-0.8190595828404174,-1.5184403058078406,-0.4048933756059787,-0.6819729208946228,0.7305039167404175,-0.03573805093765259,0.2609613239765167,-1.0340402126312256,1.288430094718933
3.306666851043701,0.4675428867340088,-0.832053542137146,0.06811034679412842,-0.8386417422758886,-1.5336568877812056,-0.3969310410158596,-0.6680129766464233,0.7437358498573303,-0.024821041151881218,0.295249879360199,-1.0889811515808105,0.7057790160179138
3.3252787590026855,0.47800004482269287,-0.8278165459632874,0.0003571510314941406,-0.8467433362067861,-1.5431651234178496,-0.3806237995461733,-0.6621737480163574,0.7491270899772644,-0.01830131560564041,0.8181050419807434,-1.0762956142425537,0.15795819461345673
3.3452796936035156,0.4742218255996704,-0.7839981913566589,-0.03942739963531494,-0.844519109696382,-1.5402764200433408,-0.34810208196102355,-0.6637818813323975,0.7476518154144287,-0.02026485465466976,1.2779377698898315,-1.075240135192871,-0.3125688433647156
3.3659329414367676,0.4329069256782532,-0.7191616296768188,-0.05552166700363159,-0.8327378557664749,-1.5326357524525454,-0.3092578830949469,-0.6723631620407104,0.7397763133049011,-0.02567022666335106,1.3548214435577393,-1.0519963502883911,-0.7609785199165344
3.3859808444976807,0.30779242515563965,-0.628608763217926,-0.07995551824569702,-0.8134280554709887,-1.5273384914079622,-0.27339245681157126,-0.6863630414009094,0.7266465425491333,-0.029846644029021263,1.1052004098892212,-0.9677515625953674,-0.9931179881095886
3.4058678150177,0.19463324546813965,-0.532095193862915,-0.0500260554254055,-0.7927066278422709,-1.5337564768515153,-0.25846616704670894,-0.7014386057853699,0.7122557163238525,-0.025993069633841515,-0.05623297393321991,-0.7291747331619263,-1.009132742881775
3.425736904144287,0.03140521049499512,-0.2323770523071289,-0.012143493629992008,-0.773430928297962,-1.55767744562198,-0.2761933396938593,-0.7154569029808044,0.6985942125320435,-0.009386532008647919,-1.007780909538269,-0.40989241003990173,-0.9518850445747375
3.445662021636963,-0.1537112593650818,0.012641847133636475,-0.15977060794830322,-0.7549673498361408,-1.5801771136101361,-0.30094897640367485,-0.7282622456550598,0.6852648854255676,0.006831873208284378,-0.538452684879303,-0.1558038592338562,-0.8959870338439941
3.4655768871307373,-0.1678403615951538,0.21196675300598145,-0.23783326148986816,-0.7375525226557964,-1.584973955551342,-0.3040193867984984,-0.7400423884391785,0.6724784970283508,0.010492749512195587,0.14796192944049835,-0.12556037306785583,-0.8536885976791382
3.485595703125,-0.1553025245666504,0.16143101453781128,-0.14845681190490723,-0.7204269801899923,-1.5874112296136975,-0.3029010201198552,-0.7514207363128662,0.659705638885498,0.012485931627452374,-0.18764780461788177,-0.1887369453907013,-0.8589082956314087
3.5054678916931152,-0.2101222276687622,0.14798671007156372,-0.01743781380355358,-0.7034985104455262,-1.5999703188350343,-0.3152882096094456,-0.7622596025466919,0.6468895673751831,0.022244466468691826,-0.7315669059753418,-0.24511811137199402,-0.8101277947425842
3.5243139266967773,-0.2983196973800659,0.18185830116271973,-0.08621227741241455,-0.6867920938733287,-1.6163746533023673,-0.332841568305632,-0.7724812626838684,0.6340598464012146,0.03523280471563339,-0.5468230247497559,-0.2781798243522644,-0.8146034479141235
3.545548915863037,-0.3099580407142639,0.28611844778060913,-0.18187379837036133,-0.669494154181398,-1.629837043534146,-0.3430169380920727,-0.7827696800231934,0.6205894351005554,0.04626905545592308,-0.45561879873275757,-0.3972643315792084,-0.8010980486869812
3.565311908721924,-0.3025349974632263,0.2616416811943054,-0.13055157661437988,-0.6548113173227301,-1.6546532195697083,-0.36811109587200574,-0.7903757691383362,0.6090096235275269,0.06643424928188324,-1.8761647939682007,-0.5018048286437988,-0.46865299344062805
3.585148811340332,-0.33177000284194946,0.17682546377182007,-0.061620473861694336,-0.6425091366635594,-1.7069642262744558,-0.44119597638705993,-0.7931842803955078,0.5992061495780945,0.10867877304553986,-3.918754816055298,-0.2636241614818573,-0.14678189158439636
3.6053478717803955,-0.4493350386619568,0.3118353486061096,-0.20874477922916412,-0.6283650578637962,-1.7698200981381336,-0.543340763027048,-0.7930203080177307,0.5878229141235352,0.15994735062122345,-4.100624084472656,0.053454820066690445,0.1496041864156723
3.6250758171081543,-0.4807371497154236,0.5732617378234863,-0.3906254470348358,-0.6207314979789464,-1.8151050248820573,-0.6254342964913733,-0.789297878742218,0.5816303491592407,0.19676271080970764,-2.35632586479187,0.18830761313438416,0.591536819934845
3.643988847732544,-0.3617438077926636,0.5924595594406128,-0.39182397723197937,-0.629761831115519,-1.8308850789589737,-0.6568251506610984,-0.7809871435165405,0.5889523029327393,0.20783361792564392,0.021546803414821625,0.037701692432165146,0.9117355346679688
3.66507887840271,-0.3014101982116699,0.6178471446037292,-0.21860668063163757,-0.6528068371896685,-1.8252914283012307,-0.646069038285777,-0.7687956690788269,0.6074184775352478,0.1999911516904831,1.1311771869659424,-0.11039678007364273,1.0949974060058594
3.684922695159912,-0.23754006624221802,0.39870554208755493,0.03222821652889252,-0.67991865828384,-1.816113042349868,-0.6257095763266125,-0.7543423175811768,0.6287297606468201,0.18885654211044312,1.0379084348678589,-0.23103700578212738,1.1366007328033447
3.7048428058624268,-0.15844112634658813,0.19166630506515503,0.280517578125,-0.7071541733841153,-1.8073950445924871,-0.6036040326799097,-0.7390352487564087,0.6496729850769043,0.17819227278232574,1.269073724746704,-0.3199361562728882,1.1331442594528198
3.7237608432769775,-0.08774584531784058,0.18856602907180786,0.1832481473684311,-0.7353813502385184,-1.7953683032123513,-0.5748122359892558,-0.7229536771774292,0.6708700060844421,0.16514067351818085,1.526672601699829,-0.35798200964927673,1.082135558128357
3.74383282661438,-0.13191652297973633,0.1558271050453186,0.03757558763027191,-0.7633432151008116,-1.7721784275354588,-0.5300480649361112,-0.7079272270202637,0.6913408637046814,0.14452287554740906,2.2857091426849365,-0.3600999116897583,0.9927219152450562
3.763824939727783,-0.11465328931808472,0.12167567014694214,0.03765522688627243,-0.7912180937633806,-1.7361494754279538,-0.46969220116798394,-0.6933912038803101,0.7112100720405579,0.11571092158555984,2.3316547870635986,-0.25966739654541016,0.950403094291687
3.7837557792663574,-0.11427557468414307,-0.043047308921813965,0.06883584707975388,-0.8157328099039186,-1.6982455536775858,-0.4125222545967833,-0.6797766089439392,0.7282280325889587,0.08710915595293045,1.922763705253601,-0.06196453422307968,0.9114318490028381
3.8065028190612793,-0.1447538137435913,-0.1370694637298584,0.04265940934419632,-0.836874919251274,-1.6642977305670146,-0.3675657222767111,-0.666861355304718,0.7425535917282104,0.06253481656312943,1.3614639043807983,0.1408429890871048,0.8384362459182739
3.824110984802246,-0.14039623737335205,-0.16137397289276123,0.03963804244995117,-0.8543549964590416,-1.6346973890290417,-0.334216019932565,-0.6553649306297302,0.754147469997406,0.04193561151623726,1.0051989555358887,0.32135674357414246,0.7296710014343262
3.8419318199157715,-0.119800865650177,-0.18611228466033936,0.0239943265914917,-0.8674953637870858,-1.606465758191529,-0.3069581856208686,-0.6463277339935303,0.7627114653587341,0.02306392416357994,0.8219673037528992,0.4349804222583771,0.5367730259895325
3.8611369132995605,-0.1457076072692871,-0.23809701204299927,0.012902735732495785,-0.8785831300034378,-1.5862032436808422,-0.29467310214303666,-0.6381669044494629,0.769835352897644,0.009832962416112423,-0.1346128284931183,0.6533755660057068,0.5517335534095764
3.8845877647399902,-0.14428859949111938,-0.34658998250961304,0.08158266544342041,-0.8904596010967818,-1.587641122535441,-0.3174629786636961,-0.6289659142494202,0.7773609161376953,0.010595804080367088,-1.2821071147918701,0.989093542098999,0.6752743124961853
3.905064821243286,-0.16165399551391602,-0.29565709829330444,0.022336363792419434,-0.9029777483204117,-1.6110975214982453,-0.3768866660739744,-0.6187720894813538,0.7851744294166565,0.024950765073299408,-2.332764148712158,1.3124388456344604,0.6387794613838196
3.9243717193603516,-0.16941624879837036,-0.12591207027435303,-0.06163419038057327,-0.9102450949781112,-1.6482747379470026,-0.4606341028482968,-0.6117116808891296,0.7896541357040405,0.04748951271176338,-2.6771388053894043,1.5738831758499146,0.379611611366272
3.944149971008301,-0.13354122638702393,-0.10541361570358276,-0.0911715105175972,-0.9106584531505696,-1.6837561648305812,-0.5486215877619876,-0.6093177199363708,0.789907693862915,0.06912267953157425,-2.7408926486968994,1.8418341875076294,0.20206955075263977
3.964171886444092,-0.0854564905166626,-0.2734185457229614,-0.07236981391906738,-0.9060284784157093,-1.717980289024758,-0.6419421078797164,-0.6102070212364197,0.787060022354126,0.09046690165996552,-3.0355384349823,2.100886821746826,0.10618069022893906
3.9840087890625,-0.07849043607711792,-0.27902084589004517,-0.0304412841796875,-0.8970305809924548,-1.7523493352674662,-0.7420644361828009,-0.6136788725852966,0.7814776301383972,0.11265574395656586,-3.225776195526123,2.314377784729004,0.02452516369521618
4.004109859466553,-0.058590471744537354,-0.2897760272026062,-0.03757718205451965,-0.8837592813890289,-1.78352237494534,-0.8430505333158261,-0.6199525594711304,0.7731286287307739,0.1339060366153717,-3.2425196170806885,2.432617664337158,-0.08953718096017838
4.023688793182373,-0.08293485641479492,-0.34258902072906494,-0.08956122398376465,-0.866407451092723,-1.8050662162651012,-0.9355326468546109,-0.6298795342445374,0.7620074152946472,0.15032193064689636,-2.849043369293213,2.529442310333252,-0.29567211866378784
4.0438337326049805,-0.08518600463867188,-0.3791202902793884,-0.14255882799625397,-0.8471404512293791,-1.8061262891451995,-1.0045385770444948,-0.6438789367675781,0.7493900656700134,0.1543845385313034,-1.9592472314834595,2.5810251235961914,-0.5271922945976257
4.0638017654418945,-0.03002864122390747,-0.45429348945617676,-0.11198638379573822,-0.8277535169051704,-1.7824252967615952,-1.042091946195197,-0.6614387631416321,0.7364134192466736,0.14210748672485352,-0.9321929812431335,2.6020078659057617,-0.7974995374679565
4.0838868618011475,-0.012406766414642334,-0.5138890147209167,-0.021977797150611877,-0.8076206365736123,-1.735611730457518,-1.0495401112564886,-0.6818529367446899,0.722644567489624,0.11340861022472382,0.021264640614390373,2.627206802368164,-1.084173321723938
4.103665828704834,0.023109138011932373,-0.5314139723777771,0.088340163230896,-0.7839060407787347,-1.672448178954549,-1.0336409510429883,-0.7045056819915771,0.7060509324073792,0.07186199724674225,0.7284058332443237,2.5613741874694824,-1.4176666736602783
4.123690843582153,0.039885520935058594,-0.5377923250198364,0.16981005668640137,-0.753172116008303,-1.6025384614386582,-1.0050697240617863,-0.7291556596755981,0.6839563250541687,0.023152733221650124,1.064638376235962,2.4430882930755615,-1.8024367094039917
4.143052816390991,0.023423075675964355,-0.5361039042472839,0.23778671026229858,-0.7129318461492196,-1.5357191368974255,-0.9756378547802759,-0.7559823393821716,0.6540543437004089,-0.0265286173671484,1.0964791774749756,2.272307872772217,-2.2242047786712646
4.164050817489624,0.029163002967834473,-0.49958693981170654,0.28916698694229126,-0.6632627203072488,-1.4790196277608414,-0.953388751329372,-0.784671425819397,0.6156911253929138,-0.0722174271941185,0.9116777181625366,1.9765663146972656,-2.627190589904785
4.1850128173828125,0.05383056402206421,-0.4363475441932678,0.3263191282749176,-0.6059293221919477,-1.4363692196231406,-0.9430814515920437,-0.8145574927330017,0.569526195526123,-0.11016298085451126,0.5369791984558105,1.6803407669067383,-2.962599992752075
4.203406810760498,0.060540735721588135,-0.36298394203186035,0.35749828815460205,-0.5437419288130316,-1.4080911949710408,-0.9470276974383771,-0.8444764018058777,0.5173418521881104,-0.1386260837316513,0.0430276095867157,1.3750826120376587,-3.211801052093506
4.222203731536865,0.06127595901489258,-0.29021862149238586,0.36526787281036377,-0.4791333037877845,-1.3919586493356826,-0.96520941598147,-0.8732419013977051,0.46101024746894836,-0.1578550487756729,-0.5186830759048462,1.1308705806732178,-3.352184534072876
4.241255760192871,0.0645185112953186,-0.247532457113266,0.3698844909667969,-0.41366366159245926,-1.384076602539647,-0.9955114978498533,-0.8997389078140259,0.4019666612148285,-0.1699790060520172,-0.9669725298881531,0.9922189116477966,-3.451289415359497
4.2631449699401855,0.010398566722869873,-0.1464293897151947,0.352321982383728,-0.3491919393268216,-1.3789824868253062,-1.032420410868371,-0.9224164485931396,0.3421386182308197,-0.1791345775127411,-1.167183756828308,0.8915054202079773,-3.504697322845459
4.283268928527832,-0.03548532724380493,-0.0019816160202026367,0.339532732963562,-0.28434708554295635,-1.3736919096717068,-1.0712661955325697,-0.9412603378295898,0.28053081035614014,-0.18796707689762115,-1.1883630752563477,0.8593859672546387,-3.55818772315979
4.303033828735352,-0.04699218273162842,0.10231897234916687,0.3155132532119751,-0.21877321977165973,-1.366331442620376,-1.1087686049599503,-0.9558308124542236,0.21703225374221802,-0.19820359349250793,-1.0506378412246704,0.797791600227356,-3.5816023349761963
4.323768854141235,-0.014731168746948242,0.19667719304561615,0.29377642273902893,-0.15331854672368644,-1.3583084450356175,-1.142664457395021,-0.9660429954528809,0.15271858870983124,-0.20841868221759796,-0.8676984906196594,0.6456809639930725,-3.4984469413757324
4.34305477142334,-0.03219825029373169,0.28563520312309265,0.3012227714061737,-0.09035746431565216,-1.3506805192196776,-1.1730903980074439,-0.9718913435935974,0.09023456275463104,-0.21745195984840393,-0.7502320408821106,0.5016297101974487,-3.274521827697754
4.3629069328308105,-0.061560988426208496,0.40264028310775757,0.24381119012832642,-0.03268353345167405,-1.3434509391318807,-1.2009819041703533,-0.9737479090690613,0.03267771378159523,-0.22527167201042175,-0.703616201877594,0.3926289975643158,-2.9444055557250977
4.382816791534424,-0.036351561546325684,0.4691673815250397,0.22458034753799438,0.017691253891900648,-1.3373044438083475,-1.2278828600260747,-0.9727122783660889,-0.017690330743789673,-0.23133987188339233,-0.8015443086624146,0.2390977442264557,-2.5677218437194824
4.40280294418335,-0.04647219181060791,0.510452926158905,0.27058303356170654,0.05971326058758241,-1.3328792635120978,-1.2571357814323472,-0.9700989723205566,-0.05967777967453003,-0.23525884747505188,-1.0913538932800293,0.0924210399389267,-2.207486629486084
4.421564817428589,-0.048272788524627686,0.5642622113227844,0.26008808612823486,0.09371144680462565,-1.3301588664462163,-1.2910943413151095,-0.9669250845909119,-0.09357434511184692,-0.2372761070728302,-1.3826402425765991,-0.08458427339792252,-1.908504605293274
4.44271183013916,-0.01885545253753662,0.5948507785797119,0.21022272109985352,0.1217013131110476,-1.3296045991426881,-1.3277070535176965,-0.9638717174530029,-0.1214011088013649,-0.23709332942962646,-1.4524743556976318,-0.25674912333488464,-1.6838361024856567
4.462563991546631,0.00895315408706665,0.6367403268814087,0.14129753410816193,0.14586294755563212,-1.3315200627016348,-1.3623998238902275,-0.9611932635307312,-0.1453462690114975,-0.23448285460472107,-1.2754287719726562,-0.3869363069534302,-1.5009090900421143
4.4826178550720215,0.004181325435638428,0.7016907930374146,0.05589374899864197,0.16878436095501126,-1.3356643749269677,-1.3898964772355233,-0.9586643576622009,-0.16798411309719086,-0.22966071963310242,-0.776193380355835,-0.4398576021194458,-1.3850057125091553
4.502745866775513,-0.025571763515472412,0.7721295356750488,-0.02409033477306366,0.19278563392150913,-1.3418938099538467,-1.405142941918707,-0.9558736085891724,-0.19159366190433502,-0.2227051854133606,-0.151815727353096,-0.4625299572944641,-1.304012417793274
4.522264003753662,-0.03511953353881836,0.8521215319633484,-0.10504043102264404,0.21793253493275988,-1.35070894415597,-1.4095705259996196,-0.9527956247329712,-0.21621152758598328,-0.21315103769302368,0.2389463186264038,-0.49779608845710754,-1.2484122514724731
4.542205810546875,-0.06488287448883057,0.8777744770050049,-0.14548693597316742,0.24282472363664565,-1.3609485505271122,-1.4086933403492332,-0.9493688941001892,-0.24044543504714966,-0.20219972729682922,0.33205321431159973,-0.5121049880981445,-1.1580866575241089
4.562297821044922,-0.03977620601654053,0.8939841389656067,-0.16856908798217773,0.2651843808003879,-1.371816192513118,-1.4077732098259057,-0.946002721786499,-0.2620871961116791,-0.19076001644134521,0.17570777237415314,-0.5566595792770386,-1.014519214630127
4.582132816314697,-0.048738837242126465,0.9149484634399414,-0.19058650732040405,0.28346012152661554,-1.382356538495712,-1.4103794112621029,-0.9430978298187256,-0.2796793580055237,-0.17985102534294128,-0.06100659444928169,-0.571327269077301,-0.8293048739433289
4.602198839187622,-0.12409824132919312,0.9757152199745178,-0.22024182975292206,0.29700279241984695,-1.3921256919708933,-1.4140520186625258,-0.9409957528114319,-0.2926555275917053,-0.1699405163526535,0.0424393005669117,-0.552860677242279,-0.563066840171814
4.621970891952515,-0.22375208139419556,1.0689804553985596,-0.2598550319671631,0.3060029429664404,-1.4056381072333528,-1.4094155922655813,-0.9405698180198669,-0.3012496829032898,-0.15677085518836975,0.5977091789245605,-0.6260522603988647,-0.2354968637228012
4.64216685295105,-0.3632822036743164,1.1798498630523682,-0.3276304006576538,0.3092841987524543,-1.4226831518504146,-1.3895215113934152,-0.9421225786209106,-0.30437687039375305,-0.14057019352912903,1.3323659896850586,-0.4551542401313782,0.22674906253814697
4.661077976226807,-0.325350284576416,1.188565731048584,-0.3340184688568115,0.30250275110459574,-1.4399932787265515,-1.3555070201446704,-0.9464393258094788,-0.29791024327278137,-0.12450804561376572,1.7065094709396362,-0.2773340940475464,0.925381064414978
4.681875705718994,-0.07273346185684204,1.0655792951583862,-0.2962449789047241,0.2799454252809583,-1.4553329602691147,-1.317017507467065,-0.9546714425086975,-0.2763032019138336,-0.11072205752134323,1.6517585515975952,-0.1456066220998764,1.7697900533676147
4.701955795288086,0.08152413368225098,0.9448003768920898,-0.27789831161499023,0.23987999017767875,-1.4669859574752235,-1.2793873711313535,-0.9661372303962708,-0.23758605122566223,-0.1006569042801857,1.5459637641906738,-0.05528897047042847,2.598647117614746
4.721786975860596,0.10551071166992188,0.8184981346130371,-0.31352198123931885,0.18403720964150075,-1.474978763032826,-1.2431319460677852,-0.9786034226417542,-0.1830000877380371,-0.0940554141998291,1.4454338550567627,0.012934116646647453,3.287883996963501
4.741797924041748,-0.0367087721824646,0.6807040572166443,-0.29169660806655884,0.11626860270456792,-1.4791326466730015,-1.2075399642039049,-0.9890786409378052,-0.11600682139396667,-0.09091737121343613,1.470323085784912,0.11164604127407074,3.7741904258728027
4.761709690093994,-0.2651774287223816,0.5832710862159729,-0.2583434581756592,0.04095466193501155,-1.4784982784076472,-1.1693076701688914,-0.9949087500572205,-0.0409432128071785,-0.09208978712558746,1.6584923267364502,0.25737759470939636,4.064931869506836
4.781894683837891,-0.4573098421096802,0.46480655670166016,-0.17620061337947845,-0.03820870700515919,-1.4713702415624959,-1.1261631242800074,-0.9943350553512573,0.03819940984249115,-0.09918990731239319,1.9041398763656616,0.4646470844745636,4.2285895347595215
4.80152702331543,-0.60151606798172,0.33858421444892883,-0.08664888143539429,-0.11877187138574177,-1.4560081370852118,-1.07639022404939,-0.9864204525947571,0.11849281936883926,-0.11372937262058258,2.1800880432128906,0.6694024801254272,4.3100056648254395
4.821615695953369,-0.7117711305618286,0.23302781581878662,-0.003865361213684082,-0.19874368361032735,-1.4312428301334277,-1.0199400375393808,-0.9707851409912109,0.19743789732456207,-0.13636285066604614,2.334294080734253,0.8874794244766235,4.316867828369141
4.841382026672363,-0.7457361221313477,0.11152416467666626,0.07335108518600464,-0.2776813078442147,-1.3960240435333338,-0.9591251879629239,-0.9470435380935669,0.2741265296936035,-0.16722306609153748,2.245473861694336,1.0610320568084717,4.274789333343506
4.8632378578186035,-0.7199791669845581,-0.016473233699798584,0.14419466257095337,-0.3533879387970871,-1.3549472069762103,-0.8992387342825224,-0.9164345264434814,0.34607836604118347,-0.2009420096874237,1.8422048091888428,1.1518502235412598,4.249903202056885
4.879887819290161,-0.7317571043968201,-0.12549400329589844,0.19661159813404083,-0.42829395701518075,-1.309999799882336,-0.8454459624877549,-0.8789149522781372,0.4153194725513458,-0.23456010222434998,1.2087314128875732,1.3032574653625488,4.209867477416992
4.901477813720703,-0.7388201355934143,-0.23272490501403809,0.27537184953689575,-0.5036590061477918,-1.262441720945466,-0.7999671384963312,-0.8345137238502502,0.48263341188430786,-0.2658044993877411,0.6115640997886658,1.3949506282806396,4.170961380004883
4.921258926391602,-0.6627809405326843,-0.31869637966156006,0.334919810295105,-0.5789568152893667,-1.213891715159144,-0.7595818061106845,-0.784286379814148,0.5471510291099548,-0.29243922233581543,0.23237968981266022,1.3624387979507446,4.080138206481934
4.94101095199585,-0.6166885495185852,-0.36619627475738525,0.3364189863204956,-0.6519094266847321,-1.1647181109557445,-0.720500159420218,-0.7302811741828918,0.606705367565155,-0.31400373578071594,0.06496421247720718,1.2866078615188599,3.8817944526672363
4.961174011230469,-0.595212996006012,-0.4561324715614319,0.3161480128765106,-0.7187761022260913,-1.112715762581617,-0.677145447234086,-0.675020158290863,0.6584640741348267,-0.33282575011253357,0.21885284781455994,1.1702394485473633,3.610255718231201
4.9810028076171875,-0.5678410530090332,-0.5204647183418274,0.32519835233688354,-0.7757390175552474,-1.054414047980817,-0.6241056603683679,-0.6208187341690063,0.7002438306808472,-0.35248103737831116,0.5765015482902527,1.0465800762176514,3.2463998794555664
5.000618934631348,-0.5122381448745728,-0.5962932705879211,0.35021254420280457,-0.8183084631359455,-0.9883131029078448,-0.5588462824180872,-0.5707544088363647,0.7299907803535461,-0.375969260931015,1.106840968132019,0.888953447341919,2.7642781734466553
5.023640871047974,-0.4175563454627991,-0.6483248472213745,0.37752825021743774,-0.8436582449758229,-0.9168017895298071,-0.48396604457232417,-0.5275732278823853,0.7470798492431641,-0.40439891815185547,1.4903644323349,0.7238726019859314,2.2271409034729004
5.042659759521484,-0.36879128217697144,-0.7336923480033875,0.4385446310043335,-0.8540173074575707,-0.8486946531102756,-0.4106549013537831,-0.4929947257041931,0.7539256811141968,-0.4342263638973236,1.5690888166427612,0.578784167766571,1.6530578136444092
5.062444686889648,-0.363537073135376,-0.7972338199615479,0.4992790222167969,-0.8527465305341315,-0.7912773071442271,-0.3485046795913876,-0.4679448902606964,0.7530902624130249,-0.4624747633934021,1.4671436548233032,0.4740890562534332,1.0461822748184204
5.079885005950928,-0.33785611391067505,-0.8641725182533264,0.5702979564666748,-0.8442273813319066,-0.751141089437997,-0.3052400211531044,-0.4533731937408447,0.7474581003189087,-0.48555055260658264,1.1078375577926636,0.2598710060119629,0.3956879675388336
5.099865913391113,-0.3012269139289856,-0.8915500044822693,0.5920736789703369,-0.8321177773421944,-0.7347973311463449,-0.2865343389487472,-0.45141294598579407,0.7393589615821838,-0.49957481026649475,0.6069794297218323,-0.04374532029032707,-0.3289863169193268
5.119855880737305,-0.33869999647140503,-0.8525259494781494,0.5582878589630127,-0.8169357572861824,-0.7441330881031356,-0.2945677664092818,-0.46360719203948975,0.7290518879890442,-0.5035392642021179,0.15665215253829956,-0.3155082166194916,-1.097213625907898
5.139847755432129,-0.4282959997653961,-0.7691285014152527,0.4941560626029968,-0.7981174733509776,-0.7776263639314861,-0.32822735818026183,-0.48974910378456116,0.71604323387146,-0.49742135405540466,-0.42779678106307983,-0.5371799468994141,-1.9095813035964966
5.159897804260254,-0.6401631236076355,-0.7192434668540955,0.5596562623977661,-0.7755501283856017,-0.8318295228440692,-0.3893769038599186,-0.527790367603302,0.7001090049743652,-0.48092085123062134,-1.1289767026901245,-0.5767688751220703,-2.701432466506958
5.1798248291015625,-0.5924135446548462,-0.6462236046791077,0.6063876748085022,-0.7489169507756618,-0.9033802021879946,-0.47343782004409274,-0.5752653479576111,0.6808459162712097,-0.45334193110466003,-1.792440414428711,-0.8133613467216492,-3.236823797225952
5.19994592666626,-0.41855084896087646,-0.5855824947357178,0.5229822993278503,-0.7182012393542648,-0.9893595843991229,-0.5732843893630609,-0.6292550563812256,0.6580312848091125,-0.4135614335536957,-2.41863751411438,-1.0647308826446533,-3.587986707687378
5.219825744628906,-0.4244617223739624,-0.46207892894744873,0.3509139120578766,-0.6801614621320207,-1.0808187687619837,-0.680749504342917,-0.6859966516494751,0.6289185881614685,-0.3658827245235443,-2.684875249862671,-1.1444382667541504,-3.887791633605957
5.239833831787109,-0.4314400553703308,-0.2957566976547241,0.15712213516235352,-0.6314269367689974,-1.165597716486925,-0.7844903693989848,-0.7418236136436462,0.5902971625328064,-0.31819385290145874,-2.5579044818878174,-1.0086803436279297,-4.07987117767334
5.25984787940979,-0.46228790283203125,-0.22267627716064453,0.06669881939888,-0.5713416576194191,-1.2353929554500025,-0.8727877731863418,-0.7943040728569031,0.5407611131668091,-0.27687329053878784,-2.0293500423431396,-0.9835606217384338,-4.170341968536377
5.279836893081665,-0.45704299211502075,-0.15313807129859924,0.0440179705619812,-0.5020254933504538,-1.2897953113106175,-0.9410317308272473,-0.8422277569770813,0.481202095746994,-0.24309928715229034,-1.5088568925857544,-0.9462973475456238,-4.229866981506348
5.2998528480529785,-0.5344483256340027,-0.06753280758857727,0.04678642749786377,-0.4264237504801287,-1.3320883002240198,-0.9938559033537583,-0.8846344351768494,0.41361746191978455,-0.21527382731437683,-1.1511584520339966,-0.9127432107925415,-4.316990375518799
5.319089889526367,-0.602094292640686,0.04078716039657593,0.02958694100379944,-0.3459392687569456,-1.3656078762314356,-1.0365328876919881,-0.9210230112075806,0.33908045291900635,-0.1916809380054474,-0.9664902091026306,-0.8284175992012024,-4.419269561767578
5.339887857437134,-0.5762457847595215,0.1268998682498932,0.01716090738773346,-0.2625186258623681,-1.3930162498849121,-1.0739425081539606,-0.9505182504653931,0.2595137059688568,-0.1707862913608551,-0.9918583631515503,-0.7993290424346924,-4.4541497230529785
5.359918832778931,-0.4612664580345154,0.1935562938451767,-0.0010472685098648071,-0.17897980152212953,-1.4171534176488312,-1.1109005070227027,-0.9724343419075012,0.1780257672071457,-0.15059450268745422,-1.2165465354919434,-0.8085505962371826,-4.384043216705322
5.379957675933838,-0.3747437000274658,0.2784244120121002,-0.0070955753326416016,-0.09727827740318765,-1.4382224690078063,-1.150215112952995,-0.9865387678146362,0.09712492674589157,-0.13156092166900635,-1.4800024032592773,-0.7513121962547302,-4.260030746459961
5.399897813796997,-0.32703155279159546,0.3784591853618622,-0.020600005984306335,-0.018529780882570384,-1.4549636127489338,-1.1927240935207055,-0.9931284189224243,0.01852872036397457,-0.11555402725934982,-1.7669135332107544,-0.6759572625160217,-4.080770492553711
5.419862747192383,-0.31147682666778564,0.4862859845161438,-0.03539729118347168,0.05641480088303105,-1.4664804673276326,-1.2387174179794571,-0.9929819107055664,-0.05638488009572029,-0.10396113246679306,-1.9678646326065063,-0.5493564605712891,-3.852125644683838
5.439903736114502,-0.32165807485580444,0.6136212944984436,-0.06493693590164185,0.1272702810316543,-1.471978690916902,-1.2855828425706657,-0.9870731830596924,-0.1269269734621048,-0.0978589728474617,-1.9645411968231201,-0.40885305404663086,-3.5768792629241943
5.459910869598389,-0.32853108644485474,0.7380295395851135,-0.10553306341171265,0.19173204356359708,-1.4716870161814477,-1.3309955039127483,-0.9768584370613098,-0.1905594915151596,-0.09713401645421982,-1.877980351448059,-0.2811959683895111,-3.2646408081054688
5.479887962341309,-0.30145758390426636,0.8344190120697021,-0.12414627522230148,0.2493168954890071,-1.466814822578655,-1.374984349704512,-0.9638470411300659,-0.24674203991889954,-0.10058503597974777,-1.8333864212036133,-0.1997646689414978,-2.8936710357666016
5.4998838901519775,-0.23965197801589966,0.9054970741271973,-0.14210522174835205,0.2986976977372524,-1.4578704740340231,-1.4186905690839124,-0.9496334195137024,-0.29427582025527954,-0.10769633948802948,-1.827701210975647,-0.08291944116353989,-2.4688525199890137
5.519884824752808,-0.13267886638641357,0.9754260182380676,-0.17087310552597046,0.33883671421598266,-1.4450537893565203,-1.4617066476558986,-0.9356958866119385,-0.332390159368515,-0.1182808205485344,-1.7383123636245728,0.00012413400691002607,-2.007725238800049
5.539884805679321,0.007431387901306152,1.0487948656082153,-0.1980060487985611,0.3695417220881263,-1.4315113894600278,-1.5006818691884058,-0.9234625101089478,-0.361188143491745,-0.12946270406246185,-1.4610440731048584,-0.024536382406949997,-1.53466796875
5.559894800186157,0.08358651399612427,1.1194725036621094,-0.2219998836517334,0.3916292123942998,-1.4212318091278004,-1.5308620272677753,-0.9139699339866638,-0.3816947937011719,-0.13772596418857574,-0.9588112235069275,-0.08467411249876022,-1.0871444940567017
5.579885959625244,0.06360447406768799,1.1960599422454834,-0.26735037565231323,0.406686869037534,-1.4169114541007506,-1.5470501821265086,-0.907583475112915,-0.3955686092376709,-0.1407763510942459,-0.24549996852874756,-0.11699538677930832,-0.6477999091148376
5.599885940551758,0.02397698163986206,1.2467352151870728,-0.2678453326225281,0.41626063613094105,-1.421771443698577,-1.541609954571111,-0.9044702053070068,-0.40434324741363525,-0.13579532504081726,1.0305228233337402,-0.15755559504032135,-0.23012614250183105
5.619888782501221,-0.01195824146270752,1.3417346477508545,-0.2584249973297119,0.42141986441393564,-1.4440260206152444,-1.5004369100939552,-0.9051867723464966,-0.40905651450157166,-0.11536949127912521,2.777648687362671,-0.40667620301246643,0.24202291667461395
5.639883995056152,-0.20590287446975708,1.4176397323608398,-0.3602668046951294,0.4190217985477857,-1.4836161825276344,-1.4238416000034835,-0.9100183844566345,-0.4068670868873596,-0.07953713834285736,4.061860084533691,-0.33397290110588074,0.7513149380683899
5.65988302230835,-0.46725571155548096,1.2829055786132812,-0.3273274302482605,0.4032257959435378,-1.5236112369269965,-1.3284111044678348,-0.9187765121459961,-0.3923874795436859,-0.04338475316762924,4.392667293548584,0.17868295311927795,1.4441277980804443
5.679883003234863,-0.3603982925415039,1.0842987298965454,-0.24597495794296265,0.36919445914163806,-1.54928329729163,-1.2400502758277487,-0.9324027299880981,-0.3608642816543579,-0.020061902701854706,3.554527997970581,0.577061116695404,2.240936756134033
5.699885845184326,-0.13707679510116577,0.7996187210083008,-0.15783315896987915,0.3176601576895661,-1.5562073078731353,-1.1773577746012867,-0.9498679041862488,-0.31234464049339294,-0.013858623802661896,2.281792640686035,0.8536593317985535,2.993393898010254
5.720059871673584,-0.0979619026184082,0.6752097010612488,-0.11679190397262573,0.2525785483088651,-1.5478823545328877,-1.139032399909004,-0.9680172204971313,-0.24990151822566986,-0.022185003384947777,1.383008599281311,1.0547103881835938,3.5535082817077637
5.73993182182312,-0.23881053924560547,0.6000876426696777,-0.09437727928161621,0.1784874566167068,-1.5308153474890662,-1.1120826037082028,-0.9833269715309143,-0.17754125595092773,-0.03933533653616905,1.1146039962768555,1.2192810773849487,3.925588369369507
5.759966850280762,-0.44898027181625366,0.521933913230896,-0.10561615228652954,0.09921452698627763,-1.5086016911832938,-1.084732259927161,-0.9931585192680359,-0.09905184060335159,-0.061848901212215424,1.239427924156189,1.385290503501892,4.119954586029053
5.779959678649902,-0.6572844386100769,0.39565905928611755,-0.0734020546078682,0.01820339983113774,-1.4798276496468654,-1.0523767972003284,-0.9957004189491272,-0.018202394247055054,-0.09082823246717453,1.3461534976959229,1.7013425827026367,4.2112507820129395
5.799999713897705,-0.8022813200950623,0.28400933742523193,0.09608268737792969,-0.06330771916654938,-1.4419653006070356,-1.0174101851376094,-0.9897262454032898,0.06326544284820557,-0.12821759283542633,1.2001985311508179,1.9749008417129517,4.280792236328125
5.819939851760864,-0.8420398235321045,0.17832805216312408,0.2382868528366089,-0.1453953698568723,-1.3969487919701702,-0.9839378769478568,-0.9745343923568726,0.1448836326599121,-0.17114809155464172,0.8615294098854065,2.170319080352783,4.321705341339111
5.839941024780273,-0.8449339866638184,0.052981629967689514,0.33772701025009155,-0.22865344767864088,-1.3460802399047822,-0.9516971489462236,-0.9494844675064087,0.22666622698307037,-0.21702992916107178,0.6127344965934753,2.201913356781006,4.422545433044434
5.859894752502441,-0.7521173357963562,-0.03474539518356323,0.3541872203350067,-0.31300970441905,-1.2938194570980888,-0.9184882652217952,-0.9151496291160583,0.30792349576950073,-0.26016244292259216,0.4236248731613159,2.1537375450134277,4.548356533050537
5.8798828125,-0.7186114192008972,-0.14461439847946167,0.38668033480644226,-0.398005058196602,-1.238627344241459,-0.8806288167478747,-0.8714460134506226,0.38758009672164917,-0.3006054162979126,0.4386341869831085,2.015787124633789,4.637918472290039
5.89988374710083,-0.6851868629455566,-0.20579716563224792,0.39060890674591064,-0.4813589326541158,-1.180643626307115,-0.8347117552458557,-0.8197571039199829,0.4629841148853302,-0.3371115028858185,0.5085206031799316,1.8557848930358887,4.63361120223999
5.919912815093994,-0.7430218458175659,-0.2900542616844177,0.426181435585022,-0.5608319467532641,-1.1174707120548537,-0.7802759365622153,-0.7612811923027039,0.531890869140625,-0.3708682656288147,0.5344038605690002,1.7285101413726807,4.557985782623291
5.939882755279541,-0.7082223892211914,-0.3722653388977051,0.4460523724555969,-0.6351005441093907,-1.0506119148833741,-0.7187663704425247,-0.6985312104225159,0.5932584404945374,-0.40012335777282715,0.48995840549468994,1.4996634721755981,4.385669231414795
5.9598870277404785,-0.6577456593513489,-0.4340256452560425,0.4413779675960541,-0.701474364989686,-0.9809075450998496,-0.6508162002666414,-0.6347958445549011,0.645344614982605,-0.4249289035797119,0.5801066756248474,1.2443097829818726,4.069034099578857
5.979883909225464,-0.6088006496429443,-0.46179652214050293,0.42433151602745056,-0.7552350855610424,-0.9079383522783734,-0.5748815995457558,-0.5739233493804932,0.6854598522186279,-0.4480588436126709,0.8795223236083984,1.0091581344604492,3.625520944595337
5.999934673309326,-0.5927209854125977,-0.5079962015151978,0.4252780079841614,-0.7934167490435693,-0.8307836975076748,-0.4915400273989524,-0.5179663300514221,0.7127540111541748,-0.4729616641998291,1.202298641204834,0.8869615793228149,3.145460367202759
6.0198938846588135,-0.5417881011962891,-0.5932644009590149,0.4822026789188385,-0.8165352304893628,-0.752203906012391,-0.40628133069060063,-0.4678554832935333,0.7287777066230774,-0.49999433755874634,1.3629233837127686,0.8132181763648987,2.661630153656006
6.03988790512085,-0.4469628930091858,-0.6973859071731567,0.5210617780685425,-0.8268133989466794,-0.6794034552826783,-0.3264144792754389,-0.4255194365978241,0.7357770800590515,-0.5268447399139404,1.4379332065582275,0.592585563659668,2.1187925338745117
6.05991268157959,-0.3671457767486572,-0.7304587364196777,0.5375349521636963,-0.8262831547013689,-0.6195315943183795,-0.25799261814933927,-0.39345914125442505,0.7354178428649902,-0.5516797304153442,1.3799901008605957,0.37942779064178467,1.5337454080581665
6.079883813858032,-0.3926641047000885,-0.7616294622421265,0.5628751516342163,-0.8189221446027802,-0.5763160579827564,-0.2075075311758088,-0.3721980154514313,0.730410099029541,-0.572686493396759,1.1414945125579834,0.22838711738586426,0.8792210817337036
6.0998828411102295,-0.39066824316978455,-0.8019278645515442,0.5733470320701599,-0.8076850050593224,-0.5533995985025723,-0.17935273819008213,-0.36326858401298523,0.7226890325546265,-0.5880106687545776,0.8670557141304016,-0.012935741804540157,0.1395234614610672
6.119926929473877,-0.38451552391052246,-0.8011206984519958,0.555691659450531,-0.7932689169574072,-0.5533958055769012,-0.17506214369001666,-0.3687041103839874,0.7126502990722656,-0.5968140363693237,0.46391648054122925,-0.2879873812198639,-0.6662078499794006
6.139894008636475,-0.48477333784103394,-0.7798749208450317,0.5939986109733582,-0.7795444105502817,-0.5780959544133387,-0.19956889127965802,-0.38863980770111084,0.7029554843902588,-0.5956617593765259,-0.2648448646068573,-0.4563376009464264,-1.5411114692687988
6.159886837005615,-0.49689292907714844,-0.7606738805770874,0.7095171213150024,-0.7687172419194866,-0.6286740348119036,-0.25505814911225144,-0.4227086007595062,0.6952137351036072,-0.5813736915588379,-1.1128653287887573,-0.7469825744628906,-2.3161873817443848
6.179839849472046,-0.3936024010181427,-0.7267218232154846,0.6750125885009766,-0.76105923545998,-0.7049564948147984,-0.33841985610845043,-0.4692211449146271,0.6896888017654419,-0.5515078902244568,-2.002063512802124,-1.1057974100112915,-2.8597521781921387
6.199910879135132,-0.3328167796134949,-0.6682360768318176,0.540789008140564,-0.7529370898555208,-0.8032817572863217,-0.44501266443859744,-0.5251086950302124,0.6837848424911499,-0.5066550374031067,-2.59965181350708,-1.4182862043380737,-3.368969202041626
6.21988582611084,-0.3484126925468445,-0.5148985385894775,0.3170497417449951,-0.7341527845582966,-0.914805136437355,-0.5648718854794352,-0.5883092284202576,0.6699584126472473,-0.45282238721847534,-2.8203747272491455,-1.5141386985778809,-3.828308343887329
6.23989200592041,-0.4672284722328186,-0.4327736496925354,0.1579912304878235,-0.6979829016811043,-1.022195010086283,-0.6843854448082498,-0.6537127494812012,0.6426736116409302,-0.39953771233558655,-2.490443229675293,-1.3995381593704224,-4.240224361419678
6.259903907775879,-0.48334938287734985,-0.30606913566589355,0.08231452107429504,-0.6420322542141869,-1.1135315622945379,-0.785167156971735,-0.7186007499694824,0.5988242626190186,-0.3535851538181305,-1.7474308013916016,-1.4482885599136353,-4.475471019744873
6.27992582321167,-0.5654704570770264,-0.18259620666503906,0.05509316921234131,-0.5711477800267334,-1.1858467384568923,-0.8626085877890323,-0.779714047908783,0.5405980348587036,-0.31591153144836426,-1.2247130870819092,-1.3511704206466675,-4.605729103088379
6.299884796142578,-0.6598406434059143,-0.05758675932884216,0.02244621515274048,-0.49147177307035755,-1.2428426259966003,-0.9232775343316451,-0.834650993347168,0.47192397713661194,-0.2839817404747009,-0.9328140020370483,-1.2790521383285522,-4.714681625366211
6.319924831390381,-0.6643383502960205,0.08257964253425598,-0.01321515440940857,-0.405973882190899,-1.289693725607819,-0.9733035863998973,-0.8826587796211243,0.3949136734008789,-0.2548663914203644,-0.8449516296386719,-1.2357556819915771,-4.813485145568848
6.339919805526733,-0.6254404783248901,0.1632714867591858,-0.02414417266845703,-0.3168896541980084,-1.3293206185052335,-1.0171740769823594,-0.9226400852203369,0.311612606048584,-0.227229043841362,-0.8254512548446655,-1.1749098300933838,-4.860137939453125
6.359882831573486,-0.5463199615478516,0.25065407156944275,-0.05805516242980957,-0.2264033581963476,-1.3628242872573617,-1.0555597177716005,-0.9534817337989807,0.22447413206100464,-0.20120683312416077,-0.7544274926185608,-1.148776888847351,-4.79132080078125
6.3798828125,-0.453122615814209,0.35898053646087646,-0.1044771671295166,-0.13697660552922453,-1.390874713174577,-1.0879304525674438,-0.9746423959732056,0.13654866814613342,-0.17727629840373993,-0.6605256795883179,-1.0404114723205566,-4.60659646987915
6.399918794631958,-0.40510445833206177,0.48313719034194946,-0.12471966445446014,-0.05135496862606671,-1.4125750375386754,-1.1159552538300737,-0.9862071871757507,0.05133239924907684,-0.1573542356491089,-0.698062539100647,-0.859013020992279,-4.297738552093506
6.41988468170166,-0.3573734760284424,0.5849093198776245,-0.067552849650383,0.02695971041560882,-1.4284054505696855,-1.1446527918036242,-0.9895198345184326,-0.02695644460618496,-0.14185863733291626,-1.007177472114563,-0.6735624074935913,-3.8776674270629883
6.4394989013671875,-0.3386276960372925,0.6552098393440247,-0.009270250797271729,0.09612319973614783,-1.4377196112331778,-1.1779147657328701,-0.9865829944610596,-0.09597524255514145,-0.13207179307937622,-1.3347280025482178,-0.461102157831192,-3.4244768619537354
6.459911823272705,-0.3070843815803528,0.7692561149597168,-0.054173484444618225,0.15622813519726686,-1.4408361703109969,-1.2152513620605518,-0.9794911742210388,-0.1555933952331543,-0.12801635265350342,-1.5474424362182617,-0.2831849753856659,-2.9999399185180664
6.479887962341309,-0.2393660545349121,0.8673984408378601,-0.07781325280666351,0.20814681455194825,-1.4385925994709563,-1.2541772103538151,-0.9698777198791504,-0.20664706826210022,-0.12897372245788574,-1.553757667541504,-0.16304925084114075,-2.6069252490997314
6.499882698059082,-0.14174669981002808,0.9833052754402161,-0.01782386004924774,0.25285197067746995,-1.4341286662027564,-1.286567565302819,-0.9591749310493469,-0.25016626715660095,-0.131910502910614,-0.8619417548179626,-0.0909423902630806,-2.229187488555908
6.519925832748413,-0.0446009635925293,1.1871014833450317,-0.0054279714822769165,0.29142905307654526,-1.4325854559182674,-1.2990868349172002,-0.9487006664276123,-0.2873212993144989,-0.13196207582950592,0.15227922797203064,-0.09771765023469925,-1.7420074939727783
6.539888858795166,0.12953490018844604,1.2848999500274658,-0.09018796682357788,0.3205750548205134,-1.4381925913465545,-1.2935571454605228,-0.9407227635383606,-0.3151123821735382,-0.12547968327999115,0.6903068423271179,-0.3026670813560486,-1.0594196319580078
6.559202671051025,0.2292625904083252,1.229763388633728,-0.18137401342391968,0.33560687453353244,-1.4512244070176095,-1.2789385357867094,-0.9374688267707825,-0.329342246055603,-0.11263224482536316,0.8304399847984314,-0.5150309801101685,-0.2648221254348755
6.579883813858032,0.17322200536727905,1.1420998573303223,-0.29399919509887695,0.3355242687478235,-1.4686910693696131,-1.260294242491127,-0.9393200278282166,-0.32926425337791443,-0.0962442085146904,0.9507194757461548,-0.5837318301200867,0.44307056069374084
6.599911689758301,0.10612809658050537,1.155721664428711,-0.36729931831359863,0.3233284571772476,-1.4893634093974053,-1.2337687703649591,-0.9450411200523376,-0.3177242875099182,-0.07712801545858383,1.5129040479660034,-0.6249253153800964,0.972168505191803
6.619882822036743,0.03572911024093628,1.1916491985321045,-0.39980292320251465,0.3022002350402207,-1.5132332913853845,-1.1924597062182611,-0.9531028270721436,-0.2976214587688446,-0.054924167692661285,2.282644748687744,-0.5071492791175842,1.4014892578125
6.639882802963257,-0.07920330762863159,1.15679931640625,-0.4402674436569214,0.2728270729060051,-1.539107285049258,-1.1353017498826392,-0.962529718875885,-0.2694550156593323,-0.03051185794174671,3.074378728866577,-0.4048326909542084,1.7709747552871704
6.659928798675537,-0.3898317217826843,1.0991871356964111,-0.4504041075706482,0.23576465510568054,-1.5595551605267128,-1.0640997585225465,-0.9722747802734375,-0.23358654975891113,-0.010929962620139122,3.6886134147644043,0.24781888723373413,2.092564582824707
6.6798858642578125,-0.5633866786956787,0.9151610136032104,-0.4070473909378052,0.19038747853443092,-1.5630306269177425,-0.986849834604473,-0.9819015860557556,-0.18923938274383545,-0.007625306025147438,3.7270455360412598,0.9695581197738647,2.533198833465576
6.699904918670654,-0.3367929458618164,0.6755127906799316,-0.31465643644332886,0.13549119904883358,-1.5512268984333313,-0.9152144195118513,-0.9906455874443054,-0.13507702946662903,-0.019388843327760696,3.2385799884796143,1.3406871557235718,3.0519425868988037
6.719882011413574,-0.25557976961135864,0.5062844157218933,-0.2351323962211609,0.07195932244055535,-1.528279246927136,-0.8537063832147412,-0.9965108036994934,-0.0718972384929657,-0.04239427670836449,2.7132441997528076,1.5924863815307617,3.4881393909454346
6.739882946014404,-0.39883846044540405,0.4141046702861786,-0.16545438766479492,0.0014154555138039544,-1.4966197888528607,-0.800110696604837,-0.9972493648529053,-0.0014154550153762102,-0.07410847395658493,2.2586097717285156,1.775704264640808,3.8493688106536865
6.759881019592285,-0.634554386138916,0.29806825518608093,-0.040604546666145325,-0.07345776124092902,-1.457718695153715,-0.7499601838844772,-0.9909341335296631,0.07339171320199966,-0.11253253370523453,2.115750789642334,1.9227842092514038,4.043849945068359
6.779929876327515,-0.8681768774986267,0.2301943451166153,0.13851302862167358,-0.14749132443572002,-1.4117358995622646,-0.6939557812500046,-0.9766566157341003,0.1469571590423584,-0.1566709280014038,2.541593074798584,2.0411217212677,4.0116705894470215
6.799888849258423,-1.0490891933441162,0.19566459953784943,0.2140430212020874,-0.21403159695584748,-1.3549713407445676,-0.6219184374477834,-0.9545120596885681,0.21240122616291046,-0.20926693081855774,3.124660015106201,2.3073880672454834,3.8178818225860596
6.819883823394775,-1.074193000793457,0.11099168658256531,0.4113611876964569,-0.27083188796721724,-1.2872535436578951,-0.5406658697408555,-0.925074577331543,0.2675330936908722,-0.26956117153167725,3.0327770709991455,2.499264717102051,3.6576075553894043
6.83988094329834,-0.9511615633964539,-0.015370607376098633,0.5809773802757263,-0.3213328499227964,-1.213047018412332,-0.46178746336942683,-0.8887433409690857,0.3158314824104309,-0.33224377036094666,2.5319645404815674,2.605661392211914,3.528400182723999
6.859882831573486,-0.760906457901001,-0.10339805483818054,0.6328846216201782,-0.3686659407861275,-1.1363767042223911,-0.38913464410601123,-0.8461645245552063,0.36037132143974304,-0.39260438084602356,1.9628702402114868,2.586634635925293,3.5054523944854736
6.879881858825684,-0.6004772186279297,-0.1382034420967102,0.6290494203567505,-0.4159981390063697,-1.0607623357309603,-0.3219509154125971,-0.7982960343360901,0.4041031301021576,-0.4465694725513458,1.4609297513961792,2.4284255504608154,3.5399880409240723
6.899881839752197,-0.6245251297950745,-0.1752931773662567,0.6224803924560547,-0.46256331778793464,-0.9852038609110348,-0.25667990327197576,-0.7458057403564453,0.4462435245513916,-0.49461162090301514,1.20703125,2.3502814769744873,3.5204949378967285
6.919900894165039,-0.609207808971405,-0.23328086733818054,0.6513104438781738,-0.5059329177393808,-0.9085234582263991,-0.18951285344582125,-0.6898034811019897,0.4846237003803253,-0.537876546382904,1.1212612390518188,2.181504249572754,3.4785315990448
6.939883708953857,-0.5566411018371582,-0.27500832080841064,0.6610217094421387,-0.5436426692707085,-0.8317746154441205,-0.11845170353601142,-0.6325679421424866,0.5172569155693054,-0.5764574408531189,1.1874194145202637,1.9389303922653198,3.3705074787139893
6.959881782531738,-0.5429327487945557,-0.29528939723968506,0.6670386791229248,-0.571736634578723,-0.7551701059541341,-0.04290716049879991,-0.5764063000679016,0.5410932898521423,-0.61235111951828,1.4557926654815674,1.7343268394470215,3.120844602584839
6.979885816574097,-0.501764178276062,-0.35621511936187744,0.6832075119018555,-0.5858600463546318,-0.6798322514977634,0.036004450979626484,-0.5238248109817505,0.5529162287712097,-0.6479901671409607,1.8092894554138184,1.470141053199768,2.7963106632232666
6.9998908042907715,-0.408720999956131,-0.4510248303413391,0.7429827451705933,-0.5879390533552087,-0.6107543212285933,0.1128287322712165,-0.4771891236305237,0.5546473264694214,-0.681657612323761,1.8279346227645874,1.1925950050354004,2.447648286819458
7.0199058055877686,-0.38085025548934937,-0.518074631690979,0.8227360844612122,-0.5838036324987804,-0.5515521715480086,0.1803152505402075,-0.4372192621231079,0.551201581954956,-0.7106449604034424,1.5642027854919434,1.0075775384902954,2.0169014930725098
7.039884805679321,-0.3596307933330536,-0.5633059740066528,0.844298779964447,-0.5795535692129155,-0.5049150973036476,0.23232865039334216,-0.4047430157661438,0.5476504564285278,-0.7322992086410522,0.9836837649345398,0.788992702960968,1.5185480117797852
7.059038877487183,-0.3118339478969574,-0.6088910698890686,0.8366867899894714,-0.579215586651585,-0.4733851801245199,0.2657836472863841,-0.3815407156944275,0.5473676323890686,-0.7448593378067017,0.3853360414505005,0.5427352786064148,0.9322050213813782
7.079917907714844,-0.297466903924942,-0.6137016415596008,0.806317925453186,-0.5828348279922063,-0.45706456916889343,0.28058117941014377,-0.368457168340683,0.5503929853439331,-0.7492042183876038,-0.11453449726104736,0.2745424807071686,0.3239513039588928
7.099880695343018,-0.2760430574417114,-0.6262155771255493,0.7585879564285278,-0.5891370788984862,-0.4566930884294369,0.27730715146511337,-0.36664193868637085,0.5556437969207764,-0.7462130188941956,-0.5727294087409973,-0.06711917370557785,-0.2921283543109894
7.119884967803955,-0.26451608538627625,-0.6251389384269714,0.7214270830154419,-0.5976668228360795,-0.4738419021096667,0.25563838974903846,-0.37720760703086853,0.5627152919769287,-0.7355719208717346,-1.0045281648635864,-0.44394615292549133,-0.9406673312187195
7.139882802963257,-0.29381248354911804,-0.6132668852806091,0.6757078170776367,-0.60796520713645,-0.5108803003040827,0.21347986354304388,-0.40133222937583923,0.5711984634399414,-0.7160062193870544,-1.5801901817321777,-0.857080340385437,-1.6732203960418701
7.160071849822998,-0.43048006296157837,-0.5827640891075134,0.6696369647979736,-0.6182071444057096,-0.5700931440067983,0.1455101359759453,-0.439820259809494,0.5795750617980957,-0.6860401034355164,-2.137519598007202,-1.147322416305542,-2.5957117080688477
7.179908752441406,-0.5649198889732361,-0.450907826423645,0.6642702221870422,-0.6208997685342833,-0.6505544028640475,0.051985368971012066,-0.4925905168056488,0.581767201423645,-0.6472260355949402,-2.4343512058258057,-1.4653764963150024,-3.4701836109161377
7.1998817920684814,-0.5426661372184753,-0.3177620768547058,0.6104984283447266,-0.6108085039762832,-0.747287719129946,-0.05800620516183781,-0.5567602515220642,0.5735299587249756,-0.6009005904197693,-2.5465145111083984,-1.8505116701126099,-4.02901554107666
7.219884872436523,-0.482643187046051,-0.19795829057693481,0.46415454149246216,-0.5870962738346033,-0.8512506172354634,-0.17300250781507104,-0.6261672377586365,0.5539458394050598,-0.5486881136894226,-2.671046257019043,-2.016655683517456,-4.261399269104004
7.239929676055908,-0.41178417205810547,-0.15499913692474365,0.3890046179294586,-0.5560464381313467,-0.9556508865426839,-0.289157577435745,-0.6936540603637695,0.5278323888778687,-0.49013978242874146,-3.1263844966888428,-2.170077085494995,-4.208652019500732
7.259976863861084,-0.3355136513710022,-0.11878803372383118,0.269126296043396,-0.5216951050353255,-1.0610154175048958,-0.4062832890655309,-0.7567411065101624,0.49835047125816345,-0.42307209968566895,-3.484435558319092,-2.3475582599639893,-4.08845329284668
7.279883861541748,-0.41984856128692627,-0.02458047866821289,0.1922089159488678,-0.47944534941667266,-1.1616642767980745,-0.5175775804331251,-0.8140230774879456,0.46128714084625244,-0.35296016931533813,-3.363065004348755,-2.3152856826782227,-4.058505058288574
7.299883842468262,-0.5420751571655273,0.05717083811759949,0.1648114025592804,-0.4254756918739292,-1.2491959747123804,-0.6147814830431669,-0.8641443252563477,0.4127541184425354,-0.28790390491485596,-2.829568386077881,-2.1954734325408936,-4.139861106872559
7.319993019104004,-0.593926191329956,0.17052152752876282,0.09742042422294617,-0.359136994357472,-1.3217195872700516,-0.6912765106031389,-0.9073097705841064,0.35146641731262207,-0.2307821363210678,-2.1108200550079346,-2.132101535797119,-4.244256496429443
7.339260816574097,-0.6180251836776733,0.22354772686958313,0.02656257152557373,-0.2836112961246016,-1.3821850122404964,-0.7482503365811368,-0.9430253505706787,0.27982449531555176,-0.18000485002994537,-1.5636957883834839,-2.0939788818359375,-4.307992935180664
7.359986782073975,-0.6070082783699036,0.2718333601951599,-0.027554214000701904,-0.20363108410671632,-1.4330610004293483,-0.7902780348958344,-0.9700639843940735,0.20222671329975128,-0.13446345925331116,-1.203534722328186,-1.9667834043502808,-4.238927364349365
7.379913806915283,-0.53365159034729,0.3611828684806824,-0.09404855221509933,-0.12419785873216899,-1.4760627731441787,-0.8225611565879755,-0.9878481030464172,0.12387881428003311,-0.09386331588029861,-1.0819392204284668,-1.8028287887573242,-4.018634796142578
7.399941921234131,-0.43430429697036743,0.43181079626083374,-0.1416568160057068,-0.04922712635249987,-1.512505312600938,-0.8501959087197453,-0.9970923066139221,0.04920724779367447,-0.058187440037727356,-1.1168917417526245,-1.5748932361602783,-3.663130283355713
7.419882774353027,-0.3757808208465576,0.5007703900337219,-0.13907122611999512,0.018441132064702687,-1.5420731965340961,-0.8771993677378589,-0.9994176626205444,-0.018440086394548416,-0.02871430106461048,-1.3290269374847412,-1.3668878078460693,-3.2085912227630615
7.439884901046753,-0.2969352602958679,0.5595016479492188,-0.10202193260192871,0.07724815744796301,-1.5668342498788819,-0.9074964378486496,-0.9970101714134216,-0.07717135548591614,-0.00395025173202157,-1.5826538801193237,-1.2623027563095093,-2.712226152420044
7.459883689880371,-0.2670339345932007,0.6365768909454346,-0.14706635475158691,0.12636915042851313,-1.5881189841420806,-0.9389685958429339,-0.9918771982192993,-0.12603308260440826,0.017183668911457062,-1.5402567386627197,-1.1553688049316406,-2.159440517425537
7.47988486289978,-0.2385428547859192,0.6649839878082275,-0.28894031047821045,0.1645042881076361,-1.6061471587820992,-0.9668848324374415,-0.9858835339546204,-0.16376332938671112,0.0348663292825222,-1.3182960748672485,-1.0289006233215332,-1.5596613883972168
7.499884843826294,-0.16126519441604614,0.676128625869751,-0.33294475078582764,0.19151847551639745,-1.6226378964096049,-0.989337832392221,-0.9803975224494934,-0.19034983217716217,0.050870928913354874,-1.014794945716858,-0.9748315215110779,-1.0368484258651733
7.519887924194336,-0.09854108095169067,0.6930973529815674,-0.30218422412872314,0.20981593482976438,-1.63824280903127,-1.0054162345544864,-0.9758455753326416,-0.20827987790107727,0.06591733545064926,-0.6754855513572693,-0.8714286684989929,-0.7049998641014099
7.539920806884766,-0.06225109100341797,0.6835131645202637,-0.31921684741973877,0.22273434237412926,-1.65279440635124,-1.0149390510964498,-0.9720203876495361,-0.22089724242687225,0.0798829197883606,-0.36693814396858215,-0.774286687374115,-0.5194928646087646
7.558984756469727,0.008985340595245361,0.6934208869934082,-0.35874295234680176,0.23223066463399097,-1.666992026574203,-1.0188430747388926,-0.968656599521637,-0.23014888167381287,0.09346908330917358,-0.11387259513139725,-0.7343805432319641,-0.40055692195892334
7.579916000366211,0.08799517154693604,0.6795228719711304,-0.4026503562927246,0.23904394426014297,-1.6816219224883635,-1.0188499606455321,-0.9656045436859131,-0.23677386343479156,0.10745398700237274,0.015722470358014107,-0.726107120513916,-0.2810908555984497
7.5998430252075195,0.1088036298751831,0.6426492929458618,-0.4506847858428955,0.24351386575342354,-1.6956294167388652,-1.0175035489677928,-0.9629451036453247,-0.2411143034696579,0.12083574384450912,0.06257656961679459,-0.6303777694702148,-0.18365657329559326
7.619975805282593,0.08483004570007324,0.6405880451202393,-0.4931246042251587,0.24613903447084237,-1.7078886117644918,-1.0144980969959192,-0.9607609510421753,-0.24366118013858795,0.13254432380199432,0.22226449847221375,-0.5360632538795471,-0.12105976045131683
7.639920711517334,0.047151029109954834,0.7005089521408081,-0.5649974346160889,0.24708279139777026,-1.7198499674540404,-1.0065143626662958,-0.9588791728019714,-0.24457639455795288,0.1439923793077469,0.5665070414543152,-0.4941473603248596,-0.10149206966161728
7.65988302230835,-0.10134291648864746,0.7647404074668884,-0.6410297155380249,0.246822665459743,-1.7339991452030912,-0.988105051636348,-0.95680832862854,-0.24432416260242462,0.15755514800548553,1.2727510929107666,-0.4240897297859192,-0.16575592756271362
7.679924011230469,-0.4223446249961853,0.8663113713264465,-0.7539458274841309,0.24411006514498032,-1.747194300260293,-0.9518146007965459,-0.9552952647209167,-0.24169287085533142,0.1702820062637329,2.223114490509033,0.043718572705984116,-0.12312941998243332
7.699927806854248,-0.5563772320747375,0.8930500745773315,-0.7623230218887329,0.23433061472569403,-1.7493676257165804,-0.9036540778391824,-0.9572032690048218,-0.23219195008277893,0.17276935279369354,2.3815126419067383,0.8760024905204773,0.3026781678199768
7.719879865646362,-0.2774805426597595,0.6889609694480896,-0.4907991886138916,0.21551247709296897,-1.7337317619721486,-0.8666633849625243,-0.9639288783073425,-0.2138480842113495,0.15846295654773712,1.3140718936920166,1.4597914218902588,0.9736469388008118
7.739879846572876,0.03898906707763672,0.5131316184997559,-0.3156083822250366,0.18679284794847528,-1.7019208379007165,-0.862406339055378,-0.9741697907447815,-0.18570849299430847,0.12847469747066498,-0.4745582640171051,1.8023786544799805,1.7925708293914795
7.759881973266602,0.13162362575531006,0.4307987093925476,-0.29485249519348145,0.14634743830244049,-1.6602721076195792,-0.889152828257714,-0.9853530526161194,-0.14582559466362,0.08840127289295197,-1.5337255001068115,1.9162094593048096,2.501804828643799
7.779879808425903,0.030151963233947754,0.43590354919433594,-0.36191630363464355,0.09386299612706299,-1.617935230112886,-0.924613312696633,-0.99449223279953,-0.09372523427009583,0.04691402614116669,-1.4910670518875122,1.8455045223236084,2.9275729656219482
7.799893856048584,-0.13767766952514648,0.4030895233154297,-0.4306962490081787,0.033970696996129875,-1.580416925668799,-0.9494407668333018,-0.9993768930435181,-0.033964164555072784,0.009614900685846806,-0.739913284778595,1.7466400861740112,3.0960254669189453
7.819912910461426,-0.3486593961715698,0.36847254633903503,-0.37979942560195923,-0.027481213774778867,-1.5454780683407097,-0.9530129528948875,-0.9993022680282593,0.027477754279971123,-0.02530600130558014,0.32996439933776855,1.7545514106750488,3.0408926010131836
7.83988094329834,-0.5256816148757935,0.3333877623081207,-0.22279894351959229,-0.0864280695292022,-1.5085482360333629,-0.9361064477988719,-0.9943380951881409,0.08632051199674606,-0.061975717544555664,1.0156110525131226,1.8292630910873413,2.93863582611084
7.8598809242248535,-0.6325460076332092,0.2506917417049408,-0.06356728076934814,-0.14264430330358882,-1.4677777024820937,-0.9088200409344589,-0.984595775604248,0.1421610563993454,-0.10179205983877182,1.1660767793655396,1.948061227798462,2.9074010848999023
7.879881858825684,-0.7251904010772705,0.13859637081623077,0.0880739837884903,-0.19842706299130433,-1.42051926401024,-0.8786851182023295,-0.969328761100769,0.19712750613689423,-0.14677442610263824,1.043725848197937,2.1890339851379395,2.964235544204712
7.899902820587158,-0.6927418112754822,0.048588305711746216,0.24250072240829468,-0.25526118995633473,-1.3687458792982101,-0.8492026081216534,-0.9479138851165771,0.25249814987182617,-0.19417601823806763,0.7880333662033081,2.249807596206665,3.1172597408294678
7.919925689697266,-0.549739420413971,-0.016426652669906616,0.3085300922393799,-0.3146213945714223,-1.3169052614790262,-0.8200058423449128,-0.9204297661781311,0.309456467628479,-0.23884308338165283,0.6092642545700073,2.105193614959717,3.3188211917877197
7.939882755279541,-0.5373779535293579,-0.05302974581718445,0.304109662771225,-0.37744982806763067,-1.2652725694486144,-0.7893237832716805,-0.8865570425987244,0.36855101585388184,-0.2796191871166229,0.42998945713043213,2.0462987422943115,3.5218591690063477
7.959881782531738,-0.6107247471809387,-0.15064796805381775,0.32796651124954224,-0.44311392094389346,-1.2111455262240265,-0.7555414970484211,-0.8456199765205383,0.4287547171115875,-0.31795668601989746,0.37635597586631775,1.983543872833252,3.6990134716033936
7.9798808097839355,-0.5714080929756165,-0.20440933108329773,0.3847583532333374,-0.5090734305004331,-1.1544086723883444,-0.7150685057479683,-0.7985871434211731,0.4873683750629425,-0.35317257046699524,0.4703254997730255,1.8495243787765503,3.7683353424072266
7.999926805496216,-0.5737165212631226,-0.2656313180923462,0.44295018911361694,-0.5718151332776571,-1.0932440361260856,-0.6657056884543915,-0.746840238571167,0.5411593317985535,-0.3864925503730774,0.6441779136657715,1.7272154092788696,3.7207138538360596
8.019891738891602,-0.5783981680870056,-0.32183122634887695,0.48257115483283997,-0.627685686189933,-1.026110456558055,-0.6062011989268687,-0.6922622919082642,0.5872731804847717,-0.4193843901157379,0.9260383248329163,1.6196612119674683,3.5624234676361084
8.039202690124512,-0.5669748187065125,-0.37967127561569214,0.4989098310470581,-0.6732787592345761,-0.9523707456809067,-0.5359753496617542,-0.6369894742965698,0.6235526204109192,-0.45324018597602844,1.2400306463241577,1.507389783859253,3.326827049255371
8.05988883972168,-0.5360025763511658,-0.45160406827926636,0.5259668827056885,-0.706739939756776,-0.873715395547067,-0.45775850201289475,-0.5830770134925842,0.6493580341339111,-0.4882165789604187,1.47075355052948,1.3724490404129028,3.0216939449310303
8.079880714416504,-0.457405149936676,-0.5342397093772888,0.581121563911438,-0.7291397077264017,-0.7953975549320352,-0.37783126769589637,-0.5325698852539062,0.6662282943725586,-0.5220242142677307,1.4652000665664673,1.2056657075881958,2.6841251850128174
8.099977970123291,-0.40810316801071167,-0.6086983680725098,0.6217365860939026,-0.7423069163477183,-0.7230638979379297,-0.30300579303298536,-0.4876030683517456,0.6759896874427795,-0.5525226593017578,1.4053378105163574,1.0074459314346313,2.2471909523010254
8.119881868362427,-0.3848002254962921,-0.6421363353729248,0.6117386221885681,-0.7469839553761046,-0.6609507695317923,-0.2386341190710796,-0.4504201412200928,0.6794288754463196,-0.5792220234870911,1.2551215887069702,0.8421866297721863,1.695293664932251
8.139880895614624,-0.38021570444107056,-0.6879910230636597,0.6453668475151062,-0.7454489140539653,-0.6133706393922982,-0.19020546324544524,-0.42296117544174194,0.6783017516136169,-0.6008416414260864,0.9775065183639526,0.6203324198722839,1.0750970840454102
8.159879684448242,-0.33820173144340515,-0.7262265682220459,0.6844509243965149,-0.7415270952846038,-0.5845908088413436,-0.1614573713646637,-0.40696123242378235,0.6754148602485657,-0.6149775981903076,0.5359843373298645,0.3103303909301758,0.44960159063339233
8.179945945739746,-0.2762061655521393,-0.753627598285675,0.676109790802002,-0.7387116483007495,-0.5780288500786701,-0.15474236418743742,-0.403954416513443,0.6733359694480896,-0.619225025177002,-0.041585106402635574,-0.12042243033647537,-0.20000536739826202
8.199886798858643,-0.31337088346481323,-0.7467948198318481,0.6343257427215576,-0.7380144090642073,-0.5969005964806328,-0.17332734695489171,-0.41583144664764404,0.6728202700614929,-0.6118800044059753,-0.6564414501190186,-0.5004826784133911,-1.0118544101715088
8.219879865646362,-0.45037442445755005,-0.6809949278831482,0.6434093713760376,-0.7364426241944402,-0.6421979611312434,-0.22002507554037468,-0.4437448978424072,0.6716566681861877,-0.5932689309120178,-1.2151035070419312,-0.892143189907074,-1.895113468170166
8.239926815032959,-0.44364047050476074,-0.6298463344573975,0.6356943845748901,-0.7307711818278014,-0.7133490515308758,-0.29262030831721575,-0.4872830808162689,0.667444109916687,-0.5630929470062256,-1.7396315336227417,-1.3976266384124756,-2.6362266540527344
8.259981870651245,-0.35517245531082153,-0.5916739702224731,0.5213499069213867,-0.7191786560283635,-0.8070585887724508,-0.38518963096884096,-0.543387234210968,0.6587669849395752,-0.5203427672386169,-2.21671199798584,-1.7842363119125366,-3.1708078384399414
8.279882907867432,-0.3523787260055542,-0.5247057676315308,0.3569205403327942,-0.7015305182169921,-0.9132595855019444,-0.4935184618737954,-0.6045915484428406,0.6453875303268433,-0.46684470772743225,-2.863614797592163,-1.7362403869628906,-3.5187437534332275
8.299915790557861,-0.35319387912750244,-0.4842953085899353,0.25122520327568054,-0.6761831836785238,-1.0234412080070499,-0.6119643564644102,-0.6660169959068298,0.6258205771446228,-0.405918687582016,-3.182075262069702,-1.7916765213012695,-3.7424426078796387
