timestamp,acceleration_x,acceleration_y,acceleration_z,attitude_pitch,attitude_roll,attitude_yaw,gravity_x,gravity_y,gravity_z,rotation_x,rotation_y,rotation_z
0.0,-0.25726592540740967,0.8841745257377625,-0.05203324556350708,-0.10676618637805171,-1.5652265031292298,2.6922950865281994,-0.9942906498908997,0.10656346380710602,-0.00553808081895113,2.5577850341796875,-0.569427490234375,1.604728102684021
0.01889801025390625,-0.2509468197822571,0.6485826373100281,0.0758160948753357,-0.14321201836312583,-1.5687200781742852,2.7382604553025094,-0.9897606372833252,0.1427229791879654,-0.0020549921318888664,1.9688688516616821,-0.3613666594028473,2.0565905570983887
0.03451800346374512,-0.2988319396972656,0.4787387251853943,0.11053746938705444,-0.18801654563527273,-1.5677180910443276,2.7732083441776094,-0.9823722839355469,0.18691076338291168,-0.0030239829793572426,1.5941885709762573,-0.110995352268219,2.4037516117095947
0.054205894470214844,-0.36450523138046265,0.48524177074432373,0.044863760471343994,-0.2375520089905361,-1.5614676372970504,2.8090857181678732,-0.9718748331069946,0.23532408475875854,-0.009066581726074219,1.989322304725647,-0.09150642901659012,2.552903413772583
0.0745389461517334,-0.35211122035980225,0.5133628249168396,-0.017892301082611084,-0.2891258401911594,-1.552258450759382,2.8592549715414224,-0.958328902721405,0.28511446714401245,-0.017767418175935745,2.7907891273498535,-0.3285520076751709,2.672722578048706
0.0946040153503418,-0.3379480242729187,0.4343746602535248,0.012894388288259506,-0.3410266255990459,-1.5398006853392256,2.926998286776903,-0.9419593811035156,0.3344547748565674,-0.029205987229943275,3.509794235229492,-0.49308937788009644,2.595998764038086
0.11459803581237793,-0.39567363262176514,0.3006359040737152,0.10328716039657593,-0.3903713053115956,-1.5173760944626322,3.0082081521395074,-0.9234488010406494,0.38053181767463684,-0.04937782883644104,3.870755195617676,-0.2078283429145813,2.5619521141052246
0.13455915451049805,-0.41365569829940796,0.1050250232219696,0.19520872831344604,-0.43556432065733286,-1.4810011240720569,3.0978342141574755,-0.9029794931411743,0.42192208766937256,-0.08130186051130295,3.9342308044433594,0.23967406153678894,2.5247726440429688
0.15456295013427734,-0.37065768241882324,0.03231021761894226,0.2853085398674011,-0.47716981172857303,-1.433234878849918,-3.0953014327960897,-0.8799068331718445,0.4592669606208801,-0.12181057780981064,3.642395496368408,0.5197843909263611,2.5228829383850098
0.17453503608703613,-0.31742650270462036,-0.04676961898803711,0.3402094841003418,-0.5152162662739115,-1.3792135679685362,-3.0073491864675725,-0.8542653918266296,0.4927230477333069,-0.1656947135925293,3.3788533210754395,0.695901095867157,2.497328758239746
0.19447803497314453,-0.29971498250961304,-0.13392013311386108,0.37683355808258057,-0.5506222798004433,-1.3220579276442872,-2.9244144850270546,-0.8259716629981995,0.5232176184654236,-0.20979556441307068,2.7325427532196045,0.7917584776878357,2.5362467765808105
0.2145538330078125,-0.30244624614715576,-0.2757808566093445,0.44355303049087524,-0.5873012423812264,-1.268864288745224,-2.857607703381784,-0.794782817363739,0.5541164875030518,-0.24753862619400024,1.6658542156219482,0.9599505066871643,2.5107033252716064
0.23471593856811523,-0.3206334710121155,-0.41126716136932373,0.4932388365268707,-0.6272196726538459,-1.2225002641592515,-2.8134470200982684,-0.7610467672348022,0.5868958830833435,-0.27633509039878845,0.5503831505775452,1.1461540460586548,2.4314181804656982
0.25455403327941895,-0.3149760365486145,-0.42452454566955566,0.48948967456817627,-0.6690796563782854,-1.1819688423135981,-2.785133128945783,-0.725841224193573,0.6202643513679504,-0.2973662316799164,0.1892482340335846,1.1764652729034424,2.2864553928375244
0.274554967880249,-0.2825937867164612,-0.38655567169189453,0.45083367824554443,-0.7072816794232001,-1.1416128557793646,-2.7569196150292883,-0.6911916136741638,0.6497699022293091,-0.31631216406822205,0.33777719736099243,1.0396500825881958,2.08048415184021
0.29456615447998047,-0.24130332469940186,-0.3879334330558777,0.4434269666671753,-0.738275548327762,-1.1006358045688078,-2.722669583881357,-0.6593771576881409,0.67301344871521,-0.3350742757320404,0.6305036544799805,0.7829043865203857,1.8217660188674927
0.31454992294311523,-0.2256525158882141,-0.4664849042892456,0.44722431898117065,-0.7612512966769952,-1.0610602156958235,-2.6841378144388672,-0.6319372057914734,0.6898279190063477,-0.35326069593429565,0.7143392562866211,0.5558196902275085,1.527913212776184
0.3346419334411621,-0.23407870531082153,-0.5256023406982422,0.47012341022491455,-0.7784935707325141,-1.0276320246460398,-2.649856821367474,-0.6095035076141357,0.7022076845169067,-0.36798107624053955,0.5285139679908752,0.40253159403800964,1.183885931968689
0.35449886322021484,-0.25206732749938965,-0.57329922914505,0.46375715732574463,-0.7916714046205853,-1.0024697987650129,-2.6246550765707877,-0.5922014713287354,0.7115287184715271,-0.37818583846092224,0.30075129866600037,0.31467074155807495,0.8300647139549255
0.3745541572570801,-0.24746400117874146,-0.5945315361022949,0.4582650065422058,-0.8006916878276857,-0.9855402983333125,-2.609326166392413,-0.580340564250946,0.7178378105163574,-0.38459551334381104,0.1088031604886055,0.2792084515094757,0.5152916312217712
0.39455509185791016,-0.20857656002044678,-0.6267719268798828,0.4734663963317871,-0.8069783265352353,-0.9758197207643333,-2.6027363486523427,-0.5728260278701782,0.7222004532814026,-0.3876814544200897,-0.05243948474526405,0.1834401786327362,0.2613191604614258
0.4146270751953125,-0.17251962423324585,-0.6654186844825745,0.47163939476013184,-0.8118164584576936,-0.9768927258321008,-2.6048798594723785,-0.5703393220901489,0.725538432598114,-0.3851068317890167,-0.3479345738887787,-0.15848520398139954,0.035966839641332626
0.43455004692077637,-0.22248560190200806,-0.639457643032074,0.44467857480049133,-0.8139165727372306,-0.9920448348525868,-2.6171667319223983,-0.5748317837715149,0.726982057094574,-0.37558674812316895,-0.4330085217952728,-0.42652925848960876,-0.33715030550956726
0.45455098152160645,-0.3499855399131775,-0.5708007216453552,0.4062444865703583,-0.8096485053088481,-1.014862356787227,-2.636241067066844,-0.5858817100524902,0.7240447998046875,-0.3640081286430359,-0.4365575909614563,-0.41819605231285095,-0.7363982200622559
0.4746420383453369,-0.43542665243148804,-0.5214362144470215,0.39799001812934875,-0.7981226172770354,-1.0396112955551458,-2.6613942792268483,-0.6018657684326172,0.7160468697547913,-0.3536021411418915,-0.49300429224967957,-0.28190281987190247,-1.1512187719345093
0.4945640563964844,-0.42235541343688965,-0.505868673324585,0.357620507478714,-0.7813852428075246,-1.0722162441983123,-2.694376153558583,-0.6235125660896301,0.7042635083198547,-0.3394777774810791,-0.7180734276771545,-0.7439652681350708,-1.4357885122299194
0.5146479606628418,-0.47581690549850464,-0.417015016078949,0.32639893889427185,-0.7608917763691164,-1.1201342151741822,-2.7345056826962315,-0.6519143581390381,0.6895675659179688,-0.3154430687427521,-0.9016714096069336,-1.1418219804763794,-1.729549527168274
0.5346341133117676,-0.6680757999420166,-0.3118290901184082,0.3724413812160492,-0.7339603818929311,-1.1711682768605454,-2.781163156612722,-0.6840206980705261,0.6698155999183655,-0.2888994514942169,-1.140828013420105,-0.6479552984237671,-2.1572234630584717
0.5546360015869141,-0.7168025970458984,-0.31138157844543457,0.42517560720443726,-0.7006836481260891,-1.211482274512256,-2.8379152026190755,-0.7155857086181641,0.6447404026985168,-0.26878824830055237,-1.638244390487671,0.2726559042930603,-2.4920601844787598
0.5745711326599121,-0.38081490993499756,-0.2927703261375427,0.3221510648727417,-0.6647947499860386,-1.2482575947794836,-2.9043838605648133,-0.7464586496353149,0.6168975830078125,-0.249473437666893,-1.9460690021514893,0.03915295749902725,-2.6033225059509277
0.5945501327514648,-0.07666367292404175,-0.13969314098358154,0.14520813524723053,-0.6258846081365644,-1.2946303436291606,-2.9668454929500263,-0.779735803604126,0.5858144164085388,-0.22098323702812195,-1.5537240505218506,-0.9432092905044556,-2.5748701095581055
0.6146631240844727,-0.03540027141571045,0.01570683717727661,-0.0004970431327819824,-0.5834945542635732,-1.345305573760038,-3.0092536420528706,-0.8134156465530396,0.5509436726570129,-0.18659095466136932,-0.8334192037582397,-1.6061164140701294,-2.429629325866699
0.6345429420471191,-0.1957520842552185,0.0705113410949707,-0.026042357087135315,-0.5385162365856462,-1.3937412615392646,-3.0379596731993477,-0.845050036907196,0.5128628015518188,-0.1512037068605423,-0.7673988938331604,-1.616934061050415,-2.5131633281707764
0.6545529365539551,-0.3371737599372864,0.02781921625137329,0.06861209869384766,-0.49139974076483045,-1.4363595363916901,-3.0675874300885635,-0.8737179636955261,0.47186046838760376,-0.11817262321710587,-1.072326421737671,-1.1842560768127441,-2.5123846530914307
0.6745491027832031,-0.35772204399108887,0.06575432419776917,0.11555695533752441,-0.44561278262002124,-1.4712318952144738,-3.1004149997119117,-0.8978779911994934,0.431010901927948,-0.08969328552484512,-1.268157958984375,-0.8587118983268738,-2.4042346477508545
0.6945860385894775,-0.3406040668487549,0.182514488697052,0.08151853829622269,-0.40014602742082095,-1.5001033695962587,-3.134224877977647,-0.9187037944793701,0.3895528316497803,-0.06505428999662399,-1.5090056657791138,-0.6659144163131714,-2.398414373397827
0.7145490646362305,-0.29573357105255127,0.26100996136665344,0.044935766607522964,-0.3544593181632725,-1.5273100509227486,3.1062145086794057,-0.9369476437568665,0.34708335995674133,-0.040770065039396286,-2.214487314224243,-0.47184205055236816,-2.3941407203674316
0.7345700263977051,-0.2135569453239441,0.2441091239452362,0.0366743803024292,-0.3087143823622094,-1.5524972610381143,3.053178041907216,-0.9525654911994934,0.30383405089378357,-0.017433004453778267,-2.6018006801605225,-0.32680436968803406,-2.3377978801727295
0.7545781135559082,-0.15965133905410767,0.3806859254837036,-0.004165172576904297,-0.2627853434344897,-1.5723285784284602,2.9997038063822954,-0.9656691551208496,0.25977128744125366,0.001479649217799306,-2.431020736694336,-0.16081786155700684,-2.3206489086151123
0.7745530605316162,-0.09285628795623779,0.5388107299804688,-0.06101715564727783,-0.21575862492200745,-1.5865401337203,2.954636700538187,-0.976693332195282,0.2140885293483734,0.015378141775727272,-2.0064430236816406,-0.21108627319335938,-2.339691162109375
0.794550895690918,-0.006597995758056641,0.5985299348831177,-0.09184658527374268,-0.16926017935675847,-1.5996436234949427,2.917692167485502,-0.9852995872497559,0.1684531420469284,0.028431115671992302,-1.7707642316818237,-0.3934077024459839,-2.2380521297454834
0.81455397605896,0.02807992696762085,0.6101129055023193,-0.09651541709899902,-0.12401524447826177,-1.6131913567584777,2.885397223383607,-0.9914283752441406,0.12369760125875473,0.04205683618783951,-1.5793856382369995,-0.47130072116851807,-2.173888683319092
0.8345839977264404,0.002918243408203125,0.6791689991950989,-0.1540132761001587,-0.08002595633476708,-1.6250187734334298,2.8584527947263094,-0.995334804058075,0.079940564930439,0.05402244254946709,-1.2943798303604126,-0.40412184596061707,-2.099632740020752
0.854060173034668,0.008497834205627441,0.7901867628097534,-0.21557831764221191,-0.03819170258248453,-1.6336450955590078,2.8384706378006275,-0.9972979426383972,0.038182418793439865,0.06276160478591919,-0.9835267663002014,-0.3588775098323822,-1.9442018270492554
0.8745489120483398,0.08765667676925659,0.839585542678833,-0.25094425678253174,-0.001601057290949658,-1.6413947394473365,2.822145883514193,-0.9975078105926514,0.0016010566614568233,0.0705396980047226,-0.8881630897521973,-0.3818540871143341,-1.5874645709991455
0.8945460319519043,0.16379690170288086,0.8189337253570557,-0.2617766857147217,0.026776841498742744,-1.6481533347586208,2.8063626186924773,-0.9966521859169006,-0.026773640885949135,0.07725218683481216,-0.9311251044273376,-0.29744449257850647,-1.1234052181243896
0.9145488739013672,0.22370052337646484,0.7810716032981873,-0.25231242179870605,0.04543041348311702,-1.6524156315586165,2.787966284894145,-0.9956427216529846,-0.04541478678584099,0.08144459873437881,-1.0720099210739136,-0.20082546770572662,-0.5975627899169922
0.9345531463623047,0.25784409046173096,0.780245840549469,-0.26126277446746826,0.05454953338611672,-1.654562447375985,2.7663972432230266,-0.9950114488601685,-0.05452248454093933,0.08354374021291733,-1.130743384361267,-0.13770827651023865,-0.15174563229084015
0.9545869827270508,0.2526674270629883,0.8228238821029663,-0.3010150194168091,0.05576286126069225,-1.6563503561622004,2.745693126763766,-0.9947939515113831,-0.05573396757245064,0.08531688898801804,-0.8975058197975159,-0.16453997790813446,0.18779928982257843
0.974586009979248,0.2117692232131958,0.8522467017173767,-0.33798956871032715,0.0502658243083795,-1.6588736063160199,2.731676389677744,-0.9948655962944031,-0.050244659185409546,0.0878523513674736,-0.4365365505218506,-0.1275540143251419,0.45780929923057556
0.9945509433746338,0.14789432287216187,0.8620178699493408,-0.36243343353271484,0.039121304681975284,-1.6618799274585574,2.7264971767251236,-0.9950928688049316,-0.03911132737994194,0.0908881202340126,0.02317667379975319,-0.18989771604537964,0.6727544665336609
1.0145821571350098,0.07750165462493896,0.8179365396499634,-0.3350485563278198,0.023199788671419946,-1.6646289724973182,2.7293721222906115,-0.9953330159187317,-0.023197706788778305,0.09366980195045471,0.38292059302330017,-0.07858725637197495,0.8921820521354675
1.0345549583435059,0.01722186803817749,0.7586925625801086,-0.2661699056625366,0.0024822047432537264,-1.66541578012218,2.7371889217567786,-0.9955239295959473,-0.0024822021368891,0.0944780483841896,0.5428363680839539,-0.020536471158266068,1.1089459657669067
1.0546259880065918,-0.05684846639633179,0.6965145468711853,-0.20144282281398773,-0.022969957658894456,-1.6664225189602484,2.745583750138241,-0.995168924331665,0.02296793833374977,0.0954553559422493,0.5491949319839478,-0.06903351843357086,1.322200059890747
1.0746419429779053,-0.24595355987548828,0.7167361974716187,-0.23853564262390137,-0.0509708951227717,-1.6647556425680625,2.7561526803914473,-0.9942961931228638,0.05094882845878601,0.09369928389787674,0.8345128297805786,0.24650640785694122,1.357014775276184
1.0945401191711426,-0.3581101894378662,0.7359880208969116,-0.23234307765960693,-0.08082670404624265,-1.6544006212436042,2.7747414140672286,-0.9932541251182556,0.08073872327804565,0.08323432505130768,1.2666038274765015,0.6426791548728943,1.4920765161514282
1.1145339012145996,-0.24085432291030884,0.6361773610115051,-0.11746835708618164,-0.11665055362934536,-1.6392068995126934,2.7993293807890383,-0.9908809661865234,0.11638618260622025,0.06789267808198929,1.4009672403335571,0.5486095547676086,1.9241644144058228
1.134152889251709,-0.1770266890525818,0.4868151545524597,0.017855167388916016,-0.16040201983486044,-1.626778371229532,2.8253815467211076,-0.9856168627738953,0.15971507132053375,0.05523455888032913,1.472709059715271,0.40511423349380493,2.2417259216308594
1.1545438766479492,-0.33371472358703613,0.4093141555786133,0.07219886034727097,-0.2073884305391403,-1.6114641904595985,2.855108213351351,-0.9777628183364868,0.2059049904346466,0.039785463362932205,1.7224960327148438,0.6190639138221741,2.271352529525757
1.1744849681854248,-0.4662107825279236,0.3441731631755829,0.0923612117767334,-0.25307852237121675,-1.5866999292161592,2.8929578993088207,-0.9680237174034119,0.2503856122493744,0.01539636217057705,2.0933163166046143,0.9612938761711121,2.1812591552734375
1.1945040225982666,-0.4159684181213379,0.27402302622795105,0.1214478611946106,-0.2968298010086971,-1.5530005132755396,2.9405715587505736,-0.9561171531677246,0.2924901247024536,-0.017016679048538208,2.5032172203063965,1.035652756690979,2.1187117099761963
1.214487075805664,-0.2619855999946594,0.19543564319610596,0.14283114671707153,-0.33748471044627426,-1.5160531847714571,2.9988419642873283,-0.9421770572662354,0.3311147391796112,-0.05162931606173515,2.881427764892578,0.7789559960365295,2.155691623687744
1.2344820499420166,-0.15874254703521729,0.13581684231758118,0.1711214780807495,-0.37715038181773963,-1.4802967623772534,3.0667530947679733,-0.925913393497467,0.3682726323604584,-0.08402427285909653,3.1578032970428467,0.46101251244544983,2.2583847045898438
1.2544841766357422,-0.15573453903198242,0.05369389057159424,0.2393760085105896,-0.41591173520961694,-1.4429608927848605,3.1409195985824487,-0.9072842597961426,0.4040240943431854,-0.11661902815103531,3.1932013034820557,0.4369387626647949,2.3377153873443604
1.274543046951294,-0.17857766151428223,-0.07551509141921997,0.34065937995910645,-0.4537324585564214,-1.4017990252911134,-3.0678056998474643,-0.8860127925872803,0.43832337856292725,-0.15117572247982025,2.9023079872131348,0.5642821788787842,2.398338556289673
1.2944979667663574,-0.18910181522369385,-0.1695409119129181,0.4103738069534302,-0.49091852934846786,-1.3576275238593711,-2.998271320751191,-0.8619388937950134,0.47143614292144775,-0.1865731030702591,2.4896066188812256,0.669113278388977,2.417574882507324
1.3144960403442383,-0.20203840732574463,-0.20956414937973022,0.4183293879032135,-0.5266143791327454,-1.3122885447077441,-2.9343101274016856,-0.8357882499694824,0.5026093125343323,-0.22100277245044708,2.118450880050659,0.7221768498420715,2.3548853397369385
1.3345870971679688,-0.21224629878997803,-0.22526603937149048,0.41810542345046997,-0.5598238854862045,-1.2676813718670557,-2.8751463771491546,-0.8087193369865417,0.5310369729995728,-0.25292903184890747,1.875219464302063,0.7033308744430542,2.244579792022705
1.354525089263916,-0.22673290967941284,-0.30233317613601685,0.44124823808670044,-0.5903129329033583,-1.2225451059830388,-2.8195624160255446,-0.7808965444564819,0.5566210150718689,-0.2835029065608978,1.5355595350265503,0.8061935305595398,2.1331865787506104
1.3745899200439453,-0.2232409119606018,-0.3547946810722351,0.4984409809112549,-0.6189337873817841,-1.1781459296834496,-2.7719829800305766,-0.7525128722190857,0.5801670551300049,-0.31165811419487,1.1040871143341064,0.9381914734840393,1.9429434537887573
1.3945131301879883,-0.1866626739501953,-0.4279327392578125,0.5289511680603027,-0.645837785906545,-1.1359421854318745,-2.732992488630951,-0.7242717146873474,0.60186767578125,-0.33643096685409546,0.7114760279655457,0.9427720308303833,1.785447359085083
1.414546012878418,-0.15112966299057007,-0.46853572130203247,0.5167497992515564,-0.6706625643253629,-1.0983957140121061,-2.6998257629500366,-0.6976099610328674,0.6215052008628845,-0.356471449136734,0.5920994281768799,0.7520874738693237,1.5909737348556519
1.434575080871582,-0.15627992153167725,-0.4691705107688904,0.4737025201320648,-0.6914740172407132,-1.0660318483656772,-2.6689961561757922,-0.6742407083511353,0.6376733183860779,-0.37252143025398254,0.571574866771698,0.536264181137085,1.3064632415771484
1.4545810222625732,-0.1901283860206604,-0.46386659145355225,0.4654766917228699,-0.7056898422104937,-1.0382939878873256,-2.6411272487216584,-0.6557731032371521,0.6485590934753418,-0.3864361643791199,0.5561186671257019,0.43580150604248047,0.9767735600471497
1.4745469093322754,-0.19164222478866577,-0.500022828578949,0.4901313781738281,-0.7150193281547284,-1.0166883047050594,-2.6187176039114024,-0.642098069190979,0.6556320190429688,-0.39731213450431824,0.4079054892063141,0.22611413896083832,0.7070369124412537
1.4945440292358398,-0.21870428323745728,-0.5395944118499756,0.5025721788406372,-0.7216132581516616,-1.005825028860181,-2.60340287257835,-0.634078860282898,0.6605966687202454,-0.4019404351711273,0.22398145496845245,-0.1376693993806839,0.4664669930934906
1.5145699977874756,-0.34080594778060913,-0.5315893292427063,0.5157237648963928,-0.7260400421598242,-1.0047673298636168,-2.5961892681167287,-0.6311789155006409,0.6639135479927063,-0.40103861689567566,-0.022014347836375237,-0.16638652980327606,0.18684910237789154
1.5340571403503418,-0.47136545181274414,-0.5496929883956909,0.5708184242248535,-0.7290116298763943,-1.0078634348916997,-2.6014525146114087,-0.6307463645935059,0.6661328077316284,-0.3980279266834259,-0.5215233564376831,0.2815394997596741,-0.14952528476715088
1.5545580387115479,-0.43031197786331177,-0.6370893716812134,0.5997006297111511,-0.7330208059305193,-1.0147815711115293,-2.625400813443929,-0.6312114596366882,0.6691176295280457,-0.3922421336174011,-1.1827889680862427,0.42586788535118103,-0.45149970054626465
1.5745549201965332,-0.27300214767456055,-0.6294647455215454,0.46646198630332947,-0.7365849816604981,-1.0416085376702329,-2.6640560154223873,-0.6394428610801697,0.6717621088027954,-0.3739631474018097,-1.3574631214141846,-0.5996068716049194,-0.7339503169059753
1.5945448875427246,-0.33962154388427734,-0.39622557163238525,0.33691927790641785,-0.7324203651315623,-1.088598982874579,-2.7037508383994933,-0.6587762236595154,0.6686712503433228,-0.34480804204940796,-0.9601333737373352,-1.2809609174728394,-1.121346354484558
1.6145730018615723,-0.638560950756073,-0.23290592432022095,0.34836217761039734,-0.7122989996945622,-1.1311315502720427,-2.7369203264275836,-0.6848795413970947,0.6535755395889282,-0.32214754819869995,-0.41272416710853577,-0.5110552310943604,-1.7934978008270264
1.634634017944336,-0.6385359168052673,-0.2738751769065857,0.4273020923137665,-0.6809445166395744,-1.1493229561751417,-2.767441686338355,-0.7089830636978149,0.6295271515846252,-0.31786611676216125,-0.5137767791748047,0.393623948097229,-1.9370924234390259
1.6545870304107666,-0.2161271572113037,-0.30240488052368164,0.27996885776519775,-0.6517821475149064,-1.1659609869657042,-2.800160570889965,-0.7307417392730713,0.6066041588783264,-0.31312620639801025,-0.5768709778785706,-0.18712598085403442,-1.776926040649414
1.6745450496673584,-0.005373597145080566,-0.18446505069732666,-0.043017804622650146,-0.6228035634266429,-1.1929158857978124,-2.8243751620270596,-0.7549413442611694,0.5833146572113037,-0.29967933893203735,-0.038647811859846115,-1.0392060279846191,-1.6762765645980835
1.6946539878845215,-0.044836342334747314,-0.010898828506469727,-0.14789989590644836,-0.5902864651401808,-1.2257817630131604,-2.837184087223136,-0.7818239331245422,0.5565990209579468,-0.2809789180755615,0.011202461086213589,-1.3882399797439575,-1.7981356382369995
1.7145459651947021,-0.20019513368606567,-0.03803050518035889,-0.11502018570899963,-0.555549846975449,-1.2628636464993963,-2.861938939162392,-0.8096469640731812,0.5274105072021484,-0.257507860660553,-0.9391226172447205,-0.9057457447052002,-2.1865367889404297
1.7345428466796875,-0.2567700743675232,-0.03825247287750244,-0.1987869143486023,-0.5174415016401693,-1.2968920219074134,-2.9070268836880144,-0.8366900682449341,0.4946582019329071,-0.2350815087556839,-1.4857319593429565,-0.2632361352443695,-2.5442800521850586
1.7546138763427734,-0.10743796825408936,0.3072473406791687,-0.477936327457428,-0.47205283478281923,-1.3218871800869694,-2.951139036561985,-0.8631888628005981,0.4547155797481537,-0.21940557658672333,-1.0194159746170044,-0.2021205574274063,-2.8398900032043457
1.7745461463928223,0.17022395133972168,0.7462771534919739,-0.6575825810432434,-0.42096941429718737,-1.3399658925856381,-2.9794187328191,-0.8884856700897217,0.4086454212665558,-0.2088114619255066,-0.0996825248003006,-0.33000582456588745,-2.725996732711792
1.7946219444274902,0.3369429111480713,0.7734662294387817,-0.6528576612472534,-0.36933388396436234,-1.3467231884041793,-2.9791392206949587,-0.9092543721199036,0.3609943091869354,-0.2072192132472992,0.9239562153816223,-0.31516146659851074,-2.2388784885406494
1.8145949840545654,0.36785340309143066,0.7284001111984253,-0.4646531939506531,-0.329114496336988,-1.3497521665075962,-2.9746606429669282,-0.9233039021492004,0.3232051730155945,-0.20748122036457062,0.3411358892917633,-0.1316945105791092,-1.6322407722473145
1.8345451354980469,0.35434168577194214,0.667507529258728,-0.4188131093978882,-0.3021892698179214,-1.3523220944224998,-2.9778446122777447,-0.9319937229156494,0.2976109981536865,-0.20691929757595062,-0.022328682243824005,-0.05024900287389755,-1.0451102256774902
1.8545451164245605,0.35987114906311035,0.7270969748497009,-0.3882426619529724,-0.2886437468847846,-1.3533582284893175,-2.9823515393298257,-0.9360584020614624,0.28465235233306885,-0.20680426061153412,-0.03664020076394081,0.06967100501060486,-0.37544503808021545
1.8745441436767578,0.37237370014190674,0.718858540058136,-0.36250919103622437,-0.2867487697176208,-1.3516656485469476,-2.980263107214059,-0.936231791973114,0.2828352451324463,-0.20850518345832825,0.29364582896232605,0.024072276428341866,0.21627789735794067
1.8945350646972656,0.3744058609008789,0.6105456352233887,-0.31845301389694214,-0.2932837926253376,-1.3490212265155452,-2.968819643859914,-0.9338541626930237,0.2890973389148712,-0.21056918799877167,0.6359800100326538,-0.08511404693126678,0.610001802444458
1.9145698547363281,0.34102749824523926,0.48829472064971924,-0.2535867691040039,-0.3030347107342595,-1.3456050637437669,-2.9502448707934814,-0.9303372502326965,0.2984180152416229,-0.2131185531616211,0.863068699836731,-0.08776548504829407,0.7070697546005249
1.9345479011535645,0.31081193685531616,0.39936724305152893,-0.17064231634140015,-0.31294555083504894,-1.3387911957209542,-2.9268580169483007,-0.9259395599365234,0.30786246061325073,-0.21876193583011627,1.089712381362915,0.04422716796398163,0.7611216306686401
1.9545440673828125,0.31556957960128784,0.2908983528614044,-0.11040042340755463,-0.3225610897545692,-1.3294192077082152,-2.899258235294587,-0.9209315180778503,0.31699660420417786,-0.2267119586467743,1.2215780019760132,-0.0032707543577998877,0.784299910068512
1.9746971130371094,0.3167966604232788,0.21536412835121155,-0.06837128102779388,-0.33213650456940186,-1.3212715047655756,-2.8694453650005936,-0.9160703420639038,0.32606351375579834,-0.23344753682613373,1.296408772468567,-0.14926843345165253,0.8403333425521851
1.9945440292358398,0.2716141939163208,0.1676369607448578,0.008550181984901428,-0.34280694373038184,-1.316029810033586,-2.8395164117488965,-0.9114152193069458,0.3361320197582245,-0.23735570907592773,1.1461130380630493,-0.2956434190273285,0.8941508531570435
2.0146219730377197,0.17155557870864868,0.12227609753608704,0.08361697196960449,-0.35429765419081416,-1.3126593141544978,-2.8123613869580155,-0.9068156480789185,0.34693172574043274,-0.2394244521856308,1.0563312768936157,-0.2803177237510681,0.8623157143592834
2.0339808464050293,0.10282844305038452,0.07380732893943787,0.13365015387535095,-0.3649989607159416,-1.3090085306887784,-2.7860458354451656,-0.9022973775863647,0.3569483160972595,-0.24175864458084106,1.105660080909729,-0.29275521636009216,0.8138658404350281
2.0545430183410645,0.09709995985031128,0.04418426752090454,0.14746272563934326,-0.37402132036922114,-1.3051629660136046,-2.7560198816248462,-0.8982169032096863,0.36536169052124023,-0.24437129497528076,1.3765367269515991,-0.43244412541389465,0.7974827885627747
2.074542999267578,0.11748433113098145,0.01639118790626526,0.19400554895401,-0.381235040936005,-1.3021804913955894,-2.721034623579824,-0.8949196338653564,0.3720671236515045,-0.2463432103395462,1.5342974662780762,-0.5547178387641907,0.754792332649231
2.0945420265197754,0.12689822912216187,-0.05967748165130615,0.264809250831604,-0.3869004272580491,-1.301255667995745,-2.685874860523251,-0.8926452994346619,0.3773197829723358,-0.24660547077655792,1.4365932941436768,-0.6942862868309021,0.6660258769989014
2.114542007446289,0.10987609624862671,-0.14505627751350403,0.3070841133594513,-0.39173916513428775,-1.3074920623407267,-2.6545201961211635,-0.8923925161361694,0.3817964196205139,-0.2405558079481125,1.2660309076309204,-1.1551107168197632,0.5507590174674988
2.134542942047119,-0.03434652090072632,-0.10147109627723694,0.23833975195884705,-0.3938963741502428,-1.320069520229409,-2.623623131716891,-0.894547700881958,0.3837893009185791,-0.22910819947719574,1.5325273275375366,-1.1599454879760742,0.3935410678386688
2.154542922973633,-0.14078360795974731,-0.054722726345062256,0.18843449652194977,-0.3920347321610939,-1.3216233835493518,-2.5849486134764375,-0.8955933451652527,0.38206955790519714,-0.22789369523525238,1.939401626586914,-0.42959222197532654,0.3343997299671173
2.17454195022583,0.02786087989807129,-0.13553664088249207,0.2141500860452652,-0.3888207526604019,-1.3110505747704069,-2.541913488248222,-0.8943159580230713,0.37909746170043945,-0.2376638501882553,1.968770146369934,-0.3276262879371643,0.37003812193870544
2.194568157196045,0.22631174325942993,-0.17993313074111938,0.2319316416978836,-0.38704990345068685,-1.3068018329898519,-2.4996047841374898,-0.8939447999000549,0.3774581849575043,-0.2416362166404724,1.8795735836029053,-0.8740211725234985,0.46904611587524414
2.2145638465881348,0.16474366188049316,-0.13319432735443115,0.17666971683502197,-0.3868180058809788,-1.311614159454513,-2.458835087581074,-0.8951819539070129,0.37724342942237854,-0.23735393583774567,1.770728588104248,-1.0373033285140991,0.46578124165534973
2.2345409393310547,-0.06371045112609863,-0.07662156224250793,0.19288504123687744,-0.3864629199528413,-1.315013765402094,-2.4222304721808623,-0.8961132168769836,0.3769145607948303,-0.23434317111968994,1.493437647819519,-0.6166501641273499,0.37192821502685547
2.2545340061187744,-0.1748465895652771,-0.0812959372997284,0.30153676867485046,-0.38808355879407,-1.3105170623706845,-2.3945963936301267,-0.8944590091705322,0.37841519713401794,-0.23821285367012024,0.8950880169868469,-0.0012495034607127309,0.4595261812210083
2.2745859622955322,-0.14429938793182373,-0.15391910076141357,0.3608505129814148,-0.39542085743254046,-1.3010695144306614,-2.380088026775335,-0.8894683718681335,0.38519659638404846,-0.2459060251712799,0.19473157823085785,0.3236743211746216,0.5910475850105286
2.294541835784912,-0.07424157857894897,-0.15271228551864624,0.377261757850647,-0.4063242213634738,-1.2927212402075423,-2.3766661505966598,-0.8832932710647583,0.39523550868034363,-0.2521549463272095,-0.045381270349025726,0.3551519513130188,0.5199213027954102
2.314542055130005,-0.04146075248718262,-0.10392805933952332,0.3080615699291229,-0.41490964479646936,-1.28512603206732,-2.3715688775741923,-0.8780645132064819,0.40310725569725037,-0.2578907012939453,0.3516635596752167,0.20521801710128784,0.4439642131328583
2.3345580101013184,-0.007881104946136475,-0.10495644807815552,0.19383689761161804,-0.41823670039923755,-1.2752956317071187,-2.3541047875651824,-0.8741990923881531,0.4061497747898102,-0.26611778140068054,1.076138973236084,0.03494329750537872,0.3206944167613983
2.3546149730682373,0.03934353590011597,-0.13748705387115479,0.1426057517528534,-0.4149317146389673,-1.2649961932423308,-2.322967910829534,-0.8726871609687805,0.40312743186950684,-0.27550986409187317,1.7391408681869507,-0.3098202049732208,0.23286841809749603
2.3745641708374023,0.04479140043258667,-0.14237439632415771,0.1441573202610016,-0.4073460467720781,-1.2573910344687773,-2.2813693497243483,-0.8734506368637085,0.3961739242076874,-0.28307339549064636,2.0093138217926025,-0.5029211044311523,0.19139309227466583
2.3945541381835938,-0.028218567371368408,-0.15144553780555725,0.24141204357147217,-0.39725514086638986,-1.2501139493460416,-2.2420300166954976,-0.8751170635223389,0.38688868284225464,-0.29066741466522217,1.7394304275512695,-0.29585275053977966,-0.02851763926446438
2.4145498275756836,-0.08623814582824707,-0.22533929347991943,0.2567211091518402,-0.38622181220437934,-1.241887975013952,-2.2119780224660803,-0.8766829967498779,0.37669122219085693,-0.2992168068885803,1.1909644603729248,-0.058596592396497726,-0.11478039622306824
2.434554100036621,-0.06692790985107422,-0.21661630272865295,0.27247124910354614,-0.3775944461876556,-1.2359475993841325,-2.195251518129631,-0.8779268860816956,0.36868545413017273,-0.30547598004341125,0.5807836055755615,0.008854884654283524,-0.197189599275589
2.4538750648498535,-0.0713200569152832,-0.15318343043327332,0.23417723178863525,-0.3708053907118191,-1.2350301536110888,-2.1899216296316033,-0.8799892067909241,0.3623661994934082,-0.30709895491600037,0.14097444713115692,-0.11374834924936295,-0.29060178995132446
2.474586009979248,-0.10266941785812378,-0.08591601252555847,0.26347479224205017,-0.36469883348978616,-1.2386495889907767,-2.1920214289776414,-0.8831704258918762,0.35666796565055847,-0.30462777614593506,-0.10157080739736557,-0.1546659618616104,-0.33887824416160583
2.4945430755615234,-0.16415244340896606,-0.10977357625961304,0.27428963780403137,-0.3587200798337768,-1.242447331859923,-2.196979769230404,-0.8863235712051392,0.35107606649398804,-0.3019537627696991,-0.07747159898281097,-0.04334263131022453,-0.3733760416507721
2.51454496383667,-0.20448720455169678,-0.09533193707466125,0.2673884630203247,-0.350203448480743,-1.2432666519936897,-2.199331911355656,-0.8893696069717407,0.34308892488479614,-0.3021785020828247,0.17054085433483124,0.05999840795993805,-0.5158625841140747
2.533751964569092,-0.16526466608047485,-0.04249313473701477,0.2785102427005768,-0.3374668517848558,-1.2414154327468192,-2.1958541961701505,-0.8928712606430054,0.33109790086746216,-0.3052131235599518,0.5622515678405762,-0.06466327607631683,-0.5755840539932251
2.5545458793640137,-0.12693732976913452,-0.06887239217758179,0.2700030207633972,-0.32198087932547553,-1.2413103783108332,-2.184984115649937,-0.8975836038589478,0.3164462745189667,-0.30692926049232483,0.8753014802932739,-0.2716362476348877,-0.5536139011383057
2.5745620727539062,-0.15827298164367676,-0.0712445080280304,0.22086602449417114,-0.30564103890336725,-1.244271351085887,-2.170375391978019,-0.9032657146453857,0.3009045720100403,-0.30588799715042114,0.934275209903717,-0.4381268620491028,-0.6156230568885803
2.594542980194092,-0.17659038305282593,-0.0961814820766449,0.2656509578227997,-0.2856903777903203,-1.2507650197558187,-2.159278205489871,-0.9107508659362793,0.2818199098110199,-0.30184483528137207,0.6957887411117554,-0.44541406631469727,-0.7268858551979065
2.6145448684692383,-0.1348244547843933,-0.10726454854011536,0.34600865840911865,-0.2735985912418945,-1.2536769846449778,-2.1524513360775823,-0.9147972464561462,0.27019792795181274,-0.30023226141929626,0.3014604151248932,-0.041411396116018295,-0.32050660252571106
2.634577989578247,-0.08394730091094971,-0.15963676571846008,0.3038880228996277,-0.2650706789512929,-1.2544887605552628,-2.1503510063947378,-0.9171971082687378,0.26197749376296997,-0.3001953661441803,0.26638007164001465,-0.17543941736221313,-0.45932698249816895
2.6545238494873047,-0.010870873928070068,-0.04667350649833679,0.2181653082370758,-0.2534335885006789,-1.2588928645395208,-2.1435297971518668,-0.9213497638702393,0.25072935223579407,-0.2970685660839081,0.7416037321090698,-0.4660934507846832,-0.4087716341018677
2.6744980812072754,-0.02395808696746826,0.10881130397319794,0.12846031785011292,-0.2397308064127112,-1.267383899146954,-2.127562132328831,-0.9270306825637817,0.23744113743305206,-0.2902339994907379,1.1341110467910767,-0.7149934768676758,-0.4897846579551697
2.694561004638672,-0.13525593280792236,0.09096068143844604,0.1136980652809143,-0.22149977869425286,-1.2753566503568325,-2.1078114784846096,-0.9333018064498901,0.21969300508499146,-0.2840471863746643,1.17360258102417,-0.48752957582473755,-0.6342682838439941
2.714573860168457,-0.14461934566497803,0.034071192145347595,0.14153948426246643,-0.20479945776959468,-1.27922814455375,-2.091203562427359,-0.9377781748771667,0.2033708095550537,-0.28144732117652893,0.8325692415237427,-0.320276141166687,-0.467536598443985
2.7345399856567383,-0.08427703380584717,0.009360283613204956,0.16265839338302612,-0.19465599026000982,-1.2847584181108307,-2.0801210424864776,-0.9412509799003601,0.19342903792858124,-0.2768246829509735,0.549656331539154,-0.40982431173324585,-0.20388510823249817
2.754621982574463,-0.14463645219802856,0.056145548820495605,0.07575136423110962,-0.1894932997429046,-1.2912911292875682,-2.073889929456647,-0.9439866542816162,0.1883612871170044,-0.270941823720932,0.19074375927448273,-0.3824407756328583,-0.2098618447780609
2.7745418548583984,-0.21809333562850952,0.1330149620771408,0.0395122766494751,-0.18336424970031687,-1.298605569179078,-2.0704943187930778,-0.947037398815155,0.18233844637870789,-0.2643353044986725,0.3132328391075134,-0.4358368217945099,-0.17157204449176788
2.794569969177246,-0.19105470180511475,0.09594331681728363,0.04695579409599304,-0.18062624083726647,-1.3059562405718093,-2.0641739047250502,-0.9494329690933228,0.17964565753936768,-0.25749653577804565,0.3745030164718628,-0.39183393120765686,0.004725317470729351
2.8145389556884766,-0.19804954528808594,0.049306586384773254,0.019252389669418335,-0.17808897727580514,-1.3103124242171322,-2.055321994722914,-0.9509829878807068,0.17714910209178925,-0.25347477197647095,0.5506889224052429,-0.19489692151546478,-0.0008731801644898951
2.834540843963623,-0.12724190950393677,0.03429301083087921,-0.07380527257919312,-0.17467804982705004,-1.3125203460593136,-2.042262471274298,-0.9521191120147705,0.1737910956144333,-0.2515273690223694,0.8006980419158936,-0.3375413119792938,-0.02331659011542797
2.8546109199523926,-0.08679234981536865,0.0009215772151947021,-0.1178971529006958,-0.17038814095263327,-1.3182960609128223,-2.025583771294358,-0.9542691111564636,0.169564887881279,-0.24620802700519562,0.887408435344696,-0.5008757710456848,0.03580183535814285
2.874587059020996,-0.18832546472549438,-0.05731147527694702,-0.11858384311199188,-0.1662457364100498,-1.324241398928517,-2.0100940222985493,-0.9563888907432556,0.16548101603984833,-0.24069960415363312,0.5856335163116455,-0.24907387793064117,-0.0594053789973259
2.8945419788360596,-0.3043082356452942,-0.10514579713344574,-0.034610629081726074,-0.1608309398723219,-1.3239198910820968,-2.003789984633381,-0.9571664333343506,0.16013847291469574,-0.24122254550457,0.23860344290733337,0.23044417798519135,-0.229182630777359
2.9145400524139404,-0.33414292335510254,-0.1014288067817688,0.004247799515724182,-0.1571437258303615,-1.317345967274108,-2.003097439827518,-0.956125020980835,0.1564977616071701,-0.2476559728384018,0.0843534991145134,0.5038244128227234,0.010961554944515228
2.934540033340454,-0.36560994386672974,-0.05954304337501526,0.08167603611946106,-0.1623673301876191,-1.3061489401840516,-2.0050641325056158,-0.9524900913238525,0.16165484488010406,-0.25812864303588867,-0.41618233919143677,0.48797062039375305,0.44045156240463257
2.954568862915039,-0.4561465382575989,-0.08655732870101929,0.18143710494041443,-0.17120904567809447,-1.2940139839266886,-2.012198499798172,-0.9478756785392761,0.1703738421201706,-0.26926666498184204,-0.60068279504776,0.8834723830223083,0.3556515574455261
2.9745399951934814,-0.47540777921676636,-0.07262206077575684,0.1236160397529602,-0.18414998496294321,-1.27648518794522,-2.0212403168873383,-0.9408215284347534,0.18311095237731934,-0.2851760983467102,-0.603875994682312,0.7819366455078125,0.4861024022102356
2.9945449829101562,-0.4547995924949646,-0.030365273356437683,-0.00483173131942749,-0.19506743432526719,-1.2689976894141213,-2.026413475294218,-0.9366951584815979,0.19383269548416138,-0.2916007936000824,-0.10847760736942291,0.09657346457242966,0.47080492973327637
3.0145750045776367,-0.4747849106788635,0.030988797545433044,-0.0305597186088562,-0.20386462208635014,-1.270011866344038,-2.0210212774621903,-0.9353256225585938,0.20245543122291565,-0.2901342511177063,0.3270217776298523,-0.24901297688484192,0.470801442861557
3.0335631370544434,-0.5481672286987305,0.02220284938812256,0.002655714750289917,-0.20927124205159756,-1.272455345683773,-2.008091660153658,-0.934971809387207,0.20774710178375244,-0.28752198815345764,0.7657946944236755,-0.2277868688106537,0.4315151870250702
3.0545380115509033,-0.5178769826889038,-0.043002575635910034,-0.02921167016029358,-0.2125685128251856,-1.2716249041734031,-1.9880660180603607,-0.9340730309486389,0.21097129583358765,-0.2880948781967163,0.9371879696846008,-0.07646951824426651,0.45343950390815735
3.0737991333007812,-0.45952290296554565,-0.05553273856639862,-0.08443871140480042,-0.21597555686364495,-1.2701265722909536,-1.9702399739991356,-0.9329484105110168,0.21430042386054993,-0.2892795503139496,0.5539582967758179,-0.1685139536857605,0.3797655403614044
3.094564914703369,-0.4151759743690491,-0.07701560854911804,-0.10593688488006592,-0.22121033817697477,-1.2735449255160936,-1.9645337089126786,-0.9328465461730957,0.21941062808036804,-0.28575626015663147,-0.09719593077898026,-0.330007940530777,0.26879993081092834
3.1145730018615723,-0.3565995693206787,-0.04321235418319702,-0.1398320496082306,-0.22766916139275575,-1.2836002409975995,-1.96677889873515,-0.9342939257621765,0.22570744156837463,-0.2759546637535095,-0.24255914986133575,-0.5605522990226746,0.34378382563591003
3.1345410346984863,-0.3306712508201599,0.06670068204402924,-0.06500807404518127,-0.23679074655248966,-1.2952561415070836,-1.9692241043785064,-0.9354268908500671,0.23458413779735565,-0.264475017786026,-0.22855383157730103,-0.5265928506851196,0.4420797526836395
3.154581069946289,-0.43932586908340454,0.08108007907867432,-0.04777899384498596,-0.24571047030294527,-1.3037450666873394,-1.9691707969867558,-0.9355827569961548,0.24324551224708557,-0.25596246123313904,-0.055926013737916946,-0.2958722412586212,0.4328901469707489
3.1745359897613525,-0.45885270833969116,0.09685394167900085,-0.03941076993942261,-0.25399764273731273,-1.3088595282949478,-1.969408576127762,-0.9349004626274109,0.25127533078193665,-0.2506435215473175,-0.1822976917028427,-0.28670981526374817,0.3911607563495636
3.1945371627807617,-0.36558252573013306,0.061456114053726196,-0.02721714973449707,-0.2637974340391063,-1.316498486223996,-1.9719244004719552,-0.9343595504760742,0.2607485055923462,-0.24286344647407532,-0.3127068281173706,-0.3696327805519104,0.5080851316452026
3.214582920074463,-0.3331259489059448,0.0500812828540802,-0.02461114525794983,-0.27658224568161915,-1.3247325463400887,-1.9753904875353792,-0.9330180287361145,0.2730693817138672,-0.23433050513267517,-0.31043562293052673,-0.36019080877304077,0.6359782218933105
3.2345361709594727,-0.29247140884399414,0.055852681398391724,0.004566818475723267,-0.2905808107200966,-1.3308408755466121,-1.9781307561046826,-0.9306272864341736,0.2865087389945984,-0.22769610583782196,-0.26804113388061523,-0.15042975544929504,0.6707198619842529
3.254538059234619,-0.25120919942855835,0.030324101448059082,-0.08252082765102386,-0.30555457741597425,-1.3330786312951797,-1.9766751636106146,-0.9268608689308167,0.30082210898399353,-0.22457751631736755,-0.011636409908533096,-0.13302315771579742,0.8131871819496155
3.274557113647461,-0.22151046991348267,-0.012134015560150146,-0.1264839768409729,-0.321298824743993,-1.334621432641012,-1.975250276640645,-0.9224867820739746,0.31579917669296265,-0.2220114767551422,-0.31996390223503113,-0.03326522558927536,0.7363435626029968
3.2945361137390137,-0.24108296632766724,-0.08863219618797302,-0.08392404019832611,-0.33809380973445696,-1.3364079657620043,-1.9834978409421267,-0.9175931811332703,0.33168941736221313,-0.2191002368927002,-0.7861331105232239,0.13363108038902283,0.7245853543281555
3.314610004425049,-0.20367634296417236,-0.11101773381233215,-0.059265196323394775,-0.3556994882015958,-1.3366900059709228,-1.9975811772089713,-0.9118327498435974,0.34824615716934204,-0.21745295822620392,-0.8293761610984802,0.28463390469551086,0.6755065321922302
3.3345530033111572,-0.105801522731781,-0.00898045301437378,-0.06013992428779602,-0.3718290362951339,-1.3348725801655605,-2.008516727463146,-0.9058563709259033,0.36332008242607117,-0.21776843070983887,-0.47187766432762146,0.2721857726573944,0.6977315545082092
3.354681968688965,-0.017424046993255615,0.0026181042194366455,-0.0672595351934433,-0.38806052278137615,-1.3312661818453349,-2.0098892140604177,-0.8992171883583069,0.37839385867118835,-0.2196057140827179,-0.06764327734708786,0.13354186713695526,0.8364889025688171
3.374678134918213,-0.03579992055892944,-0.009443610906600952,-0.0399961918592453,-0.40309957090239223,-1.3270149606830808,-2.0053572962254638,-0.8926516771316528,0.39227136969566345,-0.22202768921852112,0.0709974467754364,0.17813481390476227,0.7319819331169128
3.394545078277588,-0.07480275630950928,-0.04771050810813904,-0.019222736358642578,-0.41722378766847457,-1.3206719702645502,-2.0015024456439594,-0.8857686519622803,0.4052239656448364,-0.2262912094593048,-0.11604605615139008,0.26657938957214355,0.7190256714820862
3.4145419597625732,-0.04103827476501465,-0.07408744096755981,0.004673436284065247,-0.43247495023300253,-1.3161588456699316,-2.002966732226111,-0.8786547183990479,0.4191191792488098,-0.22870297729969025,-0.390502005815506,0.2678068280220032,0.7513071298599243
3.4345500469207764,-0.022749006748199463,-0.07592466473579407,0.01752987504005432,-0.4489818474074363,-1.3130982039578611,-2.008094440289258,-0.8711414933204651,0.43404850363731384,-0.2295965552330017,-0.40224558115005493,0.2623628079891205,0.7162626385688782
3.454547882080078,-0.009840905666351318,-0.02795010805130005,0.007780686020851135,-0.463752500138065,-1.3076284118756651,-2.0081707705591487,-0.8635874390602112,0.44730740785598755,-0.23266471922397614,0.09293904155492783,0.25554075837135315,0.7201841473579407
3.4746949672698975,0.017004668712615967,0.05891066789627075,-0.03453683853149414,-0.4758254771479589,-1.2984283946957091,-1.9953156557989107,-0.8561465740203857,0.45807239413261414,-0.23912954330444336,0.6433246731758118,0.07000674307346344,0.7554206848144531
3.4946789741516113,0.03676950931549072,0.05763852596282959,-0.00350072979927063,-0.48646955785685264,-1.2886684907114996,-1.9732872511103798,-0.8490405678749084,0.467507928609848,-0.2461024969816208,0.8985026478767395,-0.07339906692504883,0.8371092677116394
3.5230400562286377,0.02416294813156128,-0.04762071371078491,0.14095109701156616,-0.5090506917265506,-1.2653999921321568,-1.9219638894722482,-0.8328025341033936,0.4873485267162323,-0.26254841685295105,0.8246613144874573,-0.011838232167065144,0.7526329159736633
3.5345089435577393,0.02416294813156128,-0.04762071371078491,0.14095109701156616,-0.5090506917265506,-1.2653999921321568,-1.9219638894722482,-0.8328025341033936,0.4873485267162323,-0.26254841685295105,0.8246613144874573,-0.011838232167065144,0.7526329159736633
3.5619029998779297,0.1186787486076355,-0.060367703437805176,0.2074940800666809,-0.5204875319483657,-1.2397727471307622,-1.875478319598846,-0.8204762935638428,0.49730315804481506,-0.281972199678421,1.025112509727478,0.19754871726036072,0.5259371399879456
3.583066940307617,0.13175970315933228,0.009412705898284912,0.1378931999206543,-0.5219280246611467,-1.2224304496304281,-1.846844356789376,-0.8147889375686646,0.4985523819923401,-0.2959131896495819,1.2524968385696411,0.08231134712696075,0.4635988473892212
3.6028120517730713,0.14686399698257446,0.02786034345626831,0.1338607370853424,-0.5214530690143562,-1.2068005050149195,-1.8165801027402628,-0.8102856278419495,0.4981406033039093,-0.30869588255882263,1.1720300912857056,0.025831026956439018,0.3982066214084625
3.6227099895477295,0.16093385219573975,-0.041311562061309814,0.1773298680782318,-0.5204722927821027,-1.19388738263386,-1.7928137737136236,-0.8066858053207397,0.4972899556159973,-0.31931284070014954,0.7764606475830078,0.09384309500455856,0.24651160836219788
3.6431679725646973,0.232089102268219,-0.09617817401885986,0.2069917619228363,-0.5180422885070998,-1.184257335446967,-1.7771178093509026,-0.804690420627594,0.49518024921417236,-0.3275209665298462,0.6648778319358826,0.06462077051401138,0.058480191975831985
3.6625959873199463,0.3274959325790405,-0.035832732915878296,0.16108769178390503,-0.5115768529973658,-1.1754564592755121,-1.7580869545461781,-0.8047146201133728,0.4895528256893158,-0.3358161151409149,1.2024102210998535,-0.14088276028633118,-0.008526942692697048
3.6825449466705322,0.36292535066604614,0.0893307626247406,0.06523817777633667,-0.4997737796296538,-1.1638406831079577,-1.7249949410299699,-0.8060101270675659,0.4792270064353943,-0.3474036753177643,1.8427211046218872,-0.2902674376964569,0.08116786181926727
3.7024290561676025,0.34606558084487915,0.08030185103416443,0.05735433101654053,-0.4879155574237089,-1.1528001571668083,-1.687671971872428,-0.8072625398635864,0.46878570318222046,-0.35856279730796814,1.531991958618164,-0.37983524799346924,0.13312460482120514
3.7223901748657227,0.3140016794204712,-0.10288435220718384,0.13203036785125732,-0.4815053166201031,-1.1492839012101876,-1.6614685669682847,-0.808722198009491,0.4631138741970062,-0.36262115836143494,0.8977448344230652,-0.4773028492927551,0.21755827963352203
3.742363929748535,0.2898683547973633,-0.11896881461143494,0.10117533802986145,-0.4787717355184621,-1.1507524877796025,-1.641901512134268,-0.8104066848754883,0.46068936586380005,-0.36194801330566406,0.9143542647361755,-0.5763306617736816,0.23468846082687378
3.762220859527588,0.2480868101119995,0.013538122177124023,-0.0024349093437194824,-0.4736215258206138,-1.1504387085859151,-1.6168707224539907,-0.8124484419822693,0.4561121463775635,-0.3631657063961029,1.3399615287780762,-0.508310854434967,0.18748915195465088
3.7822489738464355,0.21186906099319458,-0.017789781093597412,-0.011394679546356201,-0.46472747449591856,-1.1453987757040478,-1.5869297725105558,-0.8142708539962769,0.4481791853904724,-0.3689153790473938,1.3911288976669312,-0.33460286259651184,0.11377661675214767
3.8023040294647217,0.24173736572265625,-0.14904341101646423,0.04614973068237305,-0.456446222491992,-1.1390877248398708,-1.5593590558424097,-0.8152695298194885,0.44076094031333923,-0.37558701634407043,1.2139217853546143,-0.3015733063220978,0.15451331436634064
3.8222010135650635,0.3001475930213928,-0.1699737012386322,0.03575769066810608,-0.4495847377603962,-1.1358283974195873,-1.5340061634636348,-0.8167644143104553,0.4345915615558624,-0.3795076906681061,1.1868940591812134,-0.49705731868743896,0.1826082319021225
3.8392770290374756,0.29913556575775146,-0.11745321750640869,-0.005634576082229614,-0.442413820035745,-1.1364632684639835,-1.5087584323546634,-0.819811224937439,0.4281221330165863,-0.3802907168865204,0.8454394936561584,-0.49660980701446533,0.1792287975549698
3.861949920654297,0.12943506240844727,-0.2238616943359375,-0.08829227089881897,-0.43507478991214504,-1.1350722631042556,-1.4995147767844756,-0.8221077919006348,0.4214782118797302,-0.3827465772628784,0.30208343267440796,0.2796854078769684,-0.5281625986099243
3.881865978240967,-0.21348905563354492,-0.7198493480682373,-0.38686543703079224,-0.42978180405126454,-1.1148056272230205,-1.4972731533843233,-0.8161741495132446,0.4166724681854248,-0.40030500292778015,0.03430349379777908,1.1944398880004883,0.21317638456821442
3.9017701148986816,0.14483052492141724,-0.2952656149864197,-0.2965688705444336,-0.4344275830871404,-1.0989525157677145,-1.493197963942104,-0.8079928159713745,0.4208912253379822,-0.4123087227344513,0.22640572488307953,0.14744099974632263,0.22817882895469666
3.921726942062378,0.3524206280708313,0.14812862873077393,-0.07405677437782288,-0.43581937289216693,-1.0963992404161467,-1.4852164919287516,-0.8064154386520386,0.4221533238887787,-0.41410237550735474,0.49134361743927,-0.0656583160161972,0.24502259492874146
3.9418559074401855,0.26090580224990845,0.0013270974159240723,0.009708404541015625,-0.4339482198556345,-1.0899790789224495,-1.469276856577341,-0.8044391870498657,0.4204563498497009,-0.41963574290275574,0.7015292048454285,0.06779205799102783,0.2732945680618286
3.961874008178711,0.226570725440979,-0.10952320694923401,-0.003499746322631836,-0.4346998675000936,-1.0841262489263555,-1.4559382880449638,-0.8016898036003113,0.421138197183609,-0.42418885231018066,0.43476733565330505,-0.0923122987151146,0.3472447693347931
3.9815940856933594,0.22383403778076172,-0.10443630814552307,-0.08970195055007935,-0.43841478880551965,-1.083825063015862,-1.4410193037210206,-0.8001739382743835,0.42450469732284546,-0.42369529604911804,0.6406572461128235,-0.47934383153915405,0.6035898923873901
4.001703977584839,0.1773173213005066,0.04200965166091919,-0.10559815168380737,-0.4390470982204051,-1.0853415998239628,-1.425279425917151,-0.8005778789520264,0.4250771403312683,-0.42235592007637024,0.516810953617096,-0.22609886527061462,-0.10263701528310776
4.021651029586792,0.09280765056610107,-0.170745849609375,-0.045368850231170654,-0.4257059735566068,-1.0865111470086233,-1.4183585915085104,-0.8060187697410583,0.4129638373851776,-0.42402201890945435,0.5073670148849487,-0.4030604064464569,-0.5355963110923767
4.0406670570373535,0.12498170137405396,-0.47893816232681274,0.0401265025138855,-0.42211835097795203,-1.095204547251099,-1.418479642121112,-0.8109863996505737,0.40969377756118774,-0.4176747500896454,-0.4733242094516754,-0.4030284583568573,0.21149486303329468
4.061470985412598,0.08353406190872192,-0.33833080530166626,0.060804009437561035,-0.43354150106675177,-1.1099143148711001,-1.4334866431424753,-0.8127973079681396,0.4200872778892517,-0.40359270572662354,-1.0787909030914307,-0.43157169222831726,0.09116402268409729
4.081390857696533,0.01080411672592163,-0.1499302089214325,0.0015921592712402344,-0.4429274086149284,-1.1254755892345705,-1.4542798844158829,-0.8153848648071289,0.4285862147808075,-0.38918066024780273,-0.9602200984954834,-0.22545978426933289,-0.06868983060121536
4.101417064666748,-0.010801255702972412,0.0003745853900909424,-0.04146838188171387,-0.4456926185486677,-1.1364923527419342,-1.4723850292943566,-0.8185445070266724,0.43108293414115906,-0.37967416644096375,-0.6380144357681274,-0.10323871672153473,-0.3797360062599182
4.121366024017334,-0.038622915744781494,-0.029488444328308105,-0.030664384365081787,-0.4417578204490582,-1.1440247918885933,-1.488308848649815,-0.8229188919067383,0.4275291860103607,-0.3741970658302307,-0.5581498146057129,0.035492975264787674,-0.5343429446220398
4.141406059265137,-0.02596569061279297,-0.12129539251327515,0.022927165031433105,-0.4388508797221945,-1.150116487192809,-1.5071616752188122,-0.8263140320777893,0.42489951848983765,-0.3696831464767456,-0.9662086367607117,0.14824926853179932,-0.39407896995544434
4.161268949508667,0.0010845661163330078,-0.1528298556804657,0.09442690014839172,-0.4420836515607329,-1.1581343662938473,-1.5343043487801042,-0.827988862991333,0.4278237223625183,-0.36249327659606934,-1.3359308242797852,0.18705295026302338,-0.3671663701534271
4.180108070373535,-0.026913046836853027,-0.12594294548034668,0.08982428908348083,-0.4449037467895367,-1.1674130437500674,-1.5654471704286474,-0.8302035927772522,0.4303709864616394,-0.35432010889053345,-1.3761224746704102,0.22887299954891205,-0.48343512415885925
4.201318979263306,-0.07308942079544067,-0.040897250175476074,0.05879548192024231,-0.4447930606490323,-1.1760668958754081,-1.59915366713378,-0.8332828283309937,0.43027108907699585,-0.3471408486366272,-1.4030169248580933,0.3752972483634949,-0.7370076775550842
4.221223831176758,-0.09599530696868896,-0.09084859490394592,0.03713753819465637,-0.44075045254492085,-1.1836402509120856,-1.6361511067327807,-0.8374918103218079,0.4266183078289032,-0.34147414565086365,-1.6059110164642334,0.4266074597835541,-0.8639659285545349
4.240943908691406,-0.04343545436859131,-0.1432986557483673,0.04597914218902588,-0.4381600160496708,-1.1954916695348201,-1.6807905923002506,-0.842505156993866,0.4242740273475647,-0.33192890882492065,-2.0707123279571533,0.280450701713562,-0.8807505965232849
4.260961055755615,-0.016062796115875244,-0.17274293303489685,0.07155013084411621,-0.43857558456107637,-1.2148012530421346,-1.7356809478624413,-0.8485918641090393,0.42465028166770935,-0.3155381679534912,-2.6029248237609863,0.14397497475147247,-0.841678261756897
4.280714988708496,-0.04781836271286011,-0.16489169001579285,0.09920671582221985,-0.44269977294531293,-1.2396116026004582,-1.8013614801549176,-0.8544949889183044,0.4283805191516876,-0.2938173711299896,-3.1377451419830322,0.2080092579126358,-0.7991430759429932
4.300838947296143,-0.10676819086074829,-0.11636212468147278,0.1499515175819397,-0.4477814300985879,-1.2661075448269155,-1.8784623237568407,-0.859891414642334,0.43296676874160767,-0.2704196870326996,-3.6326749324798584,0.48988398909568787,-0.9050281047821045
4.320842027664185,-0.12281322479248047,-0.09016096591949463,0.18676894903182983,-0.45150686541191604,-1.291665061683427,-1.96693045230443,-0.8649645447731018,0.436321884393692,-0.24791093170642853,-4.115297317504883,0.7869008183479309,-1.020039439201355
4.340106964111328,-0.09854602813720703,-0.0763532817363739,0.21752101182937622,-0.4538671016754911,-1.3167621822567763,-2.0646701451080793,-0.869914174079895,0.4384444057941437,-0.2258675992488861,-4.387298107147217,0.9571027159690857,-1.0734281539916992
4.36214017868042,-0.10550713539123535,-0.02854946255683899,0.19966794550418854,-0.4533090731606064,-1.3401220738587196,-2.164702838478804,-0.8751904964447021,0.4379428029060364,-0.20554259419441223,-4.324357032775879,1.112155556678772,-1.1439433097839355
4.380735874176025,-0.12636947631835938,0.011323750019073486,0.2107536494731903,-0.44920356605885386,-1.3578744772778886,-2.2619395767677046,-0.8804513812065125,0.4342482388019562,-0.190352663397789,-4.175954818725586,1.3994027376174927,-1.1814842224121094
4.400545120239258,-0.07680767774581909,-0.011613637208938599,0.26544421911239624,-0.442746512919461,-1.3674082469579774,-2.3573933936409253,-0.8849537968635559,0.4284227788448334,-0.18251267075538635,-4.144930839538574,1.735235333442688,-1.2268880605697632
4.420490026473999,0.017660140991210938,-0.05727997422218323,0.2760307192802429,-0.4353424308289517,-1.3725579505901082,-2.451353543050112,-0.8889675140380859,0.4217209219932556,-0.1785728484392166,-4.053617000579834,1.6754475831985474,-1.1896584033966064
4.440310955047607,0.07330787181854248,-0.04585760831832886,0.255446195602417,-0.4278235063362851,-1.380892028085137,-2.5420385893206787,-0.8935136198997498,0.41489145159721375,-0.1717517226934433,-3.855854034423828,1.2436470985412598,-1.1626414060592651
4.460289001464844,-0.0265236496925354,0.008652418851852417,0.2202807515859604,-0.4179951410087124,-1.3946373829798133,-2.6256477498455713,-0.8997612595558167,0.4059290289878845,-0.16016113758087158,-3.4940574169158936,0.8706026077270508,-1.205363154411316
4.480142116546631,-0.22395896911621094,0.05659237504005432,0.23761224746704102,-0.40424893791427885,-1.407859591336346,-2.702464563401726,-0.9072209000587463,0.39332833886146545,-0.14914177358150482,-3.264702320098877,0.9740150570869446,-1.3482537269592285
4.499107837677002,-0.33071368932724,0.04715737700462341,0.29151785373687744,-0.3866610273143435,-1.4136049444903138,-2.776671566530796,-0.9147545099258423,0.37709805369377136,-0.14498767256736755,-3.2642934322357178,1.308944821357727,-1.4665566682815552
4.519750118255615,-0.2336176037788391,0.06080028414726257,0.3330758213996887,-0.3676209692120424,-1.4138598113549428,-2.85073899469587,-0.9217169880867004,0.359396368265152,-0.14585041999816895,-3.212552547454834,1.3004083633422852,-1.4930877685546875
4.540398120880127,-0.10672652721405029,0.13331502676010132,0.23550070822238922,-0.34727108234885773,-1.415955968940936,-2.9188824892305925,-0.9290553331375122,0.34033307433128357,-0.14501605927944183,-2.7410812377929688,0.8772029280662537,-1.5056447982788086
4.560080051422119,-0.06029385328292847,0.2145010530948639,0.11938019096851349,-0.3251810066112804,-1.4204157122701389,-2.9742300243687785,-0.9368984699249268,0.319480299949646,-0.14196312427520752,-2.0961365699768066,0.5636385083198547,-1.484981656074524
4.580111980438232,-0.03751349449157715,0.236331969499588,0.054248109459877014,-0.30050374744296615,-1.4240671237517721,-3.0160531528934134,-0.9449236392974854,0.2960014045238495,-0.13965153694152832,-1.541736364364624,0.40607520937919617,-1.518884539604187
4.597957134246826,0.04910159111022949,0.22881269454956055,0.04846358299255371,-0.2746263906514797,-1.427534332146504,-3.050064870706444,-0.9526661038398743,0.27118733525276184,-0.13742229342460632,-1.3527872562408447,0.19709989428520203,-1.522222876548767
4.619652032852173,0.13553810119628906,0.2624638080596924,0.024663567543029785,-0.24820998175878475,-1.4348724103481512,-3.0812889991888426,-0.9604130387306213,0.2456691861152649,-0.13135303556919098,-1.2942285537719727,-0.14168447256088257,-1.514245629310608
4.639811038970947,0.17360150814056396,0.3098129630088806,0.008311688899993896,-0.22191116907562264,-1.4483280286105678,-3.1117012726189834,-0.9681724905967712,0.22009432315826416,-0.11916680634021759,-1.2985156774520874,-0.4685191214084625,-1.479353427886963
4.659574031829834,0.13296455144882202,0.33227455615997314,-0.014205925166606903,-0.1958613673558807,-1.4652069421204315,-3.1411035481640406,-0.9754175543785095,0.19461150467395782,-0.10337821394205093,-1.260413408279419,-0.5790636539459229,-1.4527450799942017
4.678745985031128,0.06982427835464478,0.3809777498245239,-0.018582284450531006,-0.1692834207203895,-1.4811832739555908,3.115063310357934,-0.9817506074905396,0.16847606003284454,-0.08821392804384232,-1.131202220916748,-0.5060802698135376,-1.4503871202468872
4.699759006500244,0.048989057540893555,0.44123584032058716,-0.06062447279691696,-0.14248253569747504,-1.4939709274013155,3.0914464492626643,-0.9869468212127686,0.1420009285211563,-0.07597211003303528,-0.9875385165214539,-0.4196481704711914,-1.4062680006027222
4.719447135925293,0.08807951211929321,0.4729936122894287,-0.11653393507003784,-0.11701020618031183,-1.5055485612868802,3.0693609366517136,-0.9910489320755005,0.11674338579177856,-0.0647556483745575,-1.053484559059143,-0.4868996739387512,-1.2810403108596802
4.739336967468262,0.12466728687286377,0.4887434244155884,-0.13514959812164307,-0.09438930764636526,-1.5191238631392778,3.0446129658705523,-0.9942200183868408,0.09424921125173569,-0.051419567316770554,-1.2822155952453613,-0.5939908623695374,-1.122200846672058
4.759271144866943,0.08570820093154907,0.5017366409301758,-0.14602136611938477,-0.07490201635850492,-1.532757229385962,3.0161792265606993,-0.9964748024940491,0.0748319998383522,-0.03792329505085945,-1.47569739818573,-0.4823790192604065,-0.9540987610816956
4.7808380126953125,0.03680354356765747,0.5442027449607849,-0.1898350715637207,-0.05852237748204502,-1.5426840961885437,2.9843390226313646,-0.9978936910629272,0.05848897621035576,-0.02806040830910206,-1.6089651584625244,-0.32448670268058777,-0.7980657815933228
4.7996039390563965,0.046894609928131104,0.5861679315567017,-0.2369595766067505,-0.044920246276401614,-1.5504097733716318,2.9522505213777066,-0.9987836480140686,0.04490514099597931,-0.02036457695066929,-1.5355805158615112,-0.28594958782196045,-0.6361719965934753
4.819072008132935,0.09470057487487793,0.6120763421058655,-0.25763291120529175,-0.035040890171310506,-1.5567374328887544,2.9227395635859934,-0.999287486076355,0.03503372147679329,-0.014049801975488663,-1.4266711473464966,-0.23599614202976227,-0.4092523455619812
4.838181972503662,0.13045865297317505,0.6083307266235352,-0.2800605297088623,-0.028651375820444042,-1.5622943798298197,2.8940875966347366,-0.9995536208152771,0.02864745631814003,-0.0084983566775918,-1.424315094947815,-0.22988712787628174,-0.27208852767944336
4.859192848205566,0.14873641729354858,0.5945989489555359,-0.32373303174972534,-0.025337902763424222,-1.567410393575436,2.8660263303972995,-0.9996733665466309,0.025335190817713737,-0.0033848402090370655,-1.3625668287277222,-0.2191312313079834,-0.08222053200006485
4.878819942474365,0.1612204909324646,0.6109468936920166,-0.3591732978820801,-0.024828415350518062,-1.5721515329663478,2.8411424359713995,-0.9996910095214844,0.024825865402817726,0.0013547883136197925,-1.1168358325958252,-0.1846940666437149,0.02424701116979122
4.898877143859863,0.175179123878479,0.6454272270202637,-0.35080480575561523,-0.026832539946449536,-1.5759609493203084,2.8216563824548677,-0.9996268153190613,0.026829320937395096,0.005162741057574749,-0.8391872048377991,-0.15328235924243927,0.18654784560203552
4.91772198677063,0.17036831378936768,0.6355183124542236,-0.3530212640762329,-0.03179978671934783,-1.5797212733748494,2.806978427668084,-0.9994546175003052,0.03179442882537842,0.008920315653085709,-0.63282310962677,-0.18505333364009857,0.31061041355133057
4.937914848327637,0.1313820481300354,0.6394118070602417,-0.36758291721343994,-0.03940093425908771,-1.584203115789862,2.796529373339922,-0.9991343021392822,0.03939073905348778,0.013395985588431358,-0.39959803223609924,-0.2237577587366104,0.46206948161125183
4.958619117736816,0.07578146457672119,0.6489567160606384,-0.354952335357666,-0.05009995650927997,-1.5894236389653242,2.790334595377183,-0.9985719919204712,0.05007899925112724,0.01860286295413971,-0.2187805473804474,-0.300727903842926,0.6190003752708435
4.977579116821289,-0.017061889171600342,0.6556530594825745,-0.35074448585510254,-0.06394931348739613,-1.5968595451356318,2.7882811813465467,-0.997617244720459,0.0639057382941246,0.02600700594484806,0.12269864976406097,-0.37346017360687256,0.7413572072982788
4.998682975769043,-0.19297009706497192,0.7120910286903381,-0.41077208518981934,-0.07929767688130758,-1.5993071744955782,2.797072876750873,-0.9964525103569031,0.07921459525823593,0.028417406603693962,0.7947397232055664,0.11230981349945068,0.7873963117599487
5.018474102020264,-0.15645313262939453,0.7318426370620728,-0.34813928604125977,-0.09851690465802235,-1.592627240521494,2.81732309337338,-0.9949141144752502,0.09835761785507202,0.02172333560883999,1.2109100818634033,0.25702863931655884,1.1446014642715454
5.038766860961914,-0.016194283962249756,0.6167023181915283,-0.22048687934875488,-0.12707826553017465,-1.5873002984271785,2.8422009262484087,-0.9918013215065002,0.12673650681972504,0.016370147466659546,1.2998065948486328,0.00761908944696188,1.6465128660202026
5.058330059051514,-0.14973753690719604,0.5245424509048462,-0.17507147789001465,-0.16316176565338125,-1.5829744294971988,2.8692067968280814,-0.986645519733429,0.1624387800693512,0.01201606448739767,1.4539728164672852,0.09433747082948685,1.874021053314209
5.0781941413879395,-0.39001643657684326,0.5189770460128784,-0.18070805072784424,-0.20097061921721363,-1.5725541460790013,2.901784132418107,-0.979871928691864,0.19962051510810852,0.0017224395414814353,1.8330429792404175,0.3499680757522583,1.8592982292175293
5.098711013793945,-0.48594820499420166,0.520819365978241,-0.1481989622116089,-0.23780929501848827,-1.554284281240163,2.945673094690988,-0.9717238545417786,0.2355741411447525,-0.016046607866883278,2.4525341987609863,0.4623088538646698,1.8329055309295654
5.118368148803711,-0.47627657651901245,0.5010955333709717,-0.0923987627029419,-0.2734324553070785,-1.5299688807283933,3.003647311171792,-0.9620475172996521,0.2700379490852356,-0.03929978236556053,3.0287158489227295,0.44999533891677856,1.8139328956604004
5.137289047241211,-0.4765819311141968,0.45178037881851196,-0.0034831762313842773,-0.3065858795917181,-1.4998225385168198,3.07231325314932,-0.950969398021698,0.3018054962158203,-0.06760746240615845,3.3060576915740967,0.6458686590194702,1.8619266748428345
5.158265113830566,-0.4617912769317627,0.32330521941185,0.10884708166122437,-0.3388585815168983,-1.4601113394012106,-3.1392386458955146,-0.9373635053634644,0.3324108123779297,-0.10417784750461578,3.138056755065918,1.0497708320617676,1.9842060804367065
5.178008079528809,-0.3518868088722229,0.17477065324783325,0.1804225593805313,-0.37257744323311864,-1.4124152304904292,-3.0705124647256583,-0.9197349548339844,0.3640172481536865,-0.14689898490905762,2.797606945037842,1.2930707931518555,2.2318503856658936
5.198017120361328,-0.21023738384246826,0.0745067298412323,0.22270675003528595,-0.40953203496566326,-1.3613507895953305,-3.0054175981844318,-0.8972607254981995,0.3981800973415375,-0.19072431325912476,2.472473621368408,1.3113826513290405,2.500077486038208
5.218180179595947,-0.13340723514556885,-0.003953158855438232,0.27139368653297424,-0.4491390210862457,-1.309744704097452,-2.942858314565069,-0.870300829410553,0.4341900944709778,-0.23249903321266174,2.115891695022583,1.235724925994873,2.655905246734619
5.23829984664917,-0.1531708836555481,-0.08909022808074951,0.33419153094291687,-0.48964863990727975,-1.258773381090653,-2.8847365168006647,-0.8398863077163696,0.4703158438205719,-0.2709132730960846,1.7282634973526,1.284231185913086,2.69396710395813
5.257869005203247,-0.21664464473724365,-0.18291008472442627,0.393492192029953,-0.5296032261942747,-1.2047448954504847,-2.831351284645723,-0.8058315515518188,0.5051909685134888,-0.3088974058628082,1.3567314147949219,1.5268187522888184,2.604979991912842
5.276983022689819,-0.22098195552825928,-0.2720281481742859,0.44194579124450684,-0.5669819067758671,-1.147568251277548,-2.782578099374417,-0.7690998911857605,0.5370886325836182,-0.34644103050231934,1.0822598934173584,1.6000638008117676,2.4527101516723633
5.297886848449707,-0.181293785572052,-0.31402790546417236,0.44933342933654785,-0.6005127416379852,-1.0915465979547363,-2.735574602371678,-0.732097327709198,0.5650655627250671,-0.3804399371147156,1.0206397771835327,1.3947311639785767,2.278524160385132
5.3166399002075195,-0.18737578392028809,-0.301699161529541,0.44854944944381714,-0.6279614320094143,-1.0382827191158408,-2.686825760167087,-0.6971762776374817,0.5874963402748108,-0.41084495186805725,1.1696112155914307,1.1366748809814453,2.051635265350342
5.339401960372925,-0.24290227890014648,-0.3275112509727478,0.46694737672805786,-0.6475925611834266,-0.9858699974673427,-2.635496201883378,-0.664949893951416,0.6032681465148926,-0.440351277589798,1.2615282535552979,1.084023356437683,1.796164870262146
5.354536056518555,-0.2635049819946289,-0.4139111638069153,0.5481732487678528,-0.6603836663081413,-0.933858518392041,-2.5864529785944135,-0.6349020004272461,0.6134198904037476,-0.4696972668170929,1.1521528959274292,1.1279549598693848,1.4905500411987305
5.377779960632324,-0.24063622951507568,-0.5058169960975647,0.5975319147109985,-0.6695190947735024,-0.8869269670918274,-2.5453802019898895,-0.6077982187271118,0.6206089854240417,-0.4954048693180084,0.8397733569145203,1.0021100044250488,1.2145769596099854
5.397569179534912,-0.22611725330352783,-0.5207000374794006,0.5908979773521423,-0.6766493188241395,-0.8497377704301033,-2.5141318495915757,-0.5856198072433472,0.6261841058731079,-0.5147261023521423,0.5992699265480042,0.7753052115440369,0.9020216464996338
5.417466163635254,-0.23832273483276367,-0.506630539894104,0.5697651505470276,-0.6810397426821939,-0.8210991866625342,-2.4912505147192667,-0.5686230063438416,0.6296011805534363,-0.5294055938720703,0.420257568359375,0.648858904838562,0.6084267497062683
5.4373650550842285,-0.2216261625289917,-0.5418543219566345,0.6008988618850708,-0.6842734267889589,-0.8005204401825228,-2.477311324474009,-0.5561448335647583,0.6321101784706116,-0.5395737886428833,0.12012853473424911,0.4796583652496338,0.35684946179389954
5.457347869873047,-0.2037559151649475,-0.5970813035964966,0.6173499822616577,-0.688225111466105,-0.7925785629833586,-2.474093804868808,-0.5500587821006775,0.6351673007011414,-0.5422157049179077,-0.20141297578811646,0.09620577096939087,0.08950821310281754
5.477230072021484,-0.2622000575065613,-0.5860195755958557,0.5956896543502808,-0.6917677165267592,-0.7979004137683096,-2.4811832458625354,-0.5513222813606262,0.6378995180130005,-0.5377062559127808,-0.42974546551704407,-0.13249310851097107,-0.23177453875541687
5.497211933135986,-0.35292142629623413,-0.5283828377723694,0.5762746334075928,-0.692654068197524,-0.8108230359461964,-2.498026931059802,-0.5578145980834961,0.6385818719863892,-0.5301473140716553,-0.5714094042778015,-0.059768032282590866,-0.5985681414604187
5.516561985015869,-0.3480075001716614,-0.522009551525116,0.5480155944824219,-0.6907187914530138,-0.8301122655848681,-2.524291386151207,-0.5688473582267761,0.6370913982391357,-0.5201225280761719,-0.7811443209648132,-0.33188992738723755,-0.9256718754768372
5.537049055099487,-0.31123626232147217,-0.47943878173828125,0.511919379234314,-0.6856827862644354,-0.8674964625409683,-2.559064984799456,-0.5903292298316956,0.6332015991210938,-0.5005667805671692,-0.8946985602378845,-1.1870328187942505,-1.230907917022705
5.555968999862671,-0.4859775900840759,-0.35092002153396606,0.5087214708328247,-0.6756770012940261,-0.9211807224693394,-2.6014283289685043,-0.6213527321815491,0.6254256963729858,-0.4719783365726471,-1.0669691562652588,-1.3549758195877075,-1.648105263710022
5.57712984085083,-0.7452453970909119,-0.27378982305526733,0.5242035388946533,-0.6586846489324926,-0.9746677111085353,-2.6548332923888065,-0.6543975472450256,0.6120771765708923,-0.44398805499076843,-1.402502417564392,-0.60029137134552,-2.165562868118286
5.596848964691162,-0.6250653862953186,-0.27747130393981934,0.47914761304855347,-0.6370843265863432,-1.0215480644401662,-2.720406094375202,-0.6856036186218262,0.5948542356491089,-0.41963833570480347,-1.7959023714065552,-0.38187381625175476,-2.457404613494873
5.6167988777160645,-0.25149232149124146,-0.1975056529045105,0.30043452978134155,-0.6110111527681817,-1.0788570826366164,-2.7887253291659406,-0.721942126750946,0.573695957660675,-0.38687556982040405,-1.601604700088501,-1.4488577842712402,-2.5410468578338623
5.636897087097168,-0.1442279815673828,0.008658111095428467,0.11353576183319092,-0.5778360136934025,-1.1466577369937347,-2.8421072766649105,-0.7634258270263672,0.5462125539779663,-0.34472164511680603,-0.8215638995170593,-2.230440855026245,-2.446458101272583
5.656733989715576,-0.331256628036499,0.08144330978393555,0.04263639450073242,-0.5349040904186092,-1.208950367693395,-2.874787096026268,-0.804607629776001,0.5097585320472717,-0.3045535087585449,-0.2254587560892105,-2.1596686840057373,-2.6127419471740723
5.677006006240845,-0.43626147508621216,0.031389325857162476,0.10658904910087585,-0.48685414208423267,-1.2591457257800593,-2.8985485830248496,-0.8412349820137024,0.46784788370132446,-0.27100253105163574,-0.22303862869739532,-1.7158396244049072,-2.5510940551757812
5.696575164794922,-0.31352680921554565,-0.002604156732559204,0.15799272060394287,-0.44338080691937437,-1.302023915891739,-2.9226757820003506,-0.8708757162094116,0.428995817899704,-0.23987136781215668,-0.6452834606170654,-1.5502620935440063,-2.2396414279937744
5.7163050174713135,-0.19341421127319336,0.019858866930007935,0.18761307001113892,-0.4075601220808994,-1.3452754955862218,-2.953810665760915,-0.8948426842689514,0.39637047052383423,-0.20529797673225403,-1.257939100265503,-1.488896131515503,-1.9415769577026367
5.734586000442505,-0.19214028120040894,0.01830005645751953,0.17212897539138794,-0.3782761545480018,-1.3887057169885106,-2.9956855506740876,-0.9139388799667358,0.36931905150413513,-0.16828374564647675,-1.9405933618545532,-1.2290304899215698,-1.7291399240493774
5.756237030029297,-0.23413383960723877,0.005407959222793579,0.11012379825115204,-0.3529488636850173,-1.4294381129862397,-3.049966251239292,-0.9289980530738831,0.34566640853881836,-0.13220325112342834,-2.6755170822143555,-0.9256314635276794,-1.6153978109359741
5.776187896728516,-0.22372102737426758,0.09857425093650818,0.032800719141960144,-0.3275391207711542,-1.4692450332294715,-3.117587595119272,-0.9419590830802917,0.32171395421028137,-0.09598734974861145,-3.2832701206207275,-0.8805984854698181,-1.6957027912139893
5.796426057815552,-0.17821180820465088,0.19609788060188293,-0.05473017320036888,-0.2997974788356547,-1.507056998873199,3.091104307000325,-0.9534562826156616,0.29532673954963684,-0.06085509806871414,-3.5731520652770996,-0.7485013604164124,-1.6822079420089722
5.8162360191345215,-0.12406271696090698,0.25277388095855713,-0.05959361791610718,-0.26828582619717334,-1.5431551114946769,3.01721062108508,-0.9638584852218628,0.26507896184921265,-0.026649007573723793,-3.3013768196105957,-0.7873979210853577,-1.8423612117767334
5.8361289501190186,-0.10178607702255249,0.41018804907798767,-0.08338212966918945,-0.22929772814764296,-1.5740167744712468,2.9552583170087603,-0.973821222782135,0.2272936850786209,0.003136151237413287,-2.6666929721832275,-0.7675586938858032,-2.1197149753570557
5.856560945510864,-0.07396912574768066,0.5652343034744263,-0.1712421178817749,-0.18426557503773333,-1.5998494536447219,2.909369617800698,-0.9826561808586121,0.18322458863258362,0.028557270765304565,-1.9089833498001099,-0.9115333557128906,-2.2949488162994385
5.876312971115112,-0.018270432949066162,0.5853061676025391,-0.27812957763671875,-0.13693846537339935,-1.625990225797119,2.8786522529697067,-0.9891301989555359,0.13651087880134583,0.05464945733547211,-1.3681734800338745,-1.165714979171753,-2.285287618637085
5.895323991775513,-0.01895153522491455,0.5783219933509827,-0.3547786474227905,-0.09119226780460647,-1.651553351892426,2.8549293543090215,-0.992599368095398,0.09106592833995819,0.08033408969640732,-1.3813906908035278,-1.080138921737671,-2.132398843765259
5.916594982147217,-0.03935348987579346,0.6107348203659058,-0.36119353771209717,-0.04730289306278318,-1.6716686975571668,2.8295520682851376,-0.9938039183616638,0.047285255044698715,0.10058876127004623,-1.5415093898773193,-0.699626624584198,-1.9869598150253296
5.936298847198486,-0.00013846158981323242,0.6589956283569336,-0.33533191680908203,-0.008225583949488328,-1.681043962565951,2.8003344793398175,-0.9938954710960388,0.008225491270422935,0.11002073436975479,-1.8120425939559937,-0.18438416719436646,-1.5788527727127075
5.956073999404907,0.062365829944610596,0.7473881840705872,-0.380407452583313,0.023757546305055218,-1.6812567636990914,2.7650858372835416,-0.9936249852180481,-0.023755311965942383,0.11020483821630478,-2.0044381618499756,0.09136414527893066,-1.228183627128601
5.975761890411377,0.1253489851951599,0.8436747193336487,-0.47149017453193665,0.048726305304925596,-1.6773648010085076,2.7285392051771904,-0.9931467771530151,-0.0487070269882679,0.10624063014984131,-1.8626588582992554,0.1304413229227066,-0.8535310626029968
5.995626926422119,0.18211424350738525,0.9001580476760864,-0.5379586219787598,0.06521273489322357,-1.6738071661018217,2.695748759643523,-0.9925849437713623,-0.06516652554273605,0.10261020064353943,-1.5581454038619995,0.019451159983873367,-0.4579222500324249
6.0146260261535645,0.1909990906715393,0.9041247963905334,-0.5612667798995972,0.07354830716301275,-1.6727677306563635,2.6698847027076664,-0.9921160340309143,-0.07348201423883438,0.10151958465576172,-1.045724630355835,-0.07980600744485855,-0.12122292816638947
6.035571098327637,0.14966720342636108,0.9329161047935486,-0.5726276636123657,0.07411242133419862,-1.6735186864950422,2.6561217301979867,-0.9919983744621277,-0.0740445926785469,0.10226034373044968,-0.3128679096698761,-0.09571466594934464,0.19622142612934113
6.058292865753174,0.08586162328720093,0.9757748246192932,-0.5438730716705322,0.06685847614759141,-1.676149563409139,2.656687373676569,-0.9922337532043457,-0.06680867820978165,0.10492352396249771,0.4114678204059601,-0.2044701725244522,0.5228869318962097
6.079139947891235,-0.050552308559417725,0.9613053202629089,-0.48361408710479736,0.05202697081479605,-1.6828324725560369,2.6683326208142226,-0.9923860430717468,-0.05200350284576416,0.11165064573287964,0.8825536370277405,-0.3272455334663391,0.7959661483764648
6.094512939453125,-0.3299518823623657,0.943979799747467,-0.4425392150878906,0.03248642523474417,-1.6850615348805205,2.6866728499661683,-0.9929547905921936,-0.03248071298003197,0.11395657807588577,1.1285958290100098,0.2839880883693695,0.9465674161911011
6.1145710945129395,-0.4449753761291504,0.8463112115859985,-0.35920047760009766,0.008145973168298312,-1.673113893530872,2.7062446053673153,-0.9947372078895569,-0.008145882748067379,0.10213575512170792,1.0139113664627075,0.8425800800323486,1.3022540807724
6.134562969207764,-0.30591917037963867,0.7108199596405029,-0.23750567436218262,-0.02522099385869264,-1.655859005889864,2.7205369166137174,-0.9960675239562988,0.02521832101047039,0.08493311703205109,0.7529706954956055,0.8105592727661133,1.8992215394973755
6.1545469760894775,-0.2856972813606262,0.62246173620224,-0.16047334671020508,-0.06887693674949676,-1.6399051741759352,2.7320286431931655,-0.9952475428581238,0.06882248818874359,0.06889011710882187,0.7833033800125122,0.775486171245575,2.3076658248901367
6.1744608879089355,-0.4367627501487732,0.6065289974212646,-0.13086247444152832,-0.1175575721008458,-1.6211098187299675,2.7482461176684314,-0.9918414950370789,0.11728698760271072,0.0499451607465744,1.1755599975585938,0.9518541097640991,2.430192232131958
6.194473028182983,-0.48773127794265747,0.5718404650688171,-0.12023031711578369,-0.16878225885836864,-1.5967170830478778,2.7763248407258283,-0.9854590892791748,0.1679820418357849,0.025549568235874176,1.8197678327560425,0.9974140524864197,2.511873245239258
6.214524030685425,-0.3946850299835205,0.4896172881126404,-0.10511255264282227,-0.2210093844901589,-1.5698526827149042,2.8198358673895045,-0.9756763577461243,0.2192145735025406,-0.0009206914692185819,2.519662857055664,0.8118814826011658,2.6487314701080322
6.234475135803223,-0.3214263319969177,0.39352598786354065,-0.05533289909362793,-0.2736967256076951,-1.5406681505560729,2.880454627873631,-0.9623413681983948,0.27029240131378174,-0.029002366587519646,3.28580641746521,0.6434679627418518,2.6866953372955322
6.254475116729736,-0.3377833366394043,0.3150283694267273,0.031862616539001465,-0.32364916284329465,-1.5042751099596627,2.9575530798179983,-0.945984423160553,0.31802836060523987,-0.06302101910114288,3.8283278942108154,0.7527976036071777,2.6650726795196533
6.274486064910889,-0.3364868760108948,0.16366726160049438,0.1377725601196289,-0.3659782722418644,-1.4548579366133623,3.053292949188919,-0.9275054335594177,0.3578629493713379,-0.10801789909601212,4.914220333099365,0.8687334656715393,2.2901670932769775
6.294523000717163,-0.3101445436477661,0.16334602236747742,0.2078092247247696,-0.3978148483125079,-1.396356551061444,-3.121260557685883,-0.9079188108444214,0.38740476965904236,-0.16000337898731232,4.366503715515137,1.141351580619812,2.4652445316314697
6.314507007598877,-0.2023303508758545,-0.11487516760826111,0.3583982288837433,-0.42842957703416085,-1.3304360056351185,-3.0213995635485786,-0.8834697604179382,0.4154428243637085,-0.2165372371673584,3.876946210861206,1.434980034828186,2.3786227703094482
6.334559917449951,-0.19006365537643433,-0.14525657892227173,0.43251994252204895,-0.45613732616449154,-1.2640908923756726,-2.938528220339146,-0.8558652400970459,0.4404836595058441,-0.27105140686035156,2.6397674083709717,1.6265921592712402,2.2740390300750732
6.354496002197266,-0.1916811466217041,-0.15114814043045044,0.4548635482788086,-0.48207387725621353,-1.2012408509194807,-2.8743100515721904,-0.8262174129486084,0.4636177122592926,-0.3200368583202362,1.9596236944198608,1.7689080238342285,2.1148910522460938
6.374614000320435,-0.19058936834335327,-0.19720962643623352,0.4811089038848877,-0.5071027128812028,-1.1405084691300262,-2.8214178505839285,-0.794472336769104,0.4856466054916382,-0.3646385371685028,1.407501220703125,1.8076030015945435,1.9777284860610962
6.394845008850098,-0.22830337285995483,-0.17810821533203125,0.5149542689323425,-0.5296794071522228,-1.0816270242552848,-2.77746910033918,-0.7617631554603577,0.505256712436676,-0.40550294518470764,1.0344231128692627,1.9207267761230469,1.7521058320999146
6.414506912231445,-0.2409529685974121,-0.17152321338653564,0.5805754065513611,-0.5498947920432989,-1.0237616665755664,-2.7406806682216485,-0.7281633019447327,0.5225975513458252,-0.4434751868247986,0.7180579304695129,1.958144187927246,1.5851472616195679
6.434530019760132,-0.23931467533111572,-0.19772779941558838,0.6277809143066406,-0.5691477339960367,-0.9686395535767687,-2.7092552842625723,-0.694202721118927,0.5389143228530884,-0.4771308898925781,0.49532604217529297,1.8979417085647583,1.49235200881958
6.45456600189209,-0.26326900720596313,-0.20996731519699097,0.6517223119735718,-0.5878850299345528,-0.9160582451797604,-2.680853732132578,-0.6600403189659119,0.5546023845672607,-0.5067180395126343,0.33880871534347534,1.7959012985229492,1.4236093759536743
6.4746551513671875,-0.2983083128929138,-0.23933380842208862,0.6730117797851562,-0.6057904315686758,-0.8668850346535677,-2.6547562140437035,-0.6266641616821289,0.5694120526313782,-0.5320358276367188,0.2062099128961563,1.672102928161621,1.3277262449264526
6.494582176208496,-0.3277888894081116,-0.3127726912498474,0.7087294459342957,-0.6234568448187576,-0.8214446022911008,-2.6323813736582253,-0.5943912863731384,0.5838451385498047,-0.5530135035514832,-0.014317717403173447,1.5625531673431396,1.2004443407058716
6.514523983001709,-0.33258605003356934,-0.3905313014984131,0.724689781665802,-0.6412001964956059,-0.7822256783764356,-2.6153104583293385,-0.5648595690727234,0.5981577038764954,-0.5684549808502197,-0.23997849225997925,1.3268406391143799,1.0403187274932861
6.534782886505127,-0.33612245321273804,-0.42553281784057617,0.7356011867523193,-0.659488190495422,-0.7528384287672352,-2.604101168016513,-0.5403423309326172,0.6127124428749084,-0.5767266750335693,-0.4406052529811859,0.9259278178215027,0.8465426564216614
6.554625988006592,-0.3917139768600464,-0.445243775844574,0.7205821871757507,-0.6761190241781485,-0.7338978966482135,-2.5991736131402385,-0.5224248170852661,0.6257705688476562,-0.5792095065116882,-0.507421612739563,0.7028906345367432,0.52777498960495
6.574520111083984,-0.4125891923904419,-0.4883233904838562,0.7092189192771912,-0.6888661123734013,-0.7220576728114307,-2.6019133476385736,-0.5102165341377258,0.6356622576713562,-0.5793207883834839,-0.6026992201805115,0.6371692419052124,0.15270523726940155
6.594521999359131,-0.3112559914588928,-0.5422661900520325,0.681324303150177,-0.6983155808485252,-0.719793914670119,-2.6134744102034975,-0.5049213767051697,0.6429284811019897,-0.5759318470954895,-0.6821694374084473,0.23505401611328125,-0.19853270053863525
6.614522933959961,-0.209425687789917,-0.5061185359954834,0.5694905519485474,-0.7027871214592203,-0.7363253248455796,-2.632003640823204,-0.512437105178833,0.6463468670845032,-0.5653706789016724,-0.5632999539375305,-0.7411978244781494,-0.5856918692588806
6.634521961212158,-0.26296335458755493,-0.3605450987815857,0.4834322929382324,-0.6975931678602202,-0.7736735926496426,-2.654536415424842,-0.5355290770530701,0.6423749923706055,-0.5482363104820251,-0.21533077955245972,-1.4247605800628662,-1.0275120735168457
6.6545209884643555,-0.44902002811431885,-0.2955499291419983,0.4802097678184509,-0.6817591570238667,-0.8175723759021587,-2.6792589432537683,-0.5664218068122864,0.6301599144935608,-0.5310977697372437,-0.1436782330274582,-1.262329339981079,-1.4342604875564575
6.674520969390869,-0.48932164907455444,-0.3711280822753906,0.5615106225013733,-0.6636756255657138,-0.8584360826527856,-2.7138798903702828,-0.5961734056472778,0.6160164475440979,-0.5148797631263733,-0.7460236549377441,-0.7692869305610657,-1.6939890384674072
6.694607973098755,-0.2652192711830139,-0.46844130754470825,0.5808563232421875,-0.6513285802626461,-0.9085669619425846,-2.763637884636552,-0.6271757483482361,0.6062435507774353,-0.4889984726905823,-1.4676779508590698,-1.3570703268051147,-1.7451244592666626
6.71571683883667,-0.1829129457473755,-0.38670438528060913,0.44835901260375977,-0.6415658511183276,-0.9786854309973969,-2.82182906481866,-0.6647738218307495,0.5984506607055664,-0.44713830947875977,-1.6156963109970093,-2.039750337600708,-1.8138351440429688
6.7352471351623535,-0.3899732828140259,-0.18631583452224731,0.2860521376132965,-0.6233162898349642,-1.0525962559649047,-2.878440885202419,-0.7053483128547668,0.5837309956550598,-0.40217146277427673,-1.2893760204315186,-1.9306278228759766,-2.215379238128662
6.754868030548096,-0.5291545987129211,-0.0999482274055481,0.2077929675579071,-0.5910018674101996,-1.119446924363915,-2.9310477540382474,-0.7472279071807861,0.5571932196617126,-0.3621966242790222,-1.0829325914382935,-1.8315718173980713,-2.6203274726867676
6.774572849273682,-0.41260796785354614,-0.06532144546508789,0.16717615723609924,-0.5507890892164516,-1.1855194317710143,-2.9800723574260006,-0.7896472215652466,0.5233597755432129,-0.32023701071739197,-1.0731676816940308,-2.160938024520874,-2.710306167602539
6.794536113739014,-0.3551022410392761,-0.0019223392009735107,0.15605118870735168,-0.5074632273429182,-1.2527730815790927,-3.025069649200577,-0.8301547169685364,0.4859617352485657,-0.2732844352722168,-1.1050456762313843,-2.2013840675354004,-2.701235055923462
6.814761161804199,-0.4127638339996338,0.017820298671722412,0.175444558262825,-0.4633156831363473,-1.3127709776850243,-3.0685702126271184,-0.8649613857269287,0.44691669940948486,-0.22827045619487762,-1.3933902978897095,-1.733803391456604,-2.626041889190674
6.834560871124268,-0.38233137130737305,0.018576472997665405,0.17964953184127808,-0.4213972933581026,-1.3626933619093746,-3.1165922296193203,-0.8928303718566895,0.40903592109680176,-0.1885300874710083,-1.8816585540771484,-1.2674002647399902,-2.4494917392730713
6.854516983032227,-0.22548025846481323,0.0708770751953125,0.10870945453643799,-0.3833765631299909,-1.4085084180042946,3.1120678268354487,-0.9152210354804993,0.37405404448509216,-0.149847149848938,-2.334336042404175,-1.2494680881500244,-2.2292938232421875
6.874413013458252,-0.10805368423461914,0.15736639499664307,0.006358787417411804,-0.3471051496119345,-1.4555321411404907,3.0547520519164655,-0.9341217875480652,0.3401770293712616,-0.10815016180276871,-2.392807960510254,-1.4129741191864014,-2.134791851043701
6.894503116607666,-0.09112584590911865,0.26677441596984863,-0.12038368731737137,-0.30899645264155184,-1.502115389176101,3.0026119449397726,-0.9503934979438782,0.3041027784347534,-0.06537674367427826,-2.1320767402648926,-1.4782525300979614,-2.1751115322113037
6.914520025253296,-0.10411381721496582,0.37519291043281555,-0.20503956079483032,-0.26786089174596645,-1.5455475958656588,2.958973697712041,-0.9640319347381592,0.2646692097187042,-0.024345755577087402,-1.8238511085510254,-1.594096064567566,-2.154907464981079
6.934520959854126,-0.10156857967376709,0.4159121811389923,-0.3206275701522827,-0.2261942729132172,-1.5856034839398288,2.927450694328794,-0.9744201898574829,0.22427037358283997,0.014429447241127491,-1.1484951972961426,-1.61846125125885,-2.049731969833374
6.954524993896484,-0.11407220363616943,0.5316804647445679,-0.43947088718414307,-0.18466895516732668,-1.6220307433941252,2.913587478489428,-0.9817072153091431,0.1836211234331131,0.050341252237558365,-0.46176815032958984,-1.6802425384521484,-2.0504395961761475
6.974527835845947,-0.12410062551498413,0.62082439661026,-0.5023566484451294,-0.14413958876857697,-1.6551200258503425,2.908534833187397,-0.9861136078834534,0.14364099502563477,0.08335039764642715,-0.2974919378757477,-1.5521184206008911,-1.9666670560836792
6.9945220947265625,-0.09520673751831055,0.5515363216400146,-0.5222616195678711,-0.10659394782328888,-1.6850020861782902,2.9082079748968894,-0.9878469705581665,0.10639220476150513,0.11331088095903397,-0.15410828590393066,-1.3797870874404907,-1.747139573097229
7.014559984207153,-0.0735207200050354,0.6448751091957092,-0.6071224212646484,-0.07455436351919019,-1.7093391293339282,2.9100049384245463,-0.9876670837402344,0.07448531687259674,0.1377164125442505,-0.067048579454422,-1.0905871391296387,-1.4552947282791138
7.034542083740234,-0.02896946668624878,0.6187121272087097,-0.6904644966125488,-0.04881830810977702,-1.7285164902320385,2.91094474068998,-0.9864113926887512,0.04879891872406006,0.1568799614906311,-0.2824084758758545,-0.8115060925483704,-1.0913041830062866
7.054521083831787,0.034646034240722656,0.5797559022903442,-0.697272002696991,-0.030020409878608344,-1.7416619830239628,2.9047703705769377,-0.9849942326545715,0.03001590073108673,0.1699589043855667,-0.6308463215827942,-0.4852798283100128,-0.6576566696166992
7.074522018432617,0.06583297252655029,0.5927589535713196,-0.6953378915786743,-0.018371891839356044,-1.7482958210203765,2.892421441849639,-0.9841223359107971,0.01837085746228695,0.17653913795948029,-0.7257465720176697,-0.15861116349697113,-0.2936560809612274
7.094493865966797,0.0602269172668457,0.6486169099807739,-0.7201694250106812,-0.013386121536909929,-1.7492019973601927,2.8809546177955068,-0.984039843082428,0.013385721482336521,0.17744490504264832,-0.440183162689209,0.069370336830616,-0.003843950107693672
7.114595890045166,0.029205024242401123,0.7055914998054504,-0.7238469123840332,-0.014837547210834719,-1.7464928299841815,2.876292583283801,-0.9844969511032104,0.014837002381682396,0.17477478086948395,0.0033232192508876324,0.20042386651039124,0.215994730591774
7.13449501991272,-0.03644901514053345,0.6976457238197327,-0.6508195400238037,-0.021258553266523122,-1.74047248693825,2.878482166351728,-0.9854167699813843,0.021256951615214348,0.16882501542568207,0.2709265351295471,0.418427050113678,0.3879570960998535
7.1545209884643555,-0.10814988613128662,0.6324419975280762,-0.51498943567276,-0.03208386952769528,-1.7301569594042157,2.8819479550716984,-0.9868211150169373,0.03207836672663689,0.15860535204410553,0.21370692551136017,0.5852477550506592,0.6276823878288269
7.1745359897613525,-0.22165733575820923,0.5924848318099976,-0.4452568292617798,-0.0466923356694535,-1.7167568995654687,2.8831175415998334,-0.9882885217666626,0.04667537286877632,0.14528435468673706,0.13975882530212402,0.7908090353012085,0.7795712351799011
7.194659948348999,-0.36948710680007935,0.6229692697525024,-0.41639602184295654,-0.06365825882617107,-1.6967333353267375,2.8841895981545225,-0.990071177482605,0.06361526995897293,0.1253499984741211,0.21006448566913605,1.2068679332733154,0.9030781388282776
7.214519023895264,-0.37463563680648804,0.6166379451751709,-0.3432525396347046,-0.0846656166748572,-1.6695828862644841,2.887202634195129,-0.9915602207183838,0.08456449955701828,0.09827270358800888,0.31305256485939026,1.4634966850280762,1.1769684553146362
7.234523057937622,-0.2643621563911438,0.5417354702949524,-0.21715641021728516,-0.1127544978373469,-1.6393785543311976,2.891101311990734,-0.9913142323493958,0.11251573264598846,0.06809332966804504,0.2874833941459656,1.4729092121124268,1.6015313863754272
7.254519939422607,-0.220855712890625,0.4575684070587158,-0.08375287055969238,-0.1493862489303001,-1.6101211195418843,2.8946138403432022,-0.9880983233451843,0.14883124828338623,0.03887680545449257,0.27859389781951904,1.4198503494262695,1.993130087852478
7.273899078369141,-0.3180614113807678,0.40774208307266235,-0.0206376314163208,-0.19224057724480675,-1.5790899212482683,2.9014998951098026,-0.9815450310707092,0.1910586804151535,0.00814072322100401,0.5182956457138062,1.5238534212112427,2.179161548614502
7.294541835784912,-0.39709198474884033,0.38015103340148926,0.013621747493743896,-0.23666083159726178,-1.5444593963591653,2.9164037184466456,-0.9717893004417419,0.2344578504562378,-0.02559986710548401,0.935337245464325,1.5893421173095703,2.2559714317321777
7.31461501121521,-0.3745851516723633,0.33100074529647827,0.041407644748687744,-0.2805287034319001,-1.5065402973815942,2.943084987540917,-0.9589262008666992,0.2768637239933014,-0.061701733618974686,1.4125893115997314,1.5078779458999634,2.2613041400909424
7.3351311683654785,-0.29899030923843384,0.2479853630065918,0.08493973314762115,-0.32385400074452275,-1.4663138497993478,2.9806950040891107,-0.9428461790084839,0.3182225823402405,-0.09887094050645828,1.8044986724853516,1.384138822555542,2.3694140911102295
7.354501962661743,-0.2356961965560913,0.15703389048576355,0.15445154905319214,-0.36618623090286523,-1.4239545198824002,3.0275879390097695,-0.923651397228241,0.3580571413040161,-0.13661396503448486,2.042628288269043,1.2742079496383667,2.3765499591827393
7.374521970748901,-0.20465588569641113,0.11255800724029541,0.21910572052001953,-0.4052488886899601,-1.3787544563400889,3.0824185927306402,-0.9021099209785461,0.39424750208854675,-0.17540450394153595,2.3032565116882324,1.1897776126861572,2.349578857421875
7.394613981246948,-0.1817113757133484,0.05222180485725403,0.28164297342300415,-0.44099916804082523,-1.3301693134682466,-3.138976836566333,-0.8782709836959839,0.4268432557582855,-0.21551133692264557,2.415827989578247,1.143395185470581,2.352677583694458
7.414520025253296,-0.18249207735061646,-0.022573202848434448,0.3534502387046814,-0.4736488985609579,-1.2781890229488513,-3.074104775157848,-0.8520843982696533,0.4561364948749542,-0.2566942572593689,2.3231582641601562,1.2020347118377686,2.341176748275757
7.43452000617981,-0.18531566858291626,-0.10610365867614746,0.4212082028388977,-0.5043517083588995,-1.2235371763349419,-3.0108400564584787,-0.8232292532920837,0.4832399785518646,-0.2979476749897003,1.985545039176941,1.2941560745239258,2.3385026454925537
7.454519987106323,-0.18633121252059937,-0.183535635471344,0.48243996500968933,-0.5349867432237767,-1.1689823722079469,-2.9541456157906913,-0.7917571663856506,0.5098296403884888,-0.33644381165504456,1.4687566757202148,1.3428276777267456,2.3169422149658203
7.474518060684204,-0.2038084864616394,-0.25176435708999634,0.5310508012771606,-0.5666380449565299,-1.1165496920829183,-2.906243974948864,-0.7581512928009033,0.5367985963821411,-0.37020787596702576,0.9561733603477478,1.4197646379470825,2.252101182937622
7.494518041610718,-0.23091942071914673,-0.3001750111579895,0.5634260177612305,-0.5982236630193236,-1.065244086162043,-2.86611451719688,-0.7229684591293335,0.5631754994392395,-0.4001874625682831,0.6014567613601685,1.5021470785140991,2.0938079357147217
7.514538049697876,-0.22188609838485718,-0.3387044072151184,0.5737097859382629,-0.627286166282059,-1.0151241737495955,-2.8308514122616084,-0.6878124475479126,0.5869497656822205,-0.42708808183670044,0.43436890840530396,1.4750038385391235,1.8779805898666382
7.534526824951172,-0.18582481145858765,-0.37247294187545776,0.5955453515052795,-0.6523961513630344,-0.9683794825271212,-2.7989265621260344,-0.6547514200210571,0.6070922017097473,-0.4502664804458618,0.3507423400878906,1.2753629684448242,1.6278088092803955
7.5545549392700195,-0.18232232332229614,-0.4143033027648926,0.5980366468429565,-0.6727253536544007,-0.928185801884335,-2.770321276239627,-0.6261187791824341,0.6231198906898499,-0.46871837973594666,0.2988515794277191,1.0022412538528442,1.3309788703918457
7.5745179653167725,-0.22665691375732422,-0.42200690507888794,0.5824874043464661,-0.6872835783080191,-0.8939706602775722,-2.746251128199629,-0.6025819778442383,0.6344398260116577,-0.4841292202472687,0.2916101813316345,0.9288389086723328,0.9608070254325867
7.59451699256897,-0.22784239053726196,-0.4375413656234741,0.5775059461593628,-0.6960416898546041,-0.8648330352722232,-2.727904856094173,-0.5839709043502808,0.6411851644515991,-0.49785497784614563,0.2387637495994568,0.7875131964683533,0.618196964263916
7.614528179168701,-0.16008198261260986,-0.4806322455406189,0.575885534286499,-0.7009234383795899,-0.8442847075688766,-2.715715050505386,-0.5712717771530151,0.6449236869812012,-0.5076634883880615,0.14700347185134888,0.4387853145599365,0.3676653802394867
7.6336729526519775,-0.11867308616638184,-0.5068433284759521,0.5611246824264526,-0.7033171791696033,-0.8364437562671447,-2.7090302132567254,-0.5661261081695557,0.6467512845993042,-0.5110911130905151,0.07710826396942139,-0.08073349297046661,0.14737136662006378
7.654523849487305,-0.18231457471847534,-0.48785001039505005,0.5528397560119629,-0.7029221827904804,-0.841314706724721,-2.7085498096002816,-0.5687993168830872,0.6464499235153198,-0.5084977746009827,-0.02633446268737316,-0.36521440744400024,-0.16208010911941528
7.674519062042236,-0.29760706424713135,-0.4676557779312134,0.5653355717658997,-0.6994782501044903,-0.8538995091540453,-2.7168163804169283,-0.5768283605575562,0.6438185572624207,-0.5027592778205872,-0.25346922874450684,-0.33415502309799194,-0.5150089263916016
7.694518089294434,-0.33358830213546753,-0.4754104018211365,0.5810949802398682,-0.6946464140532081,-0.8720350184911919,-2.7367355775832882,-0.5882256627082825,0.6401138305664062,-0.4942114055156708,-0.5835186839103699,-0.23602978885173798,-0.8500254154205322
7.7145490646362305,-0.26075661182403564,-0.45747143030166626,0.5088586211204529,-0.6872284351260617,-0.8991702687304572,-2.766082682151739,-0.6051185727119446,0.6343972086906433,-0.4810113310813904,-0.6292704343795776,-0.7269613146781921,-1.1510156393051147
7.734528064727783,-0.22761785984039307,-0.322195827960968,0.3781917691230774,-0.6726404765680982,-0.9414460312636043,-2.796216478276757,-0.6323217153549194,0.6230534911155701,-0.46040618419647217,-0.30145037174224854,-1.5806314945220947,-1.451589584350586
7.754517078399658,-0.414520800113678,-0.15156900882720947,0.29803192615509033,-0.6458804124653506,-0.9922135698708565,-2.821204012052209,-0.6685938239097595,0.6019017696380615,-0.43668854236602783,0.17177632451057434,-1.8044589757919312,-1.9083577394485474
7.7745561599731445,-0.6340027451515198,-0.10940778255462646,0.36119914054870605,-0.6086734691312,-1.035162220697809,-2.844936851826408,-0.7055053114891052,0.5717796683311462,-0.41872474551200867,0.023678133264183998,-1.0502104759216309,-2.2110226154327393
7.793825149536133,-0.4891725182533264,-0.20288586616516113,0.41639289259910583,-0.5734475060951185,-1.0712286369036264,-2.8774967065911494,-0.7373746633529663,0.5425313115119934,-0.40241581201553345,-0.6460948586463928,-0.9511402249336243,-2.1538279056549072
7.814517021179199,-0.2354952096939087,-0.2138432264328003,0.3259570002555847,-0.5458100889774622,-1.1178853751720708,-2.918315479380805,-0.7685331106185913,0.5191106200218201,-0.37400689721107483,-1.0892815589904785,-1.5459455251693726,-1.8806092739105225
7.834524154663086,-0.2588658332824707,-0.09048512578010559,0.1757848858833313,-0.5229652485755757,-1.1716683149450395,-2.9598123720644964,-0.7982478141784668,0.49945124983787537,-0.3366735577583313,-1.1912133693695068,-1.6157182455062866,-1.7322494983673096
7.85451602935791,-0.387903094291687,-0.052188724279403687,0.09680938720703125,-0.4993327200490409,-1.220812203779284,-3.0006894997810445,-0.8246824145317078,0.47883984446525574,-0.30101773142814636,-1.2937259674072266,-1.3174933195114136,-1.777608036994934
7.87451696395874,-0.3295701742172241,-0.0517541766166687,0.08074948191642761,-0.4752167611087223,-1.265946511303668,-3.0428951906141153,-0.8481946587562561,0.457531213760376,-0.26689139008522034,-1.4625149965286255,-1.2657889127731323,-1.6825048923492432
7.894521951675415,-0.2139052152633667,0.0038672685623168945,0.09114420413970947,-0.45319947750739425,-1.310111611145941,-3.0847865263530827,-0.8686754107475281,0.43784427642822266,-0.2317233681678772,-1.51227605342865,-1.2544770240783691,-1.489729881286621
7.9145188331604,-0.21437925100326538,0.032438844442367554,0.06557416915893555,-0.43253710360621295,-1.350956509715553,-3.1259644407444482,-0.8860541582107544,0.4191755950450897,-0.19798989593982697,-1.648146152496338,-1.0466139316558838,-1.4402408599853516
7.934514045715332,-0.21946513652801514,0.028520703315734863,0.041696369647979736,-0.41090878623173255,-1.3881329740127584,3.1130459287394228,-0.9015066027641296,0.3994426429271698,-0.16652847826480865,-1.8761796951293945,-0.896415650844574,-1.4965468645095825
7.954514026641846,-0.15102416276931763,0.06220409274101257,-0.0026702880859375,-0.38692303690675484,-1.424904172678551,3.065586507644765,-0.9162365794181824,0.377340704202652,-0.13462825119495392,-2.028934955596924,-0.9638710618019104,-1.5965766906738281
7.974562168121338,-0.07730972766876221,0.1295923888683319,-0.05499785393476486,-0.3598760011403059,-1.461893613329351,3.0154041101523648,-0.9303959608078003,0.35215818881988525,-0.10172510892152786,-2.0459628105163574,-0.951183021068573,-1.7526521682739258
7.994518041610718,-0.062334418296813965,0.18179777264595032,-0.1829366534948349,-0.3275207074422023,-1.4984222132671958,2.967065206060246,-0.944364070892334,0.32169651985168457,-0.06846709549427032,-2.3901305198669434,-0.9521605372428894,-1.7859914302825928
8.014524936676025,-0.03023916482925415,0.21154636144638062,-0.2922627329826355,-0.2913527838043583,-1.5338576421043113,2.9198557395834492,-0.9572029113769531,0.28724825382232666,-0.035373907536268234,-1.714760422706604,-1.128434419631958,-2.1261136531829834
8.034536838531494,-0.011673212051391602,0.3717808425426483,-0.3455471992492676,-0.24869486224941287,-1.5658653604332318,2.8894808411530137,-0.9692229628562927,0.24613918364048004,-0.004779244773089886,-1.1192213296890259,-1.3379122018814087,-2.190178871154785
8.054515838623047,0.01999610662460327,0.47488266229629517,-0.42485129833221436,-0.2038954177770584,-1.5981307063414403,2.873768043717706,-0.978919506072998,0.2024855762720108,0.026764823123812675,-0.5993219614028931,-1.5036121606826782,-2.275059461593628
8.073768138885498,0.03126418590545654,0.47634196281433105,-0.4206714630126953,-0.15827498768368015,-1.6301376401309016,2.862983853585167,-0.9857624769210815,0.15761499106884003,0.058565203100442886,-0.7133692502975464,-1.442993402481079,-2.1829683780670166
8.094527959823608,0.01271510124206543,0.4449467658996582,-0.4313967227935791,-0.11642762062837132,-1.6577674849275963,2.8495779604324185,-0.9894760847091675,0.11616475880146027,0.08627351373434067,-0.909814178943634,-1.1189488172531128,-1.8934106826782227
8.114596843719482,-0.019373297691345215,0.5033125281333923,-0.4784858226776123,-0.07968813785104872,-1.6772311298380962,2.833658924822244,-0.9911857843399048,0.07960382848978043,0.10589684545993805,-0.9929854273796082,-0.6573147177696228,-1.619209885597229
8.134515047073364,0.02761554718017578,0.6155376434326172,-0.5221853256225586,-0.048803689440091995,-1.6872243709765695,2.818422682600809,-0.9920473098754883,0.048784319311380386,0.116026870906353,-0.8703569769859314,-0.29284992814064026,-1.2589956521987915
8.1545250415802,0.14540612697601318,0.6527746915817261,-0.5461853742599487,-0.026473449266955322,-1.692766014741496,2.803937401094541,-0.9922230839729309,0.026470357552170753,0.12162485718727112,-0.8305982351303101,-0.250753253698349,-0.7791975736618042
8.174514055252075,0.1911664605140686,0.6556776762008667,-0.5676256418228149,-0.013924255260172075,-1.6983503212693074,2.790378092952727,-0.9917798638343811,0.013923805207014084,0.1271960586309433,-0.6628469228744507,-0.2632995843887329,-0.3151548206806183
8.194514989852905,0.12647444009780884,0.6893507242202759,-0.5823853015899658,-0.009471532545072632,-1.7024876222732128,2.780827414195433,-0.9912969470024109,0.009471391327679157,0.13130511343479156,-0.30430153012275696,-0.1261795461177826,-0.025365080684423447
8.214514017105103,0.035071492195129395,0.7281365990638733,-0.587767481803894,-0.010633199330922794,-1.7035779035855638,2.7797534098909726,-0.9911414980888367,0.010632999241352081,0.1323842704296112,0.21439455449581146,0.014031004160642624,0.15169106423854828
8.234517097473145,-0.017719805240631104,0.7404688000679016,-0.5409162044525146,-0.016642613470003086,-1.7015345014025707,2.787944632456447,-0.9913288354873657,0.016641845926642418,0.13034802675247192,0.6379110217094421,0.1861676126718521,0.3411344885826111
8.254513025283813,-0.054597556591033936,0.6948564648628235,-0.4525398015975952,-0.027696616604409075,-1.6967517553494478,2.8010527323584213,-0.9916978478431702,0.02769307605922222,0.1255744993686676,0.7579100728034973,0.2240547090768814,0.6024773716926575
8.274513959884644,-0.1502477526664734,0.6397287249565125,-0.3987003564834595,-0.04374175623120355,-1.6914467511556277,2.8141002603636833,-0.9917809963226318,0.043727807700634,0.12024280428886414,0.7344406247138977,0.32580745220184326,0.8039470314979553
8.294514179229736,-0.32592034339904785,0.6367137432098389,-0.3786059617996216,-0.06285159749513056,-1.67936742624306,2.826708027588114,-0.9921490550041199,0.06281022727489471,0.10814397037029266,0.7457395792007446,0.8398547768592834,0.961769700050354
8.314548969268799,-0.3520985245704651,0.6119339466094971,-0.3184473514556885,-0.08607885537699726,-1.6584175791114242,2.8396082547700234,-0.9924753904342651,0.08597259223461151,0.08718517422676086,0.7723321914672852,1.111612319946289,1.2457425594329834
8.334604024887085,-0.2603803873062134,0.5699397921562195,-0.2235954999923706,-0.11608129821116268,-1.6343087689642275,2.853094889794225,-0.9912675619125366,0.11582078039646149,0.06304261833429337,0.7869373559951782,1.1186248064041138,1.6515156030654907
