timestamp,acceleration_x,acceleration_y,acceleration_z,attitude_pitch,attitude_roll,attitude_yaw,gravity_x,gravity_y,gravity_z,rotation_x,rotation_y,rotation_z
0.0,-0.12715452909469604,0.6819988489151001,0.0006287135183811188,-0.11760371392258127,-1.5163285106837476,2.2451656858719287,-0.9916199445724487,0.1173328086733818,-0.05406484752893448,-3.023926019668579,-0.4268825054168701,-1.3201950788497925
0.0190579891204834,-0.012631654739379883,0.6620416045188904,0.05708080157637596,-0.0977729249822469,-1.529789467799858,2.1825365436723567,-0.9943876266479492,0.09761722385883331,-0.0407995842397213,-2.980867624282837,-0.20036537945270538,-0.947272002696991
0.03938603401184082,0.06724852323532104,0.6576271057128906,0.06673943996429443,-0.08498310258399194,-1.5352322491892072,2.1304105356748373,-0.9957610964775085,0.08488084375858307,-0.03542826324701309,-2.0569372177124023,0.1690077930688858,-0.5205348134040833
0.05996394157409668,0.11063629388809204,0.7281057834625244,-0.011414527893066406,-0.07783523662826539,-1.5320964014406353,2.1010319373698105,-0.9962260127067566,0.07775666564702988,-0.03857313096523285,-0.8938158750534058,0.32347458600997925,-0.39491263031959534
0.07993292808532715,0.17167890071868896,0.732629656791687,-0.04755937680602074,-0.06717977142052942,-1.5290313447988102,2.091165853031798,-0.9968743324279785,0.06712925434112549,-0.041658662259578705,-0.131324902176857,0.042806971818208694,-0.731580913066864
0.09991908073425293,0.22275614738464355,0.6559592485427856,-0.0332036055624485,-0.0499636547758636,-1.5314463326266479,2.09101746091944,-0.9979791641235352,0.04994286969304085,-0.03929075598716736,0.11905671656131744,-0.2627798318862915,-0.951704204082489
0.12099814414978027,0.19727659225463867,0.597188413143158,-0.03783803805708885,-0.031112487115101735,-1.5392628390021867,2.0933920582056507,-0.9990192651748657,0.031107468530535698,-0.03151300549507141,0.2127443253993988,-0.49385300278663635,-0.8890091776847839
0.1393439769744873,0.11265462636947632,0.6165246367454529,-0.05269598960876465,-0.016227573668204338,-1.5490860422698276,2.098910267564062,-0.9996328949928284,0.016226861625909805,-0.02170572616159916,0.3461664319038391,-0.4384625256061554,-0.5628703236579895
0.15993905067443848,0.04892706871032715,0.6844024062156677,-0.046448588371276855,-0.007110692320479886,-1.5553085878955362,2.1053851103017274,-0.9998550415039062,0.007110632490366697,-0.015486732125282288,0.31370463967323303,-0.17980000376701355,-0.39981624484062195
0.17993807792663574,0.057176828384399414,0.6950691938400269,-0.0705024003982544,0.0006875019726740353,-1.557436144867507,2.1117568900506605,-0.9999107122421265,-0.0006875019171275198,-0.01335978414863348,0.3649922311306,-0.0701092854142189,-0.33464303612709045
0.20003700256347656,0.10020637512207031,0.6976220607757568,-0.08785730600357056,0.003957543162384647,-1.559257645290597,2.120500443744813,-0.9999256134033203,-0.003957532811909914,-0.011538335122168064,0.5167951583862305,-0.11414758116006851,0.026809178292751312
0.21995902061462402,0.06913018226623535,0.6664364337921143,-0.09237813949584961,0.0005581347952110187,-1.562100274957022,2.132176272389148,-0.9999622702598572,-0.0005581347504630685,-0.008695942349731922,0.6455632448196411,-0.1559934765100479,0.2882899045944214
0.23958992958068848,0.021423935890197754,0.6232442855834961,-0.09061503410339355,-0.0072336845796169245,-1.5646248115760935,2.145699962841705,-0.9999549388885498,0.0072336215525865555,-0.0061713154427707195,0.711821973323822,-0.08220482617616653,0.4970695376396179
0.25995302200317383,0.012917160987854004,0.5756618976593018,-0.10154283046722412,-0.019538919898690346,-1.5654046360468445,2.1612337071094,-0.9997947216033936,0.019537676125764847,-0.005390636157244444,0.8504274487495422,-0.019416455179452896,0.7377538084983826
0.27995896339416504,0.031077146530151367,0.5312765836715698,-0.09505271911621094,-0.03631253900394744,-1.564938921690254,2.1797213756649585,-0.9993236660957336,0.03630455955862999,-0.005853510461747646,0.9849730730056763,0.02558901533484459,0.9356873035430908
0.29984593391418457,0.04049569368362427,0.46564891934394836,-0.07490497827529907,-0.05635354916960296,-1.5628945967706045,2.200148297303775,-0.998381495475769,0.05632372573018074,-0.007889105007052422,1.0309284925460815,0.08093438297510147,1.0672023296356201
0.31995606422424316,0.028588473796844482,0.37396693229675293,-0.0656275749206543,-0.07878180239473274,-1.559515017841071,2.220848591391326,-0.9968350529670715,0.07870033383369446,-0.011246081441640854,1.0121033191680908,0.1146535575389862,1.184270977973938
0.33972597122192383,-0.00539851188659668,0.2951437830924988,-0.041819214820861816,-0.10347829709251449,-1.5548975267460952,2.2406827491620147,-0.9945252537727356,0.10329372435808182,-0.015813089907169342,0.9217844009399414,0.19698677957057953,1.301605224609375
0.3600308895111084,-0.02204108238220215,0.2248687893152237,-0.007380906492471695,-0.13003538367027323,-1.5471373903885126,2.258351223920199,-0.9912800788879395,0.12966923415660858,-0.023457009345293045,0.7835989594459534,0.37213754653930664,1.371743083000183
0.3799920082092285,-0.012407183647155762,0.16219055652618408,0.011967062950134277,-0.15750591897148897,-1.5365791499231274,2.2734845360221243,-0.9870436191558838,0.1568554937839508,-0.03378703445196152,0.6470531821250916,0.44802603125572205,1.414475917816162
0.3999600410461426,-0.022106945514678955,0.10481022298336029,0.010995566844940186,-0.1855750015656896,-1.5256706139077403,2.287263034769732,-0.9818299412727356,0.1845116913318634,-0.044335875660181046,0.6259805560112,0.41414394974708557,1.4360419511795044
0.41996097564697266,-0.07052075862884521,0.04996797442436218,0.013879366219043732,-0.2138656482772735,-1.514185446138288,2.3022859329135956,-0.9756523370742798,0.21223905682563782,-0.055291615426540375,0.7003540396690369,0.46518033742904663,1.465497612953186
0.4392359256744385,-0.06627172231674194,-0.02863346040248871,0.06282889097929001,-0.2425527074092535,-1.4996783334139094,2.318201118718159,-0.9682744145393372,0.24018138647079468,-0.06897806376218796,0.6489599347114563,0.6267921924591064,1.4787302017211914
0.45995593070983887,-0.01409059762954712,-0.14571267366409302,0.09352785348892212,-0.27080621209059375,-1.48267526302567,2.3325912635733013,-0.9598169922828674,0.2675083577632904,-0.08479970693588257,0.5299397110939026,0.6897516846656799,1.4373141527175903
0.480579137802124,0.008916079998016357,-0.2610180079936981,0.08776307106018066,-0.29812965397328073,-1.4675300165738254,2.3455800034411998,-0.9507954716682434,0.2937328815460205,-0.09853564947843552,0.45552700757980347,0.3601367473602295,1.3959088325500488
0.5002129077911377,-0.18202710151672363,-0.2910155951976776,0.13253718614578247,-0.32320971342208876,-1.464016931071041,2.3567867329553756,-0.9428204298019409,0.3176116943359375,-0.10105817019939423,0.33352068066596985,-0.2988649606704712,1.1716458797454834
0.5199120044708252,-0.5383257865905762,-0.23966175317764282,0.25194525718688965,-0.3424946983567066,-1.4654254782041614,2.363750636553533,-0.9366956949234009,0.3358379304409027,-0.0990673378109932,0.1192169189453125,0.1795634925365448,0.7971359491348267
0.5400600433349609,-0.5062277317047119,-0.3348260819911957,0.3075985908508301,-0.35572401929437236,-1.4497881859251436,2.3650189500050165,-0.9305399060249329,0.34826913475990295,-0.11315575987100601,-0.18188248574733734,1.2375386953353882,0.5654891729354858
0.5599539279937744,-0.03399193286895752,-0.451378732919693,0.16678006947040558,-0.36675704968873,-1.4264504804801892,2.360462400437488,-0.9237870573997498,0.3585900366306305,-0.13427871465682983,-0.27904465794563293,1.066480040550232,0.43857866525650024
0.5800058841705322,0.21137362718582153,-0.3868226706981659,0.0651545524597168,-0.37537351938282393,-1.4173734748558238,2.3595775623545947,-0.9194425940513611,0.3666200637817383,-0.14218083024024963,0.1656712144613266,-0.2153671383857727,0.3910380005836487
0.5999438762664795,0.06563985347747803,-0.30507147312164307,0.0679149478673935,-0.3798936103855947,-1.429123984277474,2.3717804125178423,-0.9193998575210571,0.37082165479660034,-0.13113202154636383,0.8348699808120728,-1.2026442289352417,0.16531164944171906
0.6199438571929932,-0.33644312620162964,-0.36953410506248474,0.18267881870269775,-0.3765542902985238,-1.4428056884581961,2.3902522421501637,-0.9223307967185974,0.367718368768692,-0.11869857460260391,0.7958938479423523,-0.6409900784492493,-0.26505962014198303
0.6391880512237549,-0.46754831075668335,-0.5209846496582031,0.33753788471221924,-0.36881250087780343,-1.4412342596319137,2.3992106360192715,-0.9249384999275208,0.3605080246925354,-0.12051201611757278,0.07043414562940598,0.4100548326969147,-0.30690956115722656
0.6599550247192383,-0.22824221849441528,-0.5926585793495178,0.29547810554504395,-0.3661999925171895,-1.433276180562407,2.390689406029363,-0.9248797297477722,0.3580699861049652,-0.1279975026845932,-0.7922469973564148,0.5458415746688843,-0.10388364642858505
0.6799459457397461,-0.07408756017684937,-0.48611921072006226,0.1473211795091629,-0.3660175563822522,-1.434285694571531,2.369038598163199,-0.9250732064247131,0.35789963603019714,-0.12707264721393585,-1.1051119565963745,0.09344813972711563,-0.25651127099990845
0.6999680995941162,-0.05823439359664917,-0.2814624309539795,0.08080936223268509,-0.36039584130971175,-1.4443970027888777,2.3463045351641827,-0.9282921552658081,0.352644681930542,-0.11796440184116364,-0.8639948964118958,-0.22736671566963196,-0.6029782891273499
0.7199440002441406,-0.06351226568222046,-0.15922361612319946,0.08134239912033081,-0.34598641207380243,-1.4548748333806694,2.330857365048001,-0.9344279170036316,0.33912479877471924,-0.10880810022354126,-0.3890935778617859,-0.2509815990924835,-1.0085768699645996
0.7399649620056152,-0.03663080930709839,-0.13050073385238647,0.07119542360305786,-0.3241673241486595,-1.4623001475117876,2.323978237415735,-0.9423426985740662,0.31851959228515625,-0.10264365375041962,-0.06357176601886749,-0.2786879539489746,-1.194361686706543
0.760002851486206,0.0038483142852783203,-0.10602253675460815,0.04161036014556885,-0.30020895173374484,-1.4701717136011574,2.3209299095965594,-0.9504427313804626,0.29571983218193054,-0.0959620326757431,0.0013433038257062435,-0.4211246371269226,-1.2197895050048828
0.7799429893493652,0.022288978099822998,-0.028584927320480347,-0.007799677550792694,-0.2754795244709559,-1.4811522414823572,2.3183433909676134,-0.9584309458732605,0.27200841903686523,-0.08614856004714966,0.0026558293029665947,-0.5872846841812134,-1.2840930223464966
0.7999498844146729,0.03447926044464111,0.07734782993793488,-0.06578134745359421,-0.24905626753597757,-1.49398258587666,2.3174108645285743,-0.9662877917289734,0.24648945033550262,-0.07437050342559814,0.15415552258491516,-0.6603021025657654,-1.3631137609481812
0.8199808597564697,0.07471811771392822,0.15439891815185547,-0.10973716527223587,-0.22097608740170122,-1.5068474920663233,2.320428326323809,-0.9736899137496948,0.2191820740699768,-0.06235135346651077,0.31390896439552307,-0.6925334334373474,-1.4157172441482544
0.8399429321289062,0.11721527576446533,0.18931981921195984,-0.15781176090240479,-0.1925750368054384,-1.5206912068994116,2.3248727165387733,-0.9802829027175903,0.19138696789741516,-0.04915833845734596,0.2597375810146332,-0.7929288744926453,-1.397800087928772
0.8599441051483154,0.14007920026779175,0.20421330630779266,-0.15685302019119263,-0.16543680535642125,-1.536067322585453,2.3275575862492777,-0.9857518672943115,0.16468319296836853,-0.034247949719429016,0.08673269301652908,-0.7404245138168335,-1.2842631340026855
0.8800280094146729,0.14273178577423096,0.21592830121517181,-0.1335543394088745,-0.14209331121805865,-1.548977797340416,2.324782975357071,-0.989686131477356,0.14161564409732819,-0.02159692347049713,-0.31904998421669006,-0.4931891858577728,-1.0704940557479858
0.8998939990997314,0.1334403157234192,0.24271288514137268,-0.15497642755508423,-0.12286088726082303,-1.557382163439546,2.314213716908241,-0.9923728704452515,0.12255202978849411,-0.013312650844454765,-0.6572425961494446,-0.2283858358860016,-0.8727689981460571
0.9200019836425781,0.1434859037399292,0.3316410183906555,-0.17740482091903687,-0.10777653237541698,-1.5624840053154285,2.2993546804627982,-0.9941636323928833,0.10756800323724747,-0.008263997733592987,-0.7828413844108582,-0.1370733231306076,-0.6648368239402771
0.9399509429931641,0.1437247395515442,0.4002555012702942,-0.1897466778755188,-0.09577098641569656,-1.5667532380167677,2.28310343067952,-0.9954095482826233,0.0956246480345726,-0.004024551250040531,-0.8411057591438293,-0.11470471322536469,-0.569844663143158
0.9600508213043213,0.1555105447769165,0.422318696975708,-0.2114163637161255,-0.08515417557991117,-1.5707410508793993,2.2654988885810488,-0.9963767528533936,0.08505129814147949,-5.507563764695078e-05,-0.8968926072120667,-0.12642350792884827,-0.4842450022697449
0.9799368381500244,0.17463189363479614,0.4501418471336365,-0.23191916942596436,-0.0775083716388795,-1.5749755360240079,2.2485489585054843,-0.9969891309738159,0.07743079215288162,0.004166650585830212,-0.7457987070083618,-0.1834036111831665,-0.2640979290008545
0.9999449253082275,0.14542901515960693,0.5189472436904907,-0.2524675130844116,-0.07501042380530397,-1.5801874879345517,2.2375009181581036,-0.9971441626548767,0.07494010031223297,0.009364617057144642,-0.33564192056655884,-0.2165672481060028,0.005447843577712774
1.0199449062347412,0.09055918455123901,0.5674139857292175,-0.26319706439971924,-0.0765664368454726,-1.583298034039523,2.2352711900930258,-0.9969925284385681,0.07649164646863937,0.01246475800871849,0.08635339140892029,-0.08581838011741638,0.1258907914161682
1.0399529933929443,0.07694536447525024,0.5491085052490234,-0.19901466369628906,-0.07963775942700532,-1.5850116867326118,2.238163081528984,-0.9967299699783325,0.07955360412597656,0.014169829897582531,0.14883382618427277,-0.17002327740192413,0.18459564447402954
1.0599429607391357,-0.07354754209518433,0.5276612639427185,-0.22550654411315918,-0.0850051943585707,-1.5910399575171925,2.241071364071629,-0.9961851835250854,0.08490286022424698,0.020169159397482872,0.2241673320531845,-0.4397334158420563,0.3614078462123871
1.0799429416656494,-0.3609442710876465,0.6149446368217468,-0.24233973026275635,-0.09443947155480753,-1.5989250046027954,2.2500760743321515,-0.9951501488685608,0.09429915249347687,0.027999643236398697,0.7197230458259583,-0.3584272563457489,0.5325118899345398
1.100013017654419,-0.5612046718597412,0.6983743906021118,-0.17473506927490234,-0.10516409440753374,-1.599607048694882,2.2697935058888152,-0.9940629005432129,0.10497035831212997,0.02864759787917137,1.2832146883010864,0.11662997305393219,0.4201870858669281
1.1199438571929932,-0.40518027544021606,0.618141770362854,-0.03495454788208008,-0.11319420752611012,-1.5887464627035932,2.2997420136751554,-0.993440568447113,0.11295263469219208,0.017834307625889778,1.6409764289855957,0.5901779532432556,0.3804628551006317
1.139941930770874,-0.14528369903564453,0.45495882630348206,0.05214881896972656,-0.12570955987184343,-1.573063043800265,2.3317536412518396,-0.9921066761016846,0.12537872791290283,0.002248828997835517,1.528161883354187,0.5004570484161377,0.864438533782959
1.1600370407104492,-0.1392471194267273,0.3389812111854553,-0.006069003604352474,-0.14890364859019,-1.5620128786627778,2.36332564445563,-0.9888961911201477,0.14835400879383087,-0.008686142042279243,1.6999942064285278,0.18210209906101227,1.3626620769500732
1.179969072341919,-0.2239290475845337,0.3337309956550598,-0.04511094093322754,-0.17884817773993844,-1.5514496698801272,2.4042768701898978,-0.9838653802871704,0.17789624631404877,-0.019036881625652313,2.3175578117370605,0.19911234080791473,1.4597580432891846
1.1999850273132324,-0.16228067874908447,0.31401920318603516,0.012213293462991714,-0.20492923202197497,-1.5364186149294348,2.457411943622683,-0.9784969091415405,0.20349787175655365,-0.033651743084192276,2.79962420463562,0.2657339870929718,1.2359611988067627
1.2199440002441406,-0.0345461368560791,0.2165980041027069,0.08054941892623901,-0.22527447167084613,-1.5179716094858684,2.518165543698333,-0.9733732342720032,0.2233739048242569,-0.05146604776382446,2.9875612258911133,0.2882705330848694,1.0767289400100708
1.2399439811706543,0.06254249811172485,0.07825660705566406,0.1524193286895752,-0.2440753537126176,-1.4966337275641426,2.579191158121482,-0.9676939845085144,0.24165919423103333,-0.07189856469631195,2.7689054012298584,0.42973026633262634,1.2048012018203735
1.2599451541900635,0.09266650676727295,-0.01319018006324768,0.19584250450134277,-0.26667545465123543,-1.4729372801658878,2.6333989569413423,-0.9600371718406677,0.2635258734226227,-0.09424936771392822,2.265249252319336,0.5618782043457031,1.4858671426773071
1.2799420356750488,0.067493736743927,-0.04165509343147278,0.2233893871307373,-0.294473484806598,-1.4476753716545394,2.678610744219647,-0.9497113227844238,0.2902360260486603,-0.11752380430698395,1.7633438110351562,0.7206295728683472,1.7117284536361694
1.299989938735962,0.036152005195617676,-0.05209958553314209,0.24889445304870605,-0.32487409850669585,-1.4204502556436716,2.715856839821447,-0.9370005130767822,0.3191894590854645,-0.141945481300354,1.3790034055709839,0.8423768877983093,1.7261770963668823
1.3199479579925537,0.019482970237731934,-0.10095766186714172,0.27508556842803955,-0.3547669595835617,-1.3922390946925216,2.747829406618814,-0.9228185415267944,0.3473718464374542,-0.1665497124195099,1.1193970441818237,0.8882887363433838,1.6889389753341675
1.3399419784545898,-0.025603175163269043,-0.12899449467658997,0.2925676703453064,-0.3839982669274586,-1.3641941618589826,2.7764425707574136,-0.907456636428833,0.37463054060935974,-0.19019638001918793,0.9740657806396484,0.8639258146286011,1.6259920597076416
1.3599679470062256,-0.07271361351013184,-0.12331181764602661,0.3369864225387573,-0.41101689731650765,-1.335230939857457,2.8037211529557604,-0.8913978338241577,0.3995417356491089,-0.21395471692085266,0.9188427329063416,0.9618138670921326,1.4553956985473633
1.379945993423462,-0.10172641277313232,-0.1501850187778473,0.35694611072540283,-0.4333681598656995,-1.3048890987509167,2.8304208002230626,-0.8756601810455322,0.41992998123168945,-0.23849204182624817,0.8917598724365234,0.9236525297164917,1.2663544416427612
1.3999519348144531,-0.1190606951713562,-0.18692690134048462,0.3835761547088623,-0.45238300104732465,-1.276314351666914,2.8558722797383824,-0.8606910109519958,0.4371100664138794,-0.26104795932769775,0.7957248091697693,0.8561208844184875,1.1610922813415527
1.419950008392334,-0.13069820404052734,-0.23477202653884888,0.41309696435928345,-0.46949803764066605,-1.2494808884237834,2.878366017109134,-0.8461543321609497,0.45243868231773376,-0.2816424071788788,0.5968886613845825,0.8397336006164551,1.064234733581543
1.4399549961090088,-0.09768235683441162,-0.28097712993621826,0.43994373083114624,-0.4857709380894474,-1.2245101798091917,2.896170253307148,-0.8318221569061279,0.46689024567604065,-0.3001426160335541,0.37962689995765686,0.8365823030471802,0.9879227876663208
1.4599888324737549,-0.05337327718734741,-0.3231123685836792,0.4369499683380127,-0.5018416390439209,-1.2029194250729367,2.909176345166127,-0.8180410265922546,0.48104092478752136,-0.31529155373573303,0.12847627699375153,0.6927653551101685,0.9137504696846008
1.4799449443817139,-0.05067181587219238,-0.34048184752464294,0.40592724084854126,-0.5173520004383152,-1.1873074210354264,2.91705972897523,-0.8060024976730347,0.4945804178714752,-0.3251928687095642,-0.021894721314311028,0.49938851594924927,0.7686324715614319
1.4999449253082275,-0.06329625844955444,-0.3118821382522583,0.385431706905365,-0.5299094335483502,-1.1761308612984498,2.9226591502227324,-0.7965213656425476,0.5054551959037781,-0.3317664563655853,0.03568802773952484,0.33364415168762207,0.5753649473190308
1.5199759006500244,-0.10518860816955566,-0.2901189923286438,0.36169543862342834,-0.5372415906797021,-1.168221795879622,2.9294784631296085,-0.7904412746429443,0.511768102645874,-0.3365946114063263,0.21519267559051514,0.11360373347997665,0.33288073539733887
1.5399410724639893,-0.16386836767196655,-0.2921152114868164,0.36440950632095337,-0.5393890039945574,-1.164369527666939,2.9365743410361524,-0.7881275415420532,0.5136118531227112,-0.3392018973827362,0.2087194323539734,-0.071888267993927,0.10614501684904099
1.5600168704986572,-0.2203150987625122,-0.33921563625335693,0.4140278100967407,-0.5392249784086425,-1.164803060124936,2.938038748949824,-0.7883519530296326,0.5134710669517517,-0.33889347314834595,-0.1349521279335022,0.0037728422321379185,-0.05378352478146553
1.5800001621246338,-0.21493840217590332,-0.41355085372924805,0.4269879460334778,-0.5414426579811857,-1.1669750495656883,2.9282743616612232,-0.788037121295929,0.5153728127479553,-0.3367321193218231,-0.7440513372421265,0.280716210603714,-0.051796481013298035
1.6000068187713623,-0.13585209846496582,-0.4346069097518921,0.3582271337509155,-0.5482570940475285,-1.1741262476074905,2.9061092693400625,-0.7871673703193665,0.5212005376815796,-0.32972362637519836,-1.198081612586975,0.038738105446100235,-0.08736168593168259
1.6199538707733154,-0.19642162322998047,-0.3209229111671448,0.2948269844055176,-0.5541250280373121,-1.194124376833863,2.87828888519537,-0.7907458543777466,0.526199460029602,-0.3127865195274353,-1.1670892238616943,-0.556455671787262,-0.28889036178588867
1.6399779319763184,-0.44471025466918945,-0.19613593816757202,0.29808375239372253,-0.5532631973498916,-1.2219495880687061,2.8500535041257176,-0.7995677590370178,0.5254663825035095,-0.29082047939300537,-1.0888025760650635,-0.6123839616775513,-0.6759769916534424
1.6599438190460205,-0.5491256713867188,-0.20415866374969482,0.3450619578361511,-0.5440848822549313,-1.2443569140597377,2.818128502322943,-0.8104172945022583,0.5176353454589844,-0.2743678689002991,-1.224224328994751,0.11907466500997543,-1.0260348320007324
1.6799490451812744,-0.2053217887878418,-0.277321994304657,0.29056257009506226,-0.5341955188582667,-1.2574000248051993,2.780157047954906,-0.8187566995620728,0.5091487765312195,-0.265339732170105,-1.554524540901184,0.3289247453212738,-0.892546534538269
1.6999709606170654,0.040174663066864014,-0.26037704944610596,0.14820605516433716,-0.5283992030492622,-1.2794587151473562,2.7401913547453107,-0.8272231221199036,0.5041515231132507,-0.24805948138237,-1.4741523265838623,-0.6068621277809143,-0.7292104363441467
1.7199440002441406,-0.028009474277496338,-0.11198046803474426,0.03459949791431427,-0.5204786090734845,-1.3158074993660034,2.7082523578954434,-0.8395290374755859,0.49729543924331665,-0.2188340127468109,-0.9190985560417175,-1.2664291858673096,-0.8405042886734009
1.7399518489837646,-0.22512435913085938,-0.029728442430496216,-0.013454854488372803,-0.5033528487036032,-1.3493113768888938,2.690065937925917,-0.8545723557472229,0.4823652505874634,-0.19243188202381134,-0.25203821063041687,-1.1389498710632324,-1.2193912267684937
1.760004997253418,-0.24279934167861938,-0.05606284737586975,0.020703598856925964,-0.47774741959431255,-1.3737471456262977,2.681632775849308,-0.8708483576774597,0.4597799777984619,-0.1738559752702713,-0.030930202454328537,-0.9231131076812744,-1.3863189220428467
1.7799429893493652,-0.14557039737701416,-0.13003754615783691,0.08219993114471436,-0.45207251655012903,-1.395194471957142,2.673061388212755,-0.8857102394104004,0.4368307888507843,-0.157150998711586,-0.31202155351638794,-0.8297579288482666,-1.2542670965194702
1.7999441623687744,-0.11529028415679932,-0.1767168939113617,0.12209057807922363,-0.4315159972534161,-1.4165051824647925,2.6552279623062187,-0.8975424766540527,0.41824832558631897,-0.13959231972694397,-0.9862760305404663,-0.49868708848953247,-1.0528368949890137
1.819944143295288,-0.09481251239776611,-0.1652655005455017,0.06400097906589508,-0.4156901351106115,-1.4363008728386586,2.6234115253189207,-0.9065760374069214,0.4038213789463043,-0.12267091870307922,-1.614691138267517,-0.21752110123634338,-0.9463674426078796
1.8399429321289062,-0.012645125389099121,-0.06125804781913757,0.0025986507534980774,-0.40188419380399537,-1.4564069891465328,2.582563107894215,-0.9143111109733582,0.39115309715270996,-0.10504601895809174,-1.8739345073699951,-0.1953306645154953,-0.9106000065803528
1.8599610328674316,0.0525088906288147,0.03299722075462341,-0.035856373608112335,-0.3863975046624196,-1.4775026265840558,2.5408772421018364,-0.9222448468208313,0.37685397267341614,-0.08629012852907181,-1.7535029649734497,-0.322243332862854,-1.0572367906570435
1.8800480365753174,0.0779375433921814,0.08970537781715393,-0.061624228954315186,-0.36640586853844015,-1.4991271005587044,2.504519280416037,-0.9312244057655334,0.35826221108436584,-0.06685463339090347,-1.4571514129638672,-0.49865859746932983,-1.2081717252731323
1.8998949527740479,0.053727805614471436,0.13119685649871826,-0.08761066198348999,-0.3430521962227976,-1.5204271463780177,2.4757148894712913,-0.9405381679534912,0.3363630175590515,-0.04741423949599266,-1.0921344757080078,-0.6079465746879578,-1.2800318002700806
1.9199440479278564,0.010647594928741455,0.18602919578552246,-0.11868780851364136,-0.31810310401069125,-1.5395988414769117,2.455061215892784,-0.949368417263031,0.3127653896808624,-0.029627518728375435,-0.787879228591919,-0.630949079990387,-1.2981425523757935
1.9399631023406982,-0.006510913372039795,0.23488590121269226,-0.15109705924987793,-0.29202853207458873,-1.5569386794330156,2.440008485831977,-0.9575700163841248,0.28789547085762024,-0.013270516879856586,-0.6207836270332336,-0.6308760643005371,-1.3387686014175415
1.9599430561065674,-0.002115011215209961,0.2728843688964844,-0.19611644744873047,-0.2653915723766575,-1.5732424959497693,2.427921900119515,-0.9649871587753296,0.2622871398925781,0.0023605264723300934,-0.4994359314441681,-0.6751118302345276,-1.3148677349090576
1.9799869060516357,0.01669621467590332,0.3314339518547058,-0.2367382049560547,-0.2403309821673752,-1.588736689956388,2.420376190798643,-0.9711031913757324,0.23802411556243896,0.01742381416261196,-0.24922291934490204,-0.6685702800750732,-1.1786632537841797
1.9999420642852783,0.03147512674331665,0.3644247353076935,-0.26202571392059326,-0.21778286912013053,-1.6025282943133026,2.4175810485319924,-0.9758874177932739,0.2160653918981552,0.030977224931120872,-0.1030023843050003,-0.6327547430992126,-1.0605881214141846
2.0199429988861084,0.05553489923477173,0.3648553788661957,-0.2677408456802368,-0.19856545136431686,-1.6142768806127887,2.416461427139269,-0.9794241786003113,0.19726316630840302,0.04261276125907898,-0.1157754510641098,-0.5032125115394592,-0.8460184335708618
2.039942979812622,0.0986681580543518,0.3415246605873108,-0.2571011781692505,-0.18412644776540968,-1.6230393053473162,2.412893728249619,-0.9817554950714111,0.1830878108739853,0.05133654177188873,-0.324971079826355,-0.3066474199295044,-0.5745310187339783
2.059960126876831,0.13403695821762085,0.3293762803077698,-0.26510751247406006,-0.1747621076854975,-1.629324128744554,2.404610646525801,-0.9830818772315979,0.1738738715648651,0.05760341137647629,-0.5228272080421448,-0.1882808357477188,-0.3142298758029938
2.079965829849243,0.14185667037963867,0.3550329804420471,-0.29979193210601807,-0.16993848834071248,-1.6347980050897375,2.3934604470285623,-0.9835774898529053,0.16912172734737396,0.06303670257329941,-0.5672668814659119,-0.17530840635299683,-0.1255059838294983
2.099940061569214,0.12560510635375977,0.3977307975292206,-0.32490479946136475,-0.16750455368992673,-1.6398709924296304,2.384147769610752,-0.9836527109146118,0.1667223572731018,0.06805375218391418,-0.34180110692977905,-0.18140624463558197,-0.0682966560125351
2.1199429035186768,0.07802635431289673,0.43448737263679504,-0.3415583372116089,-0.1662221166548459,-1.6444382209635924,2.3805178346507287,-0.9835440516471863,0.16545772552490234,0.07256126403808594,-0.031943973153829575,-0.2076735496520996,-0.03992022946476936
2.140084981918335,0.016730189323425293,0.4340421259403229,-0.3100963830947876,-0.1658845150610616,-1.6472749365995516,2.3817249112917462,-0.9833899736404419,0.165124773979187,0.07535527646541595,0.08752954751253128,-0.05953733250498772,0.005951566621661186
2.159959077835083,0.000621795654296875,0.38999393582344055,-0.23157548904418945,-0.167149303028962,-1.6462522987344066,2.3813738904669206,-0.9832574129104614,0.16637206077575684,0.07433377206325531,-0.16028688848018646,0.13794280588626862,0.13919025659561157
2.1799819469451904,-0.05900198221206665,0.3665321469306946,-0.20686423778533936,-0.17180264357267921,-1.644845337508658,2.3749035785541275,-0.9825783967971802,0.1709587275981903,0.07289223372936249,-0.40169617533683777,0.10260514914989471,0.38775038719177246
2.19997501373291,-0.23510044813156128,0.4511913061141968,-0.27047955989837646,-0.18130053394419637,-1.6441636947944156,2.3673548294812767,-0.9809641242027283,0.18030893802642822,0.07210016995668411,-0.21116100251674652,0.12370190769433975,0.5813056230545044
2.2199599742889404,-0.3573406934738159,0.5467350482940674,-0.25188934803009033,-0.19247303853700667,-1.6396695754280497,2.366809790827159,-0.9792073965072632,0.1912868469953537,0.06754803657531738,0.24929939210414886,0.3689941167831421,0.5039722323417664
2.240139961242676,-0.2895253896713257,0.5223475098609924,-0.1734410524368286,-0.2023895462622572,-1.6273643921639969,2.3756962811373956,-0.9780223369598389,0.20101067423820496,0.055383920669555664,0.6446252465248108,0.6642980575561523,0.4836168885231018
2.260179042816162,-0.09512948989868164,0.3805943727493286,-0.05379795655608177,-0.215897120643433,-1.6103086851845074,2.3889508121958754,-0.976022481918335,0.21422380208969116,0.038585033267736435,0.6824977397918701,0.7164149284362793,0.8549299836158752
2.2803361415863037,-0.029530465602874756,0.25374889373779297,-0.04213285446166992,-0.23855876751427835,-1.594106023343129,2.402129786019477,-0.9714158177375793,0.236302450299263,0.02264750935137272,0.5421745777130127,0.5079621076583862,1.2700953483581543
2.3002870082855225,-0.1018974781036377,0.22971147298812866,-0.1046304702758789,-0.2645121830483606,-1.5815000613850714,2.415747446749712,-0.9651650190353394,0.2614384591579437,0.010331264697015285,1.0121054649353027,0.3274061381816864,1.1919846534729004
2.327711820602417,-0.15494543313980103,0.22161409258842468,-0.09004849195480347,-0.2924552871693962,-1.5550582516264144,2.5104225098994255,-0.9574203491210938,0.2883041203022003,-0.015069197863340378,3.7410097122192383,-0.3167543113231659,-0.013930205255746841
2.3401429653167725,-0.15494543313980103,0.22161409258842468,-0.09004849195480347,-0.2924552871693962,-1.5550582516264144,2.5104225098994255,-0.9574203491210938,0.2883041203022003,-0.015069197863340378,3.7410097122192383,-0.3167543113231659,-0.013930205255746841
2.3599398136138916,-0.10476940870285034,0.07730880379676819,0.02868622913956642,-0.2877447715243382,-1.5330579927147918,2.5943235727941945,-0.9582036733627319,0.2837904393672943,-0.036178186535835266,4.050002098083496,0.08346208184957504,-0.14561881124973297
2.3799350261688232,-0.07823914289474487,-0.16409114003181458,0.17102712392807007,-0.2836955812558479,-1.5036341296142997,2.670555563375796,-0.9578633904457092,0.27990540862083435,-0.06442911177873611,3.1810970306396484,0.8705114722251892,0.2585790157318115
2.400002956390381,-0.0783115029335022,-0.22870856523513794,0.1840149164199829,-0.29322582048308765,-1.466194941974966,2.7257448350393356,-0.9520840644836426,0.2890418469905853,-0.09995412826538086,2.1123273372650146,1.131096601486206,1.0596333742141724
2.4284260272979736,-0.05716806650161743,-0.2568550407886505,0.2253003716468811,-0.3047638898598429,-1.3899496266117493,2.8044790678354206,-0.9383612275123596,0.3000679612159729,-0.17157410085201263,1.5426602363586426,1.4814671277999878,-0.015329081565141678
2.4482879638671875,0.0794488787651062,-0.35028836131095886,0.2907339632511139,-0.3047358665105399,-1.3557669405951038,2.8271375070538225,-0.9319576621055603,0.30004122853279114,-0.20354515314102173,0.5968559384346008,1.2684086561203003,0.5133019685745239
2.4701430797576904,0.10517150163650513,-0.34216296672821045,0.2818524241447449,-0.3183697699833736,-1.3290386973800012,2.836771247949876,-0.9221271276473999,0.31301867961883545,-0.2273784726858139,0.07552263140678406,1.0997549295425415,0.9210402369499207
2.490821123123169,0.028825998306274414,-0.23228871822357178,0.29058974981307983,-0.3359867170340493,-1.3082348691994332,2.8406276829534427,-0.9117301106452942,0.32970088720321655,-0.24504217505455017,-0.14780157804489136,0.8940060138702393,0.8262568712234497
2.506326913833618,-0.03401994705200195,-0.16594040393829346,0.3245653212070465,-0.35183488973020843,-1.2896812064175405,2.8402253544666856,-0.9018933773040771,0.34462088346481323,-0.26043257117271423,-0.3166748583316803,1.002088189125061,0.7079353332519531
2.5255489349365234,0.002742469310760498,-0.2064264714717865,0.37079697847366333,-0.3682254999996299,-1.2711633410437184,2.8352046629338554,-0.8913992047309875,0.3599604368209839,-0.2753836512565613,-0.6231240630149841,1.0143722295761108,0.7478812336921692
2.54457688331604,0.06829005479812622,-0.26685336232185364,0.38560721278190613,-0.38814431044149794,-1.2557550868919602,2.8247980592589412,-0.880057692527771,0.37847140431404114,-0.28680646419525146,-0.8614929914474487,0.905791163444519,0.8585649728775024
2.5622010231018066,0.08120769262313843,-0.27489525079727173,0.3624081611633301,-0.4104538830941045,-1.2438871212240024,2.8129271843067176,-0.868378221988678,0.399025559425354,-0.2944454252719879,-0.8513954281806946,0.7512966394424438,0.8933249115943909
2.5818870067596436,0.07953464984893799,-0.2800736427307129,0.3394676744937897,-0.4317275167522034,-1.2345486711603335,2.8025512976110507,-0.8573821783065796,0.41844043135643005,-0.2996727228164673,-0.7511284351348877,0.6164763569831848,0.7974568605422974
2.602489948272705,0.09739881753921509,-0.29769042134284973,0.35256227850914,-0.4500769525686918,-1.2279439371569434,2.7924081532559364,-0.8480092287063599,0.4350348114967346,-0.3026964068412781,-0.7417664527893066,0.4778943359851837,0.621329665184021
2.622612953186035,0.09126108884811401,-0.3086981177330017,0.33910071849823,-0.4645392360741975,-1.2260138196201975,2.7805278685130013,-0.8414137959480286,0.4480109214782715,-0.3021743893623352,-0.7418737411499023,0.22533026337623596,0.3739608824253082
2.6432011127471924,0.025932610034942627,-0.2771002948284149,0.3073132038116455,-0.4729749455258787,-1.2302324195391137,2.7682912470336034,-0.8390888571739197,0.4555366337299347,-0.29734915494918823,-0.5184366703033447,-0.08239346742630005,0.041557107120752335
2.663141965866089,-0.09020078182220459,-0.23866787552833557,0.2987866997718811,-0.47332277254900973,-1.237957817358416,2.7597650742694024,-0.8412110805511475,0.45584625005722046,-0.29080623388290405,-0.2453308254480362,-0.2585330903530121,-0.24468742311000824
2.6841189861297607,-0.18513041734695435,-0.23895174264907837,0.3477102816104889,-0.4681453948781895,-1.246394678557553,2.7515835338904697,-0.8458601832389832,0.451231986284256,-0.28444722294807434,-0.3399806618690491,-0.1760026067495346,-0.48062506318092346
2.7060048580169678,-0.21764647960662842,-0.2929624617099762,0.3440150320529938,-0.4610561481767933,-1.254768931026401,2.7367476804081283,-0.8512316942214966,0.4448942244052887,-0.2783411145210266,-0.7169574499130249,-0.004717492964118719,-0.5684359669685364
2.725132942199707,-0.16360586881637573,-0.3120020031929016,0.2921690344810486,-0.45678043799155515,-1.2659350309861068,2.713789180424392,-0.8560933470726013,0.4410609006881714,-0.26938754320144653,-1.1035141944885254,-0.18615368008613586,-0.47030317783355713
2.745021104812622,-0.23973017930984497,-0.23201870918273926,0.22345566749572754,-0.45449009996578715,-1.2874425116969506,2.6850972590042117,-0.8626563549041748,0.43900424242019653,-0.251196026802063,-1.2606823444366455,-0.6836957335472107,-0.535661518573761
2.7673470973968506,-0.47958582639694214,-0.09475791454315186,0.2398194670677185,-0.44893534058645745,-1.315398577202266,2.6537390089675528,-0.8716868162155151,0.43400663137435913,-0.22759708762168884,-1.318136215209961,-0.6127455830574036,-0.7817111015319824
2.787142038345337,-0.5933809280395508,-0.05994662642478943,0.2640373408794403,-0.43779687173362886,-1.3356835439706722,2.61861706109881,-0.8807709217071533,0.4239451587200165,-0.21098245680332184,-1.5437462329864502,0.12400790303945541,-1.0289219617843628
2.807260036468506,-0.2648981809616089,-0.1331004500389099,0.20517075061798096,-0.4266925698785007,-1.3473344263624325,2.5754780643308974,-0.8877050876617432,0.4138621985912323,-0.2017374336719513,-2.0370912551879883,0.3611084222793579,-0.8883858323097229
2.826063871383667,-0.018805503845214844,-0.13376757502555847,0.0733257532119751,-0.4210631727611273,-1.3661419455470427,2.526392462303555,-0.8936091661453247,0.40873098373413086,-0.18547776341438293,-2.1185460090637207,-0.26401618123054504,-0.6238414645195007
2.847059965133667,-0.03625977039337158,-0.019057154655456543,-0.04448580741882324,-0.41727680462377836,-1.3940795407018995,2.4829185217762686,-0.899958610534668,0.4052724242210388,-0.160714253783226,-1.6500203609466553,-0.6663922667503357,-0.5568631887435913
2.8662149906158447,-0.1297169327735901,0.04448288679122925,-0.08534914255142212,-0.4086113756029928,-1.419968177773061,2.4523657196121573,-0.907255232334137,0.397335410118103,-0.13788682222366333,-0.9871513843536377,-0.672517716884613,-0.7824532985687256
2.8857581615448,-0.13444918394088745,0.016208529472351074,-0.030861422419548035,-0.3933964078114427,-1.4403677548091371,2.432871323852547,-0.9157674908638,0.38332757353782654,-0.12012419104576111,-0.6423527598381042,-0.5867530703544617,-0.9292730689048767
2.908277988433838,-0.11569195985794067,-0.06225937604904175,0.04306769371032715,-0.3777432207720104,-1.456182964234312,2.416712225661498,-0.9234011769294739,0.36882373690605164,-0.106299988925457,-0.7442251443862915,-0.35040512681007385,-0.7810550332069397
2.9269139766693115,-0.11483317613601685,-0.12317487597465515,0.07109354436397552,-0.3657901576339338,-1.4677027657333506,2.3936406405637776,-0.9288834929466248,0.3576872944831848,-0.09610261768102646,-1.326913833618164,0.05910125747323036,-0.6604956388473511
2.9467339515686035,-0.023662030696868896,-0.14470341801643372,0.04186863452196121,-0.35629570004238403,-1.4765198108323767,2.3578218485181472,-0.9330335259437561,0.3488049805164337,-0.08822468668222427,-1.869120717048645,0.26329219341278076,-0.6066934466362
2.9666240215301514,0.10842740535736084,-0.057983458042144775,0.004523821175098419,-0.3488608377477785,-1.4877229222149115,2.31408311665333,-0.9365218877792358,0.34182748198509216,-0.07797952741384506,-2.1274309158325195,0.11658310890197754,-0.4939897954463959
2.986665964126587,0.15433651208877563,0.022542804479599,-0.0358196496963501,-0.34107213205345005,-1.5024228788720602,2.2700525970901904,-0.9401947855949402,0.3344976603984833,-0.06438472121953964,-1.885037899017334,-0.068245068192482,-0.6427730321884155
3.0045998096466064,0.15430432558059692,0.08362042903900146,-0.044993333518505096,-0.32795825180159316,-1.5176580638050046,2.233048582867188,-0.9453657269477844,0.32211077213287354,-0.05028242990374565,-1.5646255016326904,-0.2195872813463211,-0.8507878184318542
3.026630163192749,0.14395660161972046,0.10516217350959778,-0.049499448388814926,-0.31127837295724925,-1.5327340884058829,2.2025626906843088,-0.951253354549408,0.3062758147716522,-0.036224327981472015,-1.2439205646514893,-0.3224601149559021,-0.9433592557907104
3.0465970039367676,0.10271847248077393,0.13646620512008667,-0.09580850601196289,-0.29258679201954274,-1.5468248284333692,2.1797814211213233,-0.9572259783744812,0.28843003511428833,-0.022950537502765656,-0.8828478455543518,-0.3974940776824951,-0.9738020300865173
3.066448926925659,0.07376313209533691,0.1717625856399536,-0.11290931701660156,-0.27308635317848984,-1.5605696869762107,2.1625659667035886,-0.9628927707672119,0.2697046995162964,-0.009847501292824745,-0.8013423085212708,-0.5115732550621033,-1.0197031497955322
3.086322069168091,0.058705151081085205,0.15972067415714264,-0.12721765041351318,-0.2520428127145878,-1.576663200904444,2.1441767855542047,-0.9683884382247925,0.24938274919986725,0.005681477952748537,-0.971528172492981,-0.6152637600898743,-1.0611032247543335
3.1062281131744385,0.03894650936126709,0.19212938845157623,-0.1707528829574585,-0.23173791824609344,-1.5943854168611131,2.1244605603542803,-0.9729980826377869,0.22966933250427246,0.022956397384405136,-0.931903600692749,-0.6504186391830444,-0.9166664481163025
3.1261699199676514,0.019291937351226807,0.2583175301551819,-0.21990203857421875,-0.21459341220995934,-1.6097159902779459,2.107852771054254,-0.9763232469558716,0.2129501849412918,0.03801736980676651,-0.7404309511184692,-0.5158615708351135,-0.7551668882369995
3.1460649967193604,0.030808746814727783,0.2940366864204407,-0.23669302463531494,-0.19954886410010064,-1.6217703591400257,2.095074490691888,-0.9788833260536194,0.1982271671295166,0.04994089528918266,-0.6251136660575867,-0.41548123955726624,-0.7069165110588074
3.165802001953125,0.06815564632415771,0.2669987082481384,-0.24814367294311523,-0.18554111673128737,-1.6312163152260308,2.0822610819761262,-0.9810434579849243,0.18447838723659515,0.059346869587898254,-0.7260001301765442,-0.31127530336380005,-0.6045936346054077
3.186002016067505,0.08391797542572021,0.25027453899383545,-0.28663361072540283,-0.1743903829369043,-1.6395162471003804,2.0677470302791776,-0.98250812292099,0.17350779473781586,0.06762436032295227,-0.7499984502792358,-0.2505491077899933,-0.41247808933258057
3.205925941467285,0.10085409879684448,0.2561796307563782,-0.32602906227111816,-0.16621555459685544,-1.646723131042448,2.0537768146849884,-0.9833768010139465,0.1654512584209442,0.07480846345424652,-0.6856647729873657,-0.26111695170402527,-0.3328741490840912
3.224004030227661,0.102383553981781,0.2560719847679138,-0.363315224647522,-0.1576664106348237,-1.6551821803803553,2.0423854322726243,-0.9840822815895081,0.15701399743556976,0.08324030041694641,-0.45345228910446167,-0.4239065945148468,-0.44158369302749634
3.2456119060516357,0.027673721313476562,0.2802516222000122,-0.3838852643966675,-0.14743651795783325,-1.6656444238428734,2.037779100991511,-0.9847050905227661,0.14690294861793518,0.09367848932743073,-0.09019019454717636,-0.5236952304840088,-0.5349838733673096
3.264634847640991,-0.09494954347610474,0.2797864079475403,-0.35713160037994385,-0.13593029797460207,-1.6745373959947585,2.0400808216345174,-0.9854492545127869,0.1355120837688446,0.10259989649057388,0.14383883774280548,-0.35695597529411316,-0.64200758934021
3.2855310440063477,-0.14130479097366333,0.22231507301330566,-0.25787675380706787,-0.12221197313890331,-1.678189696906488,2.0435146269661106,-0.986823320388794,0.12190797924995422,0.10638760030269623,0.008295498788356781,-0.12207411974668503,-0.75040203332901
3.3056130409240723,-0.261707603931427,0.20605841279029846,-0.25182831287384033,-0.10794811991515278,-1.6813564784773944,2.0435012761580165,-0.9881093502044678,0.10773859173059464,0.10969282686710358,-0.12478560954332352,-0.16941873729228973,-0.6052284836769104
3.325482130050659,-0.4578961133956909,0.327142596244812,-0.2596888542175293,-0.09853868719500321,-1.6812968315177976,2.0429579745901494,-0.9890798330307007,0.09837929904460907,0.10974084585905075,-0.0450286827981472,0.23952020704746246,-0.3629465699195862
3.3456199169158936,-0.34414976835250854,0.347807377576828,-0.14730189740657806,-0.09223424370921059,-1.6691903126617997,2.041817957042116,-0.9909334778785706,0.09210352599620819,0.09781777113676071,-0.18343761563301086,0.9557692408561707,-0.2441602349281311
3.3653690814971924,-0.005659580230712891,0.18322524428367615,-0.08717740327119827,-0.08904814342302372,-1.6489480611932525,2.035904662557938,-0.9929977059364319,0.08893050253391266,0.07776287198066711,-0.41633570194244385,0.925794780254364,0.019612185657024384
3.384497880935669,0.08471804857254028,0.07699818909168243,-0.08758318424224854,-0.09360967142670285,-1.6363132440669463,2.0271095548439533,-0.9934858679771423,0.09347301721572876,0.06518342345952988,-0.3527441918849945,0.43194442987442017,0.5101525783538818
3.4057581424713135,-0.0918036699295044,0.15488101541996002,-0.07134295254945755,-0.1057837029942534,-1.6286705635967866,2.023666838759117,-0.9927452802658081,0.10558652132749557,0.0575186051428318,0.12584921717643738,0.49588248133659363,0.6373048424720764
3.4250991344451904,-0.1722751259803772,0.22678780555725098,-0.016576651483774185,-0.11617045985346684,-1.612830491390801,2.032602378862825,-0.9923825263977051,0.11590933799743652,0.04173855483531952,0.8246681094169617,0.9273526668548584,0.3350943624973297
3.4452929496765137,0.0033119916915893555,0.14360640943050385,0.021858572959899902,-0.12178539174202659,-1.5912046744479171,2.054237618297764,-0.9923868179321289,0.12148457020521164,0.020255787298083305,1.2657864093780518,0.8416810035705566,0.20071256160736084
3.4651448726654053,0.14221101999282837,0.06429359316825867,0.04935181140899658,-0.12636535245230857,-1.574759891398098,2.0822233789899607,-0.9920188784599304,0.12602931261062622,0.003931951243430376,1.5108628273010254,0.4335508346557617,0.2408105581998825
3.4852068424224854,0.15516966581344604,0.05496068298816681,0.10080063343048096,-0.13276114947358933,-1.5649763272590236,2.114414580881147,-0.9911835789680481,0.13237150013446808,-0.005768753122538328,1.6689845323562622,0.1263524740934372,0.3932161331176758
3.5050771236419678,0.0452457070350647,-0.005305811762809753,0.16791635751724243,-0.1399325902105813,-1.5569804315859532,2.14572086213012,-0.9901310801506042,0.13947635889053345,-0.013680418021976948,1.36080801486969,0.33784908056259155,0.346479207277298
3.527472972869873,0.05561476945877075,-0.1859365552663803,0.24278318881988525,-0.1468211689802729,-1.5413303457483094,2.167029732770406,-0.9888119101524353,0.1462942510843277,-0.02914474904537201,0.7196429967880249,0.9110077619552612,0.4382680058479309
3.5456910133361816,0.2293241024017334,-0.27231889963150024,0.2004111409187317,-0.15835589603007366,-1.5201359293176608,2.1775554072400873,-0.986221194267273,0.15769489109516144,-0.050005145370960236,0.33308249711990356,0.9692460298538208,0.7285049557685852
3.5644140243530273,0.3665631413459778,-0.13769105076789856,0.13996708393096924,-0.1736578238733524,-1.5018826979756594,2.187766177200593,-0.9826217293739319,0.17278631031513214,-0.06782342493534088,0.717311441898346,0.6398598551750183,0.8047956824302673
3.5819759368896484,0.3924601674079895,0.016082212328910828,0.10585898160934448,-0.18431572229143858,-1.4900957713800929,2.2122067949441244,-0.979862630367279,0.18327389657497406,-0.07924757152795792,1.652409553527832,0.091124527156353,0.3763939440250397
3.601496934890747,0.3489309549331665,0.01793968677520752,0.1445549726486206,-0.18324900142210362,-1.4840697693453644,2.2539327930218347,-0.9795615673065186,0.18222513794898987,-0.08516763895750046,2.3165366649627686,-0.17434930801391602,-0.06785392016172409
3.625082015991211,0.2796354293823242,-0.14418821036815643,0.2336609959602356,-0.17690888644878697,-1.478775185963405,2.2983137861451923,-0.980227530002594,0.17598755657672882,-0.09045712649822235,1.980368971824646,-0.06265269219875336,-0.14320223033428192
3.6455800533294678,0.23869967460632324,-0.2771632671356201,0.26962149143218994,-0.17285930291173515,-1.4710496487908666,2.3306275259803027,-0.9802006483078003,0.1719997376203537,-0.0980973094701767,1.1961629390716553,0.2918236255645752,0.09163637459278107
3.663640022277832,0.29261285066604614,-0.23314538598060608,0.2664366364479065,-0.17501652990275657,-1.4616278679114318,2.346045889962697,-0.9788618683815002,0.17412441968917847,-0.10728738456964493,0.3020267188549042,0.28168436884880066,0.2556600868701935
3.684504985809326,0.34415578842163086,-0.20155270397663116,0.2623934745788574,-0.1789156432877414,-1.4598817069894046,2.346328567664244,-0.9779908061027527,0.17796263098716736,-0.10892049223184586,-0.2621115446090698,-0.055684894323349,0.12734881043434143
3.7036550045013428,0.34409433603286743,-0.24917659163475037,0.27897101640701294,-0.18108820993585473,-1.4633422700241587,2.3375309705805676,-0.977975070476532,0.18010009825229645,-0.10549372434616089,-0.5194535851478577,-0.09573910385370255,0.011426107957959175
3.724321126937866,0.31268566846847534,-0.200489804148674,0.22291100025177002,-0.18217826101207216,-1.4658944653963473,2.3306806567021674,-0.9780452847480774,0.1811722218990326,-0.10297677665948868,-0.0745052769780159,-0.01639474369585514,0.04299061372876167
3.74357008934021,0.3058794140815735,-0.04203753173351288,0.1376156061887741,-0.1819249414815234,-1.465149229500223,2.337994494785857,-0.9780140519142151,0.18092308938503265,-0.10371048003435135,0.7846274375915527,-0.0942005068063736,-0.01088618766516447
3.764295816421509,0.3296181559562683,0.012915924191474915,0.17822907865047455,-0.17748282201942242,-1.46573916661398,2.356524891577002,-0.9788646101951599,0.17655250430107117,-0.1032167449593544,0.9332547187805176,-0.2756669521331787,-0.28933796286582947
3.784147024154663,0.3649013638496399,-0.15790638327598572,0.3005937337875366,-0.16814277107337405,-1.4688317611652826,2.368049711888938,-0.980776846408844,0.1673516035079956,-0.10035250335931778,0.20179831981658936,-0.17805714905261993,-0.42219600081443787
3.8039300441741943,0.4365431070327759,-0.3693166673183441,0.32724255323410034,-0.1660534716569095,-1.4708978282020433,2.362829278027954,-0.9813276529312134,0.16529139876365662,-0.0983605831861496,-0.5436475276947021,-0.013075113296508789,0.2200874388217926
3.8239729404449463,0.4624648690223694,-0.29105639457702637,0.2244740128517151,-0.1746641129602507,-1.4738949472965441,2.3512513895804106,-0.9801651835441589,0.17377737164497375,-0.09527775645256042,-0.5676687955856323,-0.04823976010084152,0.4572269320487976
3.8439249992370605,0.492103636264801,-0.07565121352672577,0.1284315586090088,-0.18277683092953925,-1.4787439198047039,2.346740416428047,-0.9791795611381531,0.18176084756851196,-0.09039129316806793,0.0934130847454071,-0.4919445812702179,0.20413392782211304
3.86257004737854,0.42503881454467773,-0.07986144721508026,0.13103514909744263,-0.1798436668647136,-1.4959189247211384,2.353681506468744,-0.9811150431632996,0.17887575924396515,-0.07360094785690308,0.5259894132614136,-1.329795479774475,-0.4419306218624115
3.883664846420288,0.2767142653465271,-0.21478426456451416,0.17231649160385132,-0.1680738739248406,-1.5220414926132344,2.364158652424287,-0.9847374558448792,0.16728366911411285,-0.04804878681898117,0.5573518872261047,-1.3158040046691895,-0.5461509823799133
3.9054110050201416,0.13218653202056885,-0.20046845078468323,0.1446278691291809,-0.16030641803630724,-1.5399652339198444,2.375491744967854,-0.9867094159126282,0.15962070226669312,-0.030430970713496208,0.6709607243537903,-0.6580771803855896,-0.19082950055599213
3.9239981174468994,0.15693330764770508,-0.0590076744556427,0.0529329776763916,-0.15708022589240825,-1.549011424973326,2.3920130643650364,-0.9874540567398071,0.1564350575208664,-0.02151499316096306,1.0339723825454712,-0.6834932565689087,-0.1583545207977295
3.943692922592163,0.06533253192901611,-0.0009949207305908203,0.019339799880981445,-0.15093568663168874,-1.5645230901436904,2.416873723076689,-0.9886115789413452,0.1503632515668869,-0.006201875861734152,1.3527408838272095,-1.2151466608047485,-0.4417210519313812
3.9639909267425537,-0.2002454400062561,-0.05318063497543335,0.1524256467819214,-0.14034131826580407,-1.5818402320940839,2.4406562771707585,-0.990108072757721,0.13988108932971954,0.010935104452073574,0.8906188011169434,-0.5601221323013306,-0.5037583708763123
3.983508825302124,-0.298720121383667,-0.1890133172273636,0.1950540542602539,-0.13584186798696918,-1.5790041193643845,2.454345518517996,-0.9907544255256653,0.13542446494102478,0.00813208892941475,0.4955800473690033,0.43971145153045654,0.03129449859261513
4.003485918045044,-0.07482659816741943,-0.14190572500228882,0.13613122701644897,-0.13896511592564006,-1.5694021576373283,2.461694259587819,-0.9903590083122253,0.138518288731575,-0.0013807289069518447,0.28428754210472107,0.27371084690093994,0.1828383356332779
4.022618055343628,-0.011458635330200195,-0.1407354325056076,0.13479071855545044,-0.14051070471113092,-1.569291692425353,2.4686522861721505,-0.9901437163352966,0.1400488018989563,-0.0014898054068908095,0.4081239700317383,-0.28930655121803284,-0.0067538064904510975
4.043917894363403,-0.1908852458000183,-0.20470604300498962,0.1176443099975586,-0.13968441866298215,-1.574865389502537,2.4763700908664554,-0.9902520775794983,0.1392306089401245,0.004029420204460621,0.3577747642993927,-0.3314315378665924,-0.08869551122188568
4.06353497505188,-0.31568461656570435,-0.2654266655445099,0.1260470151901245,-0.1375026394618346,-1.5789204154191325,2.483836218945334,-0.9905288815498352,0.13706976175308228,0.008047321811318398,0.3770748972892761,-0.1448732614517212,-0.11546009033918381
4.082701921463013,-0.27924925088882446,-0.2278621792793274,0.1414729356765747,-0.13554922985274026,-1.5799816487472276,2.491247578944073,-0.9907857179641724,0.1351345181465149,0.009100941941142082,0.37525269389152527,-0.0931277796626091,-0.0957581028342247
4.105126142501831,-0.29003143310546875,-0.1686514914035797,0.11551368236541748,-0.1325248000731585,-1.581675428299616,2.5001320903952493,-0.9911729097366333,0.1321372240781784,0.01078349631279707,0.552706241607666,-0.1511395126581192,-0.23622363805770874
4.122939825057983,-0.37368255853652954,-0.1324964463710785,0.12002265453338623,-0.12696265575052745,-1.5806752201205054,2.5144188162866237,-0.9919028878211975,0.12662182748317719,0.009799221530556679,0.7850136160850525,0.07772926986217499,-0.3067299723625183
4.143565893173218,-0.36990034580230713,-0.20536987483501434,0.20043540000915527,-0.12143966322021796,-1.5767033683386342,2.5265076157602704,-0.9926180839538574,0.12114139646291733,0.005863504484295845,0.33494022488594055,0.11998502165079117,-0.2405819594860077
4.163470029830933,-0.4062153697013855,-0.22408464550971985,0.1291182041168213,-0.11800457972643229,-1.5762376393008721,2.528474226895441,-0.9930309653282166,0.11773090064525604,0.005403445102274418,-0.08100129663944244,-0.11473631113767624,-0.10614386945962906
4.183037996292114,-0.4658145308494568,-0.1027546226978302,0.09323990345001221,-0.11661433315712082,-1.5795908329631703,2.527444460888554,-0.993169903755188,0.1163502112030983,0.00873466394841671,0.06321597844362259,-0.16051223874092102,-0.052634887397289276
4.203080892562866,-0.4809853434562683,-0.029946811497211456,0.07478046417236328,-0.11520821759015351,-1.5824429555205393,2.5310851690597485,-0.9933037161827087,0.11495352536439896,0.011569162830710411,0.26147323846817017,-0.17524343729019165,-0.11628370732069016
4.221923112869263,-0.4803353548049927,-0.15983068943023682,0.14798986911773682,-0.11302838850726298,-1.5832870244837955,2.5369210311801473,-0.9935418367385864,0.1127878800034523,0.01241067610681057,0.23014387488365173,0.021063415333628654,-0.07292330265045166
4.242902994155884,-0.5120322108268738,-0.20309677720069885,0.13516974449157715,-0.11208377838481423,-1.5808928856076123,2.5388649553700047,-0.9936748147010803,0.11184924840927124,0.010033037513494492,0.0028158854693174362,0.20840135216712952,-0.05627180263400078
4.262776136398315,-0.47474223375320435,-0.13760259747505188,0.05364406108856201,-0.11028392507977601,-1.5777414640029896,2.5381049604964585,-0.9939010143280029,0.11006050556898117,0.0069028898142278194,-0.07351643592119217,0.054669223725795746,-0.10959576815366745
4.2829859256744385,-0.45833122730255127,-0.09055783599615097,0.05959975719451904,-0.10773389903176092,-1.5790853951248847,2.535766351325031,-0.9941682815551758,0.10752561688423157,0.008240917697548866,-0.17775095999240875,-0.0905098021030426,-0.13495784997940063
4.30159592628479,-0.497000515460968,-0.09047158807516098,0.05032360553741455,-0.10479294802623673,-1.5817514385331721,2.5336131165159532,-0.9944546818733215,0.10460125654935837,0.010894798673689365,0.11852575093507767,-0.36700114607810974,-0.17913740873336792
4.322561979293823,-0.6063039302825928,-0.06276635080575943,0.22088897228240967,-0.10347829428119171,-1.5884672187036635,2.536267229397417,-0.9944957494735718,0.10329372435808182,0.017575455829501152,0.06274646520614624,0.12895295023918152,0.1912960410118103
4.340705156326294,-0.6117225289344788,-0.05655834078788757,0.13448238372802734,-0.10860582715221832,-1.584051854826685,2.5325258715205767,-0.9940209984779358,0.10839244723320007,0.013177044689655304,-0.4024561941623688,0.2665655016899109,0.3613172471523285
4.36247181892395,-0.5222484469413757,0.0794425904750824,-0.01734757423400879,-0.1224162903486484,-1.5798039547846183,2.519337930980975,-0.9924764633178711,0.1221107691526413,0.00894010066986084,-0.8720584511756897,0.27897894382476807,1.0988787412643433
4.382507085800171,-0.6757741570472717,0.23956742882728577,-0.14792394638061523,-0.1447880523522126,-1.5782496938483284,2.5016514247340726,-0.9895091652870178,0.14428269863128662,0.0073753115721046925,-0.7028782963752747,0.1176944375038147,0.9999485015869141
4.402847051620483,-0.7550786733627319,0.25345343351364136,0.027785181999206543,-0.15817024873599203,-1.5800378317152235,2.4978954090804373,-0.9874751567840576,0.15751156210899353,0.00912601687014103,0.32234472036361694,0.23640023171901703,0.7156903743743896
4.422204971313477,-0.6665588021278381,0.16823390126228333,0.17181700468063354,-0.18097317433612276,-1.5675823798392259,2.5050052961277283,-0.9836640954017639,0.17998693883419037,-0.003161455038934946,0.2508554756641388,0.74205082654953,1.4343010187149048
4.442210912704468,-0.6561111807823181,0.05147475004196167,0.0912771224975586,-0.2114655995727676,-1.5506169630222797,2.5051144979339366,-0.9775254130363464,0.20989307761192322,-0.019728519022464752,-0.2867608964443207,0.9734920263290405,1.6558119058609009
4.46221399307251,-0.6304492354393005,0.07917249202728271,0.021742407232522964,-0.24775628037014694,-1.5327466042659552,2.4964900717344936,-0.968763530254364,0.24522936344146729,-0.036878980696201324,-0.6333351731300354,0.989780604839325,1.9185264110565186
4.482035875320435,-0.5977249145507812,0.09533482789993286,0.007566571235656738,-0.2863391644558382,-1.5166422732195464,2.4843927334399876,-0.9578782320022583,0.2824423313140869,-0.051923759281635284,-0.6845784187316895,0.9489119648933411,1.8851473331451416
4.502195119857788,-0.4859462380409241,0.06299683451652527,0.04761213809251785,-0.3257281843401206,-1.5015139666010926,2.4720070464742334,-0.9451451301574707,0.31999877095222473,-0.06558685749769211,-0.7523741722106934,0.9700127243995667,2.008568048477173
4.521878957748413,-0.4412100315093994,0.03846421837806702,0.06687945127487183,-0.3681411900170424,-1.484582634629236,2.460226196035469,-0.9295328855514526,0.35988178849220276,-0.08033760637044907,-0.6598482728004456,1.145768165588379,2.1224935054779053
4.5418760776519775,-0.40195780992507935,0.1364840567111969,0.05971700698137283,-0.409785731242761,-1.4610335046113405,2.4541196594667847,-0.9116866588592529,0.3984127938747406,-0.10047312080860138,-0.28549814224243164,1.3727272748947144,1.9505858421325684
4.562027931213379,-0.2618377208709717,0.09162923693656921,0.025490209460258484,-0.44663209697186884,-1.4362532492954139,2.45357629138775,-0.8937563896179199,0.43193045258522034,-0.12097959965467453,-0.270696222782135,1.117274284362793,1.7311326265335083
4.581855058670044,-0.13809651136398315,-0.02045494318008423,0.046373724937438965,-0.4815381653285014,-1.4169775735674561,2.4517009723079117,-0.8758196234703064,0.4631429612636566,-0.13579010963439941,-0.4264982044696808,0.9457888603210449,1.7439677715301514
4.601737976074219,-0.037484169006347656,-0.04716619849205017,0.10334505140781403,-0.5169002065651166,-1.3996242880415022,2.4486823320290663,-0.8566503524780273,0.49418768286705017,-0.14808370172977448,-0.29343611001968384,0.9862940311431885,1.6832215785980225
4.621795892715454,0.05327606201171875,-0.013542771339416504,0.08585251867771149,-0.5491896082120169,-1.3742441434256087,2.4570268213680313,-0.8365249633789062,0.5219962000846863,-0.16657139360904694,0.42974597215652466,1.096144437789917,1.639435887336731
4.6407201290130615,0.15414124727249146,-0.03412860631942749,0.08555126190185547,-0.5765626478845802,-1.341520810164251,2.4789242324611287,-0.816403329372406,0.5451455116271973,-0.1905316263437271,0.6870203614234924,0.962901771068573,1.3884503841400146
4.661747932434082,0.27980417013168335,-0.20748430490493774,0.1111207902431488,-0.5971238929618958,-1.313490959137214,2.500631937296054,-0.7997320890426636,0.5622664093971252,-0.21044012904167175,0.5973220467567444,0.6329029202461243,1.1243098974227905
4.681595087051392,0.3806876540184021,-0.32920849323272705,0.1189122200012207,-0.6153635888685096,-1.2886755350134032,2.52355474722239,-0.7842826843261719,0.5772554278373718,-0.22732582688331604,0.777136504650116,0.5721918940544128,1.1306211948394775
4.700646162033081,0.4384734034538269,-0.33218294382095337,0.1769431233406067,-0.630033200194221,-1.2597018984447985,2.5529122000648483,-0.7692229747772217,0.5891715884208679,-0.24733185768127441,1.0839123725891113,0.6345687508583069,0.9437447786331177
4.719934940338135,0.5054658055305481,-0.33385348320007324,0.16448336839675903,-0.637863929734723,-1.226973857981475,2.585926121640218,-0.7563509345054626,0.595480740070343,-0.27080652117729187,1.1793638467788696,0.6325260996818542,0.6432743668556213
4.742537975311279,0.5988953113555908,-0.4258936643600464,0.1335805058479309,-0.6379008754039412,-1.1989024899765657,2.6179072712134346,-0.7484315037727356,0.5955104231834412,-0.29192084074020386,1.2093286514282227,0.2550923526287079,0.2886347770690918
4.761230945587158,0.672385036945343,-0.46960341930389404,0.0972922146320343,-0.6317903541409445,-1.1808451484059246,2.6474605484696228,-0.7463903427124023,0.5905904769897461,-0.3067648112773895,1.2925617694854736,-0.2109307497739792,0.014782914891839027
4.781397104263306,0.6603320240974426,-0.38097649812698364,0.08311709761619568,-0.6174704805711397,-1.168930722916151,2.6814178836125078,-0.7503893971443176,0.5789746046066284,-0.31891104578971863,1.8158304691314697,-0.5225161910057068,-0.21620507538318634
4.801203966140747,0.6137867569923401,-0.3697897791862488,0.1673811674118042,-0.5996143472729308,-1.1569974853130187,2.7201535849502494,-0.7558767199516296,0.564324140548706,-0.3319471478462219,1.6833841800689697,-0.4737662971019745,-0.16164536774158478
4.821223974227905,0.5374239683151245,-0.455146849155426,0.1862695813179016,-0.5829984778207178,-1.1508447158896524,2.7494240175575415,-0.7622776031494141,0.5505295991897583,-0.34036800265312195,1.3040000200271606,-0.4838576316833496,-0.33240726590156555
4.8410279750823975,0.44421082735061646,-0.31807082891464233,0.025855660438537598,-0.5660678372388434,-1.1514926127207716,2.771803459419623,-0.7709015607833862,0.5363174080848694,-0.3436198830604553,1.1885701417922974,-0.8256469368934631,-0.4404905140399933
4.8626320362091064,0.29885149002075195,-0.1435644030570984,-0.00559571385383606,-0.5449212924218562,-1.157769208854693,2.7951692548402973,-0.7832570672035217,0.5183507800102234,-0.343250572681427,1.5182276964187622,-0.9478269219398499,-0.7190683484077454
4.882243871688843,0.13462591171264648,-0.0729769766330719,-0.022915691137313843,-0.5159270919145823,-1.1629520651683645,2.821729664350522,-0.7984902262687683,0.49334147572517395,-0.34500420093536377,1.7427222728729248,-1.041854977607727,-1.0331214666366577
4.89994215965271,-0.03176504373550415,-0.06785920262336731,0.13727888464927673,-0.4847722115515926,-1.1695364326157958,2.840417350108745,-0.8145027160644531,0.4660068154335022,-0.3455764949321747,0.37305453419685364,-0.09856560081243515,-1.1343235969543457
4.921152830123901,-0.4015955328941345,-0.2710822522640228,-0.3709767162799835,-0.46202861268937806,-1.167673819545954,2.8418428341262643,-0.8233953714370728,0.4457649290561676,-0.3511606454849243,1.431541085243225,-0.3390437960624695,-0.7027711272239685
4.9410719871521,-0.1304023265838623,0.434771865606308,0.010666579008102417,-0.45449368212889896,-1.1623379477474274,2.8644898864140056,-0.824569046497345,0.4390074610710144,-0.35687315464019775,0.05701306462287903,-0.025388238951563835,0.28460749983787537
4.960958957672119,-0.3572906255722046,0.10317450761795044,-0.0959850549697876,-0.4401010461411714,-1.167946810656604,2.8638333700224745,-0.8322846293449402,0.42603087425231934,-0.3546832203865051,0.9528687596321106,-0.44437822699546814,-1.108888864517212
4.9805748462677,-0.16028839349746704,0.3366989195346832,0.04253411293029785,-0.42818871625751875,-1.1686167372395515,2.8748203583393077,-0.83713299036026,0.41522371768951416,-0.3560869097709656,0.4550122916698456,-0.0595724880695343,0.2735213041305542
4.9999589920043945,-0.36455410718917847,0.1664007008075714,-0.08492681384086609,-0.4266070837003001,-1.1659577208353036,2.8854189539322928,-0.8367857933044434,0.41378435492515564,-0.35856983065605164,0.4131603538990021,-0.06439662724733353,-0.12304843217134476
5.021344900131226,-0.340282678604126,0.22876888513565063,-0.12319347262382507,-0.41942218822491983,-1.1653210305685233,2.889957082807171,-0.8392676711082458,0.40723279118537903,-0.36026597023010254,0.3131347894668579,-0.038018014281988144,-0.23124369978904724
5.0427680015563965,-0.27959340810775757,0.08297422528266907,-0.14752021431922913,-0.4156796042396863,-1.1654029423050658,2.8936810595521902,-0.8406918048858643,0.4038117527961731,-0.3607957363128662,0.11501048505306244,-0.12224474549293518,0.002553253900259733
5.059920072555542,-0.309246301651001,0.07284069061279297,-0.13501137495040894,-0.4168659446592452,-1.1686118079258565,2.8920825015638467,-0.8414038419723511,0.4048967957496643,-0.3579084575176239,-0.32551848888397217,-0.0933326706290245,0.010588993318378925
5.079939126968384,-0.38476669788360596,0.07109430432319641,-0.19837123155593872,-0.42009655317927064,-1.17363114575423,2.8830963938312175,-0.8419790267944336,0.40784862637519836,-0.35317283868789673,-0.4520334005355835,-0.016136150807142258,0.0077498010359704494
5.09996485710144,-0.4517304301261902,0.10002902150154114,-0.2046198844909668,-0.42430751600101724,-1.1736632731332355,2.8769899321245207,-0.8403992056846619,0.411689817905426,-0.3524784445762634,-0.2228357344865799,0.276237815618515,0.15560057759284973
5.120573043823242,-0.41622042655944824,0.1285904347896576,-0.16332218050956726,-0.4271925593224628,-1.166877897089652,2.874610680066614,-0.8368923664093018,0.4143173098564148,-0.3577043414115906,-0.09938503056764603,0.47418898344039917,-0.002670467598363757
5.140422105789185,-0.3052690625190735,0.05617991089820862,-0.09597313404083252,-0.4275530234114656,-1.1580234055293654,2.8715067422735387,-0.8335555195808411,0.41464534401893616,-0.3650405704975128,-0.24856071174144745,0.5867784023284912,-0.011488021351397038
5.160055875778198,-0.22358238697052002,-0.007509946823120117,-0.07993939518928528,-0.432118374425403,-1.1489284999333005,2.863924189657873,-0.8284654021263123,0.4187954068183899,-0.37182748317718506,-0.526856541633606,0.5662057399749756,0.06011568754911423
5.180055856704712,-0.15315592288970947,-0.001307070255279541,-0.09823572635650635,-0.43488409104952375,-1.1431282641697842,2.854599951725785,-0.8252377510070801,0.4213052988052368,-0.376144677400589,-0.3154090344905853,0.4148247241973877,-0.0910559892654419
5.200047016143799,-0.08341127634048462,0.005419880151748657,-0.05077889561653137,-0.4358456685838539,-1.138403188271052,2.8496374647481155,-0.8230829238891602,0.42217716574668884,-0.37986981868743896,-0.15547315776348114,0.30090081691741943,-0.03446834161877632
5.219954967498779,-0.08193153142929077,-0.05887499451637268,-0.053661465644836426,-0.436378169676669,-1.1331441685742827,2.8474502983621695,-0.8208701014518738,0.42265981435775757,-0.3840978443622589,-0.07287095487117767,0.32597583532333374,0.03443589061498642
5.241798162460327,-0.0452803373336792,-0.06911692023277283,-0.03615337610244751,-0.4394145551104522,-1.1272691354188933,2.846125240354467,-0.8174363970756531,0.4254097044467926,-0.3883613049983978,-0.16427086293697357,0.31862664222717285,0.1650584638118744
5.259997129440308,-0.014328241348266602,-0.03516495227813721,-0.027316629886627197,-0.4432440511169057,-1.1217241044997301,2.8439560131310495,-0.813796877861023,0.428872287273407,-0.39217790961265564,-0.19222357869148254,0.34508517384529114,0.07691403478384018
5.279936075210571,0.004898667335510254,0.012095153331756592,0.018760859966278076,-0.44484534251293795,-1.1169842423150624,2.837341815235264,-0.8113105893135071,0.43031826615333557,-0.3957292139530182,-0.4032061994075775,0.4321557879447937,-0.22414417564868927
5.299936056137085,0.03645956516265869,-0.0884292721748352,0.006911933422088623,-0.4432394528030584,-1.1130216420502157,2.8247230509900647,-0.8103547692298889,0.4288681149482727,-0.3992457985877991,-0.5450629591941833,0.49286600947380066,-0.3471723794937134
5.319935083389282,0.07508409023284912,-0.13442397117614746,0.002505481243133545,-0.4435488224919838,-1.1075515986992162,2.8121134489258104,-0.808040201663971,0.4291475713253021,-0.40361326932907104,-0.4604411721229553,0.6283912658691406,-0.0948236957192421
5.339907884597778,0.08328700065612793,-0.05077159404754639,-0.034258514642715454,-0.4459956338705882,-1.097668404802938,2.8051879457009736,-0.8030745983123779,0.4313563406467438,-0.4110996723175049,-0.1830758899450302,0.6339477300643921,-0.042685359716415405
5.3599488735198975,0.08269882202148438,-0.052959591150283813,-0.04847437143325806,-0.4451060876237634,-1.0862602750690704,2.802747917492211,-0.7986718416213989,0.4305536448955536,-0.42041289806365967,-0.05813705548644066,0.6177929639816284,-0.09266360104084015
5.3799378871917725,0.10570752620697021,-0.04428580403327942,0.04337435960769653,-0.4460793665159636,-1.0759832566253231,2.7981637315633576,-0.7939400672912598,0.4314318895339966,-0.42839935421943665,-0.4097271263599396,0.6214702129364014,-0.060666780918836594
5.399909019470215,0.10132056474685669,0.02061295509338379,0.11259791254997253,-0.4478186783784662,-1.0691415122766565,2.7830732770059847,-0.790331244468689,0.4330003261566162,-0.43345963954925537,-0.8269729018211365,0.7433227300643921,-0.4731699228286743
5.419936895370483,0.11790621280670166,-0.02262762188911438,0.1099005937576294,-0.44642797175213567,-1.063764493289651,2.759021443065186,-0.7885148525238037,0.43174633383750916,-0.43799498677253723,-0.9953752756118774,0.833466649055481,-0.5732641220092773
5.439934968948364,0.1588817834854126,-0.04587945342063904,0.11493894457817078,-0.4502009335383787,-1.0576232990208634,2.7334835557433808,-0.7843853831291199,0.4351464509963989,-0.4420262277126312,-1.1570886373519897,0.869197428226471,-0.22081191837787628
5.4600019454956055,0.16603147983551025,-0.028664499521255493,0.08421456813812256,-0.45858672317165416,-1.0519913214463124,2.709506086735731,-0.7786872386932373,0.44268128275871277,-0.4446118474006653,-1.0933440923690796,0.7393642663955688,-0.15941236913204193
5.479942083358765,0.1762053370475769,0.003977745771408081,0.10514944791793823,-0.4652643251355942,-1.0484941881980625,2.6875034632007653,-0.774548351764679,0.4486590325832367,-0.44584760069847107,-0.9445056915283203,0.6125769019126892,-0.2319643199443817
5.499993085861206,0.18090033531188965,-0.033792853355407715,0.15223729610443115,-0.4708096424103046,-1.046225972476885,2.6673923098909196,-0.7713697552680969,0.453607976436615,-0.4463503658771515,-0.9238172769546509,0.5435230135917664,-0.16104896366596222
5.519973993301392,0.19852709770202637,-0.06344428658485413,0.17703285813331604,-0.478035152939187,-1.0446300030467914,2.6469409941486055,-0.7678020596504211,0.4600354731082916,-0.4459231197834015,-1.0095617771148682,0.5573471784591675,-0.15483660995960236
5.540019989013672,0.20736855268478394,-0.09849563241004944,0.18828165531158447,-0.48456169821689815,-1.0443778513563218,2.6240637422334174,-0.7650773525238037,0.4658205509185791,-0.4445987045764923,-1.0767942667007446,0.5319059491157532,-0.2927456796169281
5.560012102127075,0.21869707107543945,-0.1326589584350586,0.218561589717865,-0.4900519029379883,-1.046035648648057,2.598456245034104,-0.7635884881019592,0.470671683549881,-0.4420417845249176,-1.1722848415374756,0.508887767791748,-0.3504258990287781
5.5800440311431885,0.20440536737442017,-0.1351299285888672,0.22040802240371704,-0.4946914568213306,-1.0488376380480018,2.5713434766160717,-0.7629228830337524,0.47476011514663696,-0.4388069808483124,-1.0922462940216064,0.501713752746582,-0.4470091760158539
5.599938154220581,0.18177491426467896,-0.10984361171722412,0.20001181960105896,-0.4955209976584183,-1.0509734609150514,2.5465844629694927,-0.7635163068771362,0.4754900336265564,-0.4369807243347168,-0.8246393203735352,0.4599832594394684,-0.5654998421669006
5.6199281215667725,0.16930532455444336,-0.12738406658172607,0.22550910711288452,-0.49147594233933234,-1.0519780081877887,2.525836633289946,-0.7656190395355225,0.4719276428222656,-0.43716374039649963,-0.6040731072425842,0.44419780373573303,-0.6762599349021912
5.639961004257202,0.17904365062713623,-0.18846869468688965,0.2723832130432129,-0.4847767994781725,-1.0534896600695955,2.5048741086686355,-0.769009530544281,0.4660108983516693,-0.4375595450401306,-0.7338983416557312,0.41371187567710876,-0.7793293595314026
5.660002946853638,0.1773856282234192,-0.2631472945213318,0.29580235481262207,-0.4787870591031977,-1.0589829944611537,2.4772616191776677,-0.7738214135169983,0.46070295572280884,-0.43468785285949707,-1.1401878595352173,0.3369419276714325,-0.9153092503547668
5.679975986480713,0.13343358039855957,-0.2800809144973755,0.26895982027053833,-0.47481561504629205,-1.070822798718556,2.4397685475606665,-0.7805131673812866,0.45717447996139526,-0.42636945843696594,-1.5674421787261963,0.2022830992937088,-1.041059970855713
5.699931859970093,0.06093031167984009,-0.25516489148139954,0.2626056671142578,-0.47212566882295354,-1.0882519091440221,2.3942865084601164,-0.7889119982719421,0.4547804296016693,-0.41327089071273804,-1.895052194595337,0.16786226630210876,-1.0883677005767822
5.720037937164307,0.02424222230911255,-0.2785126566886902,0.30605292320251465,-0.47195638953183067,-1.1075914232647281,2.3411682616510903,-0.7968253493309021,0.45462965965270996,-0.3979718089103699,-2.3621504306793213,0.3272473216056824,-1.0851914882659912
5.73993992805481,0.023352622985839844,-0.34796321392059326,0.33118170499801636,-0.4756004487678987,-1.1293551854432153,2.2759709585029615,-0.8037939667701721,0.45787233114242554,-0.3798266351222992,-3.0387818813323975,0.4479731321334839,-1.130621314048767
5.759937047958374,0.013548195362091064,-0.35563087463378906,0.2980177402496338,-0.48193575608473915,-1.156942474425792,2.1973262976246666,-0.8112930059432983,0.46349531412124634,-0.3563367426395416,-3.551570415496826,0.4118901789188385,-1.1929376125335693
5.779936075210571,-0.014646708965301514,-0.30438581109046936,0.26235678791999817,-0.4877409232615155,-1.1896298114630284,2.1107611533862745,-0.8199937343597412,0.46863141655921936,-0.3286255896091461,-3.7017617225646973,0.33546850085258484,-1.2656073570251465
5.79997181892395,-0.09650653600692749,-0.2330244481563568,0.21823784708976746,-0.4879354828241887,-1.225248161429225,2.0229281726953188,-0.83109050989151,0.4688032865524292,-0.2991856336593628,-3.5478339195251465,0.2576230466365814,-1.4863920211791992
5.819935083389282,-0.1631874442100525,-0.1571650207042694,0.20451736450195312,-0.47987632261452334,-1.2584109362701006,1.9384936915045006,-0.8441216349601746,0.4616694748401642,-0.27261725068092346,-3.283804416656494,0.3656504452228546,-1.6863826513290405
5.8399341106414795,-0.17940926551818848,-0.12499058246612549,0.19600284099578857,-0.46504355411265585,-1.286701785928376,1.8590058860268182,-0.8579748868942261,0.44846174120903015,-0.2505224049091339,-3.0909249782562256,0.4030778110027313,-1.8011735677719116
5.85993504524231,-0.15774738788604736,-0.11464837193489075,0.1804845631122589,-0.4462363927121106,-1.3131936591084472,1.7827255382974463,-0.872312605381012,0.4315735399723053,-0.22981615364551544,-3.0369608402252197,0.2882678508758545,-1.8447881937026978
5.880040884017944,-0.16288691759109497,-0.08478260040283203,0.15498408675193787,-0.4252925549961572,-1.3408093537494978,1.7082881939034267,-0.8869332671165466,0.4125872850418091,-0.2076573520898819,-3.025097131729126,0.10284128040075302,-1.8231785297393799
5.900000810623169,-0.18938708305358887,-0.03389498591423035,0.149971142411232,-0.4025596181154366,-1.3682352132349391,1.6360368662818938,-0.9012501835823059,0.39177462458610535,-0.18509677052497864,-2.9430501461029053,0.08255340158939362,-1.817439079284668
5.919934034347534,-0.194036066532135,0.012692630290985107,0.15088659524917603,-0.3778244385036505,-1.3924623451677476,1.5680636879129437,-0.9147287011146545,0.36889922618865967,-0.16487881541252136,-2.766402244567871,0.08206267654895782,-1.7963508367538452
5.939934968948364,-0.19212424755096436,0.0528145432472229,0.16674549877643585,-0.35207342331766717,-1.4132294979655153,1.5052189851117015,-0.9270316362380981,0.344844788312912,-0.1472903937101364,-2.6086795330047607,0.11409739404916763,-1.7273768186569214
5.959956884384155,-0.21044063568115234,0.09954187273979187,0.19802553951740265,-0.32561523126176944,-1.4304184366573234,1.4430618684452605,-0.9381341934204102,0.3198917508125305,-0.1325652301311493,-2.7390315532684326,0.30665796995162964,-1.733222484588623
5.979936838150024,-0.21159273386001587,0.14257565140724182,0.18019181489944458,-0.2986418571414644,-1.4451040627636151,1.3803861482602433,-0.9481973648071289,0.2942224442958832,-0.11981269717216492,-2.64927077293396,0.3596910238265991,-1.5406630039215088
5.999933958053589,-0.17884814739227295,0.15240833163261414,0.18500715494155884,-0.2765012344319492,-1.4553457318724237,1.323172500631967,-0.9556123614311218,0.27299144864082336,-0.11081881821155548,-2.590972661972046,0.3154144585132599,-1.3597214221954346
6.019945859909058,-0.16158252954483032,0.19645008444786072,0.15452134609222412,-0.2548154237842133,-1.4631187923572635,1.2682463438631955,-0.9621053338050842,0.25206679105758667,-0.10399937629699707,-2.405400276184082,0.33798012137413025,-1.3981586694717407
6.039933919906616,-0.16268354654312134,0.29603835940361023,0.11754441261291504,-0.2303619861687413,-1.4705359244055398,1.2180184200192492,-0.9686947464942932,0.22832995653152466,-0.09744846820831299,-2.175438404083252,0.14987802505493164,-1.5158369541168213
6.059937000274658,-0.13939285278320312,0.33890092372894287,0.0946156457066536,-0.20351674107851087,-1.478073896466615,1.1746709686390333,-0.9751549363136292,0.20211473107337952,-0.09067875146865845,-1.8183101415634155,0.04495454579591751,-1.5601787567138672
6.079936981201172,-0.10291683673858643,0.3490126132965088,0.10579860955476761,-0.17496527583417762,-1.4848523047088442,1.137160236477269,-0.9810981154441833,0.1740739494562149,-0.08452773839235306,-1.6344889402389526,0.006109233479946852,-1.5855153799057007
6.099938154220581,-0.06419223546981812,0.3768053948879242,0.09835845232009888,-0.14679253981391513,-1.4896968662355337,1.1022795280973887,-0.9859940409660339,0.1462659239768982,-0.08013936132192612,-1.5960168838500977,0.07678224891424179,-1.483499526977539
6.1199610233306885,-0.014239370822906494,0.41780853271484375,0.07696158438920975,-0.1199698770946127,-1.4919511238285994,1.068011479598284,-0.9897279143333435,0.11968230456113815,-0.0781974047422409,-1.5924053192138672,0.12805786728858948,-1.4464813470840454
6.139940977096558,0.03894072771072388,0.4528611898422241,0.04798739403486252,-0.09361646589810035,-1.4934630254871837,1.0341663607906415,-0.992645800113678,0.09347978234291077,-0.07691796869039536,-1.5538843870162964,0.08949289470911026,-1.3911364078521729
6.159934043884277,0.08636176586151123,0.48037415742874146,-0.012913942337036133,-0.06936407356731693,-1.4942182017641694,1.0022124144968787,-0.9946718215942383,0.06930846720933914,-0.07631934434175491,-1.426151156425476,0.07576092332601547,-1.2658696174621582
6.179934978485107,0.14012080430984497,0.537230372428894,-0.07963430881500244,-0.04620589360986635,-1.4949733229862252,0.9745789161480239,-0.996062695980072,0.046189453452825546,-0.0756695345044136,-1.1177504062652588,-0.021300464868545532,-1.2721610069274902
6.199934005737305,0.1896423101425171,0.6146606802940369,-0.13089478015899658,-0.021357792780269044,-1.4983949513703108,0.9548378289860666,-0.9971528053283691,0.021356169134378433,-0.07232164591550827,-0.6613851189613342,-0.27879083156585693,-1.349040150642395
6.219944000244141,0.19569408893585205,0.6402674317359924,-0.13791435956954956,0.004220054512249985,-1.506028233058153,0.9416816394067683,-0.9978946447372437,-0.004220041912049055,-0.06472226232290268,-0.5357419848442078,-0.43061500787734985,-1.2804453372955322
6.2399351596832275,0.15256845951080322,0.6470868587493896,-0.1411120891571045,0.02764456793808324,-1.51437783727409,0.9285216198650793,-0.9980275630950928,-0.027641046792268753,-0.05636702477931976,-0.6605628132820129,-0.4116823971271515,-1.1387079954147339
6.259933948516846,0.10190075635910034,0.7097645401954651,-0.163798987865448,0.047856565484513315,-1.5201910140900194,0.9134153719155815,-0.9975766539573669,-0.047838300466537476,-0.050525814294815063,-0.7391394972801208,-0.2256353199481964,-0.975129246711731
6.279963970184326,0.10333865880966187,0.7492715120315552,-0.1446772813796997,0.06378318263759042,-1.5215365364526654,0.8964287238788016,-0.9967562556266785,-0.06373994052410126,-0.049139756709337234,-0.8944858908653259,-0.0048402645625174046,-0.6689574718475342
6.299934148788452,0.12020641565322876,0.750625491142273,-0.14690124988555908,0.07167070601866297,-1.5198214466334226,0.8773678223608641,-0.9961373209953308,-0.07160936295986176,-0.05082200840115547,-0.9282271265983582,0.016156984493136406,-0.20635764300823212
6.3199379444122314,0.11225605010986328,0.7964340448379517,-0.12981969118118286,0.06980618457689948,-1.5178606572819904,0.8594217456723657,-0.9961674213409424,-0.06974950432777405,-0.052782099694013596,-0.877264142036438,0.05054452270269394,0.27810490131378174
6.339933156967163,0.08223134279251099,0.8085761666297913,-0.1318565011024475,0.060184180240150924,-1.5159876219169552,0.8440850903522944,-0.9966906905174255,-0.060147855430841446,-0.05468209087848663,-0.6646037101745605,0.014267029240727425,0.5648739337921143
6.359931945800781,0.06824123859405518,0.7907060980796814,-0.14544105529785156,0.04546724105479585,-1.5166311717340708,0.8363155912690977,-0.99750155210495,-0.0454515777528286,-0.054082728922367096,-0.1547112762928009,-0.1480143815279007,0.8750633597373962
6.379935026168823,0.03448450565338135,0.782783031463623,-0.140164315700531,0.025873664824624765,-1.5216545021601688,0.8405079641641738,-0.9984586238861084,-0.025870777666568756,-0.04910561442375183,0.45944809913635254,-0.3237149119377136,1.065748929977417
6.400028944015503,-0.026140213012695312,0.7248458862304688,-0.14302146434783936,0.004478499705064093,-1.5289145070267984,0.8551901089512645,-0.9991133213043213,-0.004478484857827425,-0.04186916723847389,0.8547946810722351,-0.37020403146743774,1.1377837657928467
6.419936895370483,-0.07284784317016602,0.6238512992858887,-0.13288044929504395,-0.018498966931105,-1.5358781909540327,0.8739479401360835,-0.9992197155952454,0.01849791221320629,-0.034905076026916504,0.9088482856750488,-0.35033082962036133,1.2271347045898438
6.439953088760376,-0.14882826805114746,0.5601661205291748,-0.14246559143066406,-0.043561619586848774,-1.542378629615136,0.8927629280241295,-0.9986480474472046,0.043547842651605606,-0.0283869206905365,0.9325447082519531,-0.3737535774707794,1.3306043148040771
6.459964036941528,-0.2750359773635864,0.6014939546585083,-0.19622504711151123,-0.07016391992499392,-1.5483210990432266,0.9158892043009639,-0.9972876906394958,0.07010636478662491,-0.02241804264485836,1.3875811100006104,-0.33139896392822266,1.3592513799667358
6.479974031448364,-0.31798112392425537,0.6150106191635132,-0.16867685317993164,-0.09619728004619404,-1.5492015337709917,0.9505598471240537,-0.9951446652412415,0.0960489809513092,-0.02149328403174877,1.9842102527618408,-0.03792142868041992,1.312637209892273
6.499936819076538,-0.2258651852607727,0.5041385293006897,-0.11061441898345947,-0.12294098027348847,-1.5421680659325236,0.9940192941499103,-0.9920455813407898,0.1226315125823021,-0.02840830199420452,2.2390739917755127,0.22352410852909088,1.4864870309829712
6.519934892654419,-0.11162763833999634,0.3769869804382324,-0.10386437177658081,-0.1554066230766141,-1.5296373506647594,1.0416988072955036,-0.9871119856834412,0.15478183329105377,-0.04065147787332535,2.377551555633545,0.29706481099128723,1.868688702583313
6.540028810501099,-0.07163965702056885,0.30252963304519653,-0.09206695109605789,-0.19540033383164368,-1.5150612189514736,1.0941878127177407,-0.9794470071792603,0.19415926933288574,-0.05464617908000946,2.6184709072113037,0.11643832176923752,2.18843674659729
6.5599400997161865,-0.15001100301742554,0.2339506298303604,-0.04203682392835617,-0.23833100439487775,-1.5004207543779633,1.1533203186249823,-0.9693280458450317,0.23608113825321198,-0.06832986325025558,2.8775947093963623,0.020506106317043304,2.291536808013916
6.579936981201172,-0.3037598133087158,0.15643039345741272,0.06779797375202179,-0.2789511968789079,-1.4813443950200376,1.218080108541589,-0.9575011134147644,0.2753475308418274,-0.08587950468063354,3.032778739929199,0.25546368956565857,2.2080962657928467
6.599944829940796,-0.42888420820236206,0.06127434968948364,0.16962838172912598,-0.3154043239741788,-1.452213910003555,1.2858856774571927,-0.9439948797225952,0.31020087003707886,-0.11246886104345322,3.003265380859375,0.6679805517196655,2.0730912685394287
6.6199328899383545,-0.47375375032424927,-0.03901028633117676,0.2607550024986267,-0.3480909245000144,-1.4141340237830755,1.3504437913610128,-0.9285138249397278,0.34110385179519653,-0.14666494727134705,2.555095911026001,1.0157980918884277,2.015026807785034
6.640002012252808,-0.4089319705963135,-0.16456127166748047,0.3405631184577942,-0.38016512153468396,-1.3716559145381948,1.4044366210575954,-0.9102516174316406,0.37107381224632263,-0.18370269238948822,1.8191999197006226,1.2917039394378662,2.0630362033843994
6.659934997558594,-0.2990267872810364,-0.23298504948616028,0.3613319993019104,-0.4155412305489343,-1.329939520224076,1.4438248534470028,-0.8884885311126709,0.40368515253067017,-0.21823500096797943,1.0008140802383423,1.3170151710510254,2.178791046142578
6.679951906204224,-0.22023135423660278,-0.2140989601612091,0.3297172486782074,-0.4542628162279604,-1.2926890046275683,1.4730367119994174,-0.8640584349632263,0.43880000710487366,-0.24669408798217773,0.6516145467758179,1.165654182434082,2.228512763977051
6.699995040893555,-0.16473931074142456,-0.1759084165096283,0.33198311924934387,-0.49237759114107543,-1.2584977117740623,1.5012866827126987,-0.8385871052742004,0.4727223813533783,-0.27074944972991943,0.6920656561851501,0.962435781955719,2.1344423294067383
6.719933986663818,-0.12921679019927979,-0.1997193694114685,0.34776607155799866,-0.5255700281839378,-1.2249633514100344,1.5340825258944515,-0.8138223886489868,0.5017061829566956,-0.2932310998439789,0.9701782464981079,0.806585431098938,1.9375606775283813
6.739938020706177,-0.10483360290527344,-0.25578826665878296,0.37722983956336975,-0.5526781974458965,-1.1888937820760348,1.573557791001071,-0.7898045182228088,0.5249685645103455,-0.3172016441822052,1.1891785860061646,0.7718420028686523,1.813480257987976
6.7599709033966064,-0.10682547092437744,-0.29789048433303833,0.4199116826057434,-0.5748872505991148,-1.1517328576075114,1.6155302571265806,-0.7666334509849548,0.5437401533126831,-0.34149664640426636,1.189847707748413,0.7067335844039917,1.605629563331604
6.779974937438965,-0.11899125576019287,-0.32377737760543823,0.44661909341812134,-0.5923046073418845,-1.11714677968875,1.654063047513841,-0.7457396984100342,0.558274507522583,-0.36359596252441406,0.9978028535842896,0.6132400631904602,1.3284662961959839
6.799934148788452,-0.13764232397079468,-0.3629174828529358,0.4510226845741272,-0.6047361093361909,-1.0868994832239733,1.6877058454235316,-0.7282024621963501,0.5685449838638306,-0.38272425532341003,0.9061141610145569,0.5262218117713928,1.0452489852905273
6.819942951202393,-0.14131349325180054,-0.39444929361343384,0.49416840076446533,-0.6136569933361111,-1.0606923486278195,1.7147410435824153,-0.7134686708450317,0.5758610963821411,-0.3991823196411133,0.5988280177116394,0.5744271874427795,0.7905282974243164
6.8399341106414795,-0.1208457350730896,-0.43601036071777344,0.545019805431366,-0.620800044058269,-1.0371287334934753,1.7329343249904035,-0.7003060579299927,0.5816861391067505,-0.4137788712978363,0.3434934914112091,0.7550705671310425,0.5851060748100281
6.859969854354858,-0.0800362229347229,-0.44033920764923096,0.5220168828964233,-0.6282804268839052,-1.0137596023361082,1.7453632078177679,-0.6867333054542542,0.5877544283866882,-0.42771750688552856,0.14614532887935638,0.8023647665977478,0.5637785196304321
6.879941940307617,-0.05660736560821533,-0.4064937233924866,0.4826078414916992,-0.6364506086174718,-0.9948122656713658,1.753886905730578,-0.6744565963745117,0.5943447351455688,-0.43802157044410706,0.023433838039636612,0.5594174265861511,0.4537855088710785
6.899883031845093,-0.07610034942626953,-0.37258321046829224,0.4634542763233185,-0.6417097113053123,-0.9850209208345603,1.7581332508859153,-0.6675215363502502,0.598565936088562,-0.4428700804710388,-0.0334201343357563,0.14703501760959625,0.15249334275722504
6.919934988021851,-0.15576010942459106,-0.3453574776649475,0.4538109302520752,-0.6422381640223629,-0.986701350255686,1.7563126282765207,-0.6680009365081787,0.5989891886711121,-0.44157329201698303,-0.11234302073717117,-0.17813685536384583,-0.1846524327993393
6.939934968948364,-0.2551000714302063,-0.3252824544906616,0.44895827770233154,-0.6388194805658028,-0.9958979604421787,1.748359618718812,-0.673748254776001,0.5962481498718262,-0.43652230501174927,-0.25441882014274597,-0.21059554815292358,-0.4320168197154999
6.959959983825684,-0.2689282298088074,-0.3190029263496399,0.4202623665332794,-0.6340279797896343,-1.0070758405755769,1.7337455548551248,-0.6809924244880676,0.5923947095870972,-0.43048566579818726,-0.4764130115509033,-0.05561094358563423,-0.6074170470237732
6.979932069778442,-0.17635232210159302,-0.30123937129974365,0.3614242672920227,-0.6277515811217105,-1.021169168693539,1.7132756980694541,-0.690148651599884,0.5873264670372009,-0.42277976870536804,-0.5702462792396545,-0.1966990828514099,-0.7968032956123352
6.9999330043792725,-0.10941129922866821,-0.2627164125442505,0.2966379225254059,-0.6181201155541478,-1.0416206489407738,1.691659332361029,-0.7035007476806641,0.579504132270813,-0.41141441464424133,-0.4214574694633484,-0.615950882434845,-0.932120680809021
7.019996881484985,-0.17952674627304077,-0.22979497909545898,0.28551995754241943,-0.6038772528459483,-1.0697173713192507,1.672211251940204,-0.7219473719596863,0.5678382515907288,-0.39541366696357727,-0.30233898758888245,-1.0437450408935547,-1.117785930633545
7.039932012557983,-0.3537716269493103,-0.2307419776916504,0.3616430163383484,-0.5856951363626547,-1.104978415225575,1.6488775001671465,-0.7445408701896667,0.5527787804603577,-0.3742924630641937,-0.674472451210022,-1.0976046323776245,-1.4058150053024292
7.059973955154419,-0.4727371335029602,-0.27597296237945557,0.4376356303691864,-0.5676245930251321,-1.144215008821776,1.6094828902622522,-0.7676193714141846,0.5376306772232056,-0.34887510538101196,-1.5559678077697754,-0.619766116142273,-1.6231220960617065
7.079932928085327,-0.3510899543762207,-0.3154646158218384,0.35446450114250183,-0.5537353982140897,-1.1823582274157207,1.553053916596504,-0.7872005105018616,0.5258681178092957,-0.3221462666988373,-2.238306760787964,-0.2742590308189392,-1.5088661909103394
7.099992036819458,-0.09994512796401978,-0.21241676807403564,0.20369157195091248,-0.5434286992608253,-1.2218343552193023,1.4896760211274545,-0.8043517470359802,0.5170738101005554,-0.2926654815673828,-2.3279802799224854,-0.4420524835586548,-1.460559606552124
7.119933843612671,0.02335876226425171,-0.06515276432037354,0.045804888010025024,-0.5265235689356917,-1.265919892806171,1.4316384295092175,-0.8246895670890808,0.5025308132171631,-0.25951942801475525,-1.7762318849563599,-1.0796047449111938,-1.800011396408081
7.139932870864868,-0.020341336727142334,0.02434644103050232,0.0036245882511138916,-0.4957417181453572,-1.3168634822172347,1.3886719371039558,-0.8514087796211243,0.47568419575691223,-0.2209707349538803,-1.0216108560562134,-1.8453073501586914,-2.178051233291626
7.15991997718811,-0.2384781837463379,0.024828702211380005,0.05868500471115112,-0.45519072394162907,-1.3690502991369748,1.3579252033054474,-0.8799606561660767,0.43963363766670227,-0.17997698485851288,-0.8275158405303955,-1.8271763324737549,-2.3679428100585938
7.179983854293823,-0.451132595539093,-0.008350104093551636,0.12043426930904388,-0.4122968119899226,-1.4117641694728111,1.3281177650585059,-0.9046415686607361,0.4007147252559662,-0.14509235322475433,-1.1112064123153687,-1.1534065008163452,-2.2964375019073486
7.199952840805054,-0.4634632468223572,0.01977822184562683,0.07972724735736847,-0.374209394636065,-1.4431564754844808,1.2931446633753627,-0.9232249855995178,0.36553674936294556,-0.11848444491624832,-1.56973397731781,-0.7360444068908691,-1.926605224609375
7.219941854476929,-0.3498702049255371,0.1374092996120453,0.000916607677936554,-0.34202931756867155,-1.4716857304711854,1.251172748073681,-0.9374527931213379,0.3353995382785797,-0.0932169258594513,-1.931952953338623,-0.667760968208313,-1.7847226858139038
7.239964962005615,-0.25130945444107056,0.24367225170135498,-0.08277761191129684,-0.30950930965405565,-1.4994615662687087,1.2063447626219572,-0.9500607848167419,0.3045912981033325,-0.0678875520825386,-2.007120132446289,-0.6786466240882874,-1.8117105960845947
7.259932994842529,-0.15039587020874023,0.3023108243942261,-0.14444595575332642,-0.2762156085065122,-1.5260311657227421,1.1626179629883413,-0.9611307382583618,0.2727166712284088,-0.04305393248796463,-1.9538816213607788,-0.7096637487411499,-1.7406724691390991
7.279932975769043,-0.059747934341430664,0.32904815673828125,-0.19646048545837402,-0.2440302093800103,-1.5514103824085963,1.1226529327628587,-0.9701900482177734,0.2416153848171234,-0.01881040632724762,-1.7348519563674927,-0.7742453217506409,-1.5715326070785522
7.29993200302124,0.02445399761199951,0.3617427945137024,-0.21619319915771484,-0.21531062152414573,-1.573052439466521,1.0928286379054848,-0.9769076704978943,0.2136508822441101,0.0022040174808353186,-1.2410482168197632,-0.7100468873977661,-1.3416225910186768
7.3199310302734375,0.09942001104354858,0.3765468895435333,-0.20598387718200684,-0.18882804117939295,-1.5920243243230776,1.0706283816267532,-0.9820037484169006,0.18770790100097656,0.020849104970693588,-0.9732531905174255,-0.7261584401130676,-1.297302007675171
7.339931964874268,0.15024518966674805,0.37590014934539795,-0.2214888334274292,-0.16271983237318355,-1.6096570415912959,1.0545231530655272,-0.9860455989837646,0.16200271248817444,0.03833773732185364,-0.7003516554832458,-0.7477423548698425,-1.2423286437988281
7.360016107559204,0.16218549013137817,0.38570985198020935,-0.23138713836669922,-0.13839795038961794,-1.6269687045636043,1.0438590661796703,-0.9888762831687927,0.13795655965805054,0.05560602992773056,-0.4900866150856018,-0.8174015283584595,-1.1454750299453735
7.379932165145874,0.13115429878234863,0.4010845720767975,-0.2506246566772461,-0.11532999570109788,-1.644409649311353,1.0365973410879321,-0.9906666278839111,0.11507450044155121,0.07305827736854553,-0.38060256838798523,-0.8248462677001953,-1.1197912693023682
7.399930953979492,0.08232170343399048,0.42736685276031494,-0.27221906185150146,-0.09284705806685799,-1.6603846836647242,1.032251567797125,-0.9916998744010925,0.09271371364593506,0.0890832245349884,-0.255226194858551,-0.6930243968963623,-1.0706247091293335
7.419934034347534,0.07387399673461914,0.45284149050712585,-0.2807852029800415,-0.07197040224362874,-1.6722232477934704,1.0289374111573104,-0.9922854900360107,0.07190828770399094,0.10099101066589355,-0.2987115681171417,-0.4654797911643982,-0.9827659130096436
7.439978837966919,0.094998300075531,0.4684864282608032,-0.3149017095565796,-0.052594949940893136,-1.6802417164878263,1.0236181472726888,-0.9926424622535706,0.052570704370737076,0.10907600820064545,-0.4477050304412842,-0.3201542794704437,-0.8771569132804871
7.460062026977539,0.11387968063354492,0.5034884214401245,-0.3444935083389282,-0.03591750440265066,-1.6860506803084294,1.015043788796285,-0.992725133895874,0.035909783095121384,0.11492522060871124,-0.5960684418678284,-0.224946528673172,-0.681515634059906
7.48003888130188,0.12519174814224243,0.5262077450752258,-0.3397306203842163,-0.022988656438902258,-1.6895083153509018,1.0028190627807176,-0.9926996827125549,0.022986631840467453,0.11840207129716873,-0.7728742361068726,-0.08766280114650726,-0.4563555419445038
7.499920129776001,0.1273900866508484,0.5409802794456482,-0.337770938873291,-0.014638520937849986,-1.6906817105908551,0.986878806401967,-0.9927162528038025,0.014637998305261135,0.11958563327789307,-0.8950705528259277,-0.020123347640037537,-0.17814555764198303
7.519913911819458,0.09096318483352661,0.5665999054908752,-0.34809935092926025,-0.011983156779004777,-1.6911367623068507,0.969954907352309,-0.9926968216896057,0.011982870288193226,0.12004160135984421,-0.758385419845581,0.0005692369886673987,0.11973123997449875
7.539888143539429,0.007045745849609375,0.6178836226463318,-0.37863874435424805,-0.01610446292577239,-1.6907353755243903,0.9581411244380821,-0.9926872849464417,0.01610376685857773,0.11963619291782379,-0.34469959139823914,0.04755689576268196,0.41941121220588684
7.5598838329315186,-0.057995736598968506,0.6580927968025208,-0.3610113859176636,-0.02591582464900511,-1.6893424036235745,0.9544722344663371,-0.9926482439041138,0.025912923738360405,0.11822890490293503,0.060678716748952866,0.11015422642230988,0.5711846947669983
7.579931020736694,-0.07486414909362793,0.6086125373840332,-0.30917513370513916,-0.03840006923528217,-1.6862515204768935,0.9561240198976118,-0.9926102757453918,0.0383906327188015,0.11511395126581192,0.200251042842865,0.17651888728141785,0.6711783409118652
7.599871873855591,-0.10674989223480225,0.501955509185791,-0.2377835512161255,-0.054788828328685264,-1.6836987951839526,0.9574588706666064,-0.9921424388885498,0.05476142093539238,0.11249372363090515,0.10899802297353745,0.04863254725933075,0.9824599623680115
7.619956970214844,-0.31691300868988037,0.458979994058609,-0.24576807022094727,-0.07865296437567504,-1.6824207062568868,0.9565695447255507,-0.9907042384147644,0.07857189327478409,0.11104834824800491,0.08741164207458496,0.18119893968105316,1.3788758516311646
7.639955043792725,-0.4883950352668762,0.4039938449859619,-0.19922399520874023,-0.10779624171492949,-1.673459746951531,0.9539713889164835,-0.9889610409736633,0.10758759826421738,0.10188833624124527,-0.0723811537027359,0.727655827999115,1.487708330154419
7.659907102584839,-0.41920554637908936,0.22573259472846985,-0.15166771411895752,-0.1371851114290476,-1.655241752995156,0.9467697406374135,-0.9870750904083252,0.13675521314144135,0.08355267345905304,-0.3911011219024658,1.1589208841323853,1.5214289426803589
7.679886102676392,-0.17628860473632812,0.031096920371055603,-0.07041370868682861,-0.170069671020576,-1.630416919900747,0.9321105124968934,-0.9838219881057739,0.16925100982189178,0.05872565135359764,-0.8702064752578735,1.4291768074035645,1.795182228088379
7.699951887130737,-0.010962843894958496,-0.11463657021522522,-0.020960450172424316,-0.20845875026364313,-1.606421070380832,0.9083230556841063,-0.9777305126190186,0.2069522589445114,0.034846141934394836,-1.238044261932373,1.3206126689910889,2.0823581218719482
7.719902992248535,-0.026473939418792725,-0.1523105800151825,-0.03484642505645752,-0.25190540692059027,-1.5882187843998856,0.881874236518853,-0.9682923555374146,0.2492496818304062,0.01687173917889595,-1.15981924533844,1.0702730417251587,2.2407968044281006
7.739897012710571,-0.22458529472351074,-0.04997241497039795,-0.10760629177093506,-0.29637288001946355,-1.5732866621762325,0.8635278064600241,-0.9563993215560913,0.2920531630516052,0.0023817599285393953,-0.4931684136390686,0.907478928565979,2.1480305194854736
7.759929895401001,-0.431022584438324,0.08047068119049072,-0.1046862006187439,-0.3360028452127006,-1.5549841500932957,0.8631152575256313,-0.9439622163772583,0.32971611618995667,-0.014927341602742672,0.4286283552646637,0.9508647322654724,1.775525450706482
7.780113935470581,-0.5012703537940979,0.053958505392074585,-0.008166249841451645,-0.3680359339679951,-1.5288884634511302,0.8812775097095278,-0.9322166442871094,0.3597835898399353,-0.03909009322524071,1.0782169103622437,1.028007984161377,1.5743290185928345
7.799937009811401,-0.47482192516326904,-0.07275697588920593,0.1471208930015564,-0.4011480225622686,-1.4974425959223274,0.9065542858103326,-0.9181376695632935,0.39047548174858093,-0.06746987998485565,1.000663161277771,1.2018492221832275,1.92671799659729
7.819967031478882,-0.47032028436660767,-0.21064147353172302,0.19073134660720825,-0.44309250414991597,-1.4613723891861912,0.9298169390159332,-0.8980269432067871,0.4287353754043579,-0.09865973144769669,0.7407167553901672,1.4352643489837646,2.4608712196350098
7.839933156967163,-0.43317747116088867,-0.2721829116344452,0.15811826288700104,-0.4952099676968968,-1.421807144260503,0.9526413345458663,-0.8701215386390686,0.47521641850471497,-0.1306065171957016,0.6318235397338867,1.4918397665023804,2.9664628505706787
7.859939813613892,-0.37354928255081177,-0.25697261095046997,0.12394446134567261,-0.5546625873322589,-1.3792725928421932,0.978582174994441,-0.8345349431037903,0.5266565084457397,-0.16181665658950806,0.5861490368843079,1.4553924798965454,3.2347288131713867
7.879948854446411,-0.34998583793640137,-0.20113348960876465,0.08967103064060211,-0.6138596113388278,-1.3328968693160184,1.0110199320441486,-0.7944081425666809,0.5760267376899719,-0.19263723492622375,0.8900821805000305,1.3965990543365479,3.1053526401519775
7.899964094161987,-0.3518022298812866,-0.13341856002807617,0.086600661277771,-0.664866960213323,-1.2774366505501225,1.0593579497743955,-0.7533767223358154,0.6169544458389282,-0.22757650911808014,1.5395702123641968,1.263960361480713,2.835400342941284
7.919991970062256,-0.3692549467086792,-0.1851797103881836,0.16274148225784302,-0.7038865145462551,-1.2097114908343478,1.1259992282199682,-0.7131731510162354,0.6471853852272034,-0.26932406425476074,2.023559331893921,1.3466846942901611,2.5480759143829346
7.939931154251099,-0.3724285364151001,-0.32249128818511963,0.2802692949771881,-0.7342842439872699,-1.1320094443643594,1.1990190240380831,-0.6719897985458374,0.6700559854507446,-0.31536442041397095,1.7455620765686035,1.6403475999832153,2.4115540981292725
7.960025072097778,-0.34492528438568115,-0.40771377086639404,0.3369130492210388,-0.7630099868872964,-1.0529763654851243,1.2627463561006604,-0.6280056834220886,0.6911000609397888,-0.35775646567344666,1.0920474529266357,1.927548885345459,2.295471668243408
7.979933023452759,-0.30125731229782104,-0.37840986251831055,0.3165954351425171,-0.7917306659186288,-0.9749600206311606,1.316737923424968,-0.5815399885177612,0.7115703225135803,-0.3943083584308624,0.7838130593299866,2.066823720932007,2.178163528442383
7.9999330043792725,-0.27778202295303345,-0.24113774299621582,0.24423539638519287,-0.81422132877721,-0.8914766936820816,1.3753920121228613,-0.5340466499328613,0.7271913290023804,-0.4312622547149658,1.2701921463012695,2.042985200881958,2.0714516639709473
8.019958019256592,-0.26338860392570496,-0.07368683815002441,0.2310246229171753,-0.8216739136729602,-0.8003575432411055,1.448272297883458,-0.4886866509914398,0.732286810874939,-0.4742801785469055,1.932386875152588,1.7284834384918213,1.7507034540176392
8.039931058883667,-0.26487085223197937,-0.06624865531921387,0.29102665185928345,-0.8122332834723797,-0.7145780824250878,1.5222510606940234,-0.4507664740085602,0.7258251905441284,-0.5196032524108887,2.1370043754577637,1.4958016872406006,1.3028268814086914
8.059932947158813,-0.3174140155315399,-0.13693630695343018,0.33332085609436035,-0.797061226865849,-0.6395371149657794,1.584591865282934,-0.41706785559654236,0.715305507183075,-0.5607072710990906,1.6895965337753296,1.5856728553771973,1.1844794750213623
8.07987093925476,-0.38323765993118286,-0.10986572504043579,0.21909582614898682,-0.7857266056752746,-0.5679575488684265,1.63707809692062,-0.380235880613327,0.7073389887809753,-0.5958962440490723,1.521459698677063,1.8472564220428467,1.2211952209472656
8.099971055984497,-0.3373622000217438,0.06244051456451416,0.05979931354522705,-0.766752845362944,-0.49311368019353263,1.6917421728654034,-0.3409062922000885,0.6938003897666931,-0.6343689560890198,2.2173948287963867,1.7562862634658813,1.148972749710083
8.119930028915405,-0.2729857861995697,0.1468995213508606,0.04997140169143677,-0.727439889889298,-0.4223227987478349,1.7476476711908833,-0.3061310946941376,0.664959728717804,-0.681257963180542,3.009371519088745,1.563416838645935,0.79458087682724
8.139932870864868,-0.3242741823196411,0.020077645778656006,0.12704133987426758,-0.679403903127573,-0.36275048993258036,1.7917531924611552,-0.2760523855686188,0.6283293962478638,-0.7273220419883728,2.5965476036071777,1.5963953733444214,0.47174784541130066
8.159932851791382,-0.3331633508205414,-0.11701297760009766,0.14373397827148438,-0.6373159053672722,-0.31010093021088997,1.8207263346961342,-0.2452515959739685,0.5950403809547424,-0.7653617858886719,2.269479990005493,1.9049336910247803,0.3412306606769562
8.179934978485107,-0.2254500538110733,-0.04229468107223511,0.10567808151245117,-0.5936431873242549,-0.2586941446877535,1.8448656036864224,-0.21204997599124908,0.5593845844268799,-0.8013262748718262,2.5465238094329834,1.7584471702575684,0.3140479624271393
8.199978113174438,-0.17325592041015625,0.06695854663848877,0.12418895959854126,-0.5419650547877749,-0.2168274950571826,1.8638965215521202,-0.18430329859256744,0.5158204436302185,-0.8366370797157288,2.842756509780884,1.4399044513702393,-0.011877879500389099
