timestamp,acceleration_x,acceleration_y,acceleration_z,attitude_pitch,attitude_roll,attitude_yaw,gravity_x,gravity_y,gravity_z,rotation_x,rotation_y,rotation_z
0.0,0.07060956954956055,0.2964570224285126,0.0868249386548996,-0.28572290302646874,-1.381300124201858,-1.742459310765883,-0.9422833323478699,0.2818511128425598,-0.1807275414466858,-1.153212070465088,0.2816624045372009,-0.2197369933128357
0.01992201805114746,0.0405728816986084,0.30939748883247375,0.08930951356887817,-0.2870102623432688,-1.3817161201207875,-1.763646092066613,-0.9420011043548584,0.28308606147766113,-0.18026715517044067,-0.8618950247764587,0.2968754172325134,-0.0302121564745903
0.03897595405578613,0.029125511646270752,0.3169857859611511,0.09509141743183136,-0.2912399571311112,-1.3796433285778997,-1.7780209118854953,-0.940441370010376,0.2871401906013489,-0.18199020624160767,-0.5761120915412903,0.3151741921901703,0.1870172619819641
0.05993008613586426,0.04800063371658325,0.29982808232307434,0.10268224775791168,-0.29890218052866346,-1.3760932307383527,-1.7861411760938626,-0.937603235244751,0.29447123408317566,-0.18489661812782288,-0.33950138092041016,0.2657196521759033,0.42389950156211853
0.07992815971374512,0.06171005964279175,0.2667819857597351,0.10988596081733704,-0.3104303266407,-1.3724666974066475,-1.788761651275334,-0.9335363507270813,0.3054684102535248,-0.187614306807518,-0.13844875991344452,0.18335117399692535,0.6516189575195312
0.09993195533752441,0.04459357261657715,0.22341129183769226,0.10673061013221741,-0.3249565283823683,-1.368806138730101,-1.7867839359328277,-0.9283980131149292,0.319267600774765,-0.19011998176574707,0.031838640570640564,0.12192714214324951,0.7995386719703674
0.1198890209197998,0.025631844997406006,0.1863401234149933,0.10986465215682983,-0.3410782279699356,-1.3649424358875826,-1.7809274900028633,-0.9224976897239685,0.3345034122467041,-0.1926283836364746,0.19354625046253204,0.08787791430950165,0.8835447430610657
0.1399381160736084,0.030107200145721436,0.14087045192718506,0.10765506327152252,-0.35764135708546435,-1.3607614741886656,-1.7712359767687373,-0.9161392450332642,0.35006579756736755,-0.19530154764652252,0.35121452808380127,-0.017215389758348465,0.9235659837722778
0.16628718376159668,0.040804922580718994,0.07455068826675415,0.12855173647403717,-0.37379024698228785,-1.3571167580402206,-1.757884923701427,-0.9097776412963867,0.36514657735824585,-0.19741465151309967,0.5374186635017395,-0.08179633319377899,0.9082927703857422
0.17998909950256348,0.01895385980606079,-0.00958755612373352,0.1377049684524536,-0.38810851235938676,-1.3524950336004204,-1.7408584069734399,-0.903658390045166,0.3784382939338684,-0.2004643678665161,0.7116899490356445,-0.1047075092792511,0.7977852821350098
0.19993185997009277,-0.005392491817474365,-0.07752516865730286,0.11508256196975708,-0.3977607573732608,-1.3470518500026083,-1.7205782702772925,-0.8989501595497131,0.38735488057136536,-0.20456011593341827,0.9216780066490173,-0.12292645871639252,0.5514529347419739
0.21953988075256348,0.000844419002532959,-0.10305902361869812,0.09805847704410553,-0.4014608801368532,-1.341059379326802,-1.696951208293538,-0.8963064551353455,0.3907634913921356,-0.20961551368236542,1.1036556959152222,-0.2175709456205368,0.3015908896923065
0.2399439811706543,0.008285820484161377,-0.1109517514705658,0.0964512825012207,-0.39977493794944563,-1.3368577421880887,-1.6718637491301889,-0.8960574269294739,0.3892110288143158,-0.21353203058242798,1.1558587551116943,-0.3215872645378113,0.07721728086471558
0.2599470615386963,-0.015445470809936523,-0.13732141256332397,0.1048269271850586,-0.3946645346835522,-1.334990354299989,-1.6490045217863993,-0.8975794315338135,0.3844985365867615,-0.21566683053970337,0.9935375452041626,-0.3562929630279541,-0.0757765918970108
0.2800099849700928,-0.038353145122528076,-0.1849859356880188,0.12337639927864075,-0.38833787678942483,-1.3344190046714022,-1.6320030633290081,-0.899803102016449,0.37865057587623596,-0.21674498915672302,0.7266880869865417,-0.22212423384189606,-0.1323973536491394
0.29998207092285156,-0.03540760278701782,-0.2269531488418579,0.12071439623832703,-0.3843078794565653,-1.3337376611741087,-1.6206670580849172,-0.9011309742927551,0.374917596578598,-0.2177145630121231,0.37648165225982666,-0.1401759386062622,0.005405222997069359
0.31999707221984863,-0.025234878063201904,-0.2447192370891571,0.1131865531206131,-0.3842637504985772,-1.3342727709911322,-1.6159684236940304,-0.9012635350227356,0.3748766779899597,-0.2172362208366394,0.04408494755625725,-0.08947014808654785,0.08928495645523071
0.34003496170043945,-0.04052454233169556,-0.24548599123954773,0.09308367967605591,-0.3870181194022469,-1.3366034866498053,-1.6175129423871208,-0.9007596373558044,0.3774287700653076,-0.2148946225643158,-0.21238620579242706,-0.08731520175933838,0.13705794513225555
0.3599720001220703,-0.06579190492630005,-0.23491698503494263,0.07346683740615845,-0.39093219880876784,-1.3404538417685385,-1.6226341662646326,-0.9001352190971375,0.3810504376888275,-0.21108590066432953,-0.32717978954315186,-0.10090797394514084,0.129409521818161
0.3799769878387451,-0.09167170524597168,-0.21610090136528015,0.04788735508918762,-0.39415034895872497,-1.345169395229489,-1.6285052663954565,-0.8999205827713013,0.3840238153934479,-0.20656348764896393,-0.2197159081697464,-0.1450117826461792,0.057196855545043945
0.39998507499694824,-0.11374497413635254,-0.20273196697235107,0.028109818696975708,-0.3955531766468198,-1.349412621082677,-1.6306800181686774,-0.900262713432312,0.38531869649887085,-0.2026246339082718,-0.03349129483103752,-0.223683699965477,0.036308176815509796
0.4199821949005127,-0.17664796113967896,-0.16439348459243774,-0.011438369750976562,-0.3949653194039064,-1.3555271666236552,-1.6297832484310806,-0.9017059206962585,0.38477617502212524,-0.19716452062129974,0.1336657553911209,-0.41272586584091187,-0.10395336151123047
0.4399731159210205,-0.30854105949401855,-0.09657496213912964,-0.035232603549957275,-0.3901172757060198,-1.3631937503730718,-1.6271690165347945,-0.905005693435669,0.38029688596725464,-0.1906280368566513,0.1804974228143692,-0.43629521131515503,-0.3198366165161133
0.459975004196167,-0.3907501697540283,-0.057733505964279175,-0.04059623181819916,-0.38177481815295927,-1.3704965202426556,-1.625865074308134,-0.9094511866569519,0.3725681006908417,-0.18463876843452454,0.08201993256807327,-0.3303925693035126,-0.4493168294429779
0.4799790382385254,-0.2911086678504944,-0.09017923474311829,-0.05950671434402466,-0.37342542092901276,-1.3768046023038742,-1.6283176145917577,-0.9136185050010681,0.3648069202899933,-0.17949168384075165,-0.1459723860025406,-0.21360833942890167,-0.3878241777420044
0.5000259876251221,-0.08190184831619263,-0.11145293712615967,-0.09876978397369385,-0.3679934749902483,-1.3831006707012177,-1.6346847407652954,-0.9166638255119324,0.35974395275115967,-0.17410317063331604,-0.29995688796043396,-0.19190330803394318,-0.25972214341163635
0.5200850963592529,0.06546354293823242,-0.1065661609172821,-0.14355690777301788,-0.3648186047082848,-1.3896484472325645,-1.6419312670330228,-0.9189029932022095,0.3567798435688019,-0.1683022826910019,-0.2851859927177429,-0.19630490243434906,-0.1847524344921112
0.5399880409240723,0.13622915744781494,-0.1116786003112793,-0.16856561601161957,-0.3623703923343782,-1.3954064119978637,-1.6479247561994712,-0.9207139611244202,0.3544916808605194,-0.16316041350364685,-0.24122220277786255,-0.14057397842407227,-0.16643191874027252
0.5600249767303467,0.1492403745651245,-0.1379414200782776,-0.1541098952293396,-0.360056810067755,-1.399560643144304,-1.6553580055888402,-0.9221895933151245,0.3523274064064026,-0.1594734936952591,-0.4650478959083557,0.018689703196287155,-0.16612549126148224
0.5799739360809326,0.11873412132263184,-0.1612691879272461,-0.11976677179336548,-0.36003741041982884,-1.4013203050378422,-1.6721548993182969,-0.9224755764007568,0.3523092567920685,-0.1578516662120819,-1.1219629049301147,0.4038218557834625,-0.11139044910669327
0.5999929904937744,0.03924161195755005,-0.17619210481643677,-0.14573292434215546,-0.3628266751458773,-1.4018139605140671,-1.7031057178167848,-0.9215810298919678,0.35491830110549927,-0.15723036229610443,-1.7609007358551025,0.5885228514671326,-0.10799698531627655
0.6199769973754883,-0.009222745895385742,-0.10758981108665466,-0.1339133232831955,-0.3666172558623626,-1.404971694833243,-1.7435951639297718,-0.9207393527030945,0.3584595322608948,-0.1540963053703308,-1.9468355178833008,0.5290755033493042,-0.15553858876228333
0.640078067779541,-0.04481828212738037,-0.012098848819732666,-0.10645578801631927,-0.3690522465797275,-1.4098808588049216,-1.7827852571308243,-0.9206205010414124,0.36073166131973267,-0.14943411946296692,-1.6677052974700928,0.38801732659339905,-0.20020198822021484
0.6599760055541992,-0.0792771577835083,0.016285091638565063,-0.08202469348907471,-0.3692131169934419,-1.4142763686435729,-1.8138464576963949,-0.9212111234664917,0.3608816862106323,-0.1453770399093628,-1.1979939937591553,0.30876776576042175,-0.24114419519901276
0.6800811290740967,-0.07164591550827026,0.024209946393966675,-0.06319315731525421,-0.3674080755249154,-1.4162870619579624,-1.8353136097735958,-0.9221438765525818,0.3591977059841156,-0.14362451434135437,-0.7807101607322693,0.278263121843338,-0.23433013260364532
0.7000770568847656,-0.038231611251831055,0.01037055253982544,-0.06237363815307617,-0.3651687137774333,-1.4162768412550193,-1.8500082867247931,-0.9229347705841064,0.35710689425468445,-0.14375735819339752,-0.5933566689491272,0.24602486193180084,-0.19934050738811493
0.7200870513916016,-0.01602351665496826,-0.03439691662788391,-0.05770951509475708,-0.36346836717214404,-1.4160858306596857,-1.8633983811811006,-0.9235059022903442,0.3555181324481964,-0.1440270096063614,-0.6374489665031433,0.27114689350128174,-0.15028804540634155
0.7399749755859375,-0.0192374587059021,-0.07805219292640686,-0.04541856050491333,-0.3634519405623159,-1.4154506672831073,-1.8790458732740103,-0.9234200119972229,0.35550278425216675,-0.14461445808410645,-0.8337216377258301,0.3638851046562195,-0.06674955040216446
0.7600018978118896,-0.04232299327850342,-0.0959884524345398,-0.013357043266296387,-0.36569714378503615,-1.4140729134309518,-1.9001353879445728,-0.9224292039871216,0.3576004207134247,-0.1457616239786148,-1.167162537574768,0.5397833585739136,-0.009302551858127117
0.7800040245056152,-0.06437540054321289,-0.12583526968955994,0.019473448395729065,-0.37053868183851024,-1.4115301021128734,-1.9289084519765127,-0.9203352332115173,0.36211761832237244,-0.14783038198947906,-1.5655184984207153,0.7474445700645447,0.07576499879360199
0.799976110458374,-0.07268452644348145,-0.15384045243263245,0.061535775661468506,-0.3784140361116703,-1.4077281465184381,-1.9648267964666095,-0.916924238204956,0.36944717168807983,-0.1508607268333435,-1.856330394744873,0.9529898166656494,0.17601822316646576
0.8200969696044922,-0.08235472440719604,-0.16982930898666382,0.08393657207489014,-0.38909128198847875,-1.4027022357184213,-2.006177928285846,-0.912213146686554,0.3793477714061737,-0.15479837357997894,-2.0940937995910645,1.1113306283950806,0.25272297859191895
0.8399720191955566,-0.0926169753074646,-0.17613139748573303,0.09551668167114258,-0.4016743023023195,-1.3969140039348045,-2.0518487671075816,-0.9065284729003906,0.3909599184989929,-0.15923736989498138,-2.2803714275360107,1.2210659980773926,0.2597866952419281
0.8599851131439209,-0.09168219566345215,-0.19123095273971558,0.11340846121311188,-0.4143340670406257,-1.3921137153243581,-2.1008962633139503,-0.9008104801177979,0.4025804400444031,-0.16269433498382568,-2.3737826347351074,1.2155460119247437,0.2143695056438446
0.8799760341644287,-0.10020315647125244,-0.19597280025482178,0.12163251638412476,-0.42658200366319593,-1.3883789646513391,-2.1514091628975973,-0.8952802419662476,0.41376152634620667,-0.16515059769153595,-2.3785483837127686,1.2253901958465576,0.16550596058368683
0.899975061416626,-0.09302914142608643,-0.1907671093940735,0.12111009657382965,-0.4372989708708427,-1.3852762013488176,-2.2011407471054087,-0.8903539180755615,0.4234941601753235,-0.16710005700588226,-2.25534987449646,1.157022476196289,0.07467710226774216
0.9199769496917725,-0.06045365333557129,-0.17350080609321594,0.11450624465942383,-0.4460494547770513,-1.3833411384029812,-2.2474097834292417,-0.8863542675971985,0.43140488862991333,-0.16812561452388763,-2.013394594192505,1.0255615711212158,0.007467582821846008
0.940000057220459,-0.050927042961120605,-0.1535021960735321,0.10846668481826782,-0.4520857460623439,-1.3812654151929913,-2.288110400679425,-0.8834297060966492,0.436842679977417,-0.1694713532924652,-1.711480975151062,0.9603760242462158,-0.09596432000398636
0.9600119590759277,-0.034516751766204834,-0.15291672945022583,0.11128322780132294,-0.4555258889299056,-1.378181339913883,-2.3232517047091106,-0.8814226388931274,0.439934641122818,-0.17190642654895782,-1.489595890045166,0.8827940225601196,-0.1493137776851654
0.9799840450286865,-0.008752167224884033,-0.16435322165489197,0.10434670746326447,-0.4577954446629571,-1.3760498884542092,-2.355277583309586,-0.8800722360610962,0.44197162985801697,-0.17359104752540588,-1.3930195569992065,0.7615716457366943,-0.18546603620052338
0.9999749660491943,-0.011492431163787842,-0.16698578000068665,0.10397620499134064,-0.45904656613833766,-1.3746488884425918,-2.385873427621382,-0.8792851567268372,0.44309356808662415,-0.17471596598625183,-1.3230384588241577,0.7434095740318298,-0.22308126091957092
1.0200140476226807,-0.004846513271331787,-0.16199392080307007,0.10552024841308594,-0.45955480222014644,-1.3728247987100475,-2.415237227909036,-0.8787441849708557,0.44354915618896484,-0.17627528309822083,-1.2824779748916626,0.728249192237854,-0.23103180527687073
1.0399749279022217,0.018076777458190918,-0.13980647921562195,0.1071740984916687,-0.4600132389588052,-1.3723382793412542,-2.444051566737,-0.8784588575363159,0.4439599812030792,-0.1766626536846161,-1.255919337272644,0.6045316457748413,-0.23962736129760742
1.0599911212921143,-0.002398252487182617,-0.10898584127426147,0.08883978426456451,-0.45938556586103624,-1.3729661408319924,-2.470835306476107,-0.8788425326347351,0.4433974623680115,-0.17616578936576843,-1.0638409852981567,0.5457245111465454,-0.3030949532985687
1.0799849033355713,-0.014293432235717773,-0.060088664293289185,0.07423366606235504,-0.4563316989360689,-1.372335258299244,-2.4924308921121314,-0.8800546526908875,0.4406581223011017,-0.17698635160923004,-0.7770792841911316,0.44287967681884766,-0.38168615102767944
1.099984884262085,-0.004282355308532715,-0.01353156566619873,0.056320980191230774,-0.45062546833313877,-1.3728060033804104,-2.5082269021277255,-0.8825889229774475,0.43552863597869873,-0.17706377804279327,-0.5204825401306152,0.21788614988327026,-0.45446309447288513
1.120136022567749,-0.03737151622772217,0.024618089199066162,0.031150832772254944,-0.44248502839314086,-1.3738886124596505,-2.5200833556207494,-0.8862276673316956,0.42818647623062134,-0.17679594457149506,-0.4008050262928009,0.20836375653743744,-0.5529332756996155
1.1399738788604736,-0.03834033012390137,0.030973732471466064,0.048606932163238525,-0.43304164381495963,-1.3746826408527846,-2.532349292121261,-0.8902943134307861,0.4196336269378662,-0.17687226831912994,-0.5559266209602356,0.23996180295944214,-0.5723755359649658
1.1599860191345215,-0.0068555474281311035,0.0545215904712677,0.09817361831665039,-0.4252850901145567,-1.376489394968117,-2.5498521450747678,-0.8937791585922241,0.4125804901123047,-0.1758866310119629,-0.8690834641456604,0.3199840486049652,-0.49661239981651306
1.180030107498169,-0.03200727701187134,0.10686367750167847,0.11005230247974396,-0.41955877741905034,-1.3786383543169312,-2.5740654724668133,-0.8964595198631287,0.4073575437068939,-0.17441387474536896,-1.1872810125350952,0.4758298099040985,-0.49680984020233154
1.2000880241394043,-0.036605894565582275,0.14555910229682922,0.11010189354419708,-0.4147362791483098,-1.3800343346501143,-2.604452581059816,-0.8986204266548157,0.4029485881328583,-0.17353270947933197,-1.450395941734314,0.5902925729751587,-0.5147278308868408
1.2199418544769287,0.004113614559173584,0.1857818067073822,0.11025124788284302,-0.4098227451348107,-1.3825868721584238,-2.6397058247338125,-0.9009947180747986,0.3984467685222626,-0.17160677909851074,-1.6141067743301392,0.5565062165260315,-0.5789155960083008
1.2400729656219482,0.009531199932098389,0.24828842282295227,0.1088833212852478,-0.4034027725459686,-1.3868543179735622,-2.6768621370365397,-0.9042150974273682,0.3925502300262451,-0.16822470724582672,-1.6101175546646118,0.5121725797653198,-0.693895161151886
1.2599780559539795,-0.03474956750869751,0.30348917841911316,0.10169273614883423,-0.39421896001974077,-1.3906182528432054,-2.714089058033654,-0.90835040807724,0.3840871751308441,-0.16545921564102173,-1.6292625665664673,0.5725420713424683,-0.8327332139015198
1.2800438404083252,-0.027362465858459473,0.32305392622947693,0.11923497915267944,-0.38326692790092487,-1.393345208139928,-2.7532186254693443,-0.9128841161727905,0.37395235896110535,-0.16371431946754456,-1.768462061882019,0.6369026899337769,-0.8589736223220825
1.2999751567840576,0.05407845973968506,0.31960806250572205,0.13433407247066498,-0.3739692975955668,-1.3956465753696659,-2.794849163335015,-0.9166426658630371,0.36531326174736023,-0.16221188008785248,-1.8632370233535767,0.6706345677375793,-0.7132222056388855
1.319977045059204,0.13183915615081787,0.31718939542770386,0.12010864913463593,-0.3683451127499058,-1.3978648328702128,-2.8363026378352068,-0.9190096855163574,0.3600720465183258,-0.16052915155887604,-1.8579610586166382,0.6066688299179077,-0.49984830617904663
1.3399770259857178,0.19436860084533691,0.31251853704452515,0.09236644208431244,-0.3665974032430683,-1.4009699080834592,-2.875310314345652,-0.9201225638389587,0.358441025018692,-0.15778090059757233,-1.6832752227783203,0.4826577305793762,-0.29085594415664673
1.3600220680236816,0.22657281160354614,0.2953212559223175,0.06552164256572723,-0.3676934077826035,-1.4042861725242153,-2.9093317950359046,-0.9202527403831482,0.35946395993232727,-0.15466345846652985,-1.4857553243637085,0.42035749554634094,-0.14553719758987427
1.3799769878387451,0.2431686520576477,0.2739023268222809,0.03818964958190918,-0.3698807296500369,-1.4073333055845951,-2.938851635072168,-0.9199417233467102,0.3615042269229889,-0.15173028409481049,-1.2956355810165405,0.3430250883102417,-0.08885228633880615
1.3999769687652588,0.25483423471450806,0.23746395111083984,0.036173030734062195,-0.3729105864682201,-1.4109595537787907,-2.9658449627477443,-0.9194003939628601,0.3643275201320648,-0.14821836352348328,-1.2536225318908691,0.2846168875694275,-0.015183757059276104
1.419985055923462,0.23063600063323975,0.18947705626487732,0.05066005885601044,-0.3768766609649944,-1.4149382043369818,-2.993135857008732,-0.9185481071472168,0.36801812052726746,-0.14433379471302032,-1.3444154262542725,0.33831164240837097,-0.011163252405822277
1.439974069595337,0.17889171838760376,0.16214242577552795,0.05532783269882202,-0.38033181238389374,-1.418315839573402,-3.0234921167361453,-0.9177680611610413,0.3712286055088043,-0.14103646576404572,-1.502798318862915,0.43623092770576477,-0.07875421643257141
1.4600188732147217,0.16360700130462646,0.1594945192337036,0.03694486618041992,-0.3831028839021103,-1.4219511906782822,-3.0574848069141254,-0.917253851890564,0.37380021810531616,-0.13754604756832123,-1.646570086479187,0.4606768786907196,-0.11728882044553757
1.479975938796997,0.16447269916534424,0.16768398880958557,0.018352150917053223,-0.385510814749383,-1.426374316508365,-3.0933770726754233,-0.9169598817825317,0.3760325014591217,-0.13335765898227692,-1.6872599124908447,0.4490160346031189,-0.1238553449511528
1.4999759197235107,0.14898478984832764,0.16893228888511658,0.015551075339317322,-0.38806776303132795,-1.4310948841243563,-3.1301198699265202,-0.9166240692138672,0.3784005641937256,-0.12889331579208374,-1.7349199056625366,0.46254926919937134,-0.09697815775871277
1.5200941562652588,0.11289763450622559,0.15737497806549072,0.028232641518115997,-0.39134075003950225,-1.436003163114672,3.1144756331276655,-0.9160134196281433,0.38142815232276917,-0.12422561645507812,-1.8716106414794922,0.5228873491287231,-0.07356269657611847
1.5393130779266357,0.06303340196609497,0.1445838212966919,0.05614341050386429,-0.3951780120917187,-1.4404546657980632,3.0720956653756395,-0.9150993824005127,0.384972482919693,-0.1199556514620781,-2.0643532276153564,0.6592805981636047,-0.06807136535644531
1.5600359439849854,0.049692749977111816,0.13205742835998535,0.07554555684328079,-0.39939645357945214,-1.4443049257787874,3.026058673991383,-0.9139353036880493,0.38886237144470215,-0.11622548848390579,-2.1920480728149414,0.7265949845314026,-0.05470652133226395
1.579974889755249,0.07543826103210449,0.1381300687789917,0.06857866048812866,-0.40410530608718526,-1.4491274972784238,2.9789704839780797,-0.9126574993133545,0.3931962847709656,-0.11159316450357437,-2.15285325050354,0.6162411570549011,-0.026197614148259163
1.5999748706817627,0.07578510046005249,0.1383105218410492,0.053508758544921875,-0.40831061221204074,-1.4554296969982246,2.93407004199847,-0.9116921424865723,0.3970593810081482,-0.105647973716259,-2.008150339126587,0.5482134819030762,-0.050059955567121506
1.6200180053710938,0.057200491428375244,0.1120176613330841,0.07640044391155243,-0.41117419255330045,-1.4614128277385665,2.8913860713291704,-0.911173939704895,0.39968591928482056,-0.10006680339574814,-1.943174958229065,0.5628715753555298,-0.10448294878005981
1.6400401592254639,0.06066405773162842,0.08193033933639526,0.08344609290361404,-0.412769393361039,-1.4669863241017744,2.8493463556076066,-0.9110820889472961,0.40114766359329224,-0.09492065012454987,-1.9109482765197754,0.55437171459198,-0.15789759159088135
1.659985065460205,0.061898112297058105,0.07556015253067017,0.06583839654922485,-0.41242759440576754,-1.47259224916974,2.808015573023081,-0.9117363691329956,0.4008345603942871,-0.08982517570257187,-1.8819706439971924,0.5471882820129395,-0.26146605610847473
1.6800000667572021,0.0549812912940979,0.07411107420921326,0.08563954383134842,-0.40961400214429894,-1.478249455037787,2.766146022386151,-0.9133490920066833,0.39825528860092163,-0.08476975560188293,-1.9318864345550537,0.5793390274047852,-0.38575243949890137
1.6999750137329102,0.04689610004425049,0.07064986228942871,0.08334153890609741,-0.4043771561146295,-1.483584802626693,2.7230174565898064,-0.9158536791801453,0.3934462368488312,-0.08007611334323883,-1.9608858823776245,0.5982887148857117,-0.49210506677627563
1.7199959754943848,0.07713824510574341,0.07885777950286865,0.08238346129655838,-0.39758345194511735,-1.4880349522649556,2.6787520771848574,-0.9188435673713684,0.38719141483306885,-0.0762188509106636,-2.0597708225250244,0.6872955560684204,-0.5209872722625732
1.739976167678833,0.15189296007156372,0.0653301477432251,0.07216858118772507,-0.3903712251286909,-1.4919821330483125,2.6328728707306577,-0.9218973517417908,0.3805317282676697,-0.07280941307544708,-2.0958211421966553,0.6938169002532959,-0.529812216758728
1.7600748538970947,0.2190481424331665,0.06410494446754456,0.05310952663421631,-0.3837355524019008,-1.4954972585523212,2.5881183927133717,-0.9246450662612915,0.3743869364261627,-0.06975679844617844,-1.9827903509140015,0.6300385594367981,-0.4621328115463257
1.7799851894378662,0.2528308033943176,0.07004216313362122,0.03161996603012085,-0.3771602625707673,-1.498712567529019,2.5473791771530894,-0.9272997975349426,0.3682818114757538,-0.06695926934480667,-1.7482661008834839,0.5929257273674011,-0.4743475317955017
1.7999751567840576,0.2794334888458252,0.05074512958526611,0.027560830116271973,-0.3701888588497357,-1.5001079152636632,2.511021365306739,-0.9299309253692627,0.3617914915084839,-0.0658450499176979,-1.5871723890304565,0.5592665672302246,-0.4677032232284546
1.819977045059204,0.310360848903656,0.02438625693321228,0.012100227177143097,-0.36251493095724635,-1.5024954662021321,2.4786435801588826,-0.932827889919281,0.3546268343925476,-0.06381220370531082,-1.3477293252944946,0.374222069978714,-0.5181114673614502
1.8399970531463623,0.2747526168823242,0.04260075092315674,0.04890567064285278,-0.3536079666065555,-1.5044986937201246,2.451664493003984,-0.936068594455719,0.34628480672836304,-0.06215021759271622,-1.157766342163086,0.4197620153427124,-0.5484925508499146
1.86006498336792,0.2039874792098999,0.037736207246780396,0.0861743614077568,-0.3430690292734631,-1.5030724699467843,2.4258679336656406,-0.939568042755127,0.33637887239456177,-0.06372863054275513,-1.2246460914611816,0.6063477993011475,-0.6758968234062195
1.879978895187378,0.22716981172561646,0.00984877347946167,0.06178843975067139,-0.3307754502689816,-1.5001644182479343,2.3988490256896378,-0.943432629108429,0.3247765302658081,-0.06674747914075851,-1.2354000806808472,0.5315150022506714,-0.7083413600921631
1.9000308513641357,0.3076212406158447,0.01972174644470215,0.027349479496479034,-0.31892451391327664,-1.5008970922348555,2.3730180961721152,-0.9472543597221375,0.31354549527168274,-0.06632040441036224,-1.1260100603103638,0.19000092148780823,-0.6537376046180725
1.919975996017456,0.2683027386665344,0.06075581908226013,-0.008222520351409912,-0.3071810724201625,-1.5078407483091936,2.3503236593247796,-0.9513014554977417,0.30237287282943726,-0.0599689818918705,-0.9522854685783386,-0.08760229498147964,-0.6570239663124084
1.9399750232696533,0.08992773294448853,0.09024399518966675,-0.10079920291900635,-0.294391552380328,-1.514018142513087,2.3339464777682544,-0.9554367661476135,0.29015764594078064,-0.054306335747241974,-0.5245527029037476,0.028508421033620834,-0.7254443764686584
1.9600510597229004,0.03235435485839844,0.11476537585258484,-0.07790065556764603,-0.28126236264184445,-1.5120960307761102,2.32517536495988,-0.959051251411438,0.27756863832473755,-0.05636133998632431,-0.3256423771381378,0.40450891852378845,-0.5835481286048889
1.9799768924713135,0.15256351232528687,0.0772043764591217,0.018732301890850067,-0.2730224880381037,-1.5046137809513855,2.313527296823966,-0.9608522057533264,0.2696431875228882,-0.06368465721607208,-0.7971774339675903,0.6303743124008179,-0.3487306535243988
1.999979019165039,0.21576565504074097,0.001966804265975952,0.005655393004417419,-0.268616475672294,-1.4975558145970134,2.2925253590048595,-0.9615544676780701,0.2653977870941162,-0.07055093348026276,-1.1080950498580933,0.6239796280860901,-0.2151387333869934
2.019055128097534,0.23344862461090088,0.01719290018081665,-0.09791653603315353,-0.26752680811000673,-1.4917335255810942,2.272661945282238,-0.9614148736000061,0.26434704661369324,-0.07617092877626419,-0.6958564519882202,0.4509119391441345,-0.07256118208169937
2.0399959087371826,0.20016920566558838,0.08052217960357666,-0.11982303112745285,-0.2672365284623366,-1.4864963192456002,2.2640529338110964,-0.9610791802406311,0.26406705379486084,-0.08121144771575928,-0.18025453388690948,0.3453061580657959,-0.020103471353650093
2.05997896194458,0.16980433464050293,0.02554836869239807,-0.0538211390376091,-0.26729606453352434,-1.4794672124082582,2.2632140538081464,-0.9604689478874207,0.26412448287010193,-0.08796348422765732,0.049748439341783524,0.4117177724838257,0.017093021422624588
2.0799739360809326,0.16789567470550537,-0.0752515196800232,0.021412506699562073,-0.26816662277164965,-1.4695803754488102,2.2638392233209284,-0.9593232274055481,0.2649640440940857,-0.09743175655603409,-0.03705873340368271,0.5039243698120117,0.0334789976477623
2.099976062774658,0.18033355474472046,-0.05679410696029663,0.012878723442554474,-0.2680618141156478,-1.4606287365617843,2.2625928774322346,-0.9584401845932007,0.264862984418869,-0.1060183048248291,-0.016835380345582962,0.43003347516059875,-0.030532799661159515
2.120015859603882,0.1496623158454895,-0.012476682662963867,-0.036644577980041504,-0.26799241212396985,-1.4517359203262816,2.264747003885519,-0.957477867603302,0.26479604840278625,-0.11453942954540253,0.21960805356502533,0.4329589605331421,0.03802122920751572
2.1400389671325684,0.06476187705993652,0.02326229214668274,-0.02628093957901001,-0.26825845640400464,-1.4408473484148678,2.2707077361891126,-0.956104040145874,0.26505258679389954,-0.12494886666536331,0.36634111404418945,0.4826507866382599,0.04692823067307472
2.1600589752197266,-0.008724510669708252,0.0586983859539032,-0.013016268610954285,-0.26850623290751247,-1.4280700420117733,2.2794311149614015,-0.9543644785881042,0.2652914822101593,-0.13714541494846344,0.4080710709095001,0.5693326592445374,0.11118009686470032
2.179973840713501,-0.05249667167663574,0.07313701510429382,0.013531938195228577,-0.27019601549956257,-1.4140101165814585,2.2875303747701174,-0.9518978595733643,0.2669203579425812,-0.1504795104265213,0.34314122796058655,0.6143702864646912,0.17611634731292725
2.200000047683716,-0.10759246349334717,0.045986711978912354,0.031328633427619934,-0.27370194729132785,-1.3991023735802135,2.293873289357333,-0.9486208558082581,0.27029743790626526,-0.16449199616909027,0.19284991919994354,0.7149377465248108,0.23978154361248016
2.220069169998169,-0.16604232788085938,0.07323813438415527,0.06919866800308228,-0.2775561577738896,-1.3833058303192576,2.2966197500852643,-0.9448738098144531,0.2740061581134796,-0.1792602837085724,-0.019731340929865837,0.7790185809135437,0.19506846368312836
2.240007162094116,-0.1364816427230835,0.053392231464385986,0.06872983276844025,-0.28170946563366506,-1.3691022032921776,2.29523729585783,-0.941109299659729,0.277998149394989,-0.19243274629116058,-0.15748894214630127,0.6635029315948486,0.19627247750759125
2.2600300312042236,-0.09190165996551514,-0.0023577511310577393,0.040519773960113525,-0.28687013660672644,-1.3577834446617973,2.2939901603431077,-0.9374563097953796,0.2829516530036926,-0.20276638865470886,-0.05338677391409874,0.47242221236228943,0.255669504404068
2.28000807762146,-0.09700518846511841,-0.002662569284439087,0.04521021246910095,-0.29123168006416505,-1.3498783061234407,2.2959561870018512,-0.9346112012863159,0.28713226318359375,-0.20989829301834106,0.16047118604183197,0.25192925333976746,0.21540968120098114
2.3002021312713623,-0.13282173871994019,-0.009382188320159912,0.02645687758922577,-0.29346846286002115,-1.3450522380750272,2.3025977213704447,-0.9329587817192078,0.289274126291275,-0.2142619788646698,0.4004342257976532,0.04407646134495735,0.1513950228691101
2.3200440406799316,-0.1275268793106079,-0.04110831022262573,0.028352856636047363,-0.2938383740652491,-1.3424208162132765,2.313648476155099,-0.9322876334190369,0.28962820768356323,-0.21669204533100128,0.6288571357727051,-0.08595015853643417,0.1272781640291214
2.3399789333343506,-0.16635292768478394,-0.04235383868217468,0.04891782999038696,-0.2926210544546466,-1.340530300030451,2.327809536429098,-0.9322188496589661,0.2884628474712372,-0.2185344696044922,0.7158626317977905,-0.09917035698890686,0.05400492995977402
2.360136032104492,-0.18171006441116333,-0.04429483413696289,0.05183488130569458,-0.2900436669872299,-1.3387455081821151,2.341718855863319,-0.9325478076934814,0.2859940826892853,-0.2203681766986847,0.6322693228721619,-0.14392894506454468,-0.0015174227301031351
2.380099058151245,-0.1578458547592163,-0.03129813075065613,0.02502836287021637,-0.2872620546462993,-1.33870835379997,2.3531946302911324,-0.9333100914955139,0.28332754969596863,-0.2205849289894104,0.5461037755012512,-0.16278386116027832,-0.006986403837800026
2.4000461101531982,-0.17596441507339478,-0.024337828159332275,0.02362819015979767,-0.28496932173976613,-1.3381776175985631,2.364778716986834,-0.933822512626648,0.28112801909446716,-0.2212294042110443,0.5397768020629883,-0.10310650616884232,0.05365001782774925
2.4283010959625244,-0.2272721529006958,-0.03556174039840698,0.02044081687927246,-0.2831185827539058,-1.3319462031578826,2.388044525780615,-0.9329298138618469,0.27935144305229187,-0.22716683149337769,0.590973973274231,0.05482178553938866,0.12351109087467194
2.4472591876983643,-0.2623363733291626,0.00570717453956604,0.023357659578323364,-0.28213984754982574,-1.3273992406603492,2.4001367903833057,-0.932152271270752,0.27841153740882874,-0.23147226870059967,0.5601451396942139,0.07941749691963196,0.07576144486665726
2.468214988708496,-0.30125629901885986,0.000950157642364502,-0.005326747894287109,-0.280817614378465,-1.3229568617593395,2.411620397098821,-0.9314707517623901,0.2771413326263428,-0.23570102453231812,0.5098605155944824,0.02700790762901306,0.03985115513205528
2.4872381687164307,-0.2871640920639038,-0.028955847024917603,0.02258235216140747,-0.2789746370040059,-1.3187981963282074,2.423305459682746,-0.9309755563735962,0.2753700613975525,-0.2396996021270752,0.6522363424301147,0.06094856560230255,0.037007950246334076
2.5083229541778564,-0.29512321949005127,0.016445815563201904,0.017174094915390015,-0.27405052076559294,-1.312957258884337,2.4393442852512672,-0.930859386920929,0.2706330120563507,-0.24547600746154785,0.9881067872047424,0.06897906213998795,-0.09131211042404175
2.5283560752868652,-0.25592517852783203,0.021059811115264893,-0.010812938213348389,-0.2678523841457312,-1.3077806885266445,2.4600321702375156,-0.9311781525611877,0.2646610140800476,-0.2507226765155792,1.0862679481506348,-0.16085493564605713,-0.030962491407990456
2.5486719608306885,-0.17622530460357666,-0.07383111119270325,0.004864811897277832,-0.2620621075089497,-1.307492406100507,2.4832026039228787,-0.9325697422027588,0.25907281041145325,-0.25138571858406067,1.233562707901001,-0.3871232271194458,0.058443740010261536
2.5680558681488037,-0.17071664333343506,-0.029798954725265503,0.0055748820304870605,-0.25463339324219375,-1.309677352659589,2.5109660425709857,-0.9349505305290222,0.251890629529953,-0.24983753263950348,1.5365831851959229,-0.49637123942375183,-0.050384584814310074
2.5871829986572266,-0.2107333540916443,0.0326334685087204,-0.0027532875537872314,-0.2454587510065817,-1.3116177640168534,2.54272367714475,-0.9376280307769775,0.24300135672092438,-0.24860471487045288,1.5366101264953613,-0.47810444235801697,-0.005543294362723827
2.6078641414642334,-0.22384542226791382,-0.0268256813287735,0.00673520565032959,-0.23794218061151862,-1.3158612121119464,2.5661501441681556,-0.9404154419898987,0.23570328950881958,-0.24507741630077362,0.8123999238014221,-0.4956301748752594,-0.15561383962631226
2.627770185470581,-0.17358499765396118,-0.03987312316894531,0.004196077585220337,-0.23025686446006857,-1.323609126067625,2.575200817531977,-0.9440144300460815,0.2282276153564453,-0.23822003602981567,0.30925458669662476,-0.4443584680557251,-0.2882072329521179
2.6477670669555664,-0.20838302373886108,0.01985199749469757,-0.03540259599685669,-0.22405281487558373,-1.3309228147068435,2.5779952540820212,-0.9470887780189514,0.22218294441699982,-0.2316414713859558,0.12021952867507935,-0.3818669319152832,-0.225058451294899
2.667656183242798,-0.19658708572387695,0.05399216711521149,-0.07014092803001404,-0.21982295937199417,-1.3394144824120422,2.57814697927413,-0.9499279260635376,0.2180568426847458,-0.22380438446998596,-0.022854270413517952,-0.47337573766708374,-0.18117645382881165
2.687782049179077,-0.22659963369369507,0.10571432113647461,-0.027443930506706238,-0.21788984768421432,-1.349535961500626,2.5754087940760626,-0.9525538086891174,0.21616984903812408,-0.2142704874277115,-0.1363547444343567,-0.46137747168540955,-0.05939963832497597
2.7077109813690186,-0.2690998911857605,0.10378478467464447,0.012613832950592041,-0.21802200070422428,-1.3582158442749033,2.574859448700766,-0.9543498158454895,0.2162988781929016,-0.20598843693733215,0.09508591890335083,-0.4113529324531555,0.03588348254561424
2.728163003921509,-0.2818959355354309,0.17421522736549377,0.008461788296699524,-0.21891713938386173,-1.366435282410494,2.578256592942879,-0.9558206796646118,0.21717272698879242,-0.19809797406196594,0.20937283337116241,-0.5002928972244263,0.11405756324529648
2.747879981994629,-0.26864784955978394,0.10814636945724487,0.04053641855716705,-0.22063524041686453,-1.376485775053699,2.5833576182337477,-0.9573957920074463,0.21884950995445251,-0.18840932846069336,0.24341267347335815,-0.6226417422294617,0.14559441804885864
2.764496088027954,-0.29123127460479736,0.11199408769607544,0.04293656349182129,-0.22221237033037064,-1.3888006373380535,2.589687700764185,-0.9593028426170349,0.22038812935352325,-0.1765424609184265,0.33438313007354736,-0.730599045753479,0.14726240932941437
2.7875330448150635,-0.27225762605667114,0.09863974153995514,0.04948091506958008,-0.2243433781810593,-1.4029065025767957,2.5970721608557765,-0.9612323641777039,0.22246624529361725,-0.1629147082567215,0.3500500023365021,-0.8346407413482666,0.18284615874290466
2.8064310550689697,-0.24187391996383667,0.05795218050479889,0.054470181465148926,-0.2276704860467688,-1.418056809801822,2.606165590642016,-0.9628532528877258,0.2257087379693985,-0.14822016656398773,0.4836016595363617,-0.899249792098999,0.2768981456756592
2.8275840282440186,-0.22614365816116333,0.06779825687408447,0.018668532371520996,-0.2313015643815334,-1.4335044560118149,2.620454954323488,-0.9642097353935242,0.22924461960792542,-0.13321621716022491,0.8438770174980164,-0.9588173627853394,0.2980288863182068
2.84637188911438,-0.23066312074661255,0.08536973595619202,0.008258804678916931,-0.2345860532326256,-1.4485415677123261,2.640500392741567,-0.965351402759552,0.23244039714336395,-0.11861032247543335,1.031769037246704,-0.9968844652175903,0.27924004197120667
2.866450071334839,-0.24964845180511475,0.025902852416038513,0.005782485008239746,-0.2385134576979661,-1.4627046010773619,2.663308326614589,-0.9660192728042603,0.23625843226909637,-0.10482726991176605,1.0858774185180664,-0.950393795967102,0.3729718327522278
2.886206865310669,-0.25490957498550415,-0.004778996109962463,0.030314266681671143,-0.24339644693938037,-1.4765804990304081,2.683524220906412,-0.9662207961082458,0.24100035429000854,-0.09130360931158066,0.820960521697998,-0.9382680654525757,0.3001314103603363
2.9073140621185303,-0.24718493223190308,-0.047821179032325745,0.03817761689424515,-0.2475305356546974,-1.4912329356407619,2.700510477674075,-0.9664533138275146,0.24501051008701324,-0.07705696672201157,0.8605602979660034,-0.9695075750350952,0.27587857842445374
2.927243947982788,-0.2804569602012634,-0.027694344520568848,-0.026560600847005844,-0.2510097855824278,-1.5064769363299515,2.720889760808234,-0.9666590690612793,0.24838222563266754,-0.06226080656051636,1.0779415369033813,-1.0168262720108032,0.18820609152317047
2.945733070373535,-0.37830591201782227,-0.028547227382659912,-0.04491835832595825,-0.2532929210042504,-1.518250535067791,2.744072849163325,-0.9667563438415527,0.2505931556224823,-0.05084577947854996,1.0328091382980347,-0.7029428482055664,0.20703758299350739
2.966904878616333,-0.34293264150619507,-0.11199730634689331,-0.026894569396972656,-0.2565409460116178,-1.525973331345628,2.757280446581659,-0.9663020372390747,0.2537362277507782,-0.04334158077836037,0.17850106954574585,-0.435425341129303,0.170474112033844
2.9858338832855225,-0.23400753736495972,-0.1933157742023468,-0.03462272509932518,-0.25967019212295905,-1.5344605216989686,2.7527540453092416,-0.965836763381958,0.2567618191242218,-0.03510991111397743,-0.5227760076522827,-0.30099189281463623,0.1001918613910675
3.0066030025482178,-0.23793023824691772,-0.13215461373329163,-0.11983293294906616,-0.2606609924560265,-1.542040548986333,2.7422253422080662,-0.9658204913139343,0.2577192783355713,-0.027780577540397644,-0.404896080493927,-0.17907148599624634,-0.017574047669768333
3.026634931564331,-0.17315614223480225,-0.0891830325126648,-0.1669122576713562,-0.2603264106684081,-1.545793112571543,2.7362616110678704,-0.9660041332244873,0.25739598274230957,-0.024158243089914322,-0.21200504899024963,-0.06900499761104584,-0.0390961654484272
3.0465240478515625,-0.09699028730392456,-0.13010045886039734,-0.19472557306289673,-0.25877231459384253,-1.5480892500960455,2.7324121498740537,-0.9664557576179504,0.2558939456939697,-0.021949157118797302,-0.16385824978351593,-0.05083637684583664,-0.11811898648738861
3.0656778812408447,-0.06999576091766357,-0.12077072262763977,-0.18817317485809326,-0.2563512387872609,-1.549312014093462,2.7281567651495005,-0.9670983552932739,0.25355273485183716,-0.020780641585588455,-0.2874569296836853,0.04511918127536774,-0.13607445359230042
3.0852768421173096,-0.08495569229125977,-0.12702301144599915,-0.15684247016906738,-0.25371395741629915,-1.549306459894881,2.720172584565829,-0.9677636027336121,0.2510007321834564,-0.020800312981009483,-0.47755107283592224,0.16317418217658997,-0.1402142494916916
3.106559991836548,-0.11669617891311646,-0.0852443128824234,-0.10932266712188721,-0.25134995371700636,-1.5473142605311065,2.7088988157126095,-0.9683104157447815,0.2487117201089859,-0.02274210937321186,-0.5798404812812805,0.3028699457645416,-0.12376474589109421
3.1265299320220947,-0.08865588903427124,-0.05805215239524841,-0.09110939502716064,-0.24997861780036368,-1.5432167390117508,2.698817978889172,-0.9685493111610413,0.2473832368850708,-0.02671896480023861,-0.33643636107444763,0.3502182066440582,-0.01929154060781002
3.1461079120635986,-0.02775132656097412,-0.026827797293663025,-0.05504464730620384,-0.2506507908340753,-1.5372153507070043,2.69512238662363,-0.9682049751281738,0.24803446233272552,-0.03252549469470978,-0.05748818814754486,0.3330366313457489,0.05282335355877876
3.166149854660034,-0.012189269065856934,-0.09629110991954803,-0.0017841421067714691,-0.25114459946558515,-1.5311503105129822,2.6970405320930455,-0.9678674936294556,0.24851281940937042,-0.03839220479130745,0.257391095161438,0.2168363481760025,0.0021451038774102926
3.186009168624878,0.010681986808776855,-0.06318303942680359,-0.008019447326660156,-0.2501086611652452,-1.525953379113751,2.7059452652277747,-0.9679116010665894,0.24750924110412598,-0.04343312606215477,0.6318482160568237,0.10110531002283096,-0.07732527703046799
3.2050721645355225,-0.013206005096435547,-0.017286047339439392,-0.006272967904806137,-0.24796888143580897,-1.5187845756560607,2.7258984738059118,-0.9681019186973572,0.24543547630310059,-0.05039812996983528,1.3963228464126587,0.13254143297672272,-0.007758659310638905
3.2262330055236816,-0.019519388675689697,0.11602002382278442,0.012326352298259735,-0.2480421821065853,-1.5062023980877945,2.7638960104254893,-0.9673734307289124,0.24550652503967285,-0.06257349997758865,2.1304640769958496,0.20425796508789062,0.19864030182361603
3.247843027114868,-0.04458886384963989,0.08662101626396179,0.09868932515382767,-0.2490290799264202,-1.4911127333886967,2.804628180151714,-0.9660769701004028,0.2464631050825119,-0.0771438255906105,1.7550768852233887,0.30102747678756714,0.11481442302465439
3.2655909061431885,-0.037196993827819824,-0.03830496966838837,0.0696491003036499,-0.24851191095811842,-1.4772995348518392,2.8368011290937347,-0.9650460481643677,0.24596185982227325,-0.09049254655838013,1.3919587135314941,0.30995386838912964,0.11966864764690399
3.2860660552978516,0.027480602264404297,0.028149932622909546,0.03375650942325592,-0.24820981731815245,-1.4649396722224737,2.862839539913889,-0.9639276266098022,0.24566903710365295,-0.10242100805044174,1.14976966381073,0.28479623794555664,0.10946251451969147
3.305027961730957,0.058535993099212646,0.046738192439079285,0.02707970142364502,-0.2487419399337644,-1.4538611086873674,2.884441567787333,-0.9626039862632751,0.2461848109960556,-0.11307818442583084,0.9332736730575562,0.3141632378101349,0.18431910872459412
3.32574200630188,0.07921850681304932,0.05786369740962982,0.12481993436813354,-0.25102349377995836,-1.4425474479457578,2.8998416700376577,-0.9607034921646118,0.24839550256729126,-0.12388912588357925,0.5381590723991394,0.4150731861591339,0.21840208768844604
3.3447470664978027,0.08777773380279541,-0.011406779289245605,0.10942232608795166,-0.2533982814612047,-1.4329761095476068,2.910358343429764,-0.9588867425918579,0.2506951689720154,-0.13299711048603058,0.5444326996803284,0.2565891444683075,0.16499964892864227
3.3657290935516357,0.1359550952911377,0.10042652487754822,0.05138421058654785,-0.25442124898406315,-1.4253838243712915,2.9253186044941644,-0.9575951099395752,0.25168532133102417,-0.14023612439632416,0.8652145862579346,0.17735178768634796,0.14405971765518188
3.3857691287994385,0.08864963054656982,0.10703349113464355,0.07560180127620697,-0.25494169774999226,-1.4158250749220198,2.944611112997759,-0.9560813903808594,0.2521889805793762,-0.14936275780200958,0.9114969968795776,0.3094644844532013,0.1938260942697525
3.4048268795013428,0.06971925497055054,0.03971773386001587,0.08249567449092865,-0.2562286900566119,-1.4046221014081404,2.960280623390487,-0.9540272355079651,0.2534341812133789,-0.16001029312610626,0.5308071970939636,0.41067150235176086,0.16536107659339905
3.427314043045044,0.10068404674530029,-0.0019636154174804688,0.11707408726215363,-0.25811611001725576,-1.3942862931114668,2.9673203521232923,-0.9518497586250305,0.25525951385498047,-0.16977789998054504,0.15647488832473755,0.4246399700641632,0.11602918803691864
3.444071054458618,0.13039666414260864,0.01295974850654602,0.06663908064365387,-0.25911021221113534,-1.3857392450136592,2.970099821497541,-0.9501140117645264,0.25622057914733887,-0.1778603196144104,0.12388911843299866,0.3513917624950409,0.0370575487613678
3.462568998336792,0.15872961282730103,0.061547666788101196,0.052185237407684326,-0.25856947324800006,-1.3776707747452235,2.9743392306786,-0.9487839341163635,0.2556978464126587,-0.18554699420928955,0.312867671251297,0.3774036467075348,0.00670807808637619
3.482908010482788,0.15782767534255981,0.06801137328147888,0.04377526044845581,-0.258165376112894,-1.3677464786311055,2.9814877112578673,-0.9469969868659973,0.2553071677684784,-0.19497454166412354,0.3366090655326843,0.4201503098011017,0.08498530089855194
3.5035488605499268,0.19502133131027222,0.05516138672828674,0.03251519799232483,-0.25856204056637744,-1.3577384848915999,2.9884268397432687,-0.9448990821838379,0.25569066405296326,-0.20442070066928864,0.30934202671051025,0.4271312355995178,0.10442131757736206
3.5220658779144287,0.2142816185951233,0.06118360161781311,0.03885847330093384,-0.25973542660752935,-1.3469208396210888,2.995300858005309,-0.9423394799232483,0.2568248510360718,-0.21456339955329895,0.330859899520874,0.469340056180954,0.13726665079593658
3.5416040420532227,0.24684053659439087,0.07141980528831482,0.006264686584472656,-0.26027480326963026,-1.3352455529320995,3.004544597367681,-0.9396353363990784,0.25734612345695496,-0.22551824152469635,0.5600996613502502,0.45633256435394287,0.12100003659725189
3.56017804145813,0.24831229448318481,0.0820799469947815,-0.023381948471069336,-0.2591597896867932,-1.3229263867523113,3.018040484462468,-0.9370635747909546,0.2562685012817383,-0.23714661598205566,0.668884813785553,0.43815428018569946,0.09029578417539597
3.586496114730835,0.19905322790145874,0.016453832387924194,-0.001992255449295044,-0.25787936811767087,-1.310738898117111,3.030468318974782,-0.934420108795166,0.25503063201904297,-0.24863334000110626,0.5128152370452881,0.498075395822525,0.10302730649709702
3.604017972946167,0.13661867380142212,-0.03625762462615967,-0.003325134515762329,-0.2581555162022237,-1.2970800777952793,3.039990221929282,-0.9308692812919617,0.25529763102531433,-0.2613537907600403,0.3710470199584961,0.6095743775367737,0.1609506756067276
3.6249258518218994,0.18115001916885376,-0.006625622510910034,-0.025259822607040405,-0.26016089567855244,-1.2827724918343073,3.0472499891522173,-0.9265419840812683,0.2572360336780548,-0.2744990885257721,0.2554360330104828,0.6310770511627197,0.2291065901517868
3.6464569568634033,0.24383467435836792,-0.02407863736152649,0.005585134029388428,-0.264771284414765,-1.268599277418335,3.052286073144883,-0.9214164614677429,0.2616885304450989,-0.2872471213340759,0.0750734806060791,0.6526537537574768,0.36747032403945923
3.6649680137634277,0.24782437086105347,-0.048138707876205444,0.026519298553466797,-0.2723330216742274,-1.2545943381934699,3.056969313309618,-0.9153963923454285,0.2689792215824127,-0.2994990050792694,0.201826274394989,0.6236698031425476,0.5038483738899231
3.684628963470459,0.21415340900421143,-0.022974342107772827,0.01553434133529663,-0.28094329888998426,-1.2397526125628116,3.068103490174429,-0.9086266160011292,0.2772620916366577,-0.31228721141815186,0.5399479269981384,0.5458200573921204,0.6289898753166199
3.7037761211395264,0.15668237209320068,-0.014032244682312012,0.018102258443832397,-0.2882878721556622,-1.2254757702581296,3.085239196463314,-0.9021351933479309,0.2843111753463745,-0.3245292007923126,0.7408292293548584,0.4049312174320221,0.6178476214408875
3.7254390716552734,0.09492123126983643,-0.03759071230888367,0.02741941809654236,-0.29406906909558506,-1.2122376180023113,3.105641874196147,-0.8962059617042542,0.28984901309013367,-0.33586058020591736,0.8974830508232117,0.35539668798446655,0.6181269288063049
3.7408289909362793,0.07336229085922241,-0.03813046216964722,0.03532108664512634,-0.29975575729025794,-1.1990530480905413,3.1278291704897265,-0.8901500105857849,0.2952868640422821,-0.34704282879829407,0.8355036973953247,0.32003214955329895,0.6690852642059326
3.764400005340576,0.09140259027481079,-0.06739544868469238,0.0628930926322937,-0.3070933980026136,-1.1869948960374086,-3.135802458150863,-0.8838678002357483,0.30228930711746216,-0.3569299578666687,0.632082998752594,0.3135330379009247,0.7064579129219055
3.7846760749816895,0.08211731910705566,-0.08204653859138489,0.052397966384887695,-0.31650686081349577,-1.175869134113983,-3.11956931829926,-0.8771765232086182,0.3112488389015198,-0.3656303286552429,0.45847299695014954,0.296673446893692,0.7426448464393616
3.803421974182129,0.07738035917282104,-0.07366424798965454,0.028939038515090942,-0.32650493984459855,-1.165719979672013,-3.105172945568709,-0.8705168962478638,0.32073459029197693,-0.37326884269714355,0.421154648065567,0.2644743323326111,0.7074864506721497
3.823827028274536,0.06948566436767578,-0.06072533130645752,0.029854655265808105,-0.3353309504403721,-1.1563640616649071,-3.09146611606544,-0.8643617630004883,0.3290817141532898,-0.3802421987056732,0.4073306620121002,0.23832209408283234,0.6110815405845642
3.842442035675049,0.07302260398864746,-0.0623529851436615,0.03758913278579712,-0.34184504254971537,-1.1484945437021057,-3.0796585999300423,-0.8593690395355225,0.3352259397506714,-0.38614562153816223,0.3574228584766388,0.15259060263633728,0.4320378303527832
3.86326003074646,0.07185119390487671,-0.10047918558120728,0.020315587520599365,-0.3456640298286348,-1.1430733049758408,-3.0691543180389362,-0.8560919165611267,0.33882150053977966,-0.3902648985385895,0.3813408315181732,0.03897553309798241,0.3278280198574066
3.8840739727020264,0.06250309944152832,-0.12443950772285461,0.04495462775230408,-0.3471282999753793,-1.1384807551460328,-3.0595522292835966,-0.853839099407196,0.340198814868927,-0.3939840793609619,0.370554119348526,0.13762231171131134,0.18258921802043915
3.904071092605591,0.05284994840621948,-0.14173439145088196,0.10105079412460327,-0.3472328405225203,-1.13135081226837,-3.052557491294103,-0.850976288318634,0.3402971029281616,-0.40004679560661316,0.1900070458650589,0.3110295236110687,0.11209241300821304
3.9229390621185303,0.071369469165802,-0.1685151755809784,0.1020548939704895,-0.3487927969686939,-1.1251046255939379,-3.051633225275035,-0.8479809165000916,0.34176355600357056,-0.4051249623298645,-0.16929031908512115,0.2864726781845093,0.05329519510269165
3.943871021270752,0.08391803503036499,-0.18285000324249268,0.06733694672584534,-0.3516103277432914,-1.1214441774795145,-3.055601825050618,-0.8456214666366577,0.3444100618362427,-0.40780627727508545,-0.23833726346492767,0.21592004597187042,0.05667034909129143
3.9638941287994385,0.07336360216140747,-0.14221066236495972,0.030084282159805298,-0.3547597436228729,-1.119336308234335,-3.0600708826802907,-0.8437798619270325,0.3473650813102722,-0.4091126024723053,-0.29660457372665405,0.15145812928676605,0.00957018043845892
3.9827229976654053,0.05776214599609375,-0.11891737580299377,0.026905953884124756,-0.35681820008780935,-1.1200021099676616,-3.0673770693254703,-0.8434066772460938,0.34929463267326355,-0.40823832154273987,-0.4052797853946686,0.03698597475886345,-0.09899372607469559
4.001742124557495,0.06013590097427368,-0.13355788588523865,0.033781349658966064,-0.3593676078076597,-1.1232031751057305,-3.0765453167018975,-0.843903660774231,0.35168230533599854,-0.4051497280597687,-0.4806549549102783,-0.025098171085119247,-0.015531245619058609
4.022747993469238,0.052506446838378906,-0.12654945254325867,0.014255136251449585,-0.36412650576670746,-1.127923699469382,-3.086764999362486,-0.8442849516868591,0.35613319277763367,-0.4004397988319397,-0.5724310278892517,-0.09030593186616898,0.00654938630759716
4.043467998504639,0.04460132122039795,-0.0866442620754242,-0.01975637674331665,-0.3685518807439848,-1.1345657199882142,-3.0974344814066295,-0.8454893827438354,0.36026492714881897,-0.39415350556373596,-0.4851822853088379,-0.20376937091350555,-0.021938718855381012
4.063368082046509,0.05992138385772705,-0.031179696321487427,-0.05781558156013489,-0.37136800594059033,-1.1427175669848126,-3.10426117710155,-0.8477479219436646,0.3628905117511749,-0.38682544231414795,-0.21906158328056335,-0.36167582869529724,0.0124469930306077
4.083521127700806,0.06825506687164307,-0.0049349963665008545,-0.06564286351203918,-0.37289177528393475,-1.1520968881755318,-3.1061319421445175,-0.850832462310791,0.36430999636650085,-0.37863194942474365,-0.01836380921304226,-0.5022546648979187,0.056465066969394684
4.1024110317230225,0.05555993318557739,-0.003254026174545288,-0.06125599145889282,-0.3740035585158431,-1.1627595477185997,-3.1047415888689676,-0.8544490933418274,0.36534515023231506,-0.36937758326530457,0.08576009422540665,-0.6116340160369873,0.09200926870107651
4.122618913650513,0.044039011001586914,0.006092727184295654,-0.06404808163642883,-0.3750274116685663,-1.1745964168705845,-3.1012567299659732,-0.8584157228469849,0.36629804968833923,-0.3590933382511139,0.17085357010364532,-0.7113447189331055,0.13288326561450958
4.143197059631348,0.04606640338897705,0.02968689799308777,-0.0865638256072998,-0.3758103003687015,-1.187866095470806,-3.095699007197646,-0.862838864326477,0.3670263886451721,-0.3475639224052429,0.28307032585144043,-0.8060096502304077,0.1371510922908783
4.163138151168823,0.03753739595413208,0.057505518198013306,-0.09910449385643005,-0.37654654095864076,-1.2018767902641323,-3.0886316376218037,-0.8673713207244873,0.3677111566066742,-0.33534368872642517,0.25025853514671326,-0.8290054798126221,0.1830625832080841
4.182208061218262,0.025598585605621338,0.05642816424369812,-0.09423264861106873,-0.3802346789538911,-1.2161702001697663,-3.0850099477944792,-0.8707980513572693,0.37113839387893677,-0.322439044713974,-0.06705503910779953,-0.7370919585227966,0.2667299807071686
4.203097105026245,0.008146047592163086,0.07673874497413635,-0.13368237018585205,-0.385876179087015,-1.2311696318868952,-3.085791085768559,-0.8735483288764954,0.37637102603912354,-0.30863940715789795,-0.10986647009849548,-0.7612040638923645,0.23001153767108917
4.223026990890503,0.024750351905822754,0.1418062150478363,-0.18253347277641296,-0.38944836594370075,-1.2461748868220188,-3.0821988595177343,-0.8768010139465332,0.3796781599521637,-0.29506659507751465,0.36934900283813477,-0.8960143327713013,0.2351994812488556
4.242856025695801,0.07716524600982666,0.1536429226398468,-0.17321103811264038,-0.39052522645274046,-1.2596636967065407,-3.066339212410767,-0.8803116083145142,0.3806741535663605,-0.2830877900123596,0.9857798218727112,-1.0538486242294312,0.3297472894191742
4.2630650997161865,0.12473315000534058,0.1262945830821991,-0.11495432257652283,-0.3901837364408339,-1.2710934365362212,-3.038012012982067,-0.8836138844490051,0.38035833835601807,-0.27304619550704956,1.5118016004562378,-1.1623753309249878,0.41884514689445496
4.2831339836120605,0.14152711629867554,0.10461431741714478,-0.0712386965751648,-0.38879548192132296,-1.281350658899449,-2.9999655952248956,-0.886873185634613,0.3790740668773651,-0.2641189992427826,1.882914662361145,-1.3202749490737915,0.4633590579032898
4.300971984863281,0.13841897249221802,0.09652435779571533,-0.03292152285575867,-0.3866887368131915,-1.2921248244987333,-2.9552838534276624,-0.8904330730438232,0.37712371349334717,-0.25476762652397156,2.126983642578125,-1.4320809841156006,0.4890787601470947
4.3228490352630615,0.10585105419158936,0.08678272366523743,0.00720706582069397,-0.3843574722275608,-1.3029442082795208,-2.9076230100435576,-0.8939828872680664,0.37496355175971985,-0.24535101652145386,2.174254894256592,-1.4394185543060303,0.4727010130882263
4.342916011810303,0.07055139541625977,0.06383177638053894,0.021274805068969727,-0.38203958703698343,-1.3137071705339551,-2.860629834446036,-0.8974099159240723,0.37281379103660583,-0.23593544960021973,2.1123111248016357,-1.4219322204589844,0.42781946063041687
4.362645864486694,0.04198563098907471,0.07019227743148804,0.014500454068183899,-0.37903462692408774,-1.3244009836897621,-2.8145584225394873,-0.9009637832641602,0.37002378702163696,-0.22659757733345032,2.1413795948028564,-1.3590573072433472,0.34384211897850037
4.382634878158569,0.030084609985351562,0.09834009408950806,0.0351678729057312,-0.3745597338987104,-1.3324209865018526,-2.7667888846821427,-0.9043521881103516,0.36586281657218933,-0.2197534590959549,2.2769289016723633,-1.1822988986968994,0.3006618022918701
4.401501893997192,0.04217261075973511,0.09835591912269592,0.09673997759819031,-0.3704144145830042,-1.3356398068496729,-2.718607040778253,-0.9065218567848206,0.36200177669525146,-0.2171928435564041,2.1327402591705322,-0.9001572132110596,0.34985488653182983
4.422379016876221,0.060886383056640625,0.05127137899398804,0.15692569315433502,-0.3687736429753908,-1.3356855476702643,-2.676309414657068,-0.9071082472801208,0.36047178506851196,-0.21728947758674622,1.731849193572998,-0.6382473111152649,0.41839852929115295
4.44231915473938,0.0540350079536438,0.02560514211654663,0.17537155747413635,-0.3706729608998638,-1.3337770973763876,-2.6424267899181237,-0.9060246348381042,0.36224275827407837,-0.21885906159877777,1.3189828395843506,-0.41155487298965454,0.5061057209968567
4.461211919784546,0.040729641914367676,0.02476656436920166,0.17725509405136108,-0.3757029953172002,-1.3306429470633383,-2.615610338525278,-0.9035531282424927,0.3669265806674957,-0.2212614268064499,1.0120031833648682,-0.2751033902168274,0.5747981667518616
4.481230974197388,0.017753541469573975,0.0309981107711792,0.1832917481660843,-0.38285837300179326,-1.327815157011914,-2.593447741330647,-0.9003523588180542,0.3735734224319458,-0.2231781780719757,0.851616382598877,-0.29075443744659424,0.6072590351104736
4.5011961460113525,-0.05800950527191162,0.05289316177368164,0.18381907045841217,-0.3900918307237081,-1.3263947418219915,-2.572542860598405,-0.8973889946937561,0.38027334213256836,-0.22379709780216217,0.891075611114502,-0.3468707799911499,0.5428529381752014
4.524050951004028,-0.19152522087097168,0.0875382125377655,0.1721591353416443,-0.3942117114862128,-1.3249668072025358,-2.550071851038693,-0.8955413699150085,0.3840804696083069,-0.2246951162815094,1.0322589874267578,-0.3795177638530731,0.34857678413391113
4.541597127914429,-0.3091641068458557,0.11998838186264038,0.1880597621202469,-0.39330861701092146,-1.3230325005746448,-2.5259986899593274,-0.895440936088562,0.383246511220932,-0.2265119105577469,1.1319934129714966,-0.313972145318985,0.11531578749418259
4.562165975570679,-0.3155475854873657,0.10463249683380127,0.2113657295703888,-0.3889078122480454,-1.3199625214471447,-2.503284279922599,-0.8963666558265686,0.3791780173778534,-0.2296762764453888,0.9706867337226868,-0.26998913288116455,-0.008911059238016605
4.581053972244263,-0.22373509407043457,0.08178776502609253,0.23203077912330627,-0.3839517718428247,-1.3191313091881565,-2.4865144333126414,-0.8979843854904175,0.37458744645118713,-0.23088638484477997,0.6618050932884216,-0.2704780101776123,-0.07196251302957535
4.599959135055542,-0.13636285066604614,0.07829350233078003,0.23454493284225464,-0.3802023825620919,-1.3205400842597486,-2.47633130331778,-0.8996631503105164,0.37110841274261475,-0.22996729612350464,0.35103949904441833,-0.2588614821434021,-0.054686401039361954
4.620808839797974,-0.049439311027526855,0.0769711434841156,0.2061724066734314,-0.37863625971255177,-1.324670911785439,-2.471918222522185,-0.9011679291725159,0.3696536719799042,-0.2263903021812439,0.11744806915521622,-0.33499255776405334,-0.008100821636617184
4.640926122665405,0.02009528875350952,0.08039212226867676,0.1466434746980667,-0.3783866604028499,-1.331653112153087,-2.469253483544298,-0.9028161764144897,0.36942175030708313,-0.22011452913284302,0.18478605151176453,-0.4610702395439148,0.03919784724712372
4.661700010299683,0.06070232391357422,0.09492939710617065,0.06511437892913818,-0.378095814530628,-1.3397866109880106,-2.4621843607451472,-0.9046812653541565,0.36915144324302673,-0.2127888947725296,0.491294801235199,-0.6155532002449036,0.0651845633983612
4.681735038757324,0.08007949590682983,0.11433872580528259,0.005582541227340698,-0.3762082804226406,-1.3480691291206952,-2.4470557983123493,-0.9070907235145569,0.3673965632915497,-0.20544221997261047,0.9321483969688416,-0.7644587755203247,0.05479903146624565
4.700044870376587,0.08205091953277588,0.12233290076255798,-0.03233054280281067,-0.3723572217110494,-1.355320127303737,-2.422698070534746,-0.9099316596984863,0.363812118768692,-0.19916053116321564,1.3535189628601074,-0.8388262987136841,0.050028033554553986
4.720526933670044,0.06410050392150879,0.11569741368293762,-0.038060545921325684,-0.3670365788919403,-1.3607800978869036,-2.3920264321192724,-0.9128859043121338,0.35885095596313477,-0.194590225815773,1.511085033416748,-0.798438310623169,0.02806132473051548
4.741431951522827,0.04388147592544556,0.08202630281448364,-0.005645200610160828,-0.36159304657456265,-1.3650171651991212,-2.362057259633499,-0.9156007766723633,0.35376471281051636,-0.1911168247461319,1.3169448375701904,-0.6884283423423767,0.006665438413619995
4.761317014694214,0.024294614791870117,0.048165738582611084,0.008492767810821533,-0.3567374472653777,-1.3690295688326377,-2.337889722862985,-0.9180324673652649,0.3492189645767212,-0.18778358399868011,0.9947962760925293,-0.5694319009780884,-0.03403198719024658
4.779975175857544,0.009467124938964844,0.04935231804847717,0.008482500910758972,-0.3521531432974286,-1.3730529620372856,-2.3204115596944677,-0.9203406572341919,0.3449196219444275,-0.18440106511116028,0.7286990880966187,-0.4495640695095062,-0.10459962487220764
4.800353050231934,0.009742796421051025,0.08177167177200317,-0.010469019412994385,-0.34686456986104286,-1.3768627712060586,-2.307640644060003,-0.9228134751319885,0.3399507999420166,-0.18124240636825562,0.5632592439651489,-0.37696683406829834,-0.1959734857082367
4.821752071380615,0.036758244037628174,0.11205926537513733,-0.021870434284210205,-0.3405127400480643,-1.3809234720585097,-2.2979002433827316,-0.925643801689148,0.33397042751312256,-0.1778976172208786,0.4752526879310608,-0.3605915904045105,-0.2564443051815033
4.843909978866577,0.06345665454864502,0.12320956587791443,-0.029659032821655273,-0.3336289883988011,-1.3853549339260918,-2.289372628772906,-0.9286605715751648,0.32747405767440796,-0.17421367764472961,0.4508357644081116,-0.36785057187080383,-0.283293217420578
4.862969160079956,0.055357158184051514,0.1517466902732849,-0.03774470090866089,-0.32598092117998173,-1.389922518649827,-2.281107342416306,-0.9318830370903015,0.3202382028102875,-0.1704156994819641,0.46773362159729004,-0.35869672894477844,-0.34243953227996826
4.879945993423462,0.03715074062347412,0.17944887280464172,-0.037581026554107666,-0.31770549984390645,-1.3942665041605993,-2.272534810091007,-0.9351915717124939,0.31238770484924316,-0.16682572662830353,0.465387761592865,-0.31921476125717163,-0.3415062427520752
4.899949073791504,0.03413671255111694,0.19689184427261353,-0.04016844928264618,-0.3093939949718478,-1.397309849366685,-2.264495445267099,-0.9382199645042419,0.3044814467430115,-0.16442134976387024,0.427977979183197,-0.2272365391254425,-0.35006409883499146
4.920013189315796,0.08462566137313843,0.20149016380310059,-0.04237900674343109,-0.3022676953110962,-1.3986425949084036,-2.2579761929474946,-0.9405521154403687,0.2976858615875244,-0.1635383516550064,0.3011901378631592,-0.11962246149778366,-0.24550439417362213
4.939997911453247,0.1728605031967163,0.1908854842185974,-0.029108703136444092,-0.298401904454135,-1.3999251197669489,-2.253935905388727,-0.9418882131576538,0.29399311542510986,-0.16252641379833221,0.15883919596672058,-0.13510793447494507,-0.08703485876321793
4.9599289894104,0.190277099609375,0.1906648874282837,-0.03531934320926666,-0.2974195869405104,-1.40188818754439,-2.251119981229477,-0.942489743232727,0.29305407404899597,-0.16072560846805573,0.16142326593399048,-0.138702854514122,0.004800200462341309
4.980020999908447,0.1518930196762085,0.22036060690879822,-0.07055902481079102,-0.29660351166172355,-1.402747558047347,-2.2457808899910328,-0.942862868309021,0.29227373003959656,-0.15995553135871887,0.3957209885120392,-0.11049828678369522,-0.0052199214696884155
4.999916076660156,0.1471320390701294,0.25041550397872925,-0.10039585828781128,-0.29483805223791276,-1.4022465473929902,-2.2330274243831365,-0.9432898759841919,0.29058489203453064,-0.1605142056941986,0.8448647260665894,-0.2446785420179367,0.0417422279715538
5.019926071166992,0.0912548303604126,0.28672996163368225,-0.08626985549926758,-0.292464335462274,-1.4023078549704266,-2.2123668763873963,-0.9439769983291626,0.28831279277801514,-0.16057157516479492,1.0996999740600586,-0.3146919012069702,0.035546597093343735
5.039927959442139,-0.07173091173171997,0.27475157380104065,-0.07264488935470581,-0.28888103756193245,-1.399503401564799,-2.1902593433528,-0.944534957408905,0.28487980365753174,-0.16339334845542908,1.0115939378738403,0.04465721175074577,-0.03798257187008858
5.0599260330200195,-0.08915930986404419,0.19730177521705627,-0.05705249309539795,-0.28598114844244743,-1.3889748943087352,-2.1744279899829806,-0.9435707926750183,0.2820988893508911,-0.17347727715969086,0.4439013600349426,0.47637176513671875,0.05839968100190163
5.079953908920288,0.10722672939300537,0.14353308081626892,-0.005127608776092529,-0.2901473433579812,-1.3781647298120143,-2.172621783410152,-0.9404786825180054,0.28609341382980347,-0.18344050645828247,-0.3150780200958252,0.5250722765922546,0.37640342116355896
5.099948167800903,0.131905198097229,0.10328298807144165,-0.05796961486339569,-0.3031486053871044,-1.3698075774643246,-2.1821768470639293,-0.9351888298988342,0.29852670431137085,-0.1905350238084793,-0.775219738483429,0.6101341247558594,0.6868804097175598
5.119943857192993,-0.02115732431411743,0.1354009509086609,-0.05929911136627197,-0.3223306632749167,-1.361195612788556,-2.199666558738474,-0.9277409315109253,0.3167780637741089,-0.19735375046730042,-1.2743895053863525,0.7998214364051819,0.8237157464027405
5.139975070953369,-0.18488967418670654,0.13794779777526855,0.002819359302520752,-0.3461903430268936,-1.3510228199109078,-2.2248352445801793,-0.9180461168289185,0.33931663632392883,-0.20507462322711945,-1.505765676498413,1.0365180969238281,1.0105732679367065
5.16007399559021,-0.24481260776519775,0.12398865818977356,0.005654633045196533,-0.3746760875492699,-1.3386851372310578,-2.250583445892221,-0.9056695699691772,0.3659711182117462,-0.21407438814640045,-1.4360209703445435,1.0661675930023193,1.2208285331726074
5.179982900619507,-0.1683480143547058,0.11592677235603333,0.02527230978012085,-0.40644833456011814,-1.3266845354592418,-2.2700165424222396,-0.8912985920906067,0.39534950256347656,-0.22200389206409454,-1.0122418403625488,0.8550271391868591,1.4377652406692505
5.2001259326934814,-0.11946290731430054,0.06386792659759521,-0.0015445947647094727,-0.43851614907992464,-1.3144245561463423,-2.275913849543699,-0.875791609287262,0.42459648847579956,-0.22958026826381683,-0.2829785943031311,0.6091718077659607,1.5120922327041626
5.220132112503052,-0.10357296466827393,0.02208036184310913,-0.02255779504776001,-0.46653885504247994,-1.300259608556975,-2.2656854297889133,-0.8606451749801636,0.44979771971702576,-0.2386879324913025,0.41060036420822144,0.3629700243473053,1.4187378883361816
5.240031957626343,-0.07837671041488647,-0.045479804277420044,-0.0016255378723144531,-0.488956241650889,-1.2846683674077282,-2.243445705581187,-0.8469315767288208,0.46970468759536743,-0.24916793406009674,0.8340209722518921,0.19191928207874298,1.285979986190796
5.260587930679321,-0.0561559796333313,-0.1397010087966919,0.025111079216003418,-0.506650776324919,-1.2675709683309908,-2.2140594748706928,-0.8344841599464417,0.4852514863014221,-0.26108819246292114,1.0921005010604858,0.12891501188278198,1.1662819385528564
5.280080080032349,-0.030626356601715088,-0.17024847865104675,0.0607142448425293,-0.5207363641775619,-1.2495350648114396,-2.181672771538056,-0.8230723142623901,0.49751904606819153,-0.2739100456237793,1.1377694606781006,0.08281631767749786,1.044828176498413
5.300108194351196,-0.0035709142684936523,-0.20095223188400269,0.0904073715209961,-0.5326544035913028,-1.2329312056671817,-2.150650741007939,-0.8127590417861938,0.507821798324585,-0.285552054643631,1.0042922496795654,0.006856656167656183,0.9599069356918335
5.319996118545532,0.006815552711486816,-0.23659026622772217,0.11235308647155762,-0.5440212809676216,-1.2193678134535009,-2.123349987110645,-0.8033396005630493,0.5175809264183044,-0.29454299807548523,0.8363330364227295,-0.055873483419418335,0.9099218845367432
5.340029954910278,0.0007361769676208496,-0.23237454891204834,0.10066735744476318,-0.5547512778423627,-1.2087439618337843,-2.098563505519113,-0.7949256300926208,0.5267319083213806,-0.30107635259628296,0.8036107420921326,-0.18753448128700256,0.8265166878700256
5.359999895095825,-0.013544082641601562,-0.19881898164749146,0.08427909016609192,-0.5630101387872075,-1.200305757458436,-2.072897744130557,-0.7882747054100037,0.533734142780304,-0.3061876893043518,0.9521312713623047,-0.33019202947616577,0.7248563170433044
5.379954099655151,-0.0307081937789917,-0.1785779595375061,0.09207785129547119,-0.5679344907959658,-1.1927467357903156,-2.0446406728015942,-0.783485472202301,0.5378919243812561,-0.3111635446548462,1.0766879320144653,-0.4246852397918701,0.5999991297721863
5.399976015090942,-0.04344683885574341,-0.19355642795562744,0.10622400045394897,-0.5699382025334332,-1.186651400874398,-2.016295930242024,-0.7805735468864441,0.5395800471305847,-0.3155288100242615,1.0579224824905396,-0.4920031428337097,0.47138386964797974
5.419975996017456,-0.03949379920959473,-0.21309995651245117,0.11095842719078064,-0.5700978702737446,-1.1831026702008147,-1.9903557630157855,-0.7793692350387573,0.5397144556045532,-0.31826433539390564,0.9687268733978271,-0.5690031051635742,0.3470367193222046
5.439976930618286,-0.02936720848083496,-0.21279215812683105,0.08859497308731079,-0.5683555695195913,-1.1829437910087792,-1.9677742736593924,-0.7801878452301025,0.5382468700408936,-0.3187432587146759,0.8516891002655029,-0.6365714073181152,0.20733113586902618
5.4599769115448,-0.008593857288360596,-0.19741368293762207,0.06469178199768066,-0.564958374650498,-1.186916291480037,-1.9497037920157654,-0.7831389307975769,0.5353806614875793,-0.31632447242736816,0.6731024384498596,-0.721298098564148,0.05376658961176872
5.479975938796997,0.01005709171295166,-0.19949191808700562,0.04600268602371216,-0.5607220970531319,-1.1951281232441366,-1.937631407221444,-0.7878128290176392,0.5317978858947754,-0.31071221828460693,0.4356028735637665,-0.7171804904937744,-0.058615222573280334
5.499985933303833,0.009891867637634277,-0.18811321258544922,0.03345796465873718,-0.5563907508669756,-1.2062172154004582,-1.9314799186221816,-0.7933543920516968,0.5281248092651367,-0.3027755916118622,0.1930471658706665,-0.6732171177864075,-0.16573959589004517
5.519996881484985,-0.003848552703857422,-0.1551342010498047,0.03551474213600159,-0.5521320479648726,-1.2190115591054826,-1.9322472310541874,-0.7992672324180603,0.5245036482810974,-0.2933729588985443,-0.10214880108833313,-0.5840654969215393,-0.2640562653541565
5.539982080459595,-0.01901113986968994,-0.13988345861434937,0.014872968196868896,-0.5477566100402247,-1.233868756240635,-1.9397645404370611,-0.8056959509849548,0.5207733511924744,-0.282222181558609,-0.3259034752845764,-0.5218027234077454,-0.36146280169487
5.56014084815979,-0.0064795613288879395,-0.1084517240524292,-0.016336798667907715,-0.542600748898458,-1.249577126525856,-1.9502429195922872,-0.8125664591789246,0.5163649320602417,-0.2703758478164673,-0.32523223757743835,-0.5188800692558289,-0.41700291633605957
5.580078840255737,0.022653639316558838,-0.050595879554748535,-0.045485854148864746,-0.5354951099272796,-1.264904977784293,-1.9586555578594964,-0.8200932145118713,0.510266900062561,-0.25898805260658264,-0.11384040862321854,-0.59636390209198,-0.48520416021347046
5.600152969360352,0.03867238759994507,-0.006930649280548096,-0.07732459902763367,-0.5255063028778606,-1.2789200793076698,-1.9608705089995937,-0.8284825086593628,0.5016510486602783,-0.24892358481884003,0.22808611392974854,-0.6923403143882751,-0.5284178853034973
5.620030164718628,0.04551243782043457,0.02040201425552368,-0.08205120265483856,-0.512795203601793,-1.2908695794145835,-1.955652823541393,-0.8374587893486023,0.4906148314476013,-0.24074847996234894,0.5712983012199402,-0.7627526521682739,-0.5645641088485718
5.640107870101929,0.057309627532958984,0.028339028358459473,-0.09692633152008057,-0.49807352822988354,-1.3009923232474787,-1.9435506273162415,-0.8467230796813965,0.4777339994907379,-0.23415884375572205,0.8183165788650513,-0.838452935218811,-0.5667126774787903
5.660048961639404,0.06625443696975708,0.03171294927597046,-0.10833525657653809,-0.4825908089856879,-1.311041817123708,-1.928210571113666,-0.8560798764228821,0.46407565474510193,-0.22751067578792572,0.8950372338294983,-0.8878406882286072,-0.5855233073234558
5.67998194694519,0.0620536208152771,0.030808180570602417,-0.10747852921485901,-0.4665903909548311,-1.3209098104216956,-1.9114530008000223,-0.8653679490089417,0.44984376430511475,-0.22086010873317719,0.9591104984283447,-0.868966817855835,-0.5863362550735474
5.700031995773315,0.05662447214126587,0.055185675621032715,-0.11932295560836792,-0.45060083763139436,-1.3298906741633196,-1.8931631332676753,-0.8741903901100159,0.4355064928531647,-0.21476830542087555,1.0256931781768799,-0.8511361479759216,-0.5722218155860901
5.71998405456543,0.038489341735839844,0.07708761096000671,-0.14508679509162903,-0.43458681349079015,-1.338503208510319,-1.874290148490661,-0.8826819658279419,0.42103564739227295,-0.20881034433841705,0.9887537360191345,-0.8123909831047058,-0.5876820683479309
5.73999285697937,0.018203914165496826,0.10345235466957092,-0.13393132388591766,-0.41891664862341677,-1.3469185706363687,-1.8573420898811954,-0.8907319903373718,0.4067710041999817,-0.20281489193439484,0.8624609112739563,-0.7270650267601013,-0.590323269367218
5.759980916976929,-0.002232670783996582,0.1141321063041687,-0.12554489076137543,-0.40444930022252,-1.3548885731991103,-1.8437930908678761,-0.8979747891426086,0.3935125470161438,-0.19694961607456207,0.6643651127815247,-0.6188406944274902,-0.553655743598938
5.779978036880493,0.002526402473449707,0.1279180645942688,-0.12418746948242188,-0.3919266232841111,-1.362661067314462,-1.8334982661315415,-0.9042292833328247,0.3819696605205536,-0.1909675896167755,0.5473243594169617,-0.5716782212257385,-0.4626898467540741
5.79997706413269,0.0148354172706604,0.16696864366531372,-0.13229334354400635,-0.38183931468184806,-1.37033121136042,-1.824079636369663,-0.9093971848487854,0.37262794375419617,-0.18478433787822723,0.5249269008636475,-0.5531812310218811,-0.35522785782814026
5.819987058639526,0.011845946311950684,0.19730061292648315,-0.13397975265979767,-0.37358480322075754,-1.3776718910794683,-1.8138919263505007,-0.9137168526649475,0.3649553060531616,-0.17868810892105103,0.5939839482307434,-0.574028491973877,-0.26478591561317444
5.839986085891724,-0.00404512882232666,0.22303321957588196,-0.13846637308597565,-0.36675281818970046,-1.3858120832325145,-1.800086718192401,-0.9175705909729004,0.3585861027240753,-0.17169904708862305,0.8295555710792542,-0.7669730186462402,-0.17609328031539917
5.860008955001831,-0.1336514949798584,0.2859092354774475,-0.16397647559642792,-0.3594621653494585,-1.3946446273630924,-1.7788441065357308,-0.9216005206108093,0.35177081823349,-0.16404172778129578,1.2930653095245361,-0.8289497494697571,-0.2090282142162323
5.879984140396118,-0.30163639783859253,0.35011687874794006,-0.1865437626838684,-0.3490351378281353,-1.3980660602310153,-1.74743530755656,-0.9257195591926575,0.34199127554893494,-0.16150924563407898,1.7419317960739136,-0.568122386932373,-0.2970139980316162
5.899978876113892,-0.20774859189987183,0.33392298221588135,-0.1286727786064148,-0.33863454081675576,-1.394679837781666,-1.7121231400867278,-0.9286192059516907,0.33219948410987854,-0.1652572900056839,1.6387462615966797,-0.32162776589393616,-0.10019771009683609
5.9199769496917725,0.059520602226257324,0.23007085919380188,-0.05104278028011322,-0.33551479038482174,-1.3898733135211578,-1.6817523944556247,-0.9288290739059448,0.3292553126811981,-0.1699044406414032,1.2517435550689697,-0.21409925818443298,0.3082200288772583
5.93997597694397,0.1994805932044983,0.1626010239124298,-0.049458906054496765,-0.3412201276259802,-1.384683358965709,-1.655369544800694,-0.9260735511779785,0.3346371352672577,-0.17437227070331573,1.1414258480072021,-0.15626755356788635,0.7002418041229248
5.959977865219116,0.26313847303390503,0.16181176900863647,-0.07706086337566376,-0.353597934711958,-1.3786523871865883,-1.6272743810894417,-0.9208685159683228,0.3462753891944885,-0.17914944887161255,1.2808172702789307,-0.21399325132369995,1.0003546476364136
5.97999906539917,0.291780948638916,0.15144404768943787,-0.08144032955169678,-0.36995309148631506,-1.371787957730118,-1.5917187995227493,-0.913942813873291,0.36157169938087463,-0.1843220442533493,1.701769471168518,-0.3717333674430847,1.2465934753417969
5.9999799728393555,0.23512953519821167,0.141741544008255,-0.06418934464454651,-0.3881825639429248,-1.363187414830793,-1.544780710397499,-0.9057226777076721,0.3785068392753601,-0.19078505039215088,2.185053825378418,-0.5123335123062134,1.3925470113754272
6.019978046417236,0.07630449533462524,0.12322789430618286,-0.019157499074935913,-0.40552682264619283,-1.3524370950167,-1.489228372075521,-0.8970748782157898,0.3945029079914093,-0.1990584433078766,2.421475410461426,-0.559509813785553,1.3571571111679077
6.04001784324646,-0.12255346775054932,0.08231461048126221,0.030275404453277588,-0.4198068262082581,-1.3392560916829428,-1.4306968971101812,-0.8887990117073059,0.4075840711593628,-0.20955093204975128,2.482480049133301,-0.4432194232940674,1.221116542816162
6.059980154037476,-0.29755908250808716,0.05912041664123535,0.08989092707633972,-0.4306118562471727,-1.3212229692951298,-1.3738944352200915,-0.8805568814277649,0.4174268841743469,-0.22444294393062592,2.2367441654205322,-0.10653515160083771,1.0539765357971191
6.079977989196777,-0.3531392216682434,0.012729614973068237,0.1696041226387024,-0.43965231583003905,-1.3002702786476847,-1.3266250627068192,-0.8719889521598816,0.42562487721443176,-0.2418239414691925,1.6396396160125732,0.1876267045736313,0.9472025036811829
6.099977016448975,-0.3119505047798157,-0.06112918257713318,0.21378090977668762,-0.45088585370205314,-1.280123094513485,-1.2939397448187957,-0.8623049855232239,0.43576303124427795,-0.2579551935195923,0.8844681978225708,0.40916550159454346,0.9630303978919983
6.120012044906616,-0.2947075366973877,-0.08200189471244812,0.23175400495529175,-0.46619946097117715,-1.2614881466300485,-1.2758783247026106,-0.8508918881416321,0.4494945704936981,-0.27191513776779175,0.2420676052570343,0.675214409828186,0.9814420938491821
6.139976978302002,-0.25666093826293945,-0.08608296513557434,0.2468772828578949,-0.4851742290889241,-1.2423332139214955,-1.2683727485328868,-0.8373026251792908,0.46636247634887695,-0.2853599190711975,-0.154297336935997,0.8684546947479248,1.0449354648590088
6.160064935684204,-0.16319257020950317,-0.09256833791732788,0.2492642104625702,-0.5072985872393373,-1.222454070911361,-1.2641940207725475,-0.8215638399124146,0.4858178198337555,-0.2983517348766327,-0.17064009606838226,0.9175793528556824,1.1792399883270264
6.179979085922241,-0.10005885362625122,-0.08176910877227783,0.23794123530387878,-0.5308700769154021,-1.1999681865933256,-1.2552642823676958,-0.8037497401237488,0.5062838792800903,-0.3125109076499939,0.07730501890182495,0.8770159482955933,1.2983609437942505
6.199974060058594,-0.056305646896362305,-0.10161405801773071,0.2449263334274292,-0.5543470369535655,-1.1756143319540648,-1.2396856308860311,-0.7847130298614502,0.5263882279396057,-0.3273237943649292,0.25309091806411743,0.7385802865028381,1.3817754983901978
6.219980001449585,-0.0308302640914917,-0.1696263551712036,0.2758030295372009,-0.5778368746500256,-1.1524790903158275,-1.2204650144601337,-0.7654191851615906,0.5462132692337036,-0.3402714729309082,0.30539488792419434,0.5488357543945312,1.4199146032333374
6.23998498916626,-0.05427128076553345,-0.2096821665763855,0.2840701639652252,-0.5998579472345349,-1.130329132313438,-1.1974753200226829,-0.7466319799423218,0.5645252466201782,-0.3519260287284851,0.5788882970809937,0.3996638357639313,1.367355227470398
6.259976148605347,-0.08698004484176636,-0.1954491138458252,0.2671927511692047,-0.6156614000343544,-1.104734550592864,-1.1645758805226736,-0.7293193340301514,0.5774986147880554,-0.3668631911277771,1.169213056564331,0.2626000940799713,1.2344553470611572
6.27997612953186,-0.08320224285125732,-0.17856860160827637,0.25794267654418945,-0.6227765806321475,-1.0766830346984222,-1.121335195046844,-0.7151071429252625,0.5832927227020264,-0.38521629571914673,1.5746796131134033,0.03151362016797066,1.021325707435608
6.29997992515564,-0.0898333191871643,-0.24602973461151123,0.28745734691619873,-0.6232675748845711,-1.051359068025651,-1.0765859061927223,-0.7048749327659607,0.5836914777755737,-0.4030579626560211,1.520505666732788,-0.0765199065208435,0.7824410796165466
6.3199989795684814,-0.11937475204467773,-0.307922899723053,0.3245898187160492,-0.6201933300008428,-1.0312783883537453,-1.03949727877434,-0.698175847530365,0.5811924934387207,-0.4180499017238617,1.200909972190857,-0.07354187220335007,0.4687965512275696
6.339947938919067,-0.11775022745132446,-0.30635643005371094,0.33122873306274414,-0.615482506931098,-1.019535145717333,-1.0157108510832782,-0.6955432295799255,0.5773525834083557,-0.4276490807533264,0.6985189318656921,-0.14394493401050568,0.13858464360237122
6.359112024307251,-0.08607792854309082,-0.3201313614845276,0.3247602880001068,-0.6107203150937418,-1.0177844699765113,-1.0061531567754183,-0.6971251964569092,0.5734577178955078,-0.4303053319454193,0.22800417244434357,-0.23121406137943268,-0.11694086343050003
6.380005121231079,-0.07293158769607544,-0.3056296110153198,0.29568520188331604,-0.606212801672625,-1.0247117914734214,-1.0085259426481927,-0.7022911310195923,0.56975919008255,-0.42680397629737854,-0.12517407536506653,-0.33072492480278015,-0.3765113651752472
6.399984121322632,-0.06918781995773315,-0.25838905572891235,0.25607749819755554,-0.5997111148966306,-1.0380948184950494,-1.018669725714649,-0.7111160755157471,0.5644040107727051,-0.41923969984054565,-0.24178564548492432,-0.4329303801059723,-0.5941752195358276
6.4199841022491455,-0.05437731742858887,-0.2137986421585083,0.2190258502960205,-0.5906949099521388,-1.055694466585193,-1.032689051635265,-0.7227833271026611,0.5569382905960083,-0.4091503620147705,-0.3222780227661133,-0.5356802940368652,-0.7681938409805298
6.440024137496948,-0.04517829418182373,-0.19991767406463623,0.21356713771820068,-0.5800457610614164,-1.0771094243819317,-1.0505353630887404,-0.7365599870681763,0.5480622053146362,-0.39636746048927307,-0.47839564085006714,-0.6311401724815369,-0.8806894421577454
6.459977865219116,-0.04821902513504028,-0.18428027629852295,0.18851375579833984,-0.5685084889323955,-1.102752029065312,-1.0722707659825266,-0.7520739436149597,0.538375735282898,-0.38017940521240234,-0.5778149962425232,-0.7522134780883789,-0.994638979434967
6.479985952377319,-0.07745355367660522,-0.14132815599441528,0.12877827882766724,-0.5544135177250564,-1.1307059024303063,-1.094486977840352,-0.7691956162452698,0.5264447331428528,-0.362207293510437,-0.47914788126945496,-0.8586434125900269,-1.1029984951019287
6.499983072280884,-0.0951385498046875,-0.08781075477600098,0.08045932650566101,-0.5369846536635212,-1.1592382657174523,-1.1146684047890976,-0.7875062227249146,0.5115473866462708,-0.3437345325946808,-0.3844522535800934,-0.9486063122749329,-1.196285605430603
6.519943952560425,-0.0874972939491272,-0.06300172209739685,0.04436221718788147,-0.5172652121553161,-1.1884348645779277,-1.133471462520586,-0.8064082860946655,0.49450498819351196,-0.3242999017238617,-0.3696778416633606,-1.0303186178207397,-1.2540273666381836
6.540019989013672,-0.07620704174041748,-0.03657174110412598,0.012660592794418335,-0.49656282209918995,-1.2182336764495343,-1.1519147997320671,-0.8251448273658752,0.4764063060283661,-0.3035999536514282,-0.3995583951473236,-1.0512889623641968,-1.2540926933288574
6.55999493598938,-0.0695655345916748,-0.006985336542129517,-0.02696770429611206,-0.4761269143252267,-1.2472651169364002,-1.1697649254068594,-0.8426659107208252,0.4583403170108795,-0.2825568616390228,-0.409742146730423,-1.0018571615219116,-1.1929906606674194
6.579975843429565,-0.06739509105682373,0.022918790578842163,-0.0776505172252655,-0.4568761451298682,-1.2739043842946687,-1.1866874833714158,-0.8581726551055908,0.4411468207836151,-0.2625442147254944,-0.44218000769615173,-0.9012730717658997,-1.1112399101257324
6.5999860763549805,-0.05524182319641113,0.060820966958999634,-0.14160649478435516,-0.4387635589233227,-1.2978926429420812,-1.2029163758124994,-0.8717753887176514,0.4248204529285431,-0.24399837851524353,-0.4660116732120514,-0.7996143698692322,-1.0444602966308594
6.619976997375488,-0.03129357099533081,0.10565701127052307,-0.18399180471897125,-0.42173311976513606,-1.3190578896196627,-1.2187085664152544,-0.8836233019828796,0.40934231877326965,-0.22726307809352875,-0.49832066893577576,-0.656706690788269,-0.9730180501937866
6.640014886856079,-0.02866816520690918,0.11518195271492004,-0.20178177952766418,-0.40646182564118655,-1.3373897634644014,-1.236052869112219,-0.8936189413070679,0.39536190032958984,-0.2124485820531845,-0.7094632387161255,-0.4904686212539673,-0.9062338471412659
6.6600401401519775,-0.038791656494140625,0.10598179697990417,-0.2057371586561203,-0.3932909848804101,-1.3538622930470559,-1.2581800352855936,-0.9020042419433594,0.38323020935058594,-0.1988038420677185,-0.969475507736206,-0.29097023606300354,-0.8200621008872986
6.679986000061035,-0.06938439607620239,0.13560327887535095,-0.2210717648267746,-0.38248982457519487,-1.3678805183995262,-1.2846332120446131,-0.9087039232254028,0.37323153018951416,-0.1869635283946991,-1.2001945972442627,-0.1230015680193901,-0.7682089805603027
6.7000038623809814,-0.10311508178710938,0.16565650701522827,-0.2256181836128235,-0.372828138870643,-1.3806107069635913,-1.3158123572224731,-0.9145088195800781,0.36425071954727173,-0.1760542243719101,-1.4649873971939087,-0.027644595131278038,-0.738606333732605
6.720041990280151,-0.14356672763824463,0.1964636743068695,-0.22084349393844604,-0.36544970248696496,-1.392345069355081,-1.3516958095221967,-0.9191316366195679,0.3573693335056305,-0.16578373312950134,-1.6834067106246948,0.14611290395259857,-0.6295864582061768
6.739439010620117,-0.20658361911773682,0.2278224527835846,-0.21467238664627075,-0.3595236939236988,-1.4020269628248958,-1.391369262314279,-0.9227651953697205,0.3518284261226654,-0.15723013877868652,-1.8737438917160034,0.31782883405685425,-0.5834882259368896
6.759988069534302,-0.17265331745147705,0.23328664898872375,-0.18322724103927612,-0.3557103418928644,-1.408791656970988,-1.433438269928008,-0.925125002861023,0.34825631976127625,-0.15119965374469757,-1.9522510766983032,0.46034592390060425,-0.4329216778278351
6.779977083206177,-0.06791144609451294,0.21084925532341003,-0.1524653285741806,-0.35544104323768916,-1.4133249740167024,-1.474930700101755,-0.9258934855461121,0.3480038642883301,-0.1470189243555069,-1.8825287818908691,0.5373210906982422,-0.23090583086013794
6.800014019012451,0.029201626777648926,0.17801812291145325,-0.13078606128692627,-0.35792631555644994,-1.415160721007177,-1.5129745554253375,-0.9253045320510864,0.35033273696899414,-0.1451844722032547,-1.6373952627182007,0.5888158679008484,-0.07010126858949661
6.819990873336792,0.11638039350509644,0.15105924010276794,-0.12184733152389526,-0.3628471899363387,-1.4140796275773808,-1.5424554730372715,-0.9234330058097839,0.35493746399879456,-0.14591388404369354,-1.152284860610962,0.5512819886207581,0.1268741637468338
6.840007066726685,0.16796189546585083,0.14442923665046692,-0.11771470308303833,-0.36947397990719083,-1.410250008168379,-1.5605529268923441,-0.9205253720283508,0.3611249625682831,-0.14906993508338928,-0.6374582648277283,0.4898509979248047,0.2500503957271576
6.8599841594696045,0.17138785123825073,0.1198168694972992,-0.09205853939056396,-0.37665095648916896,-1.4037834899057056,-1.5691258450440628,-0.9169628024101257,0.3678082525730133,-0.15458452701568604,-0.307950496673584,0.483929842710495,0.3204214572906494
6.879985094070435,0.14727860689163208,0.07540827989578247,-0.04566691815853119,-0.3843645507495296,-1.3953891341281948,-1.5736537590743422,-0.9128119945526123,0.37497013807296753,-0.1617763638496399,-0.2949434220790863,0.532061755657196,0.36575326323509216
6.899975061416626,0.1011701226234436,0.019928157329559326,0.014328047633171082,-0.3932681695631498,-1.386617258051006,-1.5808686141346213,-0.9080397486686707,0.38320913910865784,-0.16915898025035858,-0.5605729818344116,0.6381356716156006,0.3956879675388336
6.919975996017456,0.03950464725494385,-0.02905210852622986,0.07157212495803833,-0.4040795444405564,-1.37742743251975,-1.5948682093760678,-0.9023281335830688,0.39317259192466736,-0.17668993771076202,-0.9044234752655029,0.8459563255310059,0.4169386327266693
6.939983129501343,-0.018260180950164795,-0.04752296209335327,0.10575582087039948,-0.4166347531763199,-1.3662381220415625,-1.6156709374803448,-0.8953902125358582,0.404685378074646,-0.1857576221227646,-1.2144114971160889,1.0363037586212158,0.44352373480796814
6.959985971450806,-0.04179579019546509,-0.04903942346572876,0.1197674423456192,-0.43105452748037815,-1.354195033257577,-1.6418590125529184,-0.8872965574264526,0.41782909631729126,-0.1952526718378067,-1.4175479412078857,1.2334325313568115,0.4803895056247711
6.97997784614563,-0.026941359043121338,-0.053505510091781616,0.1319631040096283,-0.4479274384759962,-1.3417081541519402,-1.6712569193063733,-0.8777979612350464,0.43309837579727173,-0.2046864628791809,-1.5430712699890137,1.2621536254882812,0.5840970277786255
6.999975919723511,-0.031146526336669922,-0.07092076539993286,0.1390424519777298,-0.46764827732314806,-1.3299372808492236,-1.7014597645654364,-0.8668636679649353,0.45078831911087036,-0.21292546391487122,-1.5529654026031494,1.2438174486160278,0.7005388140678406
7.019974946975708,-0.0792505145072937,-0.0867864191532135,0.16216659545898438,-0.489614362258143,-1.3192474353695962,-1.7309437967268022,-0.8547399640083313,0.4702855944633484,-0.21966171264648438,-1.5327709913253784,1.1728262901306152,0.7824573516845703
7.039977073669434,-0.1617833971977234,-0.09999114274978638,0.16700424253940582,-0.5119913695164923,-1.3108112884891578,-1.7599284517939608,-0.8424737453460693,0.4899142384529114,-0.2241026759147644,-1.493896245956421,1.0763767957687378,0.7194092273712158
7.060014963150024,-0.2527260184288025,-0.10529434680938721,0.17493432760238647,-0.5315913219834276,-1.3040591967378559,-1.7885003135811215,-0.83151775598526,0.5069056749343872,-0.22721098363399506,-1.4128259420394897,1.032468318939209,0.5166324377059937
7.079524040222168,-0.26027506589889526,-0.12202215194702148,0.18056678771972656,-0.5464245302538413,-1.298729808072823,-1.8166457563437195,-0.8229615688323975,0.5196357369422913,-0.22959329187870026,-1.3206429481506348,0.9371490478515625,0.2746967077255249
7.0999791622161865,-0.15792715549468994,-0.1477738618850708,0.1582573652267456,-0.5561629787163962,-1.2963645734161553,-1.8437276563357234,-0.8175061941146851,0.5279313325881958,-0.2301567941904068,-1.150054693222046,0.6985862851142883,0.03994312882423401
7.119987964630127,-0.021567225456237793,-0.15129560232162476,0.12239259481430054,-0.5604051067432403,-1.2981144200098036,-1.867586055317907,-0.8157435655593872,0.5315293669700623,-0.22812074422836304,-0.9152716398239136,0.39466777443885803,-0.1716097593307495
7.139976978302002,0.09711968898773193,-0.1448637843132019,0.12237514555454254,-0.5593873153391472,-1.3033202243291828,-1.8867879071852125,-0.8174412846565247,0.5306670069694519,-0.22401390969753265,-0.6197802424430847,0.11254224926233292,-0.3528781235218048
7.159978151321411,0.1696932315826416,-0.15587085485458374,0.1023007333278656,-0.5535177674278561,-1.310627593879605,-1.8996320398632358,-0.8220522999763489,0.5256829857826233,-0.21883215010166168,-0.27950817346572876,-0.1651666909456253,-0.5034434795379639
7.179977178573608,0.20010888576507568,-0.1296880841255188,0.05869831144809723,-0.5425249343421488,-1.319689691375396,-1.904769106081979,-0.8295491337776184,0.5163000226020813,-0.21279680728912354,0.1416068822145462,-0.4768295884132385,-0.681374192237854
7.199649095535278,0.20109492540359497,-0.09358638525009155,0.027442574501037598,-0.5263015767307073,-1.3299866619074534,-1.9014630715861343,-0.8397210836410522,0.5023388862609863,-0.2062145173549652,0.4957248866558075,-0.7267133593559265,-0.8271086812019348
7.219977140426636,0.16979628801345825,-0.08366188406944275,0.016490280628204346,-0.506326646049619,-1.3437778820070154,-1.8948264804644392,-0.8520930409431458,0.48496806621551514,-0.19683393836021423,0.41479671001434326,-0.9194813966751099,-0.9652363061904907
7.239976167678833,0.11544531583786011,-0.09621492028236389,0.03434664011001587,-0.4920695540771527,-1.3610588442234712,-1.9048235193706722,-0.8620426058769226,0.4724509119987488,-0.18350130319595337,-1.1716948747634888,-0.2639623284339905,-0.5563563704490662
7.26007604598999,-0.0017510056495666504,-0.1690790057182312,-0.054191529750823975,-0.4905677386862762,-1.3818509075788015,-1.9518514562366291,-0.8663672804832458,0.4711267352104187,-0.16567236185073853,-2.729700803756714,0.39918527007102966,-0.4989364743232727
7.279996156692505,-0.15446096658706665,0.07287997007369995,-0.17284511029720306,-0.4895988415735466,-1.4012097233662908,-2.021314514609178,-0.8698614835739136,0.47027188539505005,-0.14894749224185944,-2.9535491466522217,0.8282720446586609,-0.7348892688751221
7.299978971481323,-0.13507819175720215,0.429139107465744,-0.2753204107284546,-0.47901589263578054,-1.4089206535965295,-2.0705782006738738,-0.8758470416069031,0.460906058549881,-0.1430298238992691,-0.9545503854751587,0.587151288986206,-0.9835327863693237
7.319978952407837,0.020363986492156982,0.6615857481956482,-0.3589746952056885,-0.4600806057880533,-1.4028932381455461,-2.069789621906233,-0.8834162950515747,0.4440203309059143,-0.14973808825016022,1.2183259725570679,-0.04236149042844772,-0.8184221982955933
7.340012073516846,0.1360635757446289,0.5102152824401855,-0.2795921564102173,-0.4396992773708547,-1.393832664447932,-2.0325846217782755,-0.8907480835914612,0.4256673753261566,-0.15929637849330902,2.262784719467163,-0.6249988079071045,-0.6612961888313293
7.360059976577759,0.11463254690170288,0.2913469672203064,-0.18995177745819092,-0.41885220707422255,-1.3872866155383092,-1.979719257873926,-0.8982171416282654,0.406712144613266,-0.1667071133852005,2.8573648929595947,-0.9170088171958923,-0.47272735834121704
7.379976987838745,0.11049944162368774,0.2608731687068939,-0.186862051486969,-0.40143340893828794,-1.3830290114750967,-1.9133799157077718,-0.904322624206543,0.39073818922042847,-0.1718263328075409,3.510100841522217,-1.3040997982025146,-0.16591601073741913
7.40000319480896,0.019923388957977295,0.2526625692844391,-0.23092041909694672,-0.3846025747816192,-1.3788427459327284,-1.8322477135406248,-0.90992271900177,0.37519076466560364,-0.17684023082256317,4.137140274047852,-1.287091851234436,-0.12003108114004135
7.420024156570435,-0.1045343279838562,0.19414600729942322,-0.24895106256008148,-0.3661341800072151,-1.3697167401440613,-1.7471620743511416,-0.914905309677124,0.3580085337162018,-0.1864890158176422,3.727975368499756,-0.8846893906593323,-0.0871918722987175
7.43997597694397,-0.024157583713531494,0.03526458144187927,-0.08646874129772186,-0.3564359989596436,-1.361990897531213,-1.6851222115502387,-0.9167909026145935,0.3489364683628082,-0.19426241517066956,2.132148504257202,-0.588302493095398,0.32393336296081543
7.4599769115448,0.04090297222137451,-0.08941125869750977,-0.029795527458190918,-0.35892438019356776,-1.361258219350994,-1.6503263905787358,-0.915796160697937,0.35126736760139465,-0.19475285708904266,1.2641392946243286,-0.5954305529594421,0.5419541001319885
7.479406118392944,0.009559035301208496,0.10645213723182678,-0.06405799090862274,-0.36373472786291444,-1.3626641899360397,-1.6194959427404854,-0.9144051671028137,0.3557671010494232,-0.19311368465423584,1.5354644060134888,-0.6448383927345276,0.5443587899208069
7.499985933303833,0.009926915168762207,0.18309971690177917,-0.0031975507736206055,-0.3692889737340049,-1.3627226972131272,-1.5833259970691826,-0.9124689698219299,0.3609524369239807,-0.1926490217447281,1.5406887531280518,-0.624696671962738,0.7127344012260437
7.5199501514434814,-0.027036547660827637,0.01765000820159912,0.11893519759178162,-0.3786965401808189,-1.3611342847537953,-1.5521600727092544,-0.9088003039360046,0.36970967054367065,-0.1933828592300415,1.1277732849121094,-0.31385132670402527,0.7838335633277893
7.539975881576538,-0.14299774169921875,-0.02828618884086609,0.1692788004875183,-0.3896821998402839,-1.3522298415553653,-1.5284168211142446,-0.9030227661132812,0.3798944652080536,-0.20057463645935059,0.802895188331604,0.24345748126506805,0.7674099802970886
7.55997896194458,-0.1563393473625183,-0.015831291675567627,0.18248111009597778,-0.40175007416878455,-1.3369471243611106,-1.5107730361649363,-0.8953269720077515,0.3910296559333801,-0.21327339112758636,0.5167778730392456,0.5863105058670044,0.7930063009262085
7.579363107681274,-0.08196407556533813,-0.08039316534996033,0.1933000683784485,-0.41662114977605463,-1.3190710778586605,-1.4996115059550672,-0.8856414556503296,0.4046729505062103,-0.22776968777179718,0.06882932782173157,0.7248457670211792,0.8919117450714111
7.5999791622161865,-0.03557795286178589,-0.1202954351902008,0.21263828873634338,-0.4355743034801856,-1.3021381814576214,-1.495840012287865,-0.8741051554679871,0.4219311475753784,-0.24065342545509338,-0.21581383049488068,0.8158729672431946,1.0243849754333496
7.620012998580933,-0.039657413959503174,-0.12135058641433716,0.19484397768974304,-0.45723051630381134,-1.2859186302370085,-1.4965288014611242,-0.8611147999763489,0.4414648115634918,-0.25217127799987793,-0.4119693636894226,0.8204858899116516,1.018027901649475
7.639984846115112,-0.03484785556793213,-0.11921638250350952,0.18386608362197876,-0.47844904575936203,-1.2717069791334352,-1.4992804515592684,-0.8483003377914429,0.4604029357433319,-0.26156386733055115,-0.40505075454711914,0.7208319306373596,0.9505561590194702
7.659978151321411,-0.0338360071182251,-0.11056011915206909,0.16220241785049438,-0.49774167355876436,-1.2590528353403585,-1.500016753113101,-0.8363116979598999,0.4774424433708191,-0.2695022523403168,-0.216133713722229,0.5858930349349976,0.8604177832603455
7.6800148487091064,-0.054694175720214844,-0.10897958278656006,0.1721898317337036,-0.5133232800053539,-1.2462687550995388,-1.4962757908338717,-0.8256464600563049,0.49107491970062256,-0.2777654528617859,0.016296114772558212,0.5260071754455566,0.7291147112846375
7.699977159500122,-0.0749254822731018,-0.13031649589538574,0.20205026865005493,-0.5252103491793035,-1.2330615315452307,-1.4897111452212861,-0.8163403272628784,0.5013949871063232,-0.28669077157974243,0.10976607352495193,0.49428099393844604,0.5872941613197327
7.719978094100952,-0.07924783229827881,-0.17695331573486328,0.2484012246131897,-0.5348735444865719,-1.2201224200162486,-1.484098992178699,-0.8079744577407837,0.5097322463989258,-0.2955509126186371,-0.014532984234392643,0.5124108195304871,0.4957461357116699
7.739978075027466,-0.07046478986740112,-0.2123783826828003,0.25610360503196716,-0.5437046929008429,-1.2097197075962605,-1.4831335405734816,-0.8006135821342468,0.5173100233078003,-0.3023377060890198,-0.2092687338590622,0.4728148579597473,0.36595991253852844
7.759988069534302,-0.05443376302719116,-0.20960021018981934,0.2400016188621521,-0.5511195472124123,-1.2030469363056906,-1.4865832371783436,-0.7949772477149963,0.5236413478851318,-0.3062858283519745,-0.2979179620742798,0.373078852891922,0.2200169563293457
7.77997899055481,-0.028467535972595215,-0.18660080432891846,0.2274852991104126,-0.555777843739268,-1.1993403681124828,-1.4912735743337004,-0.7915550470352173,0.5276042222976685,-0.3083416521549225,-0.24075230956077576,0.23169907927513123,0.08184869587421417
7.799978017807007,0.008689522743225098,-0.180231511592865,0.2130839228630066,-0.5575855612322546,-1.1989174501322584,-1.495490860072307,-0.7905346155166626,0.52913898229599,-0.3083292841911316,-0.15515898168087006,0.021252905949950218,-0.0377175472676754
7.8199920654296875,0.021163463592529297,-0.17680174112319946,0.1739811897277832,-0.5563672510713271,-1.2027522409423907,-1.498682515493855,-0.7923121452331543,0.528104841709137,-0.3055272102355957,-0.05193541571497917,-0.23142613470554352,-0.17701542377471924
7.8399879932403564,0.0031560659408569336,-0.15570586919784546,0.14661246538162231,-0.5516924917998102,-1.2104725311861677,-1.5008137664417533,-0.7969487905502319,0.5241293907165527,-0.3002684414386749,0.040405817329883575,-0.41837477684020996,-0.3262111246585846
7.859979867935181,-0.025695443153381348,-0.15048891305923462,0.15077948570251465,-0.5439724248646038,-1.220758809195987,-1.5027090678082944,-0.8037722706794739,0.5175390839576721,-0.2934339642524719,0.06700462102890015,-0.48562341928482056,-0.4444103240966797
7.8799989223480225,-0.048571228981018066,-0.14731615781784058,0.15538722276687622,-0.5345135596989768,-1.2319337609739178,-1.5055094719137896,-0.8115819692611694,0.5094224810600281,-0.2860482633113861,0.01953510381281376,-0.4937090575695038,-0.5319486856460571
7.899977922439575,-0.07095950841903687,-0.13629886507987976,0.1416233479976654,-0.5235191666113151,-1.2446070891711554,-1.510728299110947,-0.8203978538513184,0.49993106722831726,-0.27751806378364563,-0.08718241751194,-0.5100239515304565,-0.6534443497657776
7.9199888706207275,-0.07719999551773071,-0.12063366174697876,0.12230181694030762,-0.5111309277275647,-1.2593809459269842,-1.5190659067367485,-0.8302402496337891,0.48916393518447876,-0.2672450542449951,-0.21338176727294922,-0.5623161196708679,-0.7537210583686829
7.939987897872925,-0.07849347591400146,-0.10010099411010742,0.10456401109695435,-0.4974213286429684,-1.2766161910528422,-1.5303303023292294,-0.8410621881484985,0.4771609604358673,-0.2548173666000366,-0.3101942539215088,-0.6219220757484436,-0.849608302116394
7.959979057312012,-0.07897484302520752,-0.07073712348937988,0.07439137995243073,-0.48242140024364727,-1.2956136273969325,-1.54313346217765,-0.8525436520576477,0.4639256000518799,-0.24071218073368073,-0.3318389356136322,-0.680929958820343,-0.9115257263183594
7.980018854141235,-0.07180505990982056,-0.03945872187614441,0.04247844219207764,-0.46612926652468517,-1.315596071649859,-1.5553625882467803,-0.8643826842308044,0.4494318664073944,-0.22550761699676514,-0.28482696413993835,-0.7596996426582336,-0.9453454613685608
7.999979019165039,-0.056549668312072754,-0.007532179355621338,0.010088741779327393,-0.44875874131444865,-1.3362231872886767,-1.5657193825612057,-0.8763116598129272,0.4338475167751312,-0.2094143182039261,-0.19093020260334015,-0.8623731732368469,-0.9761316180229187
8.019978046417236,-0.045662879943847656,0.02188253402709961,-0.017686545848846436,-0.4304342003693091,-1.3567873898928864,-1.5732093256985265,-0.8880529999732971,0.4172654449939728,-0.19300687313079834,-0.03549150377511978,-0.8858412504196167,-0.9494960904121399
8.040008068084717,-0.033345937728881836,0.054398685693740845,-0.06337565183639526,-0.4123582274321578,-1.3757902687454062,-1.5760178299589653,-0.8988134860992432,0.40077099204063416,-0.17753013968467712,0.051812898367643356,-0.9121601581573486,-0.8497618436813354
8.05997896194458,-0.0110434889793396,0.05417945981025696,-0.07839322090148926,-0.40433407928471515,-1.3929615110380302,-1.5922552448299085,-0.9048653244972229,0.39340662956237793,-0.16263464093208313,-1.5707883834838867,0.2215076982975006,-0.0014364187372848392
8.079195022583008,-0.09192037582397461,1.856684684753418e-05,-0.24424274265766144,-0.41976272223068006,-1.392698028550917,-1.639220352956616,-0.8987413644790649,0.40754377841949463,-0.16177842020988464,-2.746791124343872,1.3945151567459106,0.4301661252975464
8.099119901657104,-0.2651299238204956,0.3452938199043274,-0.5092179179191589,-0.43302005188680576,-1.3820251798708383,-1.6922016860366444,-0.8915778398513794,0.4196140170097351,-0.17033222317695618,-1.9673336744308472,1.6746225357055664,0.20240195095539093
8.120054006576538,0.05439871549606323,0.4974318742752075,-0.5229480266571045,-0.44438842339502316,-1.369508586158285,-1.7218910986840994,-0.8846446871757507,0.4299057722091675,-0.1805126816034317,-0.9123221039772034,0.8362789154052734,0.33352944254875183
8.139979124069214,0.1185341477394104,0.18931248784065247,-0.3316383957862854,-0.4520059377664268,-1.3649894629852293,-1.7317554332055365,-0.8805885910987854,0.43677088618278503,-0.183834046125412,-0.2517562210559845,0.12392797321081161,0.21704667806625366
8.1599760055542,0.010800302028656006,0.045098692178726196,-0.17714814841747284,-0.4555913897382558,-1.3648554811316078,-1.7343111055780474,-0.8790253400802612,0.4399934709072113,-0.18363061547279358,-0.05321681126952171,0.018765248358249664,0.09466765075922012
8.180003881454468,0.016884803771972656,-0.008537381887435913,-0.08823077380657196,-0.4560178265037322,-1.3651712807923042,-1.7318024821564042,-0.8788995146751404,0.4403763711452484,-0.18331468105316162,0.2802261710166931,-0.1807226538658142,0.004921669140458107
8.199987173080444,0.039813458919525146,0.0066336989402771,-0.037303850054740906,-0.4536525532802541,-1.365836481516543,-1.7222446644486464,-0.8800386190414429,0.4382515549659729,-0.1829414814710617,0.5721392631530762,-0.24988095462322235,-0.04774003103375435
8.219992876052856,0.025329947471618652,0.0034021735191345215,0.054339587688446045,-0.4497481274027004,-1.3637209729750914,-1.7096027712345028,-0.8813174962997437,0.43473872542381287,-0.18515320122241974,0.5823527574539185,-0.058556705713272095,-0.09816322475671768
