timestamp,acceleration_x,acceleration_y,acceleration_z,attitude_pitch,attitude_roll,attitude_yaw,gravity_x,gravity_y,gravity_z,rotation_x,rotation_y,rotation_z
0.0,0.26914268732070923,0.1334441602230072,-0.13612806797027588,-0.3345539346268686,-1.4031412881344243,-2.6867270832306254,-0.9313130378723145,0.3283478617668152,-0.15761889517307281,0.3126926124095917,-0.36985448002815247,0.40421926975250244
0.019898176193237305,0.31380563974380493,0.10421469807624817,-0.1511891484260559,-0.3408381648498848,-1.4080206938955973,-2.6767145652591493,-0.9300165772438049,0.3342771530151367,-0.1527353823184967,0.5283049941062927,-0.448749303817749,0.35623645782470703
0.03949713706970215,0.3217586278915405,0.09845378994941711,-0.16920244693756104,-0.3446380875746812,-1.4126676737057369,-2.6613813523920067,-0.9294551610946655,0.3378560543060303,-0.14821088314056396,0.8475545644760132,-0.5295581221580505,0.24405354261398315
0.06558609008789062,0.2954134941101074,0.10813689231872559,-0.1585249900817871,-0.34198718224360597,-1.4181835557338645,-2.6111327605344794,-0.9311404824256897,0.3353598713874817,-0.143217533826828,1.432891607284546,-0.6000276803970337,-0.004233375657349825
0.08556008338928223,0.27571582794189453,0.11569848656654358,-0.18120375275611877,-0.3364280890420192,-1.4212199990137648,-2.5815800705819973,-0.9333999752998352,0.33011752367019653,-0.14066514372825623,1.368518352508545,-0.6980816125869751,-0.12829792499542236
0.09977006912231445,0.27571582794189453,0.11569848656654358,-0.18120375275611877,-0.3364280890420192,-1.4212199990137648,-2.5815800705819973,-0.9333999752998352,0.33011752367019653,-0.14066514372825623,1.368518352508545,-0.6980816125869751,-0.12829792499542236
0.13031411170959473,0.22338807582855225,0.12458252906799316,-0.1458655595779419,-0.32176759824264023,-1.4353299377092246,-2.5324687613933183,-0.9399865865707397,0.3162439465522766,-0.1281212717294693,1.1745327711105347,-0.8030218482017517,-0.2517975866794586
0.15053391456604004,0.1805284023284912,0.21185743808746338,-0.1537405252456665,-0.3130841044475197,-1.443678993833637,-2.506565060130978,-0.9437119960784912,0.3079942762851715,-0.1206125020980835,1.4112268686294556,-0.8375939726829529,-0.2826133668422699
0.16043496131896973,0.1805284023284912,0.21185743808746338,-0.1537405252456665,-0.3130841044475197,-1.443678993833637,-2.506565060130978,-0.9437119960784912,0.3079942762851715,-0.1206125020980835,1.4112268686294556,-0.8375939726829529,-0.2826133668422699
0.18665504455566406,0.10731077194213867,0.2710224688053131,-0.16812318563461304,-0.29459093887299553,-1.4563775028341157,-2.439222093943404,-0.9506640434265137,0.29034844040870667,-0.10925103724002838,1.789706826210022,-0.7781146168708801,-0.2012355625629425
0.21096587181091309,0.08916860818862915,0.28121551871299744,-0.14044135808944702,-0.2875819971879324,-1.461083459657059,-2.403104886055697,-0.9531669616699219,0.28363436460494995,-0.10499629378318787,1.7143105268478394,-0.730781614780426,-0.10082149505615234
0.22368597984313965,0.07768535614013672,0.280488520860672,-0.10896331071853638,-0.2836324032668423,-1.4653684255247639,-2.36926496874804,-0.9547147750854492,0.2798447608947754,-0.10102816671133041,1.5660055875778198,-0.6443126201629639,0.059684883803129196
0.24312615394592285,0.06666094064712524,0.2679741382598877,-0.09515857696533203,-0.28312611034281454,-1.4686321523029997,-2.338087672275885,-0.9551802277565002,0.2793586552143097,-0.09792613983154297,1.4203851222991943,-0.5642483234405518,0.1948288083076477
0.26218295097351074,0.056980013847351074,0.2553747296333313,-0.06991856545209885,-0.2853152762724576,-1.4710898001681016,-2.3087433250058136,-0.9548071622848511,0.2814599871635437,-0.09551724046468735,1.4008861780166626,-0.49421489238739014,0.30007001757621765
0.28597497940063477,0.0445062518119812,0.2296302616596222,-0.04212922602891922,-0.28899360562070825,-1.47326537572474,-2.278490943011979,-0.9539759755134583,0.2849877178668976,-0.09333832561969757,1.438747763633728,-0.6515644192695618,0.3339003026485443
0.30687403678894043,-0.10438746213912964,0.23803657293319702,-0.04279053211212158,-0.29160663359165007,-1.4793235163895837,-2.246315329612021,-0.9537790417671204,0.28749141097068787,-0.08748900145292282,1.6877402067184448,-0.8251150250434875,0.1753988116979599
0.3277289867401123,-0.3880845904350281,0.31470003724098206,-0.0842471718788147,-0.2886253533671733,-1.4828715245154127,-2.2060763500827836,-0.9549329876899719,0.28463470935821533,-0.0841793343424797,2.186742067337036,-0.6483344435691833,-0.1242099180817604
0.3477599620819092,-0.4074261784553528,0.3728179633617401,-0.016284286975860596,-0.2810442424628613,-1.4785220158190457,-2.1579679262713074,-0.956679105758667,0.2773590683937073,-0.08852830529212952,2.3996798992156982,-0.2740863263607025,-0.14046169817447662
0.3674590587615967,-0.10423743724822998,0.25422871112823486,0.12244480848312378,-0.2768041991437955,-1.4697454189523724,-2.1108965292627984,-0.9570266008377075,0.273282915353775,-0.09703893214464188,2.065891742706299,-0.14956144988536835,0.18742500245571136
0.3873870372772217,0.0427248477935791,0.09031036496162415,0.3374188542366028,-0.2805585566791458,-1.460078164516442,-2.07578096924515,-0.9550172090530396,0.27689242362976074,-0.10617194324731827,1.178200602531433,0.17797860503196716,0.5294055342674255
0.4075450897216797,-0.016746103763580322,-0.04927337169647217,0.36344611644744873,-0.28995244426190575,-1.4497082424804386,-2.0591720706519663,-0.9512408971786499,0.2859066426753998,-0.11575021594762802,0.42870938777923584,0.3039027154445648,0.5195322632789612
0.42690396308898926,-0.007422089576721191,-0.05301433801651001,0.28298747539520264,-0.2988044879652825,-1.4424125020262133,-2.050121652562797,-0.9478238821029663,0.2943778932094574,-0.12235824763774872,0.4843733310699463,0.12097009271383286,0.4796864688396454
0.44559788703918457,0.16888034343719482,-0.05214002728462219,0.3375883102416992,-0.30624861748244697,-1.4369415331999904,-2.0322604420507746,-0.9449423551559448,0.3014839291572571,-0.1272459328174591,1.1062734127044678,-0.10615076869726181,0.47937628626823425
0.46698689460754395,0.2904050946235657,-0.09888938069343567,0.360415518283844,-0.31111371141384747,-1.4329468878814886,-2.0007817885379393,-0.942962646484375,0.30611908435821533,-0.1308165341615677,1.855485200881958,-0.48726144433021545,0.3930606245994568
0.4869410991668701,0.30012547969818115,-0.11753055453300476,0.3222475051879883,-0.3120220667883423,-1.4316821149915897,-1.954009746955263,-0.9425204992294312,0.30698367953300476,-0.13197042047977448,2.4684653282165527,-0.807604193687439,0.32724863290786743
0.5071971416473389,0.2187873125076294,-0.0859198272228241,0.36942827701568604,-0.310793540539841,-1.4320281218691364,-1.9006189233554365,-0.9429388642311096,0.305814266204834,-0.13169635832309723,2.4753334522247314,-0.815933346748352,0.264238566160202
0.5272700786590576,0.15391194820404053,-0.14833799004554749,0.4854980707168579,-0.3094578008553965,-1.431897807165194,-1.8542107619490946,-0.9433254599571228,0.3045422434806824,-0.131875678896904,1.9063814878463745,-0.5793967247009277,0.21248801052570343
0.5469770431518555,0.13843011856079102,-0.2644360065460205,0.4449271559715271,-0.3084102976369994,-1.432443489268727,-1.820263854764891,-0.9437127709388733,0.3035443127155304,-0.131404846906662,1.3589175939559937,-0.5535295009613037,0.11047693341970444
0.5656740665435791,0.13575470447540283,-0.1956537365913391,0.32309168577194214,-0.30529356257347495,-1.436272638452514,-1.7941872720409444,-0.9451418519020081,0.3005731701850891,-0.12791651487350464,1.199331521987915,-0.6295149922370911,-0.07189684361219406
0.5866968631744385,0.16241556406021118,-0.06264150142669678,0.22441363334655762,-0.29980933731670045,-1.4427540840414617,-1.7677719802632115,-0.9475718140602112,0.29533806443214417,-0.12199664860963821,1.3855810165405273,-0.7734193205833435,-0.11040673404932022
0.6068241596221924,0.18978559970855713,-0.05199286341667175,0.2774829566478729,-0.2952468017016491,-1.4495249584719008,-1.741860719729156,-0.9497036337852478,0.29097598791122437,-0.11573980003595352,1.0494108200073242,-0.6600121855735779,-0.04145052284002304
0.6270279884338379,0.16353905200958252,-0.12557831406593323,0.33658742904663086,-0.2934371146452054,-1.4564061302391997,-1.7274356119318657,-0.95099937915802,0.2892441153526306,-0.10926198959350586,0.2852810323238373,-0.4238917827606201,0.05267908424139023
0.648644208908081,0.1442165970802307,-0.17055243253707886,0.37010741233825684,-0.29633029036968284,-1.4627944675732505,-1.7303929411889991,-0.950842022895813,0.29201242327690125,-0.10309385508298874,-0.5670863389968872,-0.12226972728967667,0.19507108628749847
0.6674239635467529,0.15152204036712646,-0.23073917627334595,0.3557842969894409,-0.3025167865071142,-1.4671311609183701,-1.7479545262155372,-0.9494651556015015,0.29792365431785583,-0.0987805649638176,-1.103449821472168,0.20817281305789948,0.24133308231830597
0.6864368915557861,0.24160540103912354,-0.26123014092445374,0.31650447845458984,-0.30951388070422875,-1.468708688111029,-1.7724324164184089,-0.947522759437561,0.3045956492424011,-0.09706781059503555,-1.2044647932052612,0.307699590921402,0.20016519725322723
0.7092599868774414,0.333640456199646,-0.22659146785736084,0.23146754503250122,-0.3149641431182698,-1.4708991340923852,-1.793732123874342,-0.9460671544075012,0.30978238582611084,-0.09482509642839432,-0.817675769329071,0.08932410180568695,0.1566116213798523
0.7238161563873291,0.35727185010910034,-0.1609998643398285,0.14700955152511597,-0.31876016451294065,-1.4754893428771638,-1.804452197228948,-0.9453151226043701,0.3133894205093384,-0.09036891907453537,-0.28465455770492554,-0.17549006640911102,0.12164391577243805
0.742333173751831,0.31017178297042847,-0.1531527042388916,0.1784675121307373,-0.32126343848397015,-1.4800998336711202,-1.8090140725672663,-0.9449373483657837,0.3157656192779541,-0.08593826740980148,-0.24656450748443604,-0.1150846928358078,0.08286742866039276
0.7617509365081787,0.23982560634613037,-0.23761048913002014,0.20102083683013916,-0.3237736404284888,-1.4827536305620597,-1.816251757193851,-0.9443696737289429,0.31814637780189514,-0.08336035162210464,-0.48998773097991943,0.04813281074166298,0.13587021827697754
0.7861239910125732,0.19672071933746338,-0.22763383388519287,0.17118871212005615,-0.3279801888405566,-1.4866900125468352,-1.8286017354363957,-0.9433485269546509,0.32213154435157776,-0.07952918112277985,-0.6554065346717834,-0.05930851772427559,0.15480031073093414
0.8058450222015381,0.11416912078857422,-0.11681866645812988,0.1299293041229248,-0.3316512531774597,-1.4923640707743377,-1.8412069286552681,-0.9425994157791138,0.32560473680496216,-0.07408217340707779,-0.5538383722305298,-0.10431363433599472,0.11883002519607544
0.8263120651245117,0.04597264528274536,-0.07632547616958618,0.13632482290267944,-0.33462601413616455,-1.4981942957677967,-1.8523729445995076,-0.9420450329780579,0.32841596007347107,-0.06851480901241302,-0.5760883688926697,-0.07323764264583588,0.09913498908281326
0.8475000858306885,0.02634131908416748,-0.1306256651878357,0.15894484519958496,-0.3376908406692085,-1.5029244523266798,-1.8653364304850637,-0.9413498044013977,0.3313092291355133,-0.06398946046829224,-0.6554356217384338,0.012079913169145584,0.12266270816326141
0.865962028503418,0.0508154034614563,-0.1614900529384613,0.13354063034057617,-0.34100368008376564,-1.5068672931348726,-1.8786414468579327,-0.9404942393302917,0.3344331383705139,-0.060206931084394455,-0.5755727887153625,0.018098657950758934,0.13352102041244507
0.885638952255249,0.06620687246322632,-0.13927489519119263,0.04465442895889282,-0.34341898020551187,-1.5107129171553209,-1.8870356489918398,-0.9399098753929138,0.3367083966732025,-0.056541044265031815,-0.1558038741350174,-0.12537097930908203,0.035843975841999054
0.9055840969085693,0.016469717025756836,-0.04022672772407532,-0.06625676155090332,-0.3428320927403747,-1.5139012085961168,-1.8823170787923404,-0.9402825832366943,0.3361557126045227,-0.053555287420749664,0.5879462361335754,-0.3477530777454376,-0.0445341058075428
0.9278318881988525,-0.08097076416015625,0.018440306186676025,-0.06453275680541992,-0.34043843270064034,-1.515538852376724,-1.864891789435151,-0.941169798374176,0.3339003920555115,-0.052059661597013474,0.9977397918701172,-0.3315664827823639,-0.11224837601184845
0.941107988357544,-0.19775116443634033,-0.03927260637283325,0.015819374471902847,-0.3370131069569273,-1.5124645550901565,-1.8462149677988366,-0.9421413540840149,0.33066970109939575,-0.05501919239759445,0.6649768352508545,0.010905992239713669,-0.09868060052394867
0.9645709991455078,-0.20210731029510498,-0.13328492641448975,0.10835367441177368,-0.33578765947962996,-1.5071734333683975,-1.8402750198666555,-0.9422407746315002,0.32951295375823975,-0.060029104351997375,-0.09974955022335052,0.3161337375640869,-0.005935254506766796
0.9856541156768799,-0.20572125911712646,-0.16786813735961914,0.09019602090120316,-0.33791280186064865,-1.5018253245398137,-1.8469095281266021,-0.9412055611610413,0.33151865005493164,-0.06501901894807816,-0.5294674038887024,0.4201118052005768,0.16717003285884857
1.0046541690826416,-0.23141920566558838,-0.08299848437309265,0.08561546355485916,-0.3420235304270991,-1.4982692973377953,-1.8615612520947453,-0.9396013021469116,0.33539411425590515,-0.06826622784137726,-0.8055436611175537,0.38875725865364075,0.10002700984477997
1.0255680084228516,-0.24195343255996704,-0.06824684143066406,0.06139659881591797,-0.3446687775973375,-1.4964645776655712,-1.8773059232604583,-0.938588559627533,0.33788496255874634,-0.06989570707082748,-0.6475390195846558,0.31275346875190735,0.08387783169746399
1.0458130836486816,-0.23063582181930542,-0.056224524974823,0.014838628470897675,-0.346519321416415,-1.495312252276785,-1.8856550859709902,-0.9378823637962341,0.3396260738372803,-0.07092995196580887,-0.09136972576379776,0.09051258116960526,0.025178715586662292
1.0651099681854248,-0.29518526792526245,0.0008220672607421875,-0.040968529880046844,-0.3455037584074648,-1.4930202209302676,-1.8797137115286453,-0.9380605220794678,0.3386707007884979,-0.07310616225004196,0.5644052028656006,-0.004967157728970051,-0.06997054070234299
1.0854809284210205,-0.3365509510040283,0.024832040071487427,0.014723777770996094,-0.34273987659139143,-1.4879962324177647,-1.8674058662260167,-0.9386107921600342,0.33606886863708496,-0.0778951570391655,0.5069270133972168,0.1012219563126564,-0.09553083032369614
1.1050751209259033,-0.31397151947021484,-0.10559409856796265,0.06128598004579544,-0.34142151845239527,-1.483216325302444,-1.861732520747462,-0.9386681914329529,0.33482688665390015,-0.08241939544677734,0.011070020496845245,0.20859083533287048,0.019281361252069473
1.1244151592254639,-0.3127971291542053,-0.10578268766403198,0.04906149208545685,-0.3425610588662899,-1.4776361848500146,-1.8647358057880008,-0.9378131031990051,0.3359004557132721,-0.08762042969465256,-0.23344700038433075,0.4302724599838257,0.04914909601211548
1.1445391178131104,-0.3108782172203064,0.0015828311443328857,-0.020537912845611572,-0.34394971157145626,-1.4693375272377893,-1.8686139239250215,-0.9365888237953186,0.337208092212677,-0.09535258263349533,-0.10567688941955566,0.5255617499351501,0.0821523517370224
1.1647310256958008,-0.25082486867904663,0.03326690196990967,-0.03588443994522095,-0.3461638391135275,-1.459921394853756,-1.8700543371043592,-0.9349051117897034,0.3392917215824127,-0.10408440232276917,-0.11628149449825287,0.46597009897232056,0.08776787668466568
1.1847059726715088,-0.2880406379699707,0.05377420783042908,-0.006897330284118652,-0.3475110772836839,-1.4500690022934302,-1.8724560326564956,-0.9333796501159668,0.3405587077140808,-0.11323510110378265,-0.060150083154439926,0.6495053768157959,0.03343232348561287
1.204679012298584,-0.32961004972457886,0.07016628980636597,-0.020462587475776672,-0.3473444064313948,-1.435334188229046,-1.8714942797167204,-0.9316662549972534,0.3404020071029663,-0.1269831657409668,0.14068366587162018,0.7719472050666809,-0.045466721057891846
1.2247610092163086,-0.28067243099212646,0.053241223096847534,-0.043865129351615906,-0.34493071694641725,-1.4224927846558753,-1.8685886728805592,-0.9307685494422913,0.33813148736953735,-0.1390572488307953,0.28205546736717224,0.3092716336250305,-0.19628769159317017
1.2447149753570557,-0.18899518251419067,0.05705380439758301,-0.0023561567068099976,-0.3361749043000104,-1.4150850890784705,-1.8508205948271979,-0.932602047920227,0.3298785388469696,-0.14640174806118011,1.7212342023849487,-0.1789146363735199,-0.43218645453453064
1.2649948596954346,-0.26630663871765137,0.30649179220199585,-0.09003253281116486,-0.31446442206261205,-1.4078121751144757,-1.7938651483760757,-0.9383596181869507,0.30930718779563904,-0.15430650115013123,3.946803569793701,-0.8715155124664307,-0.8234977722167969
1.2847158908843994,-0.29125887155532837,0.4045497179031372,-0.0526118278503418,-0.27998707334621775,-1.404785946459949,-1.7004880060843637,-0.9478463530540466,0.2763432264328003,-0.1588139683008194,5.279088497161865,-1.566664218902588,-1.1045753955841064
1.304274082183838,-0.3291938304901123,0.1781368851661682,0.09871494770050049,-0.24091974166458566,-1.413742388574888,-1.599855956284894,-0.9591667652130127,0.2385959029197693,-0.151891827583313,4.680632591247559,-1.7663853168487549,-1.2764885425567627
1.3244690895080566,-0.45420563220977783,-0.09029147028923035,0.2266431599855423,-0.20882557852939437,-1.427505555866861,-1.530754707036128,-0.9682491421699524,0.20731113851070404,-0.1396985799074173,2.4459269046783447,-1.0145206451416016,-0.7957501411437988
1.3444578647613525,-0.6528666615486145,-0.10964597761631012,0.1869376301765442,-0.19766155822156778,-1.4237818019490835,-1.4989265293435043,-0.969951331615448,0.1963769644498825,-0.14363321661949158,0.7958884835243225,0.6215167045593262,0.015072711743414402
1.3643200397491455,-0.6685847640037537,0.005046457052230835,-0.10424798727035522,-0.19785631698788114,-1.410597250410639,-1.4887631266263315,-0.9679356217384338,0.19656792283058167,-0.15640264749526978,0.3749377429485321,0.31027698516845703,0.12580130994319916
1.3843300342559814,-0.41084223985671997,0.13707716763019562,-0.016352102160453796,-0.20134719196570358,-1.4088682853451464,-1.484391491677117,-0.9669805765151978,0.19998948276042938,-0.1579643338918686,0.06452608108520508,-0.2896658182144165,0.1777833104133606
1.4040138721466064,-0.4879843592643738,-0.0008387863636016846,0.08909785747528076,-0.21042662411248397,-1.408720058099254,-1.4867762512218088,-0.9651254415512085,0.20887713134288788,-0.15780815482139587,-0.6099755167961121,0.3598664700984955,0.8670789003372192
1.4240691661834717,-0.6524194478988647,-0.008368000388145447,-0.04515105485916138,-0.23502835914330555,-1.4015880127395022,-1.5044725208258118,-0.958618700504303,0.23287056386470795,-0.16377227008342743,-1.4681645631790161,0.6710268259048462,1.081770420074463
1.4440028667449951,-0.5522428154945374,0.16485631465911865,-0.12968821823596954,-0.25859416224060555,-1.3983476237226948,-1.5339230971251296,-0.9524112343788147,0.25572171807289124,-0.16588979959487915,-1.6435668468475342,0.31080520153045654,0.8438076376914978
1.4638440608978271,-0.3599507808685303,0.17139282822608948,-0.16452044248580933,-0.2816572834579239,-1.404222633197575,-1.561618897755219,-0.9473001956939697,0.2779480218887329,-0.15927110612392426,-1.329235553741455,-0.10192210972309113,0.9631425142288208
1.4837300777435303,-0.39408886432647705,0.057341963052749634,-0.12013064324855804,-0.3035609337353797,-1.4126356013215515,-1.5818947216991535,-0.9423673748970032,0.298920214176178,-0.15030086040496826,-0.9425204992294312,-0.11872977018356323,0.8417706489562988
1.5038988590240479,-0.43395864963531494,0.06761103868484497,-0.016030117869377136,-0.3204920616329072,-1.4172416432523005,-1.5961255954650475,-0.9379132390022278,0.31503361463546753,-0.14516371488571167,-0.6818429827690125,0.08245625346899033,0.6413042545318604
1.523684024810791,-0.3997368812561035,0.004388988018035889,-0.08196651935577393,-0.3336778324235159,-1.419916906459066,-1.6072853990637397,-0.934110164642334,0.3275202214717865,-0.14201728999614716,-0.627656102180481,-0.033603064715862274,0.461038202047348
1.5438899993896484,-0.31127601861953735,-0.054238080978393555,-0.05761457979679108,-0.3424148962004816,-1.4276713623559076,-1.6227824466428133,-0.9323154091835022,0.33576276898384094,-0.1343562752008438,-0.940133273601532,-0.19191840291023254,0.22570432722568512
1.5625698566436768,-0.2871403098106384,-0.054650723934173584,-0.005866281688213348,-0.3489677223085767,-1.438160817992381,-1.6439390635770508,-0.9314723610877991,0.3419279456138611,-0.12427593022584915,-1.081785798072815,-0.12332282960414886,0.16182272136211395
1.5825741291046143,-0.28967130184173584,0.004832088947296143,-0.030670762062072754,-0.3542294426561332,-1.4471806911355383,-1.6648050089177349,-0.9307571649551392,0.34686774015426636,-0.11564578860998154,-0.9278684258460999,-0.04018408805131912,0.12931758165359497
1.6036670207977295,-0.2384786605834961,0.04842311143875122,-0.05982393026351929,-0.3586454606751893,-1.4547001855235842,-1.6829483056166314,-0.9300699234008789,0.3510062098503113,-0.108465276658535,-0.8276408910751343,-0.10394194722175598,0.07932954281568527
1.6225230693817139,-0.1886364221572876,0.05174320936203003,-0.02196592092514038,-0.36132607094217234,-1.4616568419772467,-1.6997128540114719,-0.9298633337020874,0.35351499915122986,-0.10188967734575272,-0.7406411170959473,-0.003229977563023567,0.020089561119675636
1.6433579921722412,-0.14817488193511963,0.030528783798217773,-0.05563950538635254,-0.3630117764251655,-1.466656582958394,-1.7144240718751589,-0.9297670722007751,0.3550913333892822,-0.09717725217342377,-0.639727771282196,0.03191637992858887,0.01136578805744648
1.6635329723358154,-0.05096626281738281,-0.010464787483215332,-0.04713314771652222,-0.36525798484956595,-1.4703035419818713,-1.7268488934566915,-0.9293193817138672,0.3571902811527252,-0.09370554238557816,-0.5233243703842163,0.07233926653862,0.10963646322488785
1.6832029819488525,0.017523646354675293,-0.02022358775138855,-0.028149724006652832,-0.3686835916166682,-1.4715665411078471,-1.7361285881751698,-0.9282140135765076,0.36038780212402344,-0.09240998327732086,-0.37242141366004944,0.12993916869163513,0.1327037811279297
1.70353102684021,0.0362778902053833,-0.012519925832748413,-0.05836188793182373,-0.3720904805273772,-1.4708253784634695,-1.7411843121551736,-0.9269181489944458,0.3635636568069458,-0.09297482669353485,-0.11948459595441818,0.12318530678749084,0.1624632477760315
1.7222721576690674,0.06625229120254517,-0.028347045183181763,-0.0594022274017334,-0.3759958703993859,-1.467821799294025,-1.7413881080432156,-0.9252153038978577,0.36719900369644165,-0.09561179578304291,0.010350007563829422,0.18460384011268616,0.22305946052074432
1.7421371936798096,0.10372257232666016,-0.05335515737533569,-0.034195058047771454,-0.3807072644139339,-1.4637611575705372,-1.7405807266262774,-0.9230890274047852,0.3715771734714508,-0.09918203949928284,0.027914900332689285,0.17948515713214874,0.2853164076805115
1.7631199359893799,0.13192814588546753,-0.07062345743179321,-0.035062432289123535,-0.38662612588089934,-1.459059730934176,-1.738560841823437,-0.9204108119010925,0.3770657181739807,-0.10327372699975967,0.08114070445299149,0.1980559080839157,0.3118443191051483
1.7830169200897217,0.16236859560012817,-0.05781957507133484,-0.0223115012049675,-0.39297525064081346,-1.454000722731277,-1.7346923760712902,-0.9174802303314209,0.38293856382369995,-0.10764758288860321,0.24616047739982605,0.15298502147197723,0.3672523498535156
1.8018991947174072,0.18558603525161743,-0.05703797936439514,-0.011162810027599335,-0.3998363110621045,-1.4484468461951603,-1.725879569277913,-0.9142389893531799,0.38926756381988525,-0.11241816729307175,0.4726487696170807,0.046207524836063385,0.3971039950847626
1.8218250274658203,0.17385214567184448,-0.060788869857788086,0.005687236785888672,-0.40661836059019835,-1.442610202418643,-1.7112494446428699,-0.910927951335907,0.3955056965351105,-0.11741212010383606,0.7743319272994995,0.007910734973847866,0.4614681899547577
1.8417270183563232,0.1363677978515625,-0.06347820162773132,0.001973971724510193,-0.4141440777040858,-1.4332469864080948,-1.6903024490028036,-0.906814694404602,0.4024065136909485,-0.1255244016647339,1.0548993349075317,0.099627785384655,0.519763171672821
1.8636000156402588,0.07238954305648804,-0.06845703721046448,-0.025330588221549988,-0.4204413524772674,-1.4189655209706546,-1.6649705657158194,-0.9024065732955933,0.4081633985042572,-0.13807575404644012,1.0357592105865479,0.3212786614894867,0.4437944293022156
1.8866920471191406,0.07766228914260864,-0.09141331911087036,0.05466902256011963,-0.426306958888833,-1.4028262569452628,-1.64650442182023,-0.8976848721504211,0.41351112723350525,-0.15221844613552094,0.5092310905456543,0.5409055948257446,0.41523247957229614
1.9040091037750244,0.12004327774047852,-0.1787080466747284,0.08586342632770538,-0.43434823988843435,-1.386987116523542,-1.639244869936965,-0.8918632864952087,0.4208192527294159,-0.1658041775226593,0.041199639439582825,0.7237001657485962,0.47920069098472595
1.9234731197357178,0.15268248319625854,-0.15193304419517517,0.04567313194274902,-0.4424420524376642,-1.3715034212189008,-1.6369741291689694,-0.885821521282196,0.42814764380455017,-0.1789129078388214,0.1577949970960617,0.6886860132217407,0.33364975452423096
1.9433681964874268,0.18432939052581787,-0.027782142162322998,0.005134880542755127,-0.44500411951190944,-1.3511514387123824,-1.6189996333728596,-0.8809236288070679,0.430461585521698,-0.19666318595409393,1.4967949390411377,0.592390239238739,0.3156487047672272
1.962576150894165,0.20946359634399414,0.06788778305053711,0.02883729338645935,-0.44257421747611453,-1.321734041587909,-1.5743127982195766,-0.8757692575454712,0.42826709151268005,-0.22274604439735413,2.2081799507141113,0.44663235545158386,0.35555440187454224
1.9824650287628174,0.20427489280700684,-0.08054056763648987,0.17437893152236938,-0.43902103359993594,-1.2958727880604253,-1.5323420512174464,-0.8711755275726318,0.42505353689193726,-0.24572905898094177,1.485438346862793,0.3696803152561188,0.29816871881484985
2.00142502784729,0.17204660177230835,-0.23718610405921936,0.18879029154777527,-0.43890175225706696,-1.2775120486988625,-1.5079258149175117,-0.8665657639503479,0.42494556307792664,-0.26169684529304504,0.699017345905304,0.4457811117172241,0.3031265139579773
2.0237128734588623,0.14304548501968384,-0.1456751823425293,0.15114131569862366,-0.4412247621188738,-1.2633371381082565,-1.4961744777552135,-0.8618259429931641,0.4270472526550293,-0.2736540734767914,0.277177631855011,0.4884246289730072,0.2434174120426178
2.0403640270233154,0.14305651187896729,-0.10344985127449036,0.13753163814544678,-0.4448850931304013,-1.251801573115073,-1.4925737845512008,-0.8571221232414246,0.43035414814949036,-0.28308525681495667,-0.020518813282251358,0.492689847946167,0.18927577137947083
2.0622000694274902,0.16464781761169434,-0.11782753467559814,0.10848885774612427,-0.44806984784909315,-1.2424636631310422,-1.4915449397119174,-0.8531396389007568,0.43322673439979553,-0.29063308238983154,0.03765956684947014,0.40089404582977295,0.1696939915418625
2.082212209701538,0.15035998821258545,-0.04598173499107361,0.12622296810150146,-0.4501450467327958,-1.2322899856085268,-1.4857930508047312,-0.8492887616157532,0.4350961446762085,-0.29899823665618896,0.3915069103240967,0.3688366115093231,0.20519669353961945
2.1012380123138428,0.13477826118469238,-0.028013020753860474,0.12644442915916443,-0.45133855753426494,-1.2211793470046401,-1.4748666996736746,-0.8454259634017944,0.43617045879364014,-0.30823764204978943,0.473286896944046,0.2474619746208191,0.22489076852798462
2.1213090419769287,0.17280489206314087,-0.055787354707717896,0.16039857268333435,-0.4523429599818408,-1.2119894181146718,-1.463099797896794,-0.8421470522880554,0.43707403540611267,-0.315839946269989,0.46780213713645935,0.1634642779827118,0.2511226534843445
2.1420838832855225,0.1754145622253418,-0.07122549414634705,0.16544592380523682,-0.45434155179109836,-1.2047443633144712,-1.4523414294703703,-0.8390192985534668,0.43887075781822205,-0.3216196596622467,0.366205632686615,0.0889446884393692,0.2742477357387543
2.1611790657043457,0.1690603494644165,-0.08941131830215454,0.14039233326911926,-0.45687040513049043,-1.1998199038712676,-1.4426566042754303,-0.8363882303237915,0.44114166498184204,-0.325344055891037,0.3878970742225647,-0.03375805914402008,0.27233612537384033
2.1818740367889404,0.16112643480300903,-0.06341859698295593,0.12035804986953735,-0.4585125374839789,-1.1974036151202823,-1.4322072111067623,-0.834924042224884,0.44261476397514343,-0.32709938287734985,0.4258515238761902,-0.18604542315006256,0.20916473865509033
2.2008368968963623,0.14205390214920044,-0.047276049852371216,0.11501902341842651,-0.4583948214008878,-1.197351363465879,-1.4212736400763768,-0.8349555134773254,0.4425092041492462,-0.3271620273590088,0.48480165004730225,-0.29092735052108765,0.15241560339927673
2.221998929977417,0.14550739526748657,-0.07452553510665894,0.10635200142860413,-0.45703107768441636,-1.1989655515384958,-1.409554231194742,-0.8360440135002136,0.4412858486175537,-0.326032817363739,0.5848918557167053,-0.3722687363624573,0.10789532959461212
2.2447831630706787,0.12260544300079346,-0.08091852068901062,0.07110103964805603,-0.4545833942915116,-1.200056511365026,-1.3962890467156774,-0.8374033570289612,0.43908804655075073,-0.32551082968711853,0.5442129373550415,-0.3119773268699646,0.08336576074361801
2.2633039951324463,0.07901281118392944,-0.07670673727989197,0.09484612941741943,-0.45268173942776924,-1.2016149631699726,-1.3886585624830254,-0.8386868834495544,0.43737873435020447,-0.32450613379478455,0.12414365261793137,-0.18369553983211517,-0.007650604005903006
2.279803991317749,0.025699913501739502,-0.10945522785186768,0.1294902265071869,-0.4533470535148277,-1.2047738753558133,-1.391983528487158,-0.8394358158111572,0.4379769265651703,-0.3217509388923645,-0.4212549030780792,0.05689505860209465,-0.011319526471197605
2.3000590801239014,-0.017996788024902344,-0.09540218114852905,0.1392744779586792,-0.4574420888231456,-1.206131044600297,-1.403966704188267,-0.8381891250610352,0.44165462255477905,-0.3199690580368042,-0.6811633110046387,0.3549179434776306,0.005118032917380333
2.3198020458221436,0.018519818782806396,-0.06699061393737793,0.12200939655303955,-0.46239762878019486,-1.2042154501831908,-1.4171729295253936,-0.8355211615562439,0.44609522819519043,-0.3207857012748718,-0.5449219942092896,0.40900152921676636,0.05499020218849182
2.3397891521453857,0.04475390911102295,-0.04135006666183472,0.0743573009967804,-0.4678543484025532,-1.2004666389497158,-1.4261638152119476,-0.8320310711860657,0.4509722590446472,-0.3230298161506653,-0.3936358094215393,0.3607143461704254,0.14160354435443878
2.359788179397583,-0.0017606019973754883,-0.04250633716583252,0.03577062487602234,-0.471872263246521,-1.1963592871241215,-1.4310047845415435,-0.8290042877197266,0.4545547366142273,-0.3257792294025421,-0.19728630781173706,0.28044188022613525,0.11261618882417679
2.3797051906585693,0.04185354709625244,-0.0655069649219513,0.03626927733421326,-0.47506741897683324,-1.1936550302425573,-1.4322463876223877,-0.8267655968666077,0.4573984146118164,-0.32748326659202576,-0.05899488180875778,0.09640846401453018,0.1482781618833542
2.3997061252593994,0.0627174973487854,-0.07349279522895813,0.03634783625602722,-0.47802721570172085,-1.1923069334552328,-1.4330060233842374,-0.8250617980957031,0.46002843976020813,-0.3280958831310272,-0.05557470768690109,0.09555341303348541,0.08591290563344955
2.419828176498413,0.03020554780960083,-0.10578390955924988,0.016101479530334473,-0.4793549019831272,-1.189919401604252,-1.4321571926906795,-0.8237083554267883,0.4612068831920624,-0.32983747124671936,0.13413235545158386,0.06758525222539902,0.03846445679664612
2.4397060871124268,0.04703652858734131,-0.06683999300003052,0.014702767133712769,-0.47756329379325,-1.1850428307478866,-1.42641825655889,-0.8228543400764465,0.45961645245552063,-0.3341607451438904,0.3494319021701813,0.16201800107955933,0.007822128012776375
2.4597089290618896,0.030271410942077637,-0.07523906230926514,-0.0005809664726257324,-0.474652346863965,-1.1789905078066003,-1.4205522163563677,-0.8220499753952026,0.4570292532444,-0.33964428305625916,0.20860286056995392,0.17888355255126953,-0.08148830384016037
2.4797251224517822,0.051459312438964844,-0.07666605710983276,-0.020684361457824707,-0.471815531806664,-1.174850911864359,-1.4184118929210547,-0.8218297958374023,0.45450422167778015,-0.3435429632663727,0.10958893597126007,0.16336318850517273,-0.08409260958433151
2.499729871749878,0.05350768566131592,-0.06535375118255615,0.002593487501144409,-0.470028482929375,-1.1702266251238842,-1.4176378004638184,-0.8209788799285889,0.4529116749763489,-0.3476557731628418,0.036606315523386,0.2366832047700882,-0.09225618094205856
2.5197200775146484,0.04001539945602417,-0.01788240671157837,-0.030370712280273438,-0.4672906752131301,-1.1655252118100845,-1.4179283417696495,-0.8204719424247742,0.45046907663345337,-0.35199928283691406,0.04785831272602081,0.2500343322753906,-0.15158627927303314
2.5397698879241943,0.04186433553695679,0.006946444511413574,-0.05385112762451172,-0.4636504902134324,-1.1603965808817314,-1.4178873851374827,-0.820154070854187,0.4472161829471588,-0.3568544089794159,0.08942010998725891,0.2607899606227875,-0.17221400141716003
2.5597431659698486,0.03838855028152466,0.0057773590087890625,-0.05757799744606018,-0.4598091243975513,-1.1559540224929508,-1.4193520759577085,-0.8201268315315247,0.44377705454826355,-0.3611842095851898,-0.06329911202192307,0.23742452263832092,-0.24487806856632233
2.5797431468963623,0.043066442012786865,0.007719755172729492,-0.05240911245346069,-0.4559595894154301,-1.1539140581113148,-1.4248564910184667,-0.8209442496299744,0.440324068069458,-0.3635455071926117,-0.22145336866378784,0.22476111352443695,-0.29352402687072754
2.599984884262085,0.03225499391555786,-0.002019435167312622,-0.0537758469581604,-0.45266975606814547,-1.153911928989731,-1.4340284874657345,-0.8222635984420776,0.4373679459095001,-0.3641318380832672,-0.39610031247138977,0.17973460257053375,-0.3540336787700653
2.621875047683716,0.04118114709854126,0.03772681951522827,-0.06279486417770386,-0.4494177250180061,-1.1557581160583852,-1.4465814864302828,-0.8242316842079163,0.43444114923477173,-0.3631848096847534,-0.48939523100852966,0.20473617315292358,-0.3855733871459961
2.6404988765716553,0.03455376625061035,0.031221061944961548,-0.0214502215385437,-0.44668123357834,-1.155698279227643,-1.460069891325413,-0.8252947330474854,0.43197476863861084,-0.3637121915817261,-0.5297245383262634,0.37687909603118896,-0.36417803168296814
2.6605188846588135,0.06557470560073853,0.03792271018028259,-0.04263901710510254,-0.4444457765941036,-1.1535750370646398,-1.4738709645125567,-0.8254013657569885,0.4299575686454773,-0.36585405468940735,-0.5699295401573181,0.4434742033481598,-0.3221651017665863
2.6805310249328613,0.07833003997802734,-0.0002339184284210205,-0.018086731433868408,-0.44386501822854524,-1.1501268876862318,-1.4881430401893867,-0.8243626952171326,0.4294331669807434,-0.3687998652458191,-0.5827065110206604,0.4901256561279297,-0.2467280924320221
2.69976806640625,0.08012288808822632,0.004108935594558716,-0.020333409309387207,-0.44459820519323484,-1.1464725902096198,-1.501734294721101,-0.8227223753929138,0.43009519577026367,-0.3716801702976227,-0.5497065782546997,0.4720325171947479,-0.2072792798280716
2.720280885696411,0.036932408809661865,0.01970595121383667,-0.004940241575241089,-0.4451870144890479,-1.1424498061159856,-1.5140690621274224,-0.8209899663925171,0.43062666058540344,-0.3748815059661865,-0.4975768029689789,0.459240198135376,-0.1920614093542099
2.7400660514831543,-0.02984553575515747,-0.009029299020767212,-0.014872431755065918,-0.4455792216705747,-1.1395165530896696,-1.5266052467440472,-0.8197333812713623,0.4309806227684021,-0.3772174119949341,-0.5701265931129456,0.3824540674686432,-0.25783419609069824
2.7597639560699463,-0.11477100849151611,-0.002205789089202881,-0.014048963785171509,-0.4453900397913765,-1.1386465134904031,-1.5423816990240868,-0.8194788098335266,0.4308099150657654,-0.377964586019516,-0.7161709666252136,0.4293779134750366,-0.35472923517227173
2.780057191848755,-0.17531973123550415,-0.01178625226020813,0.03953084349632263,-0.44581050109221193,-1.1367389596160737,-1.5624960666924024,-0.8185919523239136,0.43118929862976074,-0.3794509172439575,-0.9627934694290161,0.6114941835403442,-0.36763232946395874
2.8000850677490234,-0.1657857894897461,-0.045722901821136475,0.02961498498916626,-0.44867182063270117,-1.135146962520434,-1.589268147689839,-0.8168649673461914,0.43376919627189636,-0.38023144006729126,-1.3626857995986938,0.6997380256652832,-0.39353060722351074
2.8199689388275146,-0.11355036497116089,-0.06877002120018005,0.0077075958251953125,-0.4541730644619396,-1.1353033377820563,-1.622942493212741,-0.8147485852241516,0.43871936202049255,-0.3790912926197052,-1.602070927619934,0.7630095481872559,-0.37766581773757935
2.84004807472229,-0.06058382987976074,-0.08497673273086548,0.02412116527557373,-0.4614386649804906,-1.1362342855691117,-1.6603391196312978,-0.8121883869171143,0.44523677229881287,-0.37698066234588623,-1.7407658100128174,0.7911368012428284,-0.39361700415611267
2.8597540855407715,-0.004650294780731201,-0.0897722840309143,0.011234134435653687,-0.46912667768135824,-1.1385036129268604,-1.6998766157062122,-0.8099095821380615,0.4521074891090393,-0.3736914098262787,-1.777323603630066,0.7615000605583191,-0.4028342068195343
2.8797590732574463,0.04085463285446167,-0.11238431930541992,0.026135802268981934,-0.47527606281724877,-1.1411594559646192,-1.738519570365866,-0.8083564639091492,0.4575839340686798,-0.37037405371665955,-1.5872552394866943,0.7361127734184265,-0.4709485173225403
2.8998570442199707,0.06336551904678345,-0.09388411045074463,-0.002438664436340332,-0.47825695938243,-1.1435083211237658,-1.7736944274306288,-0.8079792261123657,0.4602324068546295,-0.36790740489959717,-1.4020719528198242,0.6415138244628906,-0.5711690783500671
2.9197371006011963,0.06081336736679077,-0.10347685217857361,-0.01290351152420044,-0.4777185404665911,-1.1476306133051921,-1.8084600623590519,-0.8097147345542908,0.4597543179988861,-0.36467525362968445,-1.4556691646575928,0.5619202256202698,-0.7711822986602783
2.9398410320281982,0.05531078577041626,-0.11878356337547302,0.008578300476074219,-0.4748707985468899,-1.1562942217008558,-1.8482196837949274,-0.8140388131141663,0.4572235345840454,-0.3581724464893341,-1.6502726078033447,0.4546031057834625,-0.8891217112541199
2.959743022918701,0.050874412059783936,-0.0919441282749176,0.05116152763366699,-0.47130621653619237,-1.1666575146793783,-1.891017405155773,-0.8192002177238464,0.4540504813194275,-0.35035592317581177,-1.6735472679138184,0.4979594349861145,-0.9453282356262207
2.979809045791626,0.05053442716598511,-0.06137761473655701,0.039481014013290405,-0.46753849002849357,-1.1754424148557925,-1.934200501456063,-0.8238192200660706,0.45069029927253723,-0.343802273273468,-1.7870924472808838,0.5534173846244812,-0.9415730237960815
2.99977707862854,0.0428507924079895,-0.0014461278915405273,-0.007252514362335205,-0.46284912542453,-1.1856730479254023,-1.981487940044261,-0.8292430639266968,0.4464992582798004,-0.3361465632915497,-1.9162311553955078,0.5470501184463501,-1.0817426443099976
3.019767999649048,0.05236142873764038,0.050789713859558105,-0.045157819986343384,-0.4577340695122951,-1.1954020380771833,-2.0292929957324284,-0.8345879912376404,0.4419165849685669,-0.32889610528945923,-1.9771969318389893,0.5693967938423157,-1.0289535522460938
3.039777994155884,0.05539047718048096,0.06890010833740234,-0.04213103652000427,-0.4526395018180096,-1.2066200506468627,-2.079420853723164,-0.8403177857398987,0.43734073638916016,-0.32031095027923584,-2.0108790397644043,0.5207124948501587,-1.0470679998397827
3.059778928756714,0.07252693176269531,0.09823128581047058,-0.09387746453285217,-0.44658685195006326,-1.2175089474482694,-2.1254952163606236,-0.8462239503860474,0.4318896532058716,-0.3120521903038025,-1.6255629062652588,0.37424787878990173,-1.000045657157898
3.079767942428589,0.1066962480545044,0.20228269696235657,-0.08250248432159424,-0.437687929402885,-1.227239278876289,-2.1619419028898377,-0.8528052568435669,0.4238464832305908,-0.30508601665496826,-1.2030671834945679,0.2390376180410385,-0.9353665709495544
3.099877119064331,0.1311926245689392,0.17467597126960754,-0.0409703254699707,-0.4289492856304222,-1.2356049855920619,-2.191814791270592,-0.8587926626205444,0.41591551899909973,-0.2991481125354767,-1.1219815015792847,0.19154945015907288,-0.8060886263847351
3.1197688579559326,0.10518795251846313,0.13585355877876282,-0.0288255512714386,-0.4218342621203299,-1.2441003196705929,-2.221457872342436,-0.8640839457511902,0.40943461656570435,-0.2927839457988739,-1.1916587352752686,0.18058042228221893,-0.7540081739425659
3.1397690773010254,0.09366583824157715,0.1652635931968689,-0.05362391471862793,-0.4151472840754589,-1.2523171393933232,-2.2498968368477184,-0.8690412640571594,0.403324693441391,-0.28652501106262207,-1.080671787261963,0.15798474848270416,-0.7009903788566589
3.159769058227539,0.10708349943161011,0.1815173327922821,-0.053248971700668335,-0.4089324474461521,-1.2599160827023659,-2.2762028188074286,-0.8735628724098206,0.3976300358772278,-0.2806743085384369,-1.01555597782135,0.1353316307067871,-0.6408324837684631
3.179795026779175,0.1269931197166443,0.15476039052009583,-0.05798739194869995,-0.4035098192051386,-1.2674960524431187,-2.3011691230478015,-0.8777102828025818,0.39264869689941406,-0.27468472719192505,-1.0218068361282349,0.09185534715652466,-0.5786744952201843
3.1998090744018555,0.1332274079322815,0.1554718017578125,-0.04929289221763611,-0.3989414098521003,-1.2758678476493648,-2.325977557746481,-0.8816863298416138,0.38844311237335205,-0.2678458094596863,-1.0409473180770874,0.0638747587800026,-0.5246903896331787
3.219865083694458,0.12115991115570068,0.15853455662727356,-0.0558072030544281,-0.3952727259021223,-1.2843578124114132,-2.35094938102775,-0.8852896094322205,0.3850598931312561,-0.2607516646385193,-1.09136962890625,0.053005773574113846,-0.5031554698944092
3.239772081375122,0.10864096879959106,0.16127538681030273,-0.0810362696647644,-0.39194140140514083,-1.2929714370301444,-2.377075134038414,-0.8887313008308411,0.38198330998420715,-0.2534669041633606,-1.1201540231704712,0.08727213740348816,-0.49252092838287354
3.259916067123413,0.10487943887710571,0.16075283288955688,-0.109424889087677,-0.38890937421416033,-1.3013163278167093,-2.403837619394145,-0.8919278383255005,0.379179447889328,-0.2463490217924118,-1.2149441242218018,0.09601262956857681,-0.4755344092845917
3.279362916946411,0.10978895425796509,0.14982730150222778,-0.15432143211364746,-0.38648678286047183,-1.3117152955751175,-2.433394469303536,-0.8953266739845276,0.376936674118042,-0.23729538917541504,-1.3471765518188477,-0.0476720966398716,-0.48512426018714905
3.2999751567840576,0.11962717771530151,0.13598188757896423,-0.18040382862091064,-0.3843028546247262,-1.3252814573743188,-2.46355014641646,-0.8992598056793213,0.37491291761398315,-0.22532734274864197,-1.2875170707702637,-0.17575976252555847,-0.41979941725730896
3.3198020458221436,0.09416592121124268,0.19979968667030334,-0.20252418518066406,-0.3815661297721644,-1.339510458184586,-2.4896207645162596,-0.9033699631690979,0.37237441539764404,-0.21274375915527344,-0.9635137319564819,-0.2780131697654724,-0.4241620600223541
3.3397810459136963,0.06540095806121826,0.24043646454811096,-0.2818608582019806,-0.37686550909010713,-1.3528349738465917,-2.5076124427489193,-0.9078233242034912,0.36800774931907654,-0.20106452703475952,-0.6051825284957886,-0.3781229853630066,-0.38693487644195557
3.3597781658172607,0.0074790120124816895,0.2138400673866272,-0.33334624767303467,-0.3727665575459326,-1.3653100751670675,-2.524022242096726,-0.9117301106452942,0.3641933798789978,-0.19003020226955414,-0.9957031607627869,-0.23119132220745087,-0.3331269323825836
3.379768133163452,-0.14170444011688232,0.09178942441940308,-0.48661303520202637,-0.3754010797426093,-1.3780699259223403,-2.5564553345110883,-0.9131357669830322,0.3666456937789917,-0.17819714546203613,-2.0363240242004395,0.21063295006752014,-0.09502693265676498
3.400070905685425,-0.2701658606529236,-0.023181408643722534,-0.5846863389015198,-0.38089690974138535,-1.3894431380292147,-2.6100177854320648,-0.9131075739860535,0.3717532455921173,-0.16743458807468414,-2.537949323654175,0.6074602007865906,-0.32540252804756165
3.419757127761841,-0.10792779922485352,0.2813555598258972,-0.5160141587257385,-0.37641143089035095,-1.3951300926052588,-2.651771483651905,-0.915677547454834,0.36758551001548767,-0.1625288873910904,-1.0367847681045532,0.27446261048316956,-0.7155004739761353
3.4397940635681152,0.1165992021560669,0.6423556804656982,-0.44265657663345337,-0.36732957959411705,-1.3948184607886915,-2.6531749742697204,-0.9188758134841919,0.35912445187568665,-0.16339194774627686,1.0227588415145874,-0.14360874891281128,-0.23979096114635468
3.4597718715667725,0.023784279823303223,0.4323340356349945,-0.39399856328964233,-0.3584664811730879,-1.3895239445647045,-2.6177489530639715,-0.9210926294326782,0.3508386015892029,-0.16882187128067017,2.244460344314575,-0.5498050451278687,0.027413737028837204
3.4797379970550537,-0.053188204765319824,0.35668784379959106,-0.2774132490158081,-0.35173795956900256,-1.3814721864663586,-2.5638264284337984,-0.9220011234283447,0.3445298671722412,-0.17667299509048462,2.8192708492279053,-0.5288861393928528,0.17844250798225403
3.4998300075531006,0.007348954677581787,0.3464880585670471,-0.21108168363571167,-0.34505680176507236,-1.3702998798415995,-2.5016106511627894,-0.922204852104187,0.33825013041496277,-0.18741686642169952,2.951456069946289,-0.4586086869239807,0.3326338827610016
3.519710063934326,0.08994591236114502,0.25081726908683777,-0.11020863056182861,-0.34171667054416405,-1.3588976028643538,-2.4433275154380434,-0.9211074709892273,0.3351050019264221,-0.1981562227010727,2.4381051063537598,-0.36532312631607056,0.43540769815444946
3.5397379398345947,0.09824639558792114,0.13665297627449036,-0.028609275817871094,-0.3419413268826241,-1.3499802497041593,-2.3986015988405702,-0.9192302823066711,0.33531665802001953,-0.2063455730676651,1.7179919481277466,-0.2587488293647766,0.4863249957561493
3.5597798824310303,0.0844346284866333,0.13916373252868652,-0.0193251371383667,-0.3441523130153729,-1.3430120628160014,-2.3638022006233252,-0.9170457720756531,0.33739882707595825,-0.2125779539346695,1.5431859493255615,-0.21405574679374695,0.45691126585006714
3.5797688961029053,0.0896863341331482,0.21018990874290466,-0.04073542356491089,-0.3449990003775788,-1.3358309316353838,-2.3279462031122367,-0.9152173399925232,0.3381957411766052,-0.2190912365913391,1.754835605621338,-0.2865619957447052,0.3945576548576355
3.599768877029419,0.10006141662597656,0.22785082459449768,-0.005454704165458679,-0.3429660266868076,-1.328715967689218,-2.287741193917958,-0.9143009185791016,0.3362818658351898,-0.22576171159744263,1.969534993171692,-0.3505275845527649,0.303201287984848
3.6197688579559326,0.09353935718536377,0.20729869604110718,0.04047888517379761,-0.3383344409302706,-1.321278094375587,-2.244501866682093,-0.9140959978103638,0.3319164216518402,-0.2329379916191101,2.0640769004821777,-0.33788377046585083,0.25467565655708313
3.63976788520813,0.09511077404022217,0.19313666224479675,0.10082921385765076,-0.3331163752372169,-1.3129663405750311,-2.202047663244056,-0.9137904644012451,0.32698968052864075,-0.24096590280532837,1.9253066778182983,-0.2198423594236374,0.2516765892505646
3.659795045852661,0.10692793130874634,0.1756707727909088,0.1668834388256073,-0.3292381091597304,-1.3032506287737076,-2.1643209611160765,-0.9126223921775818,0.3233221471309662,-0.2501659095287323,1.6100085973739624,-0.03617106005549431,0.30292385816574097
3.6798040866851807,0.12463361024856567,0.15164414048194885,0.2137024998664856,-0.32836122040436755,-1.292395947724495,-2.134138849021924,-0.9101256132125854,0.32249224185943604,-0.2601350247859955,1.148347020149231,0.13670235872268677,0.3850025534629822
3.699773073196411,0.12198227643966675,0.13889726996421814,0.25296422839164734,-0.33135104071449245,-1.2811247447189307,-2.1128461205529674,-0.9062076807022095,0.32532086968421936,-0.2700998783111572,0.7186049818992615,0.2957806885242462,0.4625210464000702
3.71976900100708,0.10332447290420532,0.12979203462600708,0.26920461654663086,-0.33769519630378375,-1.269302532835079,-2.0987770176774383,-0.9009624123573303,0.3313133418560028,-0.28017565608024597,0.38746073842048645,0.41197654604911804,0.5277445316314697
3.7397680282592773,0.07528364658355713,0.12981730699539185,0.29740405082702637,-0.34641485698035446,-1.25684225315514,-2.089774961219485,-0.8946195840835571,0.33952781558036804,-0.29047659039497375,0.17949780821800232,0.5362765192985535,0.5569222569465637
3.759856939315796,0.04518723487854004,0.11591881513595581,0.3494299352169037,-0.357026195880676,-1.2419163923071133,-2.083468501066296,-0.8867246508598328,0.3494895100593567,-0.3026159703731537,0.042373284697532654,0.7289385795593262,0.6472357511520386
3.7797691822052,0.018720626831054688,0.07955846190452576,0.3797892928123474,-0.37110053506069995,-1.2244815856855662,-2.080143136997983,-0.8766002655029297,0.36264127492904663,-0.3163280189037323,-0.23758964240550995,0.8727007508277893,0.7631466388702393
3.7997958660125732,-0.017018377780914307,0.040657490491867065,0.38453400135040283,-0.38913313628960805,-1.2072666226832272,-2.081770508137087,-0.8647717833518982,0.3793865144252777,-0.3289920687675476,-0.5294002294540405,0.9000986218452454,0.8702400922775269
3.8197760581970215,-0.0643036961555481,0.04530450701713562,0.38744643330574036,-0.41089301632920994,-1.1913628582596953,-2.087728678681689,-0.8515592813491821,0.3994281589984894,-0.33956435322761536,-0.7468448281288147,0.9124258756637573,0.9436555504798889
3.8397769927978516,-0.07196080684661865,0.02742600440979004,0.39033907651901245,-0.4351019596411685,-1.1773056911637005,-2.0962179492256663,-0.8375240564346313,0.42150285840034485,-0.34769076108932495,-0.8815537095069885,0.8290355205535889,1.0146408081054688
3.8597700595855713,-0.03667181730270386,-0.023024260997772217,0.4026106595993042,-0.46165822439965765,-1.166662231405949,-2.105971347947,-0.8231915235519409,0.4454333484172821,-0.3520583212375641,-0.9473541378974915,0.6458002328872681,1.0833570957183838
3.879777193069458,-0.04456609487533569,-0.06439125537872314,0.36659038066864014,-0.4884098202984081,-1.1602888059358942,-2.1143632882208228,-0.8097124695777893,0.46922221779823303,-0.3524149954319,-0.7630910873413086,0.37895992398262024,1.051575779914856
3.8997960090637207,-0.10264259576797485,-0.05631214380264282,0.32450950145721436,-0.5111768626700119,-1.156210672750982,-2.117744223611059,-0.7982820868492126,0.4892040193080902,-0.35131919384002686,-0.4125940501689911,0.18769364058971405,0.9093774557113647
3.9198029041290283,-0.13340449333190918,-0.08055585622787476,0.30508291721343994,-0.5282267049326951,-1.1533640926979052,-2.1154089827215032,-0.7895386219024658,0.5040025115013123,-0.35015740990638733,-0.11606596410274506,-0.020752424374222755,0.735621452331543
3.9397740364074707,-0.1502721905708313,-0.1457415223121643,0.30366480350494385,-0.5400160363682199,-1.153061962194966,-2.1093105739524147,-0.7839471101760864,0.5141497254371643,-0.34796106815338135,0.1016165092587471,-0.22906319797039032,0.5576410889625549
3.9598610401153564,-0.19072288274765015,-0.1647765040397644,0.29002365469932556,-0.5471201800722537,-1.1535955363141346,-2.1010009758707544,-0.7807736992835999,0.5202299356460571,-0.34605395793914795,0.26646241545677185,-0.2513326406478882,0.37908920645713806
3.9797708988189697,-0.18787074089050293,-0.1955377459526062,0.24682694673538208,-0.5499808842529762,-1.154404447931997,-2.0916074019175492,-0.7796890139579773,0.5226709246635437,-0.3448188900947571,0.33862704038619995,-0.36539289355278015,0.20735882222652435
3.9997670650482178,-0.16563773155212402,-0.21039271354675293,0.1862163245677948,-0.5492030993814278,-1.1597763662705356,-2.08205205936677,-0.7819024920463562,0.5220077037811279,-0.340787798166275,0.45524823665618896,-0.6760751605033875,0.034752871841192245
4.0197670459747314,-0.28007107973098755,-0.17596566677093506,0.17026036977767944,-0.5441266151521796,-1.1694793087981488,-2.0730538298097683,-0.7876017093658447,0.5176710486412048,-0.33421602845191956,0.4088028073310852,-0.7163191437721252,-0.22085179388523102
4.039846181869507,-0.45773255825042725,-0.16136479377746582,0.20800229907035828,-0.5358739298658927,-1.1803306472871302,-2.0719569901868424,-0.795105516910553,0.5105926394462585,-0.3272649347782135,-0.09480025619268417,-0.3679763376712799,-0.48755985498428345
4.059118986129761,-0.4421141743659973,-0.20608913898468018,0.20096629858016968,-0.5285614858413326,-1.1905641511307212,-2.0861951460468293,-0.8018585443496704,0.5042916536331177,-0.3204883933067322,-0.736115038394928,0.06004459783434868,-0.6190338134765625
4.079767942428589,-0.17194116115570068,-0.22476130723953247,0.12813600897789001,-0.5253608318149382,-1.1998002031239672,-2.1124578041687077,-0.8062844276428223,0.5015252232551575,-0.313652366399765,-1.2300199270248413,0.2596093714237213,-0.4965752363204956
4.099847078323364,0.11543655395507812,-0.18254166841506958,-0.012477457523345947,-0.5269506214780526,-1.2128428787585146,-2.144140072708398,-0.8095588684082031,0.5028999447822571,-0.30283018946647644,-1.3121888637542725,-0.04404265806078911,-0.3392585813999176
4.119808912277222,0.2615702152252197,-0.15025019645690918,-0.16499540209770203,-0.5289952335478691,-1.2312693404631274,-2.170407571337085,-0.8140300512313843,0.5046661496162415,-0.28751930594444275,-0.8592337965965271,-0.40216952562332153,-0.2521398067474365
4.139769077301025,0.17292046546936035,-0.11035418510437012,-0.11314564943313599,-0.5281713316512753,-1.2464248552198538,-2.1852543977326166,-0.8186876773834229,0.5039547085762024,-0.2752821147441864,-0.39642229676246643,-0.3013404905796051,-0.2513631582260132
4.15982985496521,-0.017885565757751465,-0.14141374826431274,-0.09060743451118469,-0.5249152544801771,-1.2554358618083528,-2.195759787435663,-0.8226906061172485,0.5011396408081055,-0.2684013545513153,-0.43704089522361755,-0.07249755412340164,-0.3598252236843109
4.179769039154053,-0.16861063241958618,-0.17378532886505127,-0.06013226509094238,-0.5208558141299219,-1.2616651918919106,-2.2112648827173618,-0.8262776732444763,0.49762263894081116,-0.26388809084892273,-0.7482049465179443,0.2259601652622223,-0.4314843416213989
4.199769020080566,-0.2397996187210083,-0.2061539888381958,0.029325366020202637,-0.5186988857283529,-1.2672979262998423,-2.2380052026693287,-0.8287734389305115,0.4957505762577057,-0.25954994559288025,-1.4746986627578735,0.5461418032646179,-0.47863394021987915
4.219766855239868,-0.24332231283187866,-0.21448758244514465,0.097942054271698,-0.5199845912393153,-1.2764354021827458,-2.2839736338129546,-0.8304997086524963,0.49686676263809204,-0.251781165599823,-2.350200653076172,0.8215890526771545,-0.5748680233955383
4.239767074584961,-0.17426204681396484,-0.15610206127166748,0.05215322971343994,-0.5227938892122547,-1.2894431779061044,-2.3451385792507975,-0.8323602080345154,0.49930277466773987,-0.24056869745254517,-2.7316389083862305,0.889423131942749,-0.6588233113288879
4.2597692012786865,-0.042331814765930176,-0.08446300029754639,-0.01199302077293396,-0.5240106339599204,-1.3043957993991446,-2.4089222129897485,-0.8352775573730469,0.5003566145896912,-0.22793622314929962,-2.553575038909912,0.7912503480911255,-0.7307060956954956
4.279797077178955,0.05602818727493286,-0.04074111580848694,-0.05224031209945679,-0.5212220250554517,-1.3186795948715173,-2.465762697229584,-0.8397958874702454,0.4979402720928192,-0.2163296490907669,-2.1788671016693115,0.691543459892273,-0.809987485408783
4.2997682094573975,0.09870004653930664,-0.006165742874145508,-0.07670766115188599,-0.5140940930690079,-1.3311850822858036,-2.5149745317794183,-0.8458619117736816,0.4917462468147278,-0.20664803683757782,-1.7886109352111816,0.5503551363945007,-0.906559944152832
4.319780111312866,0.12668561935424805,0.0160655677318573,-0.10758906602859497,-0.5025489752823404,-1.3430915833846884,-2.5559580211882262,-0.853736400604248,0.4816609025001526,-0.19783084094524384,-1.4146627187728882,0.3047938942909241,-1.0538411140441895
4.339806079864502,0.12257397174835205,0.037170082330703735,-0.11499421298503876,-0.4869256863472945,-1.3561525011237388,-2.591275187508598,-0.8634949326515198,0.46791109442710876,-0.18824368715286255,-1.225389003753662,0.06424865871667862,-1.1516127586364746
4.359778165817261,0.09958362579345703,0.05951407551765442,-0.14346294105052948,-0.4678333215856804,-1.3703069664706604,-2.6198229344943567,-0.8746690154075623,0.45095348358154297,-0.1777498424053192,-0.895502507686615,-0.14319337904453278,-1.2302532196044922
4.379777193069458,0.07329201698303223,0.12344840168952942,-0.15053534507751465,-0.44567970276796076,-1.3840590124499648,-2.6406911761952157,-0.8866312503814697,0.43107128143310547,-0.16751885414123535,-0.4876801073551178,-0.3087494969367981,-1.3169184923171997
4.399801969528198,0.06497299671173096,0.16568449139595032,-0.14998191595077515,-0.42128234974666595,-1.3960493802735603,-2.6529594510101266,-0.8986675143241882,0.40893101692199707,-0.15865764021873474,-0.22596420347690582,-0.36869317293167114,-1.2658048868179321
4.419769048690796,0.06635439395904541,0.17648154497146606,-0.15548469126224518,-0.39746986014290225,-1.4073417263452754,-2.661149553493945,-0.9097535014152527,0.3870866894721985,-0.15004202723503113,-0.13363224267959595,-0.435577929019928,-1.2108521461486816
4.439768075942993,0.06708258390426636,0.18850621581077576,-0.1456294059753418,-0.37608289776071696,-1.4184080034645836,-2.668735336234487,-0.9193317294120789,0.36727994680404663,-0.1411900371313095,-0.2639157772064209,-0.384540319442749,-1.0059705972671509
4.459791898727417,0.06764376163482666,0.2132905125617981,-0.1468995213508606,-0.35860068772366605,-1.4289788846258717,-2.678550107845804,-0.9269883036613464,0.3509642779827118,-0.1323515921831131,-0.35636988282203674,-0.32033878564834595,-0.8644917607307434
4.479768991470337,0.08293545246124268,0.23874768614768982,-0.16631607711315155,-0.34468182930823127,-1.43799505128536,-2.6881069778274234,-0.9328957200050354,0.33789724111557007,-0.12462322413921356,-0.340302973985672,-0.26162484288215637,-0.625953197479248
4.49977707862854,0.11860454082489014,0.24266815185546875,-0.15529602766036987,-0.3357802819482625,-1.4456148978860106,-2.696725109233554,-0.9367655515670776,0.329505980014801,-0.11788205057382584,-0.3670976161956787,-0.2128017544746399,-0.3757745325565338
4.519768953323364,0.11843836307525635,0.2431698739528656,-0.16290777921676636,-0.3311314494636156,-1.4521383235322973,-2.705165199257372,-0.9390254616737366,0.3251132071018219,-0.11194878816604614,-0.34132570028305054,-0.17164181172847748,-0.19267772138118744
4.539777040481567,0.1037290096282959,0.25975000858306885,-0.18975670635700226,-0.3293153167680837,-1.4575303664619244,-2.710533357148748,-0.940200686454773,0.3233952224254608,-0.10695048421621323,-0.12128005921840668,-0.19654804468154907,-0.055887315422296524
4.558915853500366,0.08991408348083496,0.267858624458313,-0.22394269704818726,-0.3290507028373925,-1.4614573755501792,-2.7098695433547073,-0.9406983256340027,0.323144793510437,-0.10326682031154633,0.18942809104919434,-0.22390776872634888,0.023287402465939522
4.579777956008911,0.06249779462814331,0.2704569101333618,-0.23120392858982086,-0.32941708592575986,-1.4638423079396254,-2.702889012619609,-0.9408243894577026,0.32349151372909546,-0.10101039707660675,0.4408406615257263,-0.22656869888305664,0.08159530162811279
4.599807024002075,0.012763261795043945,0.24819710850715637,-0.2284056693315506,-0.3306561346032373,-1.4642608797030674,-2.693199848674724,-0.9404672384262085,0.3246636986732483,-0.10057388246059418,0.4041038453578949,-0.10394815355539322,0.14203745126724243
4.619770050048828,-0.011232256889343262,0.2084268033504486,-0.18172138929367065,-0.33403602722927905,-1.4627958698039756,-2.6873193211057296,-0.9392224550247192,0.3278586268424988,-0.10183268785476685,0.10053223371505737,0.05484317988157272,0.24981296062469482
4.6397669315338135,-0.02019953727722168,0.17869466543197632,-0.17608486115932465,-0.34018867761295063,-1.460259401836868,-2.6874182091012324,-0.9369384050369263,0.3336649537086487,-0.10399016737937927,-0.17478105425834656,0.19131988286972046,0.3566782772541046
4.659794092178345,-0.03488832712173462,0.1953812837600708,-0.18890559673309326,-0.3482842864958035,-1.457686013972376,-2.6913450847016276,-0.9339531660079956,0.3412856161594391,-0.10609257221221924,-0.22163158655166626,0.16212178766727448,0.3929942846298218
4.679779052734375,-0.11160677671432495,0.25266048312187195,-0.22665278613567352,-0.35610618974065583,-1.4556678022402765,-2.6920480268115177,-0.9310566782951355,0.34862735867500305,-0.10766729712486267,0.10271312296390533,0.08740973472595215,0.358234703540802
4.699778079986572,-0.2332591414451599,0.3109665811061859,-0.22673337161540985,-0.36164478972537734,-1.4495832812260272,-2.685009438140455,-0.9284533858299255,0.353813111782074,-0.11309508979320526,0.4445227384567261,0.3258006274700165,0.2741098403930664
4.719779014587402,-0.14668327569961548,0.25613582134246826,-0.1553783118724823,-0.366974868915434,-1.4361772098762071,-2.6747870693513884,-0.924971878528595,0.35879337787628174,-0.125276580452919,0.3720395267009735,0.5942592620849609,0.40757715702056885
4.739815950393677,0.10665750503540039,0.14980024099349976,-0.07102489471435547,-0.3772747715626283,-1.4220163546846678,-2.6677307852290992,-0.9194016456604004,0.36838826537132263,-0.13780686259269714,0.15348559617996216,0.5114394426345825,0.7178798913955688
4.759778022766113,0.20281469821929932,0.10818669199943542,-0.05007283389568329,-0.3937288620252566,-1.412064063794716,-2.6613517305463965,-0.911875307559967,0.38363462686538696,-0.14597207307815552,0.23248036205768585,0.24853293597698212,0.95875483751297
4.77980899810791,0.0992964506149292,0.14027199149131775,-0.05838264524936676,-0.4114459356960572,-1.403251398368397,-2.6480888303286583,-0.903709352016449,0.3999350070953369,-0.15284478664398193,0.7517964839935303,0.12533509731292725,0.9663906693458557
4.799769163131714,-0.023196876049041748,0.17630115151405334,-0.06706689298152924,-0.4258388013381645,-1.3905978070645368,-2.619727114620887,-0.895946741104126,0.41308480501174927,-0.16321876645088196,1.5754460096359253,-0.04036838188767433,0.8999518752098083
4.819780111312866,-0.09474056959152222,0.18639150261878967,-0.04597991704940796,-0.4354391598458498,-1.3746476660905547,-2.574428556309541,-0.8892987370491028,0.4218086302280426,-0.17670680582523346,2.236497402191162,-0.2349744290113449,0.8173510432243347
4.839771032333374,-0.1870734691619873,0.15456756949424744,0.03904837369918823,-0.44111159568949204,-1.3563226976415452,-2.5202325670279677,-0.8835594654083252,0.42694491147994995,-0.19246028363704681,2.3787410259246826,-0.19425345957279205,0.7512105107307434
4.859847068786621,-0.24201422929763794,0.0756719708442688,0.12277409434318542,-0.4459007812498903,-1.3356125638319896,-2.4677654179581583,-0.877385675907135,0.4312707483768463,-0.21023741364479065,2.10310435295105,0.035101521760225296,0.7948961853981018
4.879778146743774,-0.22039735317230225,0.008948475122451782,0.1695077121257782,-0.45340298492063874,-1.3126379292429322,-2.422763374537031,-0.8691716194152832,0.43802720308303833,-0.2295052707195282,1.6385592222213745,0.2989896833896637,0.9426569938659668
4.899768114089966,-0.15675711631774902,-0.027592629194259644,0.18783462047576904,-0.46601559599595094,-1.288841413626667,-2.3870689598784343,-0.8580896854400635,0.44933032989501953,-0.24856461584568024,1.116125464439392,0.49488189816474915,1.1341798305511475
4.91978907585144,-0.09931004047393799,-0.057623982429504395,0.20567339658737183,-0.48460364548542917,-1.265272711677417,-2.360481189114461,-0.8438814878463745,0.46585768461227417,-0.2661592364311218,0.6169546246528625,0.641585111618042,1.3372292518615723
4.939808130264282,-0.07171398401260376,-0.10445302724838257,0.22497552633285522,-0.5093226746719098,-1.2421824464206679,-2.3413727401209994,-0.8263573050498962,0.48758599162101746,-0.28176870942115784,0.23662111163139343,0.7676143646240234,1.5342613458633423
4.959770917892456,-0.07430028915405273,-0.13163632154464722,0.244937926530838,-0.5387462866423157,-1.2184255869119522,-2.3267524833443316,-0.8056129813194275,0.5130602717399597,-0.2962379455566406,-0.016327261924743652,0.871479868888855,1.6575212478637695
4.979779958724976,-0.0643308162689209,-0.1540238857269287,0.2670183479785919,-0.5709389390939342,-1.1946761437995235,-2.31481511360641,-0.7825778722763062,0.5404223203659058,-0.3090563416481018,-0.16523921489715576,0.8691118359565735,1.7089483737945557
4.999772071838379,-0.05102801322937012,-0.18609213829040527,0.2825263440608978,-0.6036713423573038,-1.1716943287330701,-2.3035501496640602,-0.7585576772689819,0.5676687359809875,-0.3199104070663452,-0.1874276101589203,0.8039562702178955,1.6799196004867554
5.01981520652771,-0.04526364803314209,-0.21569764614105225,0.28939786553382874,-0.6348576147560586,-1.1500947694060952,-2.2911018014863354,-0.7349488139152527,0.5930628776550293,-0.32882657647132874,-0.10853306204080582,0.627878725528717,1.5807008743286133
5.039815187454224,-0.07617288827896118,-0.23348581790924072,0.29122981429100037,-0.66205872427926,-1.1298085396942885,-2.2763421500079777,-0.7132710218429565,0.6147419214248657,-0.33665522933006287,0.03454340249300003,0.5317569971084595,1.38262939453125
5.0589048862457275,-0.08659648895263672,-0.2621086835861206,0.3199985921382904,-0.6841273523474033,-1.1100276905698458,-2.2604686149439,-0.694149911403656,0.6319969892501831,-0.3445804715156555,0.10001969337463379,0.446276992559433,1.145408034324646
5.079768896102905,-0.04928940534591675,-0.3104085326194763,0.3408637046813965,-0.701307149874729,-1.0935457830513053,-2.2462648452437004,-0.6786311268806458,0.6452168822288513,-0.3509345054626465,0.10095177590847015,0.29129913449287415,0.881026566028595
5.099780082702637,-0.021086394786834717,-0.33511149883270264,0.3409530818462372,-0.7133103280643539,-1.082047421285231,-2.2348797192407526,-0.6676647663116455,0.6543406248092651,-0.3550522029399872,0.11939828842878342,0.12165230512619019,0.5761104226112366
5.119803190231323,-0.008266210556030273,-0.34079813957214355,0.31962111592292786,-0.7190690375074423,-1.0759894908469538,-2.2268216459924535,-0.66217440366745,0.658684492111206,-0.35729503631591797,0.13736717402935028,-0.03985314816236496,0.21569770574569702
5.1397740840911865,0.006808042526245117,-0.34062355756759644,0.29605212807655334,-0.7181478537808278,-1.0755172533375685,-2.2227512681807595,-0.6625391840934753,0.6579911112785339,-0.35789594054222107,0.19569574296474457,-0.17606984078884125,-0.14925825595855713
5.15978217124939,0.02804744243621826,-0.33268553018569946,0.2696816325187683,-0.7104689916116718,-1.079423008556087,-2.2211125889538152,-0.6683672666549683,0.6521893739700317,-0.3576790690422058,0.26715511083602905,-0.3274397552013397,-0.46589455008506775
5.179828882217407,0.025054872035980225,-0.3023322820663452,0.25289127230644226,-0.6971544663544377,-1.0887858018127505,-2.22281069051139,-0.6793211698532104,0.6420387029647827,-0.3553997576236725,0.2254149168729782,-0.4892124831676483,-0.7710407376289368
5.199778079986572,-0.014547646045684814,-0.29250913858413696,0.2488144338130951,-0.6792799947652828,-1.1038683928970439,-2.229564048973725,-0.6947417855262756,0.628233015537262,-0.3502243161201477,0.10996837913990021,-0.5963919162750244,-1.0611274242401123
5.219771146774292,-0.08789670467376709,-0.2629665732383728,0.23697537183761597,-0.657482902909146,-1.1247520210658901,-2.2429092826991144,-0.7140899896621704,0.6111264228820801,-0.34146755933761597,-0.0987616628408432,-0.6510218977928162,-1.362203598022461
5.239771127700806,-0.1517014503479004,-0.21336007118225098,0.21322202682495117,-0.6321464977801148,-1.1497469255318171,-2.2631185445173934,-0.7362990379333496,0.5908778309822083,-0.32973814010620117,-0.29734182357788086,-0.6467605233192444,-1.60964035987854
5.259770154953003,-0.1642230749130249,-0.15953433513641357,0.16565999388694763,-0.6037363779149814,-1.177741894437419,-2.288345390865633,-0.7604443430900574,0.5677222609519958,-0.3153029978275299,-0.4417632222175598,-0.7165018320083618,-1.810313105583191
5.279773950576782,-0.13282877206802368,-0.09451800584793091,0.09075677394866943,-0.5718499458211173,-1.208347435755607,-2.314061271063649,-0.7862691283226013,0.5411885976791382,-0.2981542646884918,-0.32957160472869873,-0.9358475804328918,-1.9523937702178955
5.299777984619141,-0.1505863070487976,-0.007779061794281006,0.017806172370910645,-0.5352992470480252,-1.238674610982563,-2.333572841987033,-0.8131130337715149,0.5100984573364258,-0.28044041991233826,0.030857160687446594,-1.0364832878112793,-2.0606207847595215
5.318976163864136,-0.20658326148986816,0.073405921459198,-0.03211405873298645,-0.49428217818459774,-1.264417328607284,-2.3441109643178946,-0.8393151164054871,0.4743998646736145,-0.26550859212875366,0.35519328713417053,-1.0391253232955933,-2.1207327842712402
5.33978009223938,-0.21332073211669922,0.12917590141296387,-0.043480873107910156,-0.45233016948169835,-1.289161002135547,-2.3492595885065395,-0.8639955520629883,0.437062531709671,-0.24997612833976746,0.3925988972187042,-1.2256590127944946,-2.0217278003692627
5.359771013259888,-0.35126882791519165,0.18608659505844116,-0.08560338616371155,-0.41318622874866034,-1.3161423254073934,-2.3532857809075796,-0.8863106369972229,0.401529461145401,-0.23071134090423584,0.2675696909427643,-1.2296284437179565,-1.8577277660369873
5.379806041717529,-0.5659930109977722,0.2506086528301239,-0.11402341723442078,-0.3783980280024063,-1.338357592293836,-2.359434926350008,-0.9042677283287048,0.3694323003292084,-0.21405579149723053,-0.032375894486904144,-0.6835554838180542,-1.6422395706176758
5.399770975112915,-0.3860761523246765,0.21527647972106934,-0.09544527530670166,-0.3526569821594848,-1.350177101081842,-2.373807069299256,-0.9157121777534485,0.34539249539375305,-0.20536649227142334,-0.763224720954895,-0.03995443880558014,-1.1207165718078613
5.419417142868042,0.050374507904052734,0.11124914884567261,-0.10462263226509094,-0.34299214982038456,-1.3575219786986792,-2.4023310206177984,-0.9204155206680298,0.33630645275115967,-0.19933250546455383,-1.64198899269104,0.20584751665592194,-0.38813960552215576
5.439779043197632,0.3230421543121338,0.03771847486495972,-0.1551375389099121,-0.34975529274944345,-1.3681906320259165,-2.441717335819883,-0.9202406406402588,0.34266793727874756,-0.18903973698616028,-1.9972306489944458,0.04224731773138046,0.2542493939399719
5.459774017333984,0.2857350707054138,0.06731316447257996,-0.18932217359542847,-0.36505778311088954,-1.3807275393595992,-2.4782533808874065,-0.9172810912132263,0.35700327157974243,-0.17647677659988403,-1.5735247135162354,0.050899215042591095,0.5038210153579712
5.479794025421143,0.04607588052749634,0.1885421872138977,-0.18704475462436676,-0.37819424791690176,-1.385986497686149,-2.500966010197191,-0.9135076403617859,0.36924293637275696,-0.17077386379241943,-0.7401227951049805,0.23475977778434753,0.3662751615047455
5.4997780323028564,-0.07727575302124023,0.1884075105190277,-0.13850826025009155,-0.3853273872768613,-1.3834247709490453,-2.50844767816163,-0.9104561805725098,0.3758625388145447,-0.17261843383312225,-0.15921594202518463,0.2751167118549347,0.2184753566980362
5.519769906997681,-0.0698779821395874,0.10125377774238586,-0.06111137568950653,-0.3884860881971324,-1.379012259386967,-2.509907202087454,-0.9085155129432678,0.3787877559661865,-0.17640693485736847,-0.10894319415092468,0.22066126763820648,0.06531646102666855
5.539772033691406,-0.08673560619354248,0.04702731966972351,-0.005706727504730225,-0.3891916319367061,-1.3773263004088612,-2.5165651638316016,-0.9079543352127075,0.37944063544273376,-0.1778869926929474,-0.5685034394264221,0.23656389117240906,-0.10251051187515259
5.559863090515137,-0.08514052629470825,0.029275208711624146,0.03226856887340546,-0.3901715527995558,-1.3788317812068858,-2.536979973184263,-0.9078558087348938,0.3803470730781555,-0.17644886672496796,-1.3891719579696655,0.42422032356262207,-0.11199455708265305
5.579770088195801,-0.00584566593170166,-0.02077963948249817,0.053208306431770325,-0.3965218095125708,-1.383771379862349,-2.5791292171918276,-0.9063246846199036,0.38621237874031067,-0.17150971293449402,-2.5131046772003174,0.6986474394798279,-0.010834884829819202
5.5997700691223145,0.09190112352371216,-0.007952123880386353,0.029228463768959045,-0.4062577057448437,-1.391511830005545,-2.637638407053047,-0.9038822650909424,0.39517441391944885,-0.16381096839904785,-2.770156145095825,0.7801902890205383,-0.019695233553647995
5.6197669506073,0.22577673196792603,0.11712956428527832,-0.047881290316581726,-0.41402214520860453,-1.3986939166044956,-2.69026081789333,-0.9019851684570312,0.4022948741912842,-0.15678483247756958,-2.03682279586792,0.5527061223983765,-0.0596371628344059
5.639811038970947,0.33776676654815674,0.1886696219444275,-0.10158973932266235,-0.4176509875168899,-1.405051009224974,-2.7225964463796624,-0.9015179872512817,0.4056144654750824,-0.15080587565898895,-0.9465280175209045,0.11636868119239807,-0.07030368596315384
5.6598100662231445,0.3305113911628723,0.15579703450202942,-0.10799787938594818,-0.41790704126065537,-1.4111560786849358,-2.7337037484286055,-0.9023191332817078,0.40584850311279297,-0.14528273046016693,-0.10953725874423981,-0.25505203008651733,-0.10220721364021301
5.679124116897583,0.2234818935394287,0.19964519143104553,-0.11145496368408203,-0.41354315523459695,-1.4174303192397366,-2.7296002967918973,-0.9049546718597412,0.40185633301734924,-0.13988777995109558,0.5219451785087585,-0.5215083360671997,-0.2604998052120209
5.699805974960327,0.12503784894943237,0.22173655033111572,-0.1445905566215515,-0.40602725345515295,-1.4238061068301187,-2.7148996499682454,-0.9087902307510376,0.39496269822120667,-0.13455374538898468,0.8557031750679016,-0.6829580068588257,-0.26869627833366394
5.7198569774627686,0.03493314981460571,0.17538270354270935,-0.15663683414459229,-0.39831414431641265,-1.4307719024436543,-2.697246359430806,-0.912695050239563,0.38786500692367554,-0.12864144146442413,0.8512804508209229,-0.6762503981590271,-0.2789149582386017
5.739772081375122,-0.024422824382781982,0.14964821934700012,-0.1677483171224594,-0.3903073004629146,-1.4357578937854332,-2.679189075774232,-0.9163729548454285,0.3804726302623749,-0.12450327724218369,0.9419943690299988,-0.534494161605835,-0.2550954818725586
5.7597739696502686,0.0037009119987487793,0.1484847068786621,-0.1738411784172058,-0.38444465568286523,-1.438512271707514,-2.6594835419913037,-0.9189078211784363,0.3750443756580353,-0.12227088958024979,0.9338131546974182,-0.47549232840538025,-0.07583819329738617
5.779771089553833,0.05306428670883179,0.09900012612342834,-0.14949321746826172,-0.3821909348490502,-1.4405628904103764,-2.6396782325805663,-0.9199922680854797,0.37295421957969666,-0.1204957589507103,0.9365554451942444,-0.45854538679122925,0.10186196863651276
5.799835920333862,0.09973669052124023,0.05276358127593994,-0.14272063970565796,-0.3826540572182041,-1.4417021366984317,-2.6165344429180952,-0.9199576377868652,0.37338387966156006,-0.11942534148693085,1.2871705293655396,-0.5272670984268188,0.16971378028392792
5.81977105140686,0.10910505056381226,0.06700122356414795,-0.1803850531578064,-0.38031819747828516,-1.4416311065139078,-2.5832489055608017,-0.9208115339279175,0.37121593952178955,-0.11960270255804062,1.8414069414138794,-0.6772603392601013,0.01767479069530964
5.839773893356323,0.07840138673782349,-0.052802711725234985,-0.22432607412338257,-0.3760570020385008,-1.4383052194884702,-2.5381767351557225,-0.9219682812690735,0.3672558665275574,-0.12287240475416183,2.23648738861084,-0.6177103519439697,0.12450537085533142
5.859791994094849,-0.02340841293334961,-0.1690254509449005,-0.2216470092535019,-0.37605327489364354,-1.433511340987874,-2.4999071816033918,-0.9213700294494629,0.3672524094581604,-0.12729096412658691,1.0720969438552856,-0.26445820927619934,0.403163880109787
5.879770994186401,-0.10179680585861206,-0.20824569463729858,-0.1239844560623169,-0.3859871922988663,-1.4311907092338707,-2.492887517667525,-0.9174140095710754,0.37647387385368347,-0.1289147436618805,-0.35892122983932495,0.20126821100711823,0.5616087913513184
5.899799108505249,-0.151347815990448,0.08649066090583801,-0.13569115102291107,-0.3947017840787499,-1.430105147251475,-2.5004365555355816,-0.9139902591705322,0.3845329284667969,-0.12944558262825012,-0.22215814888477325,0.10979226976633072,0.2238946557044983
5.919781923294067,-0.1330999732017517,0.33143025636672974,-0.17151112854480743,-0.3977061932118148,-1.427778700008305,-2.49332052898896,-0.9125392436981201,0.3873045742511749,-0.13140635192394257,0.826533317565918,-0.1416679173707962,0.19773761928081512
5.939776182174683,-0.12681496143341064,0.22386974096298218,-0.0776335746049881,-0.3980221061184143,-1.424090125002635,-2.4696305770175337,-0.9119272232055664,0.3875958323478699,-0.1347535252571106,1.2216688394546509,-0.4064371585845947,0.13661198318004608
5.959791898727417,-0.3235936760902405,0.11303979158401489,-0.05537515878677368,-0.3962573563817414,-1.4213610601603834,-2.441957088240248,-0.912230908870697,0.385968416929245,-0.13734333217144012,1.2977906465530396,-0.28852954506874084,0.046511612832546234
5.979758024215698,-0.525225043296814,0.11890953779220581,-0.08517999947071075,-0.3913552087096588,-1.4109638291975084,-2.416335176405535,-0.9126107692718506,0.38144150376319885,-0.14711979031562805,1.0937591791152954,0.359828919172287,-0.15536481142044067
5.999804973602295,-0.2600668668746948,0.048885226249694824,-0.028408244252204895,-0.3861794486258541,-1.3922288684075494,-2.39709116220649,-0.9116251468658447,0.37665197253227234,-0.1645391583442688,0.7703794836997986,0.6576446294784546,0.002425879705697298
6.019772052764893,0.1379835605621338,0.058178484439849854,0.024206995964050293,-0.3870683195605936,-1.3752386870349547,-2.3799292455366143,-0.9083693027496338,0.3774752616882324,-0.1799382120370865,0.8254474401473999,0.3653527498245239,0.40313830971717834
6.039785146713257,0.3311082720756531,0.05823889374732971,0.03835040330886841,-0.39543761863101284,-1.3626050019380849,-2.3580448357141783,-0.9029008746147156,0.3852120637893677,-0.19073991477489471,0.9804110527038574,0.09230222553014755,0.8010426163673401
6.059775114059448,0.33082669973373413,-0.0174105167388916,0.040390223264694214,-0.4092141885503183,-1.3517340941956162,-2.33219519451811,-0.8955087661743164,0.39788851141929626,-0.1993715614080429,1.059018611907959,0.010202474892139435,1.0270953178405762
6.079810857772827,0.2606360912322998,0.005107909440994263,0.04682226479053497,-0.42443721680502244,-1.339893568903494,-2.302056309368956,-0.8870856165885925,0.4118080139160156,-0.2085501104593277,1.365038275718689,-0.08041912317276001,1.0505260229110718
6.09978985786438,0.17928838729858398,0.055186957120895386,0.05031174421310425,-0.4367458518029705,-1.3272508925947732,-2.2623626783910975,-0.879392147064209,0.422993004322052,-0.21850937604904175,1.8383243083953857,-0.3313288390636444,0.9784760475158691
6.119801044464111,0.01622062921524048,0.05881547927856445,0.09165485203266144,-0.44376596157477866,-1.3156440159719625,-2.215249994038942,-0.8739018440246582,0.42934370040893555,-0.22794631123542786,2.0890159606933594,-0.49320438504219055,0.7207680344581604
6.139776945114136,-0.23540794849395752,0.052449315786361694,0.12920764088630676,-0.44311072600504386,-1.3033808442756691,-2.167200800555639,-0.8713119029998779,0.4287518262863159,-0.23871998488903046,2.0728659629821777,-0.2772253155708313,0.33466029167175293
6.1597740650177,-0.36475688219070435,0.0333290696144104,0.23029425740242004,-0.4365182270317699,-1.2871392654474256,-2.126353973620621,-0.8700149059295654,0.42278674244880676,-0.25362497568130493,1.606529951095581,0.12662966549396515,0.06592661887407303
6.179816961288452,-0.2864633798599243,-0.01662185788154602,0.3092919588088989,-0.42978659708240613,-1.2715007899694277,-2.100265548333321,-0.8686422109603882,0.4166768193244934,-0.2680321931838989,0.8329180479049683,0.3274782598018646,-0.004125640261918306
6.199851989746094,-0.22456997632980347,-0.011753290891647339,0.3413778245449066,-0.4274536521997191,-1.2587702411115347,-2.091157997518188,-0.8660825490951538,0.4145549237728119,-0.279366135597229,0.06572029739618301,0.5967363119125366,0.043495405465364456
6.219782114028931,-0.17530566453933716,-0.017803043127059937,0.3633178174495697,-0.43137185305998765,-1.2454388582615725,-2.0956103495312384,-0.8607354760169983,0.41811737418174744,-0.2903655469417572,-0.5724949836730957,0.9143728017807007,0.2208026945590973
6.239788055419922,-0.06425267457962036,-0.03638267517089844,0.38652604818344116,-0.4437813033742999,-1.2321939191659022,-2.1109321472640787,-0.8518545031547546,0.4293575584888458,-0.29999348521232605,-1.1294018030166626,1.0280808210372925,0.507794976234436
6.259787082672119,0.02755051851272583,-0.05761188268661499,0.3713788390159607,-0.4649627413723512,-1.2218644663658944,-2.1331033900055933,-0.8399742245674133,0.4483895003795624,-0.3055981695652008,-1.416498064994812,0.9600581526756287,0.8107998967170715
6.279744863510132,0.059813082218170166,-0.05414938926696777,0.34081482887268066,-0.4920729125408722,-1.2147502637554035,-2.15592197013399,-0.8260789513587952,0.47245386242866516,-0.30721497535705566,-1.3778445720672607,0.7899336218833923,1.02141273021698
6.299763917922974,0.05264246463775635,-0.05088835954666138,0.31906571984291077,-0.5209407423067953,-1.2100996659519268,-2.1737843083097785,-0.8115384578704834,0.49769631028175354,-0.30611103773117065,-1.0802161693572998,0.5436227917671204,1.1241694688796997
6.31977105140686,0.008104503154754639,-0.05944037437438965,0.3007549047470093,-0.5481156362727865,-1.2065209004434387,-2.1832975356610285,-0.7975026965141296,0.5210798382759094,-0.3040813207626343,-0.6354366540908813,0.309431254863739,1.1155304908752441
6.339817047119141,-0.056934893131256104,-0.08019489049911499,0.2858128547668457,-0.570658557307986,-1.201722131923506,-2.182920021763579,-0.7848772406578064,0.54018634557724,-0.3035893142223358,-0.16298910975456238,0.1561271846294403,0.9935668110847473
6.359813928604126,-0.09794312715530396,-0.10785585641860962,0.2919752895832062,-0.5876103331214425,-1.1954987218984638,-2.1748156774847365,-0.774340808391571,0.5543737411499023,-0.3050673007965088,0.1411941796541214,0.028475042432546616,0.8314842581748962
6.379795074462891,-0.11049032211303711,-0.15677201747894287,0.3029647469520569,-0.5998669685935467,-1.1899305472207276,-2.163932472089043,-0.7662644386291504,0.5645326972007751,-0.30682528018951416,0.21761441230773926,-0.06703460961580276,0.6409401297569275
6.399805068969727,-0.12022322416305542,-0.19453191757202148,0.3078727722167969,-0.6082772649906825,-1.1864827186263145,-2.154610517103348,-0.7607734203338623,0.5714545845985413,-0.307674378156662,0.16624349355697632,-0.11156018078327179,0.4268544018268585
6.4198150634765625,-0.12261998653411865,-0.20839619636535645,0.3102878928184509,-0.613485714870569,-1.1861065648726499,-2.149460229811871,-0.7578884959220886,0.575721025466919,-0.3068394064903259,0.021816527470946312,-0.14854030311107635,0.2171855866909027
6.439779996871948,-0.11721795797348022,-0.22158479690551758,0.2959499657154083,-0.6162003881020226,-1.1896167925110728,-2.150134812924433,-0.75750732421875,0.5779385566711426,-0.30359458923339844,-0.182569220662117,-0.15912805497646332,0.022539548575878143
6.459797143936157,-0.09693115949630737,-0.22808080911636353,0.2785092294216156,-0.6172800272101197,-1.1967986193263658,-2.1571746395276032,-0.7590868473052979,0.5788192749023438,-0.2979183793067932,-0.38515785336494446,-0.1540491282939911,-0.129214808344841
6.479907989501953,-0.07241034507751465,-0.22563695907592773,0.253628671169281,-0.6168281032720166,-1.207283640166719,-2.169230823125765,-0.7624132633209229,0.5784506797790527,-0.290036141872406,-0.4965936541557312,-0.19851133227348328,-0.2690941393375397
6.49987006187439,-0.05665445327758789,-0.20678430795669556,0.21351543068885803,-0.6140711108660246,-1.2202148904380898,-2.183818551144388,-0.7675947546958923,0.5761995911598206,-0.28069984912872314,-0.5121090412139893,-0.25302791595458984,-0.4035933017730713
6.519842863082886,-0.04716581106185913,-0.1894121766090393,0.1791139841079712,-0.6084905567245442,-1.234447333333097,-2.1988412726736826,-0.7745352387428284,0.5716295838356018,-0.27080410718917847,-0.45160242915153503,-0.3104473650455475,-0.5397136211395264
6.539846181869507,-0.05168336629867554,-0.1733020544052124,0.15319982171058655,-0.5992074703878978,-1.2487861723799722,-2.211981826974432,-0.783338725566864,0.563988208770752,-0.26133888959884644,-0.27295932173728943,-0.37247389554977417,-0.6958063840866089
6.559943914413452,-0.07620608806610107,-0.1363261342048645,0.1248159408569336,-0.5853355526518861,-1.2623951755609373,-2.221965664373064,-0.7942010164260864,0.552479088306427,-0.2530050277709961,-0.0737566277384758,-0.4360898733139038,-0.8882267475128174
6.579931020736694,-0.1047789454460144,-0.10389328002929688,0.10030373930931091,-0.5663688792375605,-1.2754418517797466,-2.2282611393877563,-0.8073150515556335,0.5365714430809021,-0.24562840163707733,0.12822356820106506,-0.5253959894180298,-1.08101224899292
6.5999040603637695,-0.13937312364578247,-0.07668149471282959,0.08407548069953918,-0.542919967564589,-1.2877899078509756,-2.23139346940938,-0.8221442699432373,0.5166382789611816,-0.23908956348896027,0.27672767639160156,-0.5179460048675537,-1.2416881322860718
6.6197710037231445,-0.1705613136291504,-0.059292882680892944,0.07619589567184448,-0.5164568404731947,-1.2974816298632874,-2.232666896697481,-0.8372969627380371,0.49380218982696533,-0.23471947014331818,0.30587977170944214,-0.38222238421440125,-1.3289406299591064
6.639850854873657,-0.16214847564697266,-0.044159382581710815,0.06846791505813599,-0.4894655735431256,-1.3053662650414153,-2.236663743829191,-0.8516760468482971,0.4701542854309082,-0.2315233051776886,0.03034905716776848,-0.2099015861749649,-1.3622695207595825
6.6598289012908936,-0.11782115697860718,-0.04639950394630432,0.06279939413070679,-0.46476106974876935,-1.3133975722735345,-2.2492805411948504,-0.8644786477088928,0.4482092261314392,-0.2275637537240982,-0.5107095241546631,-0.005865974351763725,-1.3087788820266724
6.688065052032471,-0.05455052852630615,-0.08085080981254578,0.07845830917358398,-0.4309838753384697,-1.331966738287235,-2.3158514259537046,-0.8827663660049438,0.41776490211486816,-0.21493291854858398,-2.0228867530822754,0.5319745540618896,-1.077363133430481
6.708143949508667,-0.06063634157180786,-0.05764889717102051,0.07365638017654419,-0.4212384887533348,-1.3406506963799025,-2.370637834158617,-0.8885213732719421,0.4088909924030304,-0.20817787945270538,-2.5549967288970947,0.8625586628913879,-1.043440818786621
6.7270591259002686,-0.0436328649520874,-4.789233207702637e-05,0.060637980699539185,-0.413178070310389,-1.34581544085236,-2.4330863441409245,-0.8927686214447021,0.4015219807624817,-0.20431478321552277,-2.8210911750793457,1.1209454536437988,-1.0374417304992676
6.747957944869995,-0.005760848522186279,0.05065357685089111,0.08961072564125061,-0.4056967150240619,-1.3493198894648333,-2.5000841171620585,-0.8963846564292908,0.39465901255607605,-0.2018391191959381,-3.0172321796417236,1.1844679117202759,-1.0587750673294067
6.767850160598755,-0.05538707971572876,0.08020198345184326,0.12623068690299988,-0.39829362047620087,-1.3529289799149515,-2.570286925965703,-0.8999351263046265,0.38784608244895935,-0.1992287039756775,-3.111182928085327,1.1994719505310059,-1.0889753103256226
6.787774085998535,-0.2225344181060791,0.1934628188610077,0.1494913101196289,-0.3888321844143559,-1.3541277507311693,-2.6380608738003235,-0.9037168025970459,0.3791080415248871,-0.19892975687980652,-2.6884820461273193,1.3306936025619507,-1.1937168836593628
6.807844877243042,-0.37481892108917236,0.34878069162368774,0.13576781749725342,-0.37467657568945334,-1.3463592712371242,-2.693488445812035,-0.9072855710983276,0.36597156524658203,-0.20711788535118103,-2.142822265625,1.5052162408828735,-1.3088198900222778
6.827723026275635,-0.2834632992744446,0.3597656488418579,0.2160593867301941,-0.35950696236096213,-1.335082066478402,-2.746406468682646,-0.9101859927177429,0.3518127501010895,-0.2186076045036316,-2.476088523864746,1.5447404384613037,-1.243184208869934
6.847486972808838,-0.05965036153793335,0.2239605188369751,0.2880874276161194,-0.35226488722731586,-1.3263987009594602,-2.8120836792566695,-0.9107018709182739,0.3450244963169098,-0.22711332142353058,-3.3554084300994873,1.6281774044036865,-0.8962329030036926
6.86750602722168,0.13008707761764526,0.16893815994262695,0.2504347562789917,-0.35699895053764796,-1.3210162884378847,-2.889913975074732,-0.9078733325004578,0.34946396946907043,-0.2316054254770279,-3.711015462875366,1.5719668865203857,-0.4298282563686371
6.887583017349243,0.27072978019714355,0.20642223954200745,0.10744503140449524,-0.36913417897058576,-1.3190936252782062,-2.9629291965182807,-0.9032524824142456,0.3608080744743347,-0.23227718472480774,-3.098210573196411,1.1850258111953735,-0.11212042719125748
6.907823085784912,0.32614725828170776,0.299059122800827,-0.011565208435058594,-0.38074310856663035,-1.3194680729776662,-3.01520317735122,-0.8992215991020203,0.37161046266555786,-0.2308816760778427,-1.8350106477737427,0.7233179211616516,0.023663979023694992
6.927469968795776,0.2718147039413452,0.29734113812446594,-0.05384284257888794,-0.3875171787394479,-1.3174483293767172,-3.0392909875569183,-0.8962959051132202,0.37789085507392883,-0.23206110298633575,-0.5913448333740234,0.41285139322280884,0.07713766396045685
6.947139024734497,0.16300618648529053,0.206496924161911,-0.022058188915252686,-0.3904288767022902,-1.3135400804004842,-3.0446627118593126,-0.894314169883728,0.38058504462242126,-0.2352813184261322,-0.08901616930961609,0.20331600308418274,0.06729383021593094
6.966437101364136,0.04306846857070923,0.0992102324962616,0.044521838426589966,-0.39183406152743117,-1.310938826032864,-3.0475312662975265,-0.8931812644004822,0.3818841278553009,-0.23746918141841888,-0.3060738742351532,0.20286130905151367,-0.0013351475354284048
6.987451076507568,-0.046906888484954834,0.03326910734176636,0.11017188429832458,-0.39438651201683667,-1.3107010422409777,-3.0606072811805274,-0.8921799063682556,0.38424187898635864,-0.23743011057376862,-0.9612689018249512,0.34945085644721985,-0.06047593802213669
7.006531000137329,-0.05440479516983032,-0.009989678859710693,0.12170159816741943,-0.3993004270806633,-1.3127635026155355,-3.0876721380638705,-0.890831470489502,0.3887738883495331,-0.23510490357875824,-1.546060562133789,0.4725092351436615,-0.10107029229402542
7.027156114578247,0.024205029010772705,0.003423154354095459,0.08085083961486816,-0.4055354665743783,-1.3180556801576149,-3.123890431264573,-0.88969886302948,0.3945108652114868,-0.2297765612602234,-1.7698532342910767,0.3955155313014984,-0.13124197721481323
7.047015905380249,0.09052187204360962,0.04605597257614136,0.009016811847686768,-0.4113549923746076,-1.3265716651129111,3.1221929623860625,-0.8893805146217346,0.39985164999961853,-0.22163276374340057,-1.6448626518249512,0.2169085144996643,-0.14599047601222992
7.06671404838562,0.10136014223098755,0.06330239772796631,-0.04664485156536102,-0.41551629927784395,-1.337186004686221,3.089667444207504,-0.8900563716888428,0.4036623537540436,-0.2117932289838791,-1.344017744064331,0.05006520077586174,-0.1528903841972351
7.086066007614136,0.07588750123977661,0.060516953468322754,-0.0681515634059906,-0.41811208295023417,-1.347857203346325,3.0632259941640676,-0.8912410140037537,0.4060359001159668,-0.2020510733127594,-1.0921269655227661,-0.02688763663172722,-0.1418783962726593
7.106927156448364,0.06263518333435059,0.04999825358390808,-0.05923840403556824,-0.4199219789959692,-1.3576337923627968,3.0410893221769673,-0.8924540281295776,0.4076892137527466,-0.19317246973514557,-0.9502289295196533,-0.05483502522110939,-0.11375626176595688
7.127047061920166,0.07824546098709106,0.02823251485824585,-0.04729776084423065,-0.4221528509348588,-1.367956537405361,3.020643641850926,-0.8935072422027588,0.40972524881362915,-0.18376605212688446,-0.9281948804855347,-0.14389309287071228,-0.05282778665423393
7.146776914596558,0.06971222162246704,0.020800292491912842,-0.06823575496673584,-0.42513367127148943,-1.379366795857055,3.001687951715489,-0.8943430185317993,0.41244256496429443,-0.1733260452747345,-0.8020353317260742,-0.21116924285888672,0.005227643996477127
7.16684889793396,0.04763829708099365,0.034514427185058594,-0.11624985933303833,-0.42813779488909876,-1.3901899115317384,2.987754919601944,-0.8949436545372009,0.4151774048805237,-0.16341321170330048,-0.5376824736595154,-0.28977829217910767,0.04646740481257439
7.186568975448608,0.03794008493423462,0.048236995935440063,-0.14522099494934082,-0.43034749455260013,-1.3990719442252297,2.9818558520346783,-0.8954535722732544,0.4171866476535797,-0.1553007811307907,-0.009061811491847038,-0.3983539342880249,0.10693273693323135
7.20556902885437,0.024761080741882324,0.057563990354537964,-0.18308521807193756,-0.4323757679838808,-1.4072356816563678,2.984858398281731,-0.8958549499511719,0.4190291166305542,-0.14784738421440125,0.2658546268939972,-0.507305383682251,0.11339642852544785
7.227122068405151,-0.06232374906539917,0.024874955415725708,-0.20372436940670013,-0.43244811037997155,-1.411922803309078,2.995825603199418,-0.896507978439331,0.4190948009490967,-0.14364196360111237,0.7354108691215515,-0.3953193426132202,0.05756702274084091
7.24910306930542,-0.12370634078979492,0.006593942642211914,-0.26646649837493896,-0.43061821895947405,-1.4112562552026113,3.0142650456355247,-0.8971678018569946,0.41743266582489014,-0.14436110854148865,0.8713463544845581,-0.30646708607673645,0.01829884760081768
7.265555143356323,-0.21088826656341553,-0.04976537823677063,-0.42759305238723755,-0.42842906370643846,-1.4062093407467566,3.031758711495358,-0.897327184677124,0.4154423475265503,-0.14903655648231506,0.598077654838562,0.22478792071342468,-0.0009700318332761526
7.283668041229248,-0.2152261734008789,-0.12774330377578735,-0.3169326186180115,-0.4275461698693253,-1.3933055578223466,3.0352116852746516,-0.8956900238990784,0.41463911533355713,-0.16066743433475494,-0.3548645079135895,0.8789068460464478,0.015920674428343773
7.303092002868652,-0.04370427131652832,-0.22981402277946472,-0.14028538763523102,-0.4332095896754688,-1.3813518215698515,3.0129897276173017,-0.8913849592208862,0.4197860658168793,-0.1709175854921341,-1.7435634136199951,1.1705442667007446,0.1946953982114792
7.321333169937134,0.02890533208847046,-0.23389500379562378,-0.08614020049571991,-0.44696287509246785,-1.3782018812568801,2.9660020985574533,-0.8850911259651184,0.43222877383232117,-0.17260302603244781,-2.555173635482788,1.168931245803833,0.3282153904438019
7.340444087982178,-0.010148346424102783,-0.0891437828540802,-0.03244811296463013,-0.4619856587434561,-1.3779155494813549,2.9114895892199124,-0.8785693049430847,0.4457264840602875,-0.1715923547744751,-2.474213123321533,1.2597090005874634,0.20017889142036438
7.360214948654175,-0.017071008682250977,-0.022945523262023926,0.004215672612190247,-0.4733642186925493,-1.375273035016821,2.861305855314376,-0.8730809688568115,0.4558831453323364,-0.17291679978370667,-2.136270761489868,1.2526249885559082,0.07029080390930176
7.3804309368133545,0.030273139476776123,-0.03504422307014465,0.0341477245092392,-0.48148873587688085,-1.3713022247278903,2.8178688910175373,-0.8687284588813782,0.4630991518497467,-0.1756424754858017,-1.8644405603408813,1.1421200037002563,-0.013293863274157047
7.400965929031372,0.049752771854400635,-0.043633341789245605,0.06941735744476318,-0.4876602601631226,-1.3693322709314453,2.7758453962062477,-0.8655639290809631,0.4685601592063904,-0.17677819728851318,-1.9504746198654175,1.0267081260681152,-0.13083408772945404
7.4211390018463135,0.05662506818771362,-0.04485246539115906,0.10142381489276886,-0.491877531875991,-1.3707880581979455,2.7311261487176286,-0.8638759255409241,0.47228166460990906,-0.17512375116348267,-1.9754022359848022,0.9149168133735657,-0.23107166588306427
7.441287040710449,0.07888084650039673,-0.0014167428016662598,0.06541110575199127,-0.49361633092481283,-1.375231158148081,2.688321543310515,-0.8638386726379395,0.47381362318992615,-0.1711239218711853,-1.7288249731063843,0.6532267332077026,-0.34510624408721924
7.464456081390381,0.0972321629524231,0.06430503726005554,-0.0016105324029922485,-0.49101666888641976,-1.3824578173592224,2.6538595220131453,-0.8662599921226501,0.4715226888656616,-0.16510693728923798,-1.1596314907073975,0.2549256682395935,-0.49328941106796265
7.482181072235107,0.09901666641235352,0.10973453521728516,-0.05642968416213989,-0.4827936699711712,-1.3903761772578294,2.63406031140643,-0.8713250756263733,0.46425533294677734,-0.1589328497648239,-0.3979450762271881,-0.10842519998550415,-0.6356895565986633
7.504883050918579,0.10854923725128174,0.13918033242225647,-0.09368783235549927,-0.46986863901251424,-1.3967471508000395,2.6307290768686924,-0.8781567811965942,0.4527691602706909,-0.15440475940704346,0.3002936542034149,-0.3464365005493164,-0.6629582643508911
7.5245139598846436,0.12214720249176025,0.18636402487754822,-0.13661420345306396,-0.4557109964412569,-1.4009374375143717,2.639716623595738,-0.8850256204605103,0.44010084867477417,-0.15179212391376495,0.6931436657905579,-0.4570070505142212,-0.5990335941314697
7.545570135116577,0.0848645567893982,0.21586236357688904,-0.19856838881969452,-0.44247850424619095,-1.402802350904805,2.6558921485741247,-0.8909710645675659,0.4281805753707886,-0.15110191702842712,0.9371161460876465,-0.42510291934013367,-0.4551003873348236
7.565429925918579,0.0288199782371521,0.23472946882247925,-0.20892846584320068,-0.431053255412364,-1.4025794566177938,2.673255324798851,-0.8957023024559021,0.41782793402671814,-0.15210969746112823,0.7866864204406738,-0.3089320957660675,-0.41398435831069946
7.587251901626587,0.021614789962768555,0.19910582900047302,-0.16595761477947235,-0.4216786031283322,-1.402111243523253,2.6882836442420013,-0.899452805519104,0.4092925786972046,-0.15317992866039276,0.736991286277771,-0.28776049613952637,-0.2769543528556824
7.6043031215667725,0.03392136096954346,0.19864621758460999,-0.10644835233688354,-0.4146676806443599,-1.4022690053746327,2.70401082183042,-0.902283787727356,0.4028857946395874,-0.15351557731628418,0.8205286264419556,-0.36826545000076294,-0.17471010982990265
7.621289968490601,0.024250030517578125,0.18663498759269714,-0.05145841836929321,-0.4090922696964171,-1.4023653904591236,2.722806435765129,-0.9044990539550781,0.39777666330337524,-0.1538027822971344,0.9823675751686096,-0.38598453998565674,-0.08693400770425797
7.639736890792847,0.02343350648880005,0.15377134084701538,-0.001968696713447571,-0.4048677706394573,-1.401422524517363,2.745367844427686,-0.9060019850730896,0.39389723539352417,-0.15493743121623993,1.1301263570785522,-0.4090399146080017,0.024610523134469986
7.663980007171631,0.03281855583190918,0.11287450790405273,0.03516906499862671,-0.4026478214384948,-1.399146848672335,2.7706505748470804,-0.906506359577179,0.39185577630996704,-0.15714776515960693,1.1905388832092285,-0.37475505471229553,0.1436198502779007
7.6848790645599365,0.028973042964935303,0.08587491512298584,0.05692346394062042,-0.402356604500208,-1.3958400254164987,2.7967907707023727,-0.906093955039978,0.3915878236293793,-0.16016438603401184,1.1797651052474976,-0.3203715980052948,0.24769994616508484
7.7042460441589355,0.014906346797943115,0.06675726175308228,0.06445813179016113,-0.4043457493768994,-1.3914612792522316,2.82212984719577,-0.9046158790588379,0.3934173583984375,-0.16399115324020386,1.0664827823638916,-0.23695528507232666,0.3579121232032776
7.725107908248901,0.013154745101928711,0.04411637783050537,0.07037407159805298,-0.4087281053056933,-1.386491127401908,2.8445337817499805,-0.902086079120636,0.3974425196647644,-0.1681676059961319,0.8740541934967041,-0.16278989613056183,0.44739586114883423
7.743356943130493,0.00805509090423584,0.021691948175430298,0.07153050601482391,-0.41538267008425034,-1.3818613023815434,2.8629480368674054,-0.8986802101135254,0.40354007482528687,-0.17184175550937653,0.6621626615524292,-0.109928198158741,0.5305977463722229
7.765058994293213,-0.004402339458465576,0.0032664835453033447,0.07695569097995758,-0.4242644048595277,-1.377596128195867,2.876996316661767,-0.8943861126899719,0.41165050864219666,-0.174978107213974,0.42864111065864563,-0.03633573278784752,0.5880908370018005
7.783900022506714,-0.014029324054718018,-0.019427895545959473,0.08334755897521973,-0.4348936085168696,-1.3737612951242717,2.886493363782897,-0.8893672823905945,0.42131391167640686,-0.17754001915454865,0.2287149429321289,0.015290887095034122,0.6254335045814514
7.804816961288452,-0.016608774662017822,-0.026234805583953857,0.08598418533802032,-0.44585959221178584,-1.369434732038478,2.8953782975644082,-0.8840107321739197,0.43123358488082886,-0.18045131862163544,0.46518415212631226,0.0448286272585392,0.6037502288818359
7.824624061584473,-0.029222309589385986,0.04131993651390076,0.042337238788604736,-0.45320795645767764,-1.3590404983794515,2.9178868853704247,-0.8789655566215515,0.4378518760204315,-0.18895889818668365,1.4490718841552734,-0.015805069357156754,0.5225971937179565
7.845074892044067,-0.021981656551361084,0.1440400779247284,0.00998610258102417,-0.45366847168212676,-1.3411617961349271,2.96383340649223,-0.8752503991127014,0.438265860080719,-0.20459668338298798,2.4892959594726562,-0.23397698998451233,0.4502732455730438
7.864826917648315,0.00694650411605835,0.0884498655796051,0.07009029388427734,-0.4500584560435411,-1.3227001272080434,3.0216050399231538,-0.8728522062301636,0.4350181818008423,-0.22110654413700104,2.4764158725738525,-0.42948389053344727,0.43467360734939575
7.884564161300659,-0.02532362937927246,-0.09800127148628235,0.14918488264083862,-0.44791185530510036,-1.3109724197949837,3.0685385577101,-0.8710997104644775,0.43308430910110474,-0.23156705498695374,1.6109708547592163,-0.387481689453125,0.4394127428531647
7.904692888259888,-0.0643511414527893,-0.1930394470691681,0.17682072520256042,-0.4512226760292701,-1.3051892683558475,3.095168057434252,-0.8683575391769409,0.4360661506652832,-0.23622314631938934,0.67835533618927,-0.19171182811260223,0.5097058415412903
7.921964883804321,-0.0519830584526062,-0.17665418982505798,0.13779470324516296,-0.4590232105210179,-1.3030829518568938,3.1071865443333953,-0.864551305770874,0.443072646856308,-0.2371446192264557,0.23433278501033783,-0.14968767762184143,0.5149061679840088
7.944257020950317,-0.02023482322692871,-0.11858522891998291,0.08836890757083893,-0.46704562001775757,-1.3033496187892066,3.1141698959506448,-0.8611586093902588,0.4502502679824829,-0.23596711456775665,0.22535714507102966,-0.1874709278345108,0.41852766275405884
7.962454080581665,-0.024779438972473145,-0.09906727075576782,0.06679333746433258,-0.4725880226060467,-1.3030745535470574,3.123106352973836,-0.8586738705635071,0.4551921784877777,-0.2355402112007141,0.40060845017433167,-0.18543832004070282,0.34217479825019836
7.984283208847046,-0.03438377380371094,-0.12338137626647949,0.022946953773498535,-0.4755455860673748,-1.3002277892237881,3.1380520740794826,-0.8566989898681641,0.45782357454299927,-0.23762287199497223,0.8572819232940674,-0.2019590437412262,0.26711365580558777
8.004481077194214,-0.05744028091430664,-0.13058501482009888,-0.05531094968318939,-0.47247743398728675,-1.2939847798862951,-3.1205319007097256,-0.8565458655357361,0.4550936818122864,-0.24334928393363953,1.1164079904556274,-0.33674606680870056,-0.012622189708054066
8.02414608001709,-0.07301056385040283,-0.1498742699623108,-0.041783422231674194,-0.4660129857220537,-1.2928805339784033,-3.10341604801845,-0.8590877056121826,0.4493280053138733,-0.24509698152542114,0.5416344404220581,-0.2554263472557068,-0.1162230372428894
8.043099164962769,-0.07302474975585938,-0.25959381461143494,-0.06822167336940765,-0.46370138044038683,-1.2949252709674153,-3.101773620070624,-0.8605841994285583,0.4472616910934448,-0.24362213909626007,-0.3055459260940552,-0.0008879052475094795,-0.08312565088272095
8.063157081604004,-0.08474761247634888,-0.23497143387794495,-0.07936686277389526,-0.46543114351569187,-1.2983056154435866,-3.115653509165319,-0.8606564402580261,0.44880813360214233,-0.24050310254096985,-0.904981255531311,0.28312960267066956,-0.07615131139755249
8.083999872207642,-0.06750267744064331,-0.10628607869148254,-0.06017714738845825,-0.4694218197067504,-1.3016734914237271,-3.139225477004458,-0.8597281575202942,0.4523707330226898,-0.23712506890296936,-1.1953229904174805,0.4116019308567047,-0.10808853060007095
8.104015111923218,-0.041668713092803955,-0.048127830028533936,-0.04385975003242493,-0.4733701474258354,-1.3064432582405925,3.1161567634997858,-0.8591185212135315,0.45588842034339905,-0.2325531542301178,-1.277773380279541,0.33754828572273254,-0.15175217390060425
8.122864007949829,-0.022189438343048096,-0.05242910981178284,-0.01237604022026062,-0.4775388617817214,-1.3143378707510607,3.088092670074426,-0.859082043170929,0.4595947563648224,-0.22527959942817688,-1.2319724559783936,0.24678438901901245,-0.08896669745445251
8.142831087112427,-0.020346105098724365,-0.0379183292388916,0.007752746343612671,-0.4809956593680562,-1.3220408755564688,3.061716872952342,-0.8592468500137329,0.46266210079193115,-0.21826301515102386,-1.1008883714675903,0.1966342180967331,-0.1866617202758789
8.161954164505005,-0.020343542098999023,-0.00783473253250122,0.010672882199287415,-0.4809514965179322,-1.328977397508756,3.039148429795018,-0.8607599139213562,0.4626229405403137,-0.21230249106884003,-0.8318657279014587,0.1498740017414093,-0.2791169583797455
8.18361210823059,-0.0011904239654541016,0.011265605688095093,0.021981775760650635,-0.4785991922522276,-1.3342838627942986,3.02218860641637,-0.8629300594329834,0.4605362117290497,-0.20798636972904205,-0.5921846628189087,0.10263706743717194,-0.31650862097740173
8.201689004898071,0.0005435943603515625,0.00925135612487793,0.02476222813129425,-0.4745294276888039,-1.338471551763936,3.0092194532875003,-0.8656100034713745,0.45691990852355957,-0.20480068027973175,-0.45486098527908325,0.07536354660987854,-0.33425575494766235
8.221668004989624,-0.005382061004638672,0.01118817925453186,0.017854884266853333,-0.4700584900837589,-1.341835990270216,2.9981547370155868,-0.8682751059532166,0.452938437461853,-0.20234888792037964,-0.4215131402015686,0.08815870434045792,-0.32255542278289795
8.242403030395508,-0.0020533204078674316,0.01736164093017578,0.0005178004503250122,-0.46567191803398184,-1.3447042870481376,2.9875116644432476,-0.8707798719406128,0.4490232765674591,-0.20030105113983154,-0.3995298147201538,0.10705844312906265,-0.3200981914997101
8.263478994369507,0.00778043270111084,0.03522971272468567,-0.02592359483242035,-0.4612367037025307,-1.346906549107326,2.978117246215318,-0.8731520771980286,0.44505593180656433,-0.19882309436798096,-0.3219262361526489,0.0901787132024765,-0.3076798915863037
8.283416032791138,0.02411574125289917,0.05940669775009155,-0.03988242149353027,-0.45642950764852624,-1.3485587397172185,2.971010609015604,-0.8755561709403992,0.4407459497451782,-0.19784949719905853,-0.1892383098602295,0.05260549858212471,-0.29632213711738586
8.301993131637573,0.038802385330200195,0.05869141221046448,-0.037337660789489746,-0.4513171259316469,-1.3495774603374069,2.966827043954708,-0.8779442310333252,0.4361511468887329,-0.19744929671287537,-0.07585786283016205,0.03223089873790741,-0.2843230366706848
8.322302103042603,0.039440691471099854,0.05070608854293823,-0.023037821054458618,-0.44603883945238654,-1.3499201318592458,2.9646873357517265,-0.8802456855773926,0.4313953220844269,-0.1976500302553177,-0.007661202922463417,0.02445375919342041,-0.2738038897514343
8.34126591682434,0.030737638473510742,0.04515105485916138,-0.009420797228813171,-0.44083688138964006,-1.3499139689515198,2.9633588063729936,-0.882422149181366,0.4266964793205261,-0.19814443588256836,-0.005079708062112331,0.03349492698907852,-0.2533947229385376
8.363085985183716,0.023023247718811035,0.04233798384666443,0.0058689117431640625,-0.4361240410163704,-1.349874309552075,2.9616545376594847,-0.8843666315078735,0.42242950201034546,-0.19861790537834167,-0.04481281712651253,0.047885049134492874,-0.23760166764259338
