timestamp,acceleration_x,acceleration_y,acceleration_z,attitude_pitch,attitude_roll,attitude_yaw,gravity_x,gravity_y,gravity_z,rotation_x,rotation_y,rotation_z
0.0,0.11037427186965942,0.09912148118019104,-0.04498904198408127,-0.22912626290082705,-1.516014592481952,-2.7905268030741417,-0.9724041819572449,0.22712670266628265,-0.05332333967089653,-2.6667864322662354,0.5519192218780518,0.20775285363197327
0.01963186264038086,0.07898586988449097,0.10765303671360016,-0.08664244413375854,-0.2355217920555595,-1.5181441948679768,-2.8405899103438954,-0.9710451364517212,0.23335041105747223,-0.05117489770054817,-2.2234184741973877,0.42235860228538513,0.16980458796024323
0.039962053298950195,0.03749072551727295,0.11789265275001526,-0.15261244773864746,-0.24024678182430736,-1.5201037734887295,-2.881305485277006,-0.9700314998626709,0.23794232308864594,-0.049215540289878845,-1.774604320526123,0.3511359989643097,0.0862664207816124
0.06444692611694336,0.04629558324813843,0.12169227004051208,-0.17778050899505615,-0.24247804392881775,-1.5213414930792624,-2.9133540371728537,-0.9695591926574707,0.2401089072227478,-0.047988515347242355,-1.3627866506576538,0.296918123960495,0.001703360234387219
0.07898402214050293,0.05762529373168945,0.11947789788246155,-0.17705082893371582,-0.2439263109819717,-1.5217673756507968,-2.9386328973393088,-0.9692310690879822,0.24151456356048584,-0.0475584976375103,-1.154976725578308,0.2661767303943634,0.02700517140328884
0.09996318817138672,0.025426387786865234,0.12423014640808105,-0.19683098793029785,-0.24541340361832448,-1.522541455816409,-2.96227055899665,-0.9689077138900757,0.24295736849308014,-0.04679084196686745,-1.162517786026001,0.23085655272006989,0.004045261535793543
0.11950397491455078,-0.0008592009544372559,0.12699681520462036,-0.21926844120025635,-0.24639958199200404,-1.5242222167903938,-2.986527067798338,-0.9687452912330627,0.24391387403011322,-0.04515109956264496,-1.1923550367355347,0.19067709147930145,-0.018089357763528824
0.14001703262329102,-0.005492806434631348,0.14004729688167572,-0.22673672437667847,-0.2465840468007726,-1.5271094175876194,-3.0109409085894714,-0.9688266515731812,0.24409276247024536,-0.042351990938186646,-1.1553176641464233,0.09681876748800278,-0.08335385471582413
0.15996313095092773,-0.026170730590820312,0.19059497117996216,-0.24525374174118042,-0.2447168877612817,-1.5317188342742762,-3.031901351106904,-0.9694653153419495,0.24228166043758392,-0.037903569638729095,-0.8230869770050049,-0.04944390058517456,-0.19192194938659668
0.18009400367736816,-0.07104843854904175,0.26011961698532104,-0.26280277967453003,-0.2402627142190963,-1.537281170573194,-3.0442211279537412,-0.9707301259040833,0.23795780539512634,-0.03254636004567146,-0.35641101002693176,-0.20565906167030334,-0.2990724742412567
0.20004701614379883,-0.1160968542098999,0.26398301124572754,-0.27424734830856323,-0.23349420458666031,-1.5427187366141337,-3.048501822180534,-0.9724802374839783,0.23137831687927246,-0.027312079444527626,-0.12541796267032623,-0.20611411333084106,-0.38974180817604065
0.22001409530639648,-0.11612319946289062,0.20432962477207184,-0.3234952688217163,-0.2254001212185245,-1.546726150497348,-3.052252062756973,-0.9744225740432739,0.22349637746810913,-0.0234590545296669,-0.24624119699001312,-0.09988106787204742,-0.4294275641441345
0.24007105827331543,-0.027374207973480225,0.19624099135398865,-0.348724901676178,-0.21712797656186583,-1.5489816925296107,-3.0600077030253447,-0.9762879014015198,0.21542592346668243,-0.021300742402672768,-0.5189374685287476,0.014987819828093052,-0.41520917415618896
0.26048803329467773,0.06302899122238159,0.196264386177063,-0.3805612325668335,-0.20992187085124092,-1.5509418626216733,-3.0744338603904167,-0.9778544902801514,0.2083834856748581,-0.019417328760027885,-0.8679369688034058,0.07999451458454132,-0.35795310139656067
0.2802770137786865,0.12225818634033203,0.20011544227600098,-0.41856223344802856,-0.2038352881474084,-1.5523453370373064,-3.0927600736122005,-0.9791306853294373,0.2024267017841339,-0.0180679801851511,-0.8712022304534912,0.15327300131320953,-0.2685073912143707
0.2999868392944336,0.1904720664024353,0.27195674180984497,-0.44365423917770386,-0.1999696684449788,-1.552070734401811,-3.108751489890316,-0.9799007177352905,0.19863960146903992,-0.018351366743445396,-0.6748188734054565,0.17000900208950043,-0.18226706981658936
0.3201289176940918,0.24167490005493164,0.29357677698135376,-0.45628052949905396,-0.19692077272328695,-1.5514515568644258,-3.119705657492533,-0.9804902076721191,0.19565054774284363,-0.01896972395479679,-0.39048558473587036,0.09438801556825638,-0.13561494648456573
0.3400700092315674,0.2144060730934143,0.2707451283931732,-0.4573632478713989,-0.19536966959229177,-1.5507412266790805,-3.125249079379212,-0.9807787537574768,0.19412918388843536,-0.019672254100441933,-0.15932250022888184,0.1083296611905098,-0.043820321559906006
0.3600649833679199,0.13154006004333496,0.28033241629600525,-0.38766157627105713,-0.19496039601938103,-1.5472429576682125,-3.127311074114562,-0.980783224105835,0.19372768700122833,-0.023105021566152573,-0.0983901172876358,0.2934764325618744,-0.0025489339604973793
0.37999916076660156,0.059097111225128174,0.27538615465164185,-0.2761780619621277,-0.19588058817947823,-1.5408866302565303,-3.1312159868310014,-0.9804380536079407,0.19463035464286804,-0.02933335304260254,-0.3149234354496002,0.3973645567893982,0.08110374212265015
0.4083249568939209,-0.25797808170318604,0.35544174909591675,-0.18106448650360107,-0.2025038747728093,-1.5269521662702314,3.1317169939811285,-0.9786248207092285,0.20112267136573792,-0.04293449968099594,-0.48309704661369324,0.5052326917648315,0.13750772178173065
0.42844390869140625,-0.31675130128860474,0.4353100657463074,-0.14965975284576416,-0.20517994368669829,-1.517251062640747,3.1261950579081823,-0.9776211977005005,0.2037433385848999,-0.052397072315216064,-0.0022764508612453938,0.5295403003692627,0.08410017937421799
0.4497489929199219,-0.25266456604003906,0.4570724368095398,-0.10731547325849533,-0.20634556767994894,-1.5058208356924503,3.133256906937382,-0.9767207503318787,0.2048843652009964,-0.0635523721575737,0.6654986143112183,0.4507191479206085,0.0882561057806015
0.46904897689819336,-0.1838037371635437,0.4334258735179901,-0.05543368309736252,-0.20730757160021407,-1.493690769564165,-3.13109083682553,-0.9756811261177063,0.20582586526870728,-0.075379878282547,1.1211010217666626,0.3974650800228119,0.14816029369831085
0.4886760711669922,-0.07961452007293701,0.3607885539531708,0.007712364196777344,-0.2094186659898666,-1.4798745796162003,-3.106519222173893,-0.9741116762161255,0.2078913003206253,-0.08881279826164246,1.2068606615066528,0.5027921795845032,0.2803124487400055
0.5085959434509277,0.1055184006690979,0.24858516454696655,0.06809122860431671,-0.2149029580318566,-1.4637894203587156,-3.083027732723184,-0.9714088439941406,0.21325261890888214,-0.10434602946043015,0.9934644103050232,0.6199683547019958,0.5052110552787781
0.5284650325775146,0.2840093970298767,0.14580008387565613,0.08749479055404663,-0.22555336935327333,-1.4469586059210808,-3.0641980959731603,-0.9672064185142517,0.22364574670791626,-0.12039270997047424,0.7302061319351196,0.6255902051925659,0.7446640133857727
0.5490798950195312,0.39359408617019653,0.09338405728340149,0.07464028894901276,-0.23962150268334015,-1.4320363238014604,-3.0480804520284925,-0.9620907306671143,0.2373349666595459,-0.13436317443847656,0.6971428394317627,0.48615482449531555,0.8357229828834534
0.5683789253234863,0.42836934328079224,0.07708412408828735,0.05148492753505707,-0.2541496181886977,-1.4196461533244207,-3.0287566947263223,-0.9568423628807068,0.2514224350452423,-0.14573845267295837,0.9874008297920227,0.2780923545360565,0.8613372445106506
0.5873031616210938,0.4011750817298889,0.059299200773239136,0.05325767397880554,-0.26693385612661197,-1.4089052945879825,-3.002030332585508,-0.9519714117050171,0.26377514004707336,-0.15547628700733185,1.368768572807312,0.11204911768436432,0.770171046257019
0.6037631034851074,0.3458230495452881,0.027188479900360107,0.09671014547348022,-0.27580990552437606,-1.398728186612974,-2.9692889795627355,-0.9479959011077881,0.2723263204097748,-0.16474904119968414,1.5531578063964844,0.030428649857640266,0.6236125826835632
0.6237740516662598,0.27928853034973145,-0.02197125554084778,0.15507537126541138,-0.28128101008592726,-1.388871173527729,-2.9357802834462987,-0.9448463916778564,0.27758654952049255,-0.1738131195306778,1.485485553741455,0.0452958345413208,0.48722678422927856
0.6459999084472656,0.20707345008850098,-0.0856797993183136,0.23250293731689453,-0.28489156009478833,-1.3798061980395462,-2.9071046273664467,-0.942241907119751,0.2810533940792084,-0.18217943608760834,1.117959976196289,0.04170243442058563,0.3856915533542633
0.6682109832763672,0.050325214862823486,-0.1053987443447113,0.2682872712612152,-0.2881572872433603,-1.374654718136985,-2.8888819620809523,-0.9403855204582214,0.2841859757900238,-0.18685103952884674,0.5412282943725586,-0.020104477182030678,0.2635233700275421
0.687716007232666,-0.20081907510757446,-0.04917818307876587,0.2961510419845581,-0.29098389926167956,-1.371805627614762,-2.8819571709485725,-0.939058244228363,0.28689488768577576,-0.18936999142169952,0.06622316688299179,0.12721891701221466,0.151619553565979
0.7093520164489746,-0.4326528310775757,-0.013173133134841919,0.3600761294364929,-0.29390597633068255,-1.3673912320019388,-2.8853773430110974,-0.937388002872467,0.2896929085254669,-0.19334331154823303,-0.4662027657032013,0.4383467137813568,0.07317028939723969
0.7279520034790039,-0.463702917098999,-0.06564030051231384,0.4363750219345093,-0.2980454972403231,-1.3605196404651994,-2.901096013549595,-0.934856653213501,0.2936524450778961,-0.1995280534029007,-1.0961432456970215,0.6889573931694031,0.034166790544986725
0.7475728988647461,-0.3506966233253479,-0.11275044083595276,0.4494991600513458,-0.30471534402772904,-1.3540186560815608,-2.9289784829928736,-0.9316063523292542,0.3000216484069824,-0.2051754742860794,-1.616655945777893,0.7750958204269409,0.044234469532966614
0.7678940296173096,-0.20329582691192627,-0.13043564558029175,0.3927959203720093,-0.3125472141301504,-1.3487377270683667,-2.963458351260924,-0.9281891584396362,0.307483434677124,-0.20956836640834808,-1.662024974822998,0.7964179515838623,-0.008295916020870209
0.7873640060424805,-0.0093269944190979,-0.150117427110672,0.3194001615047455,-0.3186285942059632,-1.3425204626057976,-2.993475197769981,-0.9250298142433167,0.31326448917388916,-0.2149079591035843,-1.2353088855743408,0.7311444878578186,-0.03125916048884392
0.8071680068969727,0.17486298084259033,-0.21304070949554443,0.2681852877140045,-0.3220165773645064,-1.3378873716459465,-3.01380213275765,-0.9229862689971924,0.3164801299571991,-0.21894517540931702,-0.6932916641235352,0.2598901689052582,-0.10300419479608536
0.8273999691009521,0.16067153215408325,-0.3199288547039032,0.2845812141895294,-0.32063385249481585,-1.3421828943323713,-3.023194018770017,-0.9243435263633728,0.315168172121048,-0.21507740020751953,-0.2517019212245941,-0.29910945892333984,-0.2067912220954895
0.8474631309509277,-0.008111953735351562,-0.39767584204673767,0.29975882172584534,-0.3179535726396442,-1.3489368002486484,-3.031011239925735,-0.9265956282615662,0.31262335181236267,-0.20901471376419067,-0.4811592698097229,-0.1196703091263771,-0.24734897911548615
0.8687958717346191,-0.1825878620147705,-0.4145161211490631,0.2565051019191742,-0.3148811975753241,-1.3566860816840014,-3.045579186455736,-0.9291216731071472,0.3097034990787506,-0.2020311951637268,-0.7498096823692322,-0.26462048292160034,-0.3326171636581421
0.8870248794555664,-0.4489908218383789,-0.2456408143043518,0.17438119649887085,-0.311121721354438,-1.3676662732765381,-3.0611710251046644,-0.9324178695678711,0.3061266839504242,-0.19205084443092346,-0.595207929611206,-0.2843592166900635,-0.36902669072151184
0.9068069458007812,-0.7136042714118958,-0.13927075266838074,0.21070188283920288,-0.3040281225728871,-1.374145443184036,-3.0744598906900937,-0.9357487559318542,0.2993659973144531,-0.18642516434192657,-0.5887801647186279,0.06674174219369888,-0.5720339417457581
0.9259381294250488,-0.7117891311645508,-0.1467112898826599,0.20056688785552979,-0.2959561610553437,-1.3765807596618589,-3.0936081261977986,-0.9385404586791992,0.2916545867919922,-0.18460611999034882,-1.098086953163147,0.19312641024589539,-0.5625755786895752
0.9459009170532227,-0.671863317489624,-0.031722962856292725,0.09572280943393707,-0.29012471715835675,-1.3807721674322209,-3.1220656540105707,-0.9409601092338562,0.2860717177391052,-0.1809888631105423,-1.4044804573059082,0.1673799306154251,-0.5568482279777527
0.9660730361938477,-0.6738439202308655,0.24990633130073547,-0.06818759441375732,-0.28247607961785803,-1.3876403154564356,3.1314765777770357,-0.944304883480072,0.2787344455718994,-0.17491541802883148,-1.1440807580947876,-0.02590581774711609,-0.7620801329612732
0.9866349697113037,-0.5210522413253784,0.4070100784301758,-0.22915039956569672,-0.2682221046871419,-1.3963259757390543,3.111584191149586,-0.9496050477027893,0.2650175392627716,-0.1673797219991684,-0.5033737421035767,-0.30568039417266846,-0.9612501859664917
1.0066418647766113,-0.2395496964454651,0.43048322200775146,-0.29581236839294434,-0.24996833507996888,-1.4071571732181445,3.1022275225799807,-0.9559765458106995,0.2473732829093933,-0.15784664452075958,-0.14257638156414032,-0.5056165456771851,-0.9686650633811951
1.026597023010254,0.04010355472564697,0.3996882438659668,-0.35770383477211,-0.23172886648655885,-1.418834390220262,3.097972681316189,-0.9620547294616699,0.2296605259180069,-0.14733153581619263,0.014087661169469357,-0.5478065609931946,-0.8995143175125122
1.044835090637207,0.27852314710617065,0.3983854055404663,-0.36150801181793213,-0.21483568520994192,-1.429718286284245,3.095703163059606,-0.9673048853874207,0.21318688988685608,-0.13737809658050537,-0.015660714358091354,-0.48465731739997864,-0.8001305460929871
1.0664968490600586,0.4468833804130554,0.37031084299087524,-0.34753358364105225,-0.20009837352921586,-1.4388357253735857,3.0910346826115367,-0.9715263247489929,0.19876573979854584,-0.12895257771015167,-0.2628391981124878,-0.3493705093860626,-0.7392168045043945
1.0865230560302734,0.5805562734603882,0.3398045301437378,-0.3685552477836609,-0.18614037447113405,-1.4465346511481645,3.081008171280549,-0.9751485586166382,0.1850673258304596,-0.12180114537477493,-0.49035507440567017,-0.21761302649974823,-0.7802994251251221
1.1064720153808594,0.7621482610702515,0.3512556552886963,-0.4450952410697937,-0.17146443859474939,-1.451126633611821,3.0701032680052833,-0.9782890677452087,0.1706254929304123,-0.1176336258649826,-0.32248640060424805,-0.07210482656955719,-0.8334985971450806
1.1262121200561523,0.9259106516838074,0.38745781779289246,-0.491973340511322,-0.150308487693013,-1.4594031584146383,3.066302528981444,-0.9825970530509949,0.14974315464496613,-0.10990957915782928,0.18122796714305878,-0.5631224513053894,-1.3018118143081665
1.1470179557800293,1.147387981414795,0.41129136085510254,-0.5617188215255737,-0.12023292048290442,-1.4660414918764872,3.074024110078716,-0.987338662147522,0.11994344741106033,-0.10380849242210388,1.0166946649551392,-0.14811588823795319,-1.509215235710144
1.1664209365844727,1.3791191577911377,0.4508839249610901,-0.5474686026573181,-0.09403922727257556,-1.4646126819780934,3.1013579342371322,-0.9899743795394897,0.09390068799257278,-0.10551594942808151,1.8422813415527344,-0.10427705198526382,-0.6451305150985718
1.18613600730896,1.342844843864441,0.35884520411491394,-0.41412919759750366,-0.09048173542758817,-1.4635146679143165,3.1404879602027487,-0.9901837110519409,0.09035832434892654,-0.10663797706365585,2.0373294353485107,-0.06864573061466217,0.6910117268562317
1.2061738967895508,1.1285247802734375,0.23354262113571167,-0.3146216869354248,-0.1115064836525494,-1.4581204131731165,-3.1005200161487503,-0.9874878525733948,0.1112755537033081,-0.1117393746972084,1.8491168022155762,0.15265628695487976,1.8379896879196167
1.2259011268615723,0.8505585789680481,0.2178606539964676,-0.1707528680562973,-0.1565728811342274,-1.4514957136557527,-3.063064330570202,-0.9807464480400085,0.1559339314699173,-0.11756192147731781,1.2340779304504395,-0.0884086936712265,3.1251931190490723
1.2476611137390137,0.003269374370574951,0.28804585337638855,-0.04472149908542633,-0.2026885690673973,-1.4707277391166302,-3.0409708835794036,-0.974628746509552,0.20130358636379242,-0.09785657376050949,0.7269973754882812,-2.175579071044922,0.6952876448631287
1.2665419578552246,-2.002228260040283,0.859461784362793,-0.2491263747215271,-0.19140263961962864,-1.4823952349038851,-3.021299304024474,-0.9779049158096313,0.19023610651493073,-0.08667375892400742,1.4624993801116943,0.6764455437660217,-0.677370548248291
1.2859621047973633,-1.4869024753570557,0.6425819993019104,0.3528868556022644,-0.18029261487609277,-1.4587366819735863,-2.9940837130406677,-0.9776207804679871,0.17931745946407318,-0.1100127100944519,0.8553791642189026,0.9825859665870667,-0.40021228790283203
1.3057000637054443,-0.9890553951263428,0.45931845903396606,0.513824999332428,-0.177987670106945,-1.4379415641580582,-2.9989946564529357,-0.9755289554595947,0.1770493984222412,-0.13037161529064178,-1.1728041172027588,1.2319631576538086,0.31620728969573975
1.325632095336914,-1.2457855939865112,0.500298023223877,0.35094207525253296,-0.19462338116058395,-1.4163331555023166,-3.023378673443638,-0.9694395661354065,0.19339704513549805,-0.15094508230686188,-1.1011227369308472,1.2495299577713013,0.8301582336425781
1.3455870151519775,-1.2222875356674194,0.6185608506202698,0.2396697998046875,-0.2132051947304944,-1.398538456887358,-3.027990292002107,-0.9628931879997253,0.2115935981273651,-0.16752620041370392,0.5192012190818787,0.584716796875,0.9136308431625366
1.3657240867614746,-0.9341830015182495,0.5656037330627441,0.2890474200248718,-0.22481371418115217,-1.3850916508952638,-2.9936311408012504,-0.9580748081207275,0.22292476892471313,-0.17999283969402313,2.533527374267578,0.0678301751613617,0.8424100279808044
1.3854379653930664,-0.5581966042518616,0.3122982382774353,0.41751253604888916,-0.22887951288183275,-1.3718568679967733,-2.9257883391910484,-0.9547123908996582,0.22688640654087067,-0.19247588515281677,3.674109697341919,-0.19518885016441345,0.8158730864524841
1.4054450988769531,-0.2844557762145996,0.03039093315601349,0.5277550220489502,-0.2303693604485132,-1.3562553190310314,-2.8506449707563415,-0.9512619972229004,0.2283371388912201,-0.2072746455669403,3.256105422973633,0.08231227099895477,0.8468963503837585
1.4254369735717773,-0.028048217296600342,-0.23684075474739075,0.4572264552116394,-0.23443519986642658,-1.337931376211038,-2.7938071067610566,-0.9463932514190674,0.23229366540908813,-0.2244536429643631,2.059267282485962,0.45885831117630005,0.7802757620811462
1.4450950622558594,0.2779690623283386,-0.37768763303756714,0.32327744364738464,-0.2407236654325353,-1.315036070085487,-2.7565348705715174,-0.9395750164985657,0.2384054809808731,-0.24568650126457214,1.403120517730713,0.9774149060249329,0.7011159062385559
1.4641709327697754,0.6231826543807983,-0.3792191743850708,0.37257009744644165,-0.24662567860176587,-1.2814919501202584,-2.728954491111866,-0.9294418096542358,0.2441331297159195,-0.27665334939956665,1.068454384803772,1.7069940567016602,0.5759918093681335
1.4851469993591309,0.9339929819107056,-0.47795021533966064,0.4200976490974426,-0.24716760016320372,-1.243798571854816,-2.7082844315923706,-0.9182306528091431,0.24465861916542053,-0.31143978238105774,0.9480748772621155,1.2477598190307617,-0.11068557947874069
1.5057239532470703,1.0416139364242554,-0.5359522104263306,0.467510849237442,-0.22964634223904778,-1.2240873004011903,-2.6955620227554786,-0.9158053398132324,0.22763316333293915,-0.330883651971817,0.7702787518501282,0.5186734199523926,-1.0292420387268066
1.5253000259399414,1.0428836345672607,-0.5266430974006653,0.5194211602210999,-0.20766745671932538,-1.216519107543259,-2.69404382157549,-0.9177463054656982,0.20617803931236267,-0.33945900201797485,0.07176776230335236,0.2343735247850418,-0.7711792588233948
1.5443358421325684,0.97450852394104,-0.5305545926094055,0.5511094331741333,-0.20800033848649216,-1.2113048821683432,-2.702270624391593,-0.9158995151519775,0.2065037488937378,-0.3442155122756958,-0.8303666710853577,0.5770461559295654,0.628919780254364
1.5666751861572266,0.7943334579467773,-0.5698972344398499,0.4488394856452942,-0.2309098670812935,-1.2029757911466596,-2.713046902194292,-0.9083471894264221,0.22886332869529724,-0.3500387966632843,-0.8696209192276001,0.4214865267276764,0.8708605766296387
1.585604190826416,0.6335782408714294,-0.4189406633377075,0.3666280508041382,-0.2510369079580401,-1.2076244765837658,-2.723615583551914,-0.9054746031761169,0.2484084963798523,-0.34410610795021057,-0.8003562092781067,-0.8696185350418091,0.754086434841156
1.6050910949707031,0.16826659440994263,-0.2508889436721802,0.29350247979164124,-0.2747806337003638,-1.238680929737809,-2.7306817408198616,-0.9098896384239197,0.27133581042289734,-0.3138119876384735,-0.7062865495681763,-1.6298117637634277,1.4028575420379639
1.6248340606689453,-0.9420719146728516,-0.09483957290649414,0.2801702916622162,-0.3099692958702306,-1.2614071294382143,-2.730067057642403,-0.9071253538131714,0.30502939224243164,-0.2899664044380188,-0.20980164408683777,-0.5610195398330688,1.4642937183380127
1.6450071334838867,-1.8028712272644043,0.21276810765266418,0.4819301664829254,-0.31918986030140506,-1.2602349359967115,-2.7291802525926268,-0.9040683507919312,0.3137974441051483,-0.290157675743103,-0.4111393094062805,0.09374459087848663,-0.5345138311386108
1.6648359298706055,-1.2213501930236816,0.2832258939743042,0.35554006695747375,-0.3113812937535499,-1.2634755954868957,-2.7401018814585174,-0.9073119759559631,0.30637380480766296,-0.28795892000198364,-0.25056326389312744,-0.0912478044629097,-0.1722489446401596
1.6864550113677979,-0.9669792652130127,0.17745786905288696,0.18939658999443054,-0.31694237409694215,-1.2709861630018493,-2.7444426415674763,-0.9078072905540466,0.3116626739501953,-0.28062888979911804,-0.27029988169670105,-0.5173003673553467,0.42570731043815613
1.7033610343933105,-0.888576090335846,0.16791066527366638,0.03457590937614441,-0.32726454462055277,-1.2822013462046562,-2.740724196292984,-0.9077647924423218,0.3214539587497711,-0.269500195980072,0.4111396372318268,-0.7014936804771423,0.7099402546882629
1.7239971160888672,-0.6099742650985718,0.15609171986579895,-0.03798666596412659,-0.3398699840331278,-1.2898487774638734,-2.7184667010891572,-0.9058339595794678,0.3333645164966583,-0.2614060044288635,1.2198585271835327,-0.7951544523239136,1.036062479019165
1.742588996887207,-0.3764501214027405,0.0760570764541626,-0.0876796543598175,-0.35106217403520146,-1.2927871988951936,-2.681109038017375,-0.9029536843299866,0.34389540553092957,-0.25770303606987,1.8072534799575806,-0.7132024168968201,0.9066367149353027
1.7647418975830078,-0.131305992603302,-0.06797000765800476,-0.07209119200706482,-0.3535325528336477,-1.2896916176490527,-2.638285096713955,-0.9013324975967407,0.34621405601501465,-0.2602604329586029,1.8807684183120728,-0.4628930687904358,0.4518585801124573
1.7841410636901855,0.12578445672988892,-0.2672997713088989,0.022327035665512085,-0.35106592866168557,-1.2853366037405995,-2.6055997787044247,-0.9010071754455566,0.3438989222049713,-0.2644229531288147,0.9885446429252625,-0.24513652920722961,0.2246275544166565
1.8045568466186523,0.31694066524505615,-0.41929155588150024,0.06930607557296753,-0.3538450157799438,-1.28695482907014,-2.5978578511235533,-0.9005130529403687,0.34650716185569763,-0.26269593834877014,-0.32503989338874817,-0.22033806145191193,0.27876460552215576
1.824228048324585,0.45957624912261963,-0.3931467831134796,0.011134564876556396,-0.3647916012141486,-1.2959553567645896,-2.6093103909257516,-0.8991361856460571,0.3567546308040619,-0.253535658121109,-0.8545284271240234,-0.27828890085220337,0.4910499155521393
1.844249963760376,0.5428557395935059,-0.21395260095596313,-0.10908371210098267,-0.3791943127354806,-1.3070060247864705,-2.6208980165231353,-0.8968291282653809,0.3701721429824829,-0.24221937358379364,-0.43927833437919617,-0.4306887090206146,0.5554351210594177
1.8657760620117188,0.6107366681098938,-0.04124686121940613,-0.17464876174926758,-0.38799026892626065,-1.3155442120364895,-2.617381474774421,-0.8956792950630188,0.3783288300037384,-0.23372216522693634,0.5938437581062317,-0.6399894952774048,0.3163418769836426
1.8840031623840332,0.6523047089576721,0.0029298067092895508,-0.18768101930618286,-0.3843144050391504,-1.3237174623392267,-2.594165347166292,-0.8989019989967346,0.3749236464500427,-0.22673243284225464,1.5397392511367798,-1.0175626277923584,-0.1260140985250473
1.9027018547058105,0.6551004648208618,-0.05656343698501587,-0.13770979642868042,-0.3722286656014799,-1.3319973292340206,-2.556853384708223,-0.9050852060317993,0.36369237303733826,-0.22033768892288208,2.037933826446533,-1.1785857677459717,-0.13487888872623444
1.9236500263214111,0.5931451916694641,-0.12876653671264648,-0.06021767854690552,-0.36272745192954947,-1.3406623329682033,-2.5142715032313623,-0.9102838635444641,0.35482552647590637,-0.21326559782028198,2.009780168533325,-1.2143526077270508,0.13059422373771667
1.942007064819336,0.4474177956581116,-0.12900173664093018,-0.05642014741897583,-0.3581031629134147,-1.3511500118840183,-2.473794441108674,-0.9140620827674866,0.35049834847450256,-0.2040625959634781,1.7808774709701538,-1.2521840333938599,0.2310440093278885
1.9629120826721191,0.26763468980789185,-0.034280598163604736,-0.06222033500671387,-0.3550151796862826,-1.3632645652009083,-2.4375861052773824,-0.9175217747688293,0.3476046025753021,-0.19319653511047363,1.65147864818573,-1.22260582447052,0.16134536266326904
1.9837260246276855,0.09139209985733032,0.05214083194732666,-0.0405501127243042,-0.3500934212685249,-1.3735917030374376,-2.4029941850611434,-0.9211345911026001,0.3429855704307556,-0.1840440034866333,1.629905104637146,-0.9457186460494995,0.04792225360870361
2.0035669803619385,0.04259985685348511,0.06427562236785889,0.018273115158081055,-0.34815672015176835,-1.3765781948497424,-2.3711582782277163,-0.9223300814628601,0.341165691614151,-0.18142008781433105,1.469893455505371,-0.7268218994140625,0.12324164062738419
2.0236668586730957,-0.020470499992370605,0.0356084406375885,0.04025374352931976,-0.34228239008128936,-1.3810604093743128,-2.3457286340233097,-0.9250862002372742,0.3356379568576813,-0.17765910923480988,0.9424558877944946,-0.5716681480407715,-0.15079998970031738
2.043307065963745,-0.13448983430862427,0.09094187617301941,0.021565616130828857,-0.3371467599922187,-1.3890708182615592,-2.3291283365089215,-0.9281627535820007,0.3307958245277405,-0.17055244743824005,0.8231789469718933,-0.7720209360122681,-0.06105891242623329
2.0627589225769043,-0.38547205924987793,0.23871251940727234,0.021088406443595886,-0.33102045824442466,-1.3976777790304598,-2.3075443865231517,-0.9315751791000366,0.32500824332237244,-0.16290360689163208,1.3341556787490845,-0.7705468535423279,-0.29480552673339844
2.083733081817627,-0.5272039175033569,0.3155894875526428,0.03597171604633331,-0.3145088994673487,-1.4038763190427885,-2.2736946525730293,-0.9377313852310181,0.30934950709342957,-0.15799623727798462,2.0930278301239014,-1.0143183469772339,-0.7098033428192139
2.1031951904296875,-0.5789506435394287,0.36672890186309814,0.11947363615036011,-0.2923558238371734,-1.414365904646557,-2.2286441994321984,-0.945875346660614,0.28820887207984924,-0.14918252825737,2.467562198638916,-1.3180654048919678,-0.791847825050354
2.123319149017334,-0.6224098801612854,0.33368828892707825,0.2502071261405945,-0.268130600642579,-1.4241252229846795,-2.1776514269881884,-0.9539145827293396,0.26492929458618164,-0.14092369377613068,2.7363407611846924,-0.9901139140129089,-0.83113032579422
2.143393039703369,-0.3895142674446106,0.22935828566551208,0.33469271659851074,-0.24600059044376038,-1.4257795981201729,-2.124432222658948,-0.9597137570381165,0.24352692067623138,-0.14015842974185944,2.6424198150634766,-0.6058335304260254,-0.6215130090713501
2.1635260581970215,-0.175284743309021,0.15954093635082245,0.3042101263999939,-0.23011898066928865,-1.4245785898172083,-2.0738769932287644,-0.9632498621940613,0.22809337079524994,-0.1418565958738327,2.5106163024902344,-0.47238945960998535,-0.26484382152557373
2.1830999851226807,-0.03151935338973999,0.1271226704120636,0.2807595729827881,-0.22037514880285916,-1.4233714524305103,-2.0249900624687167,-0.9652305245399475,0.2185957133769989,-0.14333894848823547,2.327925682067871,-0.482587069272995,-0.008338740095496178
2.204357147216797,0.10689419507980347,0.08559183776378632,0.2989022731781006,-0.2146988417087274,-1.4229103251289839,-1.9796324467835502,-0.966376006603241,0.21305319666862488,-0.14396452903747559,2.155052423477173,-0.4553922116756439,0.061364442110061646
2.2229108810424805,0.224065363407135,0.027018040418624878,0.3081486225128174,-0.21038571925576818,-1.4236487827457718,-1.938011987592639,-0.9673821330070496,0.2088371366262436,-0.14338426291942596,1.904488444328308,-0.560222327709198,0.1386430412530899
2.2431039810180664,0.28637439012527466,-0.0023254305124282837,0.38276565074920654,-0.20966886754025071,-1.4292662283683386,-1.9046644328644955,-0.9683203101158142,0.20813603699207306,-0.13796891272068024,1.3495099544525146,-0.6206699013710022,0.2262127846479416
2.2629551887512207,0.3172367811203003,-0.08135457336902618,0.34239208698272705,-0.2115295990561712,-1.4346607042786979,-1.8808542133122677,-0.9686649441719055,0.20995564758777618,-0.13269053399562836,0.9742928147315979,-0.44677892327308655,0.2829126715660095
2.282853126525879,0.4107952117919922,-0.11175790429115295,0.2934717535972595,-0.21564397416963793,-1.4394723630562114,-1.8617755191133563,-0.9684276580810547,0.21397653222084045,-0.1279139369726181,0.8597716689109802,-0.48445627093315125,0.3714134097099304
2.3028039932250977,0.4724422097206116,-0.0829840898513794,0.24105364084243774,-0.22077481107225505,-1.447256803965712,-1.8421206281735838,-0.9682918190956116,0.2189856916666031,-0.12023460865020752,1.0286942720413208,-0.7809094190597534,0.3611420691013336
2.3225860595703125,0.4273831248283386,0.004447609186172485,0.2608485817909241,-0.22388917492495983,-1.4607789020414343,-1.8186483924312034,-0.9691465497016907,0.2220233976840973,-0.10705528408288956,1.208303689956665,-1.0088982582092285,0.195583313703537
2.3425941467285156,0.3159857988357544,0.03981494903564453,0.26952624320983887,-0.22265556967013386,-1.4735868747200913,-1.7919106922704195,-0.9707098603248596,0.22082041203975677,-0.09466053545475006,1.4051183462142944,-0.8352121710777283,-0.046861954033374786
2.361577033996582,0.267999529838562,-0.015329301357269287,0.27018165588378906,-0.2177603926716116,-1.4810246263897953,-1.7618977362738995,-0.9724521636962891,0.21604345738887787,-0.08753395825624466,1.5291427373886108,-0.5862932205200195,-0.12475412338972092
2.3823649883270264,0.27920204401016235,-0.053908154368400574,0.2901192903518677,-0.21396912860884068,-1.484788826655091,-1.732342747946863,-0.9735837578773499,0.21234017610549927,-0.08394259214401245,1.3331434726715088,-0.4396776854991913,0.0015184220392256975
2.4023680686950684,0.24692308902740479,-0.0445341020822525,0.3184497356414795,-0.21235580544535623,-1.4872367897661942,-1.708479208899431,-0.9741265177726746,0.2107633650302887,-0.0815875381231308,0.9839887619018555,-0.28648626804351807,0.030257131904363632
2.4213051795959473,0.1868552565574646,-0.01992984116077423,0.324479341506958,-0.21206758827744632,-1.4871299013577677,-1.6937450491247887,-0.9741783142089844,0.21048161387443542,-0.08169673383235931,0.4606354236602783,-0.005784926004707813,0.07218962162733078
2.442202091217041,0.14535224437713623,-0.04785943031311035,0.26185446977615356,-0.21355676964628245,-1.4839403426028288,-1.6884423217202946,-0.9735993146896362,0.21193720400333405,-0.08477621525526047,0.06499163061380386,0.2065371870994568,0.1326083242893219
2.462218999862671,0.18952399492263794,-0.06781092286109924,0.2948383092880249,-0.2180328423865051,-1.4780859828421133,-1.6915714501468078,-0.9721319675445557,0.21630945801734924,-0.090385802090168,-0.4426710307598114,0.4101913273334503,0.27744004130363464
2.48205304145813,0.24454033374786377,-0.09428739547729492,0.3017858862876892,-0.22529305219275436,-1.4732582524116613,-1.7049908263804205,-0.9700957536697388,0.22339202463626862,-0.09492248296737671,-0.9170488119125366,0.33723580837249756,0.3223123848438263
2.5022330284118652,0.235650897026062,-0.0726051926612854,0.23683035373687744,-0.23477494103001523,-1.4743005656214523,-1.7256180811637316,-0.9680421352386475,0.2326241135597229,-0.09370297938585281,-1.1234543323516846,0.015742026269435883,0.43072837591171265
2.5199670791625977,0.1401599645614624,-0.03482221066951752,0.21952778100967407,-0.24576977389810173,-1.4804694446871527,-1.7473674482889534,-0.9659960865974426,0.24330304563045502,-0.08749350160360336,-1.064558744430542,-0.03249332308769226,0.43985462188720703
2.539630889892578,0.0925436019897461,-0.04564252495765686,0.25194114446640015,-0.2557108024785198,-1.4848421305379635,-1.7679621516606034,-0.9639119505882263,0.25293317437171936,-0.08305691927671432,-1.0179240703582764,0.07374203205108643,0.382184237241745
2.561756134033203,0.1136026382446289,-0.07122206687927246,0.21803373098373413,-0.26485968865717446,-1.4889659349774722,-1.7873833872191511,-0.9618997573852539,0.26177385449409485,-0.07888879626989365,-0.9307727217674255,-0.026903260499238968,0.39047881960868835
2.581778049468994,0.07536441087722778,-0.07853919267654419,0.13700568675994873,-0.27457271760047347,-1.4971449876295382,-1.8028470437764617,-0.9599317908287048,0.27113568782806396,-0.070828378200531,-0.5808507800102234,-0.3723904490470886,0.45625293254852295
2.601691961288452,-0.03559577465057373,-0.043044596910476685,0.15551358461380005,-0.2840467207012614,-1.5083213567294966,-1.8102865560221153,-0.9580565690994263,0.2802425026893616,-0.05993254855275154,-0.26187360286712646,-0.4767185151576996,0.40200814604759216
2.6218509674072266,-0.13601922988891602,-0.05012449622154236,0.21077394485473633,-0.28985346736537626,-1.5174403848163023,-1.8153600641219607,-0.956922173500061,0.28581181168556213,-0.05110599100589752,-0.28629547357559204,-0.30850422382354736,0.14224207401275635
2.639970064163208,-0.13797003030776978,-0.061252981424331665,0.2100488543510437,-0.2911007181475239,-1.5226282928509085,-1.8215298430893685,-0.956817626953125,0.28700679540634155,-0.046123698353767395,-0.3031463325023651,-0.02338566817343235,-0.004984570667147636
2.6617040634155273,-0.06440520286560059,-0.07526558637619019,0.17054027318954468,-0.2916953202302343,-1.5230700506660106,-1.8262994697898276,-0.9566671252250671,0.2875763475894928,-0.04569285735487938,-0.14108975231647491,0.08084237575531006,0.06226367503404617
2.681328058242798,-0.005605638027191162,-0.09502929449081421,0.1563858985900879,-0.29343608597753706,-1.5212196388841894,-1.8268585723071273,-0.9560794234275818,0.2892431318759918,-0.0474381223320961,0.05615716427564621,0.09829549491405487,0.09310924261808395
2.7005481719970703,-0.0023516416549682617,-0.09952086210250854,0.08698416501283646,-0.29527546683766354,-1.5209573500521,-1.8259093236339385,-0.9555339217185974,0.29100340604782104,-0.04766230285167694,0.0183743666857481,-0.12897832691669464,0.08404732495546341
2.7213969230651855,-0.02563422918319702,-0.0702897310256958,0.05936812981963158,-0.2960620473502546,-1.5250156121161684,-1.8245021263361787,-0.95549076795578,0.2917558550834656,-0.04377363622188568,0.14345403015613556,-0.28429022431373596,-0.00938953272998333
2.7413489818573,-0.015383005142211914,-0.057706624269485474,0.06830334663391113,-0.29488736705507895,-1.529188879034539,-1.8187715225700818,-0.9560068249702454,0.29063206911087036,-0.039799973368644714,0.43295878171920776,-0.3061721622943878,-0.07750114053487778
2.7604799270629883,-0.004108250141143799,-0.057765185832977295,0.062363386154174805,-0.2921270500781029,-1.5313968967384233,-1.8062961762137668,-0.9568902850151062,0.2879897952079773,-0.0377204529941082,0.7351757884025574,-0.2646768391132355,-0.15053848922252655
2.7810778617858887,0.007270634174346924,-0.08075600862503052,0.07093703746795654,-0.28830075953772155,-1.532638379488624,-1.7913188452249902,-0.9580304026603699,0.284323513507843,-0.03657422587275505,0.6872681379318237,-0.3202578127384186,-0.18001434206962585
2.8005619049072266,-0.03180241584777832,-0.10904428362846375,0.07198941707611084,-0.284386176875203,-1.5365483872252124,-1.7788428739622084,-0.9592711925506592,0.28056833148002625,-0.03286591172218323,0.5166950821876526,-0.37545689940452576,-0.15859436988830566
2.8200879096984863,-0.08635067939758301,-0.09490755200386047,0.08221548795700073,-0.2809626054156529,-1.5402660839366222,-1.769591158582018,-0.9603413939476013,0.27728062868118286,-0.029328567907214165,0.37471625208854675,-0.2508190870285034,-0.16232946515083313
2.8431410789489746,-0.1043168306350708,-0.03921717405319214,0.08194035291671753,-0.2770940276860053,-1.5428556540955183,-1.7625674588979345,-0.9614790678024292,0.2735616862773895,-0.026871366426348686,0.3640947639942169,-0.2292623072862625,-0.21030369400978088
2.8611559867858887,-0.11140984296798706,-0.019793301820755005,0.04024040326476097,-0.27218020751257643,-1.544524211622323,-1.7530358097396042,-0.96285480260849,0.2688320279121399,-0.02530205436050892,0.6280264854431152,-0.1988290399312973,-0.2545883357524872
2.8815979957580566,-0.09284001588821411,-0.0056681036949157715,0.007450582459568977,-0.26700815823313684,-1.5443704616077585,-1.7362207271971721,-0.9642277956008911,0.2638467848300934,-0.02548648789525032,0.975904643535614,-0.23128338158130646,-0.2083858698606491
2.8996050357818604,-0.09209650754928589,0.027755796909332275,0.0060684047639369965,-0.2616893742309081,-1.5435960201913554,-1.7137165025290642,-0.9655970931053162,0.2587127685546875,-0.026271015405654907,1.2084736824035645,-0.28726986050605774,-0.29851144552230835
2.920905113220215,-0.1340591311454773,0.03737229108810425,0.00021886825561523438,-0.25404793785979074,-1.543750963450276,-1.6885631943206376,-0.9675490856170654,0.25132402777671814,-0.02617410011589527,1.178378701210022,-0.3562045395374298,-0.3723365366458893
2.940932035446167,-0.18349754810333252,0.02506469190120697,0.01563417911529541,-0.24657613633752137,-1.5460335986044724,-1.667415632940597,-0.9694566130638123,0.24408508837223053,-0.02401129901409149,0.8991973400115967,-0.392636239528656,-0.32146984338760376
2.9600000381469727,-0.26186907291412354,0.035185620188713074,0.018822789192199707,-0.2405498019619727,-1.5491671191449499,-1.652472912806789,-0.9709801077842712,0.23823663592338562,-0.021004805341362953,0.5581613183021545,-0.2622321546077728,-0.2581179738044739
2.980422019958496,-0.31545931100845337,0.07076086103916168,-0.00384611077606678,-0.2355652145129452,-1.5513848183690226,-1.6441831056150782,-0.9721994996070862,0.2333926260471344,-0.01887422986328602,0.27571901679039,-0.17842717468738556,-0.21985410153865814
2.999894142150879,-0.31775736808776855,0.09832178056240082,0.01240074634552002,-0.23193821975312862,-1.5543064233494435,-1.641804494188929,-0.9730904698371887,0.22986426949501038,-0.01604762114584446,-0.04302496090531349,-0.17925454676151276,-0.14840197563171387
3.019886016845703,-0.3498600721359253,0.10408304631710052,0.04250437021255493,-0.22970347968265914,-1.5570127548136885,-1.644370089315457,-0.973641574382782,0.22768880426883698,-0.013421108014881611,-0.19031596183776855,-0.009864089079201221,-0.05522468686103821
3.0405240058898926,-0.3550833463668823,0.10568642616271973,0.05583751201629639,-0.23009407741439136,-1.5564816489446665,-1.6507994696748676,-0.9735453128814697,0.22806912660598755,-0.013936939649283886,-0.45064395666122437,0.18444670736789703,0.06664986908435822
3.0598950386047363,-0.32477861642837524,0.11829198896884918,0.062114715576171875,-0.23233383473116556,-1.5551037947303805,-1.6634604763130592,-0.97301185131073,0.23024927079677582,-0.015270273201167583,-0.7892448306083679,0.20591667294502258,0.14858925342559814
3.0801591873168945,-0.29488927125930786,0.1595240980386734,0.10478544235229492,-0.23713174386784655,-1.5560832304821641,-1.6819049613051733,-0.9719106554985046,0.2349155992269516,-0.014300847426056862,-1.0002583265304565,0.1804608553647995,0.295349657535553
3.0998640060424805,-0.3344728946685791,0.16486980020999908,0.10360562801361084,-0.24465276449727485,-1.5565486656933512,-1.7028762483308733,-0.9701230525970459,0.2422194480895996,-0.013822919689118862,-0.9917312264442444,0.2807758152484894,0.4469671845436096
3.120208978652954,-0.35888081789016724,0.1880890429019928,-0.021723568439483643,-0.2552245862595986,-1.554248113491837,-1.7201666801206656,-0.9674742221832275,0.2524627149105072,-0.01601143181324005,-0.6772646307945251,0.33125948905944824,0.5348667502403259
3.1398730278015137,-0.3594236969947815,0.2332272231578827,-0.09938788414001465,-0.2635257181238789,-1.5523750093327717,-1.7299528714659729,-0.9653138518333435,0.2604861557483673,-0.01778436452150345,-0.28641998767852783,0.085556261241436,0.2651294767856598
3.1599390506744385,-0.3559154272079468,0.18707263469696045,-0.058802902698516846,-0.2669376561915575,-1.553737929440338,-1.7340185620095412,-0.9644427299499512,0.26377880573272705,-0.016453443095088005,-0.19695137441158295,-0.05209711939096451,0.11578084528446198
3.1830201148986816,-0.3760167956352234,0.05794045329093933,-0.023358821868896484,-0.26968814600300706,-1.5561496258549028,-1.7404927036704776,-0.9637506008148193,0.2664308547973633,-0.014116776175796986,-0.43844857811927795,-0.005895713344216347,0.1546759009361267
3.199850082397461,-0.3656359910964966,0.03741657733917236,-0.0449712872505188,-0.27426708916670733,-1.5597515551794947,-1.7515799749966365,-0.9625651836395264,0.27084147930145264,-0.010631744749844074,-0.5880146026611328,-0.07697556912899017,0.268766850233078
3.21984601020813,-0.3448806405067444,0.11532357335090637,-0.10499334335327148,-0.2794588366812983,-1.5663489018934564,-1.7626069131576454,-0.9611954689025879,0.2758355140686035,-0.004274872597306967,-0.4113454818725586,-0.3085116744041443,0.19920770823955536
3.2398271560668945,-0.3148806095123291,0.1579023003578186,-0.12380099296569824,-0.28231043134006817,-1.5756170341385516,-1.7670441101231906,-0.9604032039642334,0.2785753607749939,0.004629858769476414,-0.03606593236327171,-0.49270787835121155,0.10481187701225281
3.259800910949707,-0.2998148202896118,0.09890499711036682,-0.10300016403198242,-0.28409742285276374,-1.585345137551025,-1.7645317207002835,-0.9598135352134705,0.2802911698818207,0.013965130783617496,0.2854039669036865,-0.4922292232513428,0.08420497179031372
3.279881000518799,-0.3303769826889038,0.018471479415893555,-0.17009437084197998,-0.287139546169011,-1.5898467744129312,-1.751768608122599,-0.9588838815689087,0.28321003913879395,0.018269376829266548,0.9118974208831787,-0.27247634530067444,0.25642693042755127
3.299798011779785,-0.2862675189971924,0.026063084602355957,-0.19365334510803223,-0.29429843827046215,-1.5888025830720442,-1.7307002375367908,-0.9568508267402649,0.29006853699684143,0.017231162637472153,1.0501024723052979,-0.26167431473731995,0.3357272446155548
3.3198680877685547,-0.24924862384796143,-0.023090511560440063,-0.18326270580291748,-0.2994577435250051,-1.588831666357051,-1.7115058253356084,-0.9553411602973938,0.29500213265419006,0.01723177172243595,0.7691680788993835,-0.31217220425605774,0.16872410476207733
3.339798927307129,-0.2308400273323059,-0.07210060954093933,-0.11576735973358154,-0.3034354388042021,-1.5914707951488276,-1.6997303838598554,-0.9541117548942566,0.2988004684448242,0.019728563725948334,0.36519938707351685,-0.2537629306316376,0.2389565408229828
3.359923839569092,-0.2853701710700989,-0.07100275158882141,-0.040546298027038574,-0.30844484936191363,-1.5928380050548068,-1.6948566607036513,-0.9525755047798157,0.3035772442817688,0.020999763160943985,0.1698276549577713,0.017682228237390518,0.24172981083393097
3.379793167114258,-0.3130640983581543,-0.03716161847114563,-0.02197849750518799,-0.31359274544237753,-1.5894754025575035,-1.6916014096518075,-0.9510655403137207,0.30847814679145813,0.01776709221303463,0.14438018202781677,0.1417543739080429,0.26540976762771606
3.3998019695281982,-0.2545969486236572,-0.04876899719238281,0.04002511501312256,-0.3188378563475475,-1.5871053317897463,-1.68978369429824,-0.9494740962982178,0.3134632110595703,0.015486350283026695,0.05600123479962349,0.014497443102300167,0.2665938436985016
3.4198079109191895,-0.25853991508483887,-0.02232179045677185,0.07009899616241455,-0.3246725443729641,-1.5875892332633996,-1.6872306435386344,-0.947621762752533,0.31899845600128174,0.01591482013463974,0.2823253273963928,-0.12024368345737457,0.3092305660247803
3.4398021697998047,-0.26889991760253906,0.02459770441055298,0.04334151744842529,-0.3311854124063506,-1.587103157837579,-1.6742355109407998,-0.9455318450927734,0.325164258480072,0.015419995412230492,0.9844599962234497,-0.23973608016967773,0.3261660933494568
3.4598169326782227,-0.2526785135269165,0.03776368498802185,0.03614461421966553,-0.33742304517827804,-1.5847557696457093,-1.6471596640328359,-0.9435189962387085,0.3310565650463104,0.013171855360269547,1.5455989837646484,-0.43355002999305725,0.22996722161769867
3.4798221588134766,-0.24922174215316772,-0.03415820002555847,0.0706632137298584,-0.3414114024869571,-1.5828123238318477,-1.6134195133620117,-0.9422150254249573,0.33481737971305847,0.011322198435664177,1.5889616012573242,-0.4736744463443756,0.14476332068443298
3.4998159408569336,-0.24748307466506958,-0.08311358094215393,0.07872164249420166,-0.34527367207112525,-1.5811567139063587,-1.581673769129975,-0.94093257188797,0.3384542167186737,0.009748774580657482,1.3330219984054565,-0.4312472939491272,0.22512981295585632
3.519850969314575,-0.20565634965896606,-0.09408131241798401,0.12017178535461426,-0.35085392253149944,-1.579658766189294,-1.5566190811572327,-0.9390427470207214,0.3436998426914215,0.008322427049279213,1.0353816747665405,-0.23586668074131012,0.31384706497192383
3.539849042892456,-0.17981278896331787,-0.06904786825180054,0.10282778739929199,-0.3587201039419644,-1.575376791079958,-1.5365805575623381,-0.9363371729850769,0.3510760962963104,0.00428888900205493,0.8235453963279724,-0.0632958859205246,0.4748744070529938
3.5598878860473633,-0.13753169775009155,-0.056381046772003174,0.11963927745819092,-0.3689554193339423,-1.5713413512373122,-1.5214891429205226,-0.9327046275138855,0.36064133048057556,0.000508346885908395,0.5970918536186218,-0.05408783257007599,0.521236777305603
3.5799720287323,-0.11069756746292114,-0.04978978633880615,0.12335002422332764,-0.3792341350774728,-1.5679896820314303,-1.5098192280011413,-0.9289448857307434,0.37020912766456604,-0.0026072252076119184,0.5367432236671448,-0.05900518223643303,0.5319459438323975
3.599900007247925,-0.10427135229110718,-0.019129276275634766,0.09260016679763794,-0.3908848475425144,-1.5642501700870082,-1.4963905502011088,-0.9245523810386658,0.38100665807724,-0.0060523515567183495,0.7300557494163513,-0.07074332982301712,0.6330623030662537
3.6198859214782715,-0.10144215822219849,0.03576153516769409,0.08033722639083862,-0.40302388132139644,-1.5588199268040603,-1.4784903329736314,-0.919813334941864,0.3922017514705658,-0.01101657934486866,0.9031431078910828,-0.08793900907039642,0.5784645676612854
3.6399521827697754,-0.07355964183807373,0.02359256148338318,0.08535784482955933,-0.41305634878701336,-1.551552688211615,-1.4567188759125325,-0.9157286882400513,0.4014104902744293,-0.017624126747250557,1.0557383298873901,-0.03349760174751282,0.4770785868167877
3.6599230766296387,-0.018313825130462646,-0.018581002950668335,0.09289950132369995,-0.4225204047802694,-1.5419452902006292,-1.433373821498009,-0.9116788506507874,0.41006049513816833,-0.026310181245207787,1.0283174514770508,0.0370488241314888,0.5449846386909485
3.679870128631592,0.0278472900390625,-0.03571587800979614,0.07997769117355347,-0.4335555286932177,-1.5325606320961864,-1.4117460680179374,-0.9068145155906677,0.42010000348091125,-0.03468959033489227,0.8810436725616455,0.0022422855254262686,0.6174219250679016
3.6998770236968994,0.031153976917266846,-0.022948414087295532,0.09364205598831177,-0.4452445168640796,-1.5250478412216844,-1.3956211052669698,-0.9015612602233887,0.4306785762310028,-0.04127385839819908,0.5276234149932861,0.08870482444763184,0.5977815389633179
3.7198429107666016,0.021923542022705078,-0.03475826978683472,0.051441311836242676,-0.45711287720712496,-1.5180870711474594,-1.3860008792427159,-0.8960843086242676,0.4413592517375946,-0.04727572575211525,0.30971384048461914,0.1700812578201294,0.6531151533126831
3.739851951599121,0.05701178312301636,-0.009654819965362549,0.04753447324037552,-0.47067409196975535,-1.5112639255528126,-1.379971223959314,-0.8896838426589966,0.45348718762397766,-0.0530276745557785,0.13272815942764282,0.2713683843612671,0.7142423987388611
3.7598509788513184,0.08295989036560059,-0.024374812841415405,0.041528403759002686,-0.4848792082147756,-1.5033342152575901,-1.37800427449832,-0.8827188014984131,0.4661014974117279,-0.05964057892560959,-0.02848738804459572,0.43642836809158325,0.731334388256073
3.779849052429199,0.11494874954223633,-0.03217896819114685,0.0015239864587783813,-0.5003868235294243,-1.4936974769687954,-1.3785510004914223,-0.8747905492782593,0.4797649681568146,-0.06757929921150208,-0.11504649370908737,0.5351141691207886,0.8094727396965027
3.7996950149536133,0.13927757740020752,-0.03932639956474304,-0.008883766829967499,-0.5169565383892184,-1.482977696432745,-1.380261140596356,-0.86597740650177,0.49423667788505554,-0.07624505460262299,-0.17063431441783905,0.6328316926956177,0.8288058042526245
3.819866180419922,0.16181230545043945,-0.05497753620147705,-0.026759803295135498,-0.5338131712816301,-1.4704783123347427,-1.3814377305585028,-0.8565449714660645,0.5088196992874146,-0.08621630817651749,-0.056206513196229935,0.6589822769165039,0.8177019357681274
3.839846134185791,0.15660202503204346,-0.03709214925765991,-0.023798063397407532,-0.5491598086919776,-1.455561279109424,-1.3790167549980898,-0.847306489944458,0.5219707489013672,-0.09807389974594116,0.08488082140684128,0.7069885730743408,0.7439593076705933
3.859799861907959,0.09669387340545654,-0.06045442819595337,-0.0369105264544487,-0.5636442980888319,-1.438711696291423,-1.374982508120852,-0.837950587272644,0.5342702865600586,-0.11132857203483582,0.03905760869383812,0.7831882238388062,0.7516394853591919
3.879849910736084,0.0779876708984375,-0.06004303693771362,-0.0157802551984787,-0.5782985964529954,-1.4208931580903224,-1.373059504345769,-0.8280028700828552,0.5465999841690063,-0.1250583827495575,-0.06895029544830322,0.9023585319519043,0.7251321077346802
3.899837017059326,0.13278299570083618,-0.07665175199508667,-0.0007380098104476929,-0.5931023811898576,-1.40180947559524,-1.372158236727094,-0.8173990845680237,0.5589362382888794,-0.1394597291946411,-0.08453894406557083,0.9453610777854919,0.7528707981109619
3.919921875,0.15191954374313354,-0.05960559844970703,-0.03811848163604736,-0.6077839721088891,-1.3814710045423408,-1.3693487528313324,-0.8062469363212585,0.571049690246582,-0.1544932723045349,0.0963047444820404,0.9218772649765015,0.7371212840080261
3.93983793258667,0.1359807848930359,-0.02551567554473877,-0.054609477519989014,-0.6214533254449918,-1.3586704719378209,-1.3603669015854316,-0.7948095202445984,0.5822173953056335,-0.17117486894130707,0.3387344181537628,0.8749110102653503,0.7452733516693115
3.959834098815918,0.07350081205368042,-0.03615838289260864,-0.038400352001190186,-0.6344920261365957,-1.3319815051017394,-1.348070277711243,-0.7825157046318054,0.5927684903144836,-0.19051198661327362,0.28239327669143677,1.0739692449569702,0.7352712750434875
3.9798340797424316,0.13508844375610352,-0.06868994235992432,-0.03634798526763916,-0.6469591535707759,-1.3047063069310856,-1.3383168147503732,-0.7698388695716858,0.6027628183364868,-0.20982204377651215,0.19835405051708221,1.0464972257614136,0.7829473614692688
3.9998650550842285,0.18368029594421387,-0.06620407104492188,-0.017543494701385498,-0.6632204702115803,-1.2774853700096678,-1.3276091781487,-0.7543590068817139,0.6156578063964844,-0.22783313691616058,0.16198192536830902,1.0559698343276978,0.9619578719139099
4.019832134246826,0.18067282438278198,-0.015948057174682617,-0.017682135105133057,-0.679874256352032,-1.2492134259285306,-1.316716834242218,-0.7377865314483643,0.6286952495574951,-0.24579140543937683,0.17402687668800354,1.084320306777954,0.8571528792381287
4.039834022521973,0.20437395572662354,-0.027688980102539062,-0.05118298530578613,-0.6940929059902416,-1.2192149759114452,-1.3028024091592616,-0.7216163873672485,0.6396884918212891,-0.26470446586608887,0.36147215962409973,1.0163052082061768,0.9004577398300171
4.059934139251709,0.24809175729751587,-0.056006669998168945,-0.027112841606140137,-0.7078064474248612,-1.1866695568326018,-1.2829096607709998,-0.7044211626052856,0.6501687169075012,-0.28473109006881714,0.5821893215179443,0.9422349333763123,0.915109395980835
4.079838991165161,0.27736955881118774,-0.074551522731781,0.010034710168838501,-0.7192770725828249,-1.1513426018198625,-1.2568638405492125,-0.687067985534668,0.6588410139083862,-0.3063756227493286,0.7572488784790039,0.9025024771690369,0.9111137986183167
4.099838972091675,0.28968632221221924,-0.12183588743209839,0.020911216735839844,-0.7299523018366662,-1.1151796508506175,-1.2273888802262252,-0.6691876649856567,0.6668341159820557,-0.32790279388427734,0.7749423384666443,0.7992009520530701,0.9608781337738037
4.119832992553711,0.2760273218154907,-0.12194699048995972,0.0550234317779541,-0.7387978273752395,-1.0801063529547559,-1.1979772343547754,-0.6520496606826782,0.6733996868133545,-0.348373681306839,0.7922251224517822,0.7545808553695679,0.8392971754074097
4.139845848083496,0.2849794030189514,-0.11796724796295166,0.04078572988510132,-0.7456341711994807,-1.0460059355572855,-1.168220168458296,-0.6357942223548889,0.6784378290176392,-0.3680868148803711,0.7817007899284363,0.6181721091270447,0.8265911340713501
4.159839153289795,0.29653024673461914,-0.1180809736251831,0.06633347272872925,-0.7517882062151916,-1.015319479854202,-1.1392050884209164,-0.6206421852111816,0.6829460859298706,-0.38521167635917664,0.7245362401008606,0.4930327534675598,0.8111533522605896
4.179841995239258,0.3224547505378723,-0.0770413875579834,0.10484302043914795,-0.7581455012610555,-0.9868608292817004,-1.1102899644663111,-0.6057952046394348,0.6875760555267334,-0.40031421184539795,0.7075158357620239,0.3979281783103943,0.8648187518119812
4.199859142303467,0.3221786618232727,-0.035793960094451904,0.09945327043533325,-0.7653318818365998,-0.9608163888687826,-1.0811371187715237,-0.5910995602607727,0.6927763819694519,-0.41311296820640564,0.6508163809776306,0.1711541712284088,0.9122330546379089
4.219827175140381,0.30384188890457153,0.006871700286865234,0.0716252326965332,-0.7715258534456959,-0.9379112529953253,-1.0496838434312143,-0.5780118107795715,0.6972298622131348,-0.4239964485168457,0.9230707883834839,-0.07826356589794159,0.9022839069366455
4.239824056625366,0.28344738483428955,0.07496422529220581,0.06813406944274902,-0.7700048153193542,-0.9115537862312171,-1.0053175277087234,-0.5674744248390198,0.6961386799812317,-0.4397313594818115,1.7424554824829102,-0.35178184509277344,0.8989412784576416
4.259834051132202,0.17999017238616943,0.026852726936340332,0.2341124415397644,-0.7636698578358285,-0.877830829206037,-0.9567561427459682,-0.5557073354721069,0.6915768384933472,-0.4614226222038269,0.35122328996658325,0.7600343227386475,0.8785881996154785
4.27982497215271,-0.07364284992218018,-0.44821619987487793,-0.29181718826293945,-0.7794030559021828,-0.869045827961885,-0.9571696272259426,-0.5432547926902771,0.7028549313545227,-0.4592052102088928,-0.625359058380127,-0.2150198221206665,0.06815852224826813
4.299829959869385,-0.3511292338371277,-0.18002456426620483,-0.5790985822677612,-0.7706839127490714,-0.8605321096412305,-0.9450763332856577,-0.5439512729644775,0.6966260671615601,-0.4677916467189789,2.3212902545928955,0.5087605714797974,0.440045565366745
4.319825172424316,0.09582185745239258,0.5194053649902344,-0.0998220443725586,-0.7404364243987108,-0.7969267539957028,-0.8691148538133555,-0.5279507637023926,0.6746101379394531,-0.5159158706665039,3.4850218296051025,0.28552690148353577,0.4068971574306488
4.339829921722412,0.1568371057510376,0.13044464588165283,0.13071036338806152,-0.6877481996407198,-0.756212871222967,-0.803832072656239,-0.5301891565322876,0.6347988843917847,-0.5620763301849365,3.397334098815918,-0.4253624677658081,-0.2828485071659088
4.359832048416138,0.16153430938720703,0.004258692264556885,0.2194894552230835,-0.646332730537903,-0.7366254857580532,-0.754148930632585,-0.536290168762207,0.6022629141807556,-0.5913309454917908,2.4133083820343018,-0.6377561092376709,0.4255840480327606
4.379825115203857,0.04027748107910156,-0.01238328218460083,0.09236466884613037,-0.6218165337430198,-0.7191964242164032,-0.7035366894849179,-0.5354709029197693,0.582512617111206,-0.6115145087242126,2.166597366333008,-0.6101455092430115,0.8762311935424805
4.399816989898682,-0.06351393461227417,0.03304624557495117,0.02573263645172119,-0.5992028605348735,-0.7032015575878153,-0.6544204029102149,-0.5340049862861633,0.5639843940734863,-0.6298891305923462,2.3983614444732666,-0.6730602979660034,0.6167277693748474
4.41982889175415,-0.036085665225982666,0.06297779083251953,0.20477145910263062,-0.5616192464677139,-0.6904403411958006,-0.6078180807650136,-0.5390485525131226,0.5325574278831482,-0.6525406241416931,2.6643147468566895,-0.4268616735935211,0.0009062840836122632
4.4398980140686035,-0.1445392370223999,-0.2895401120185852,0.14467912912368774,-0.5218782223676559,-0.6824562606643656,-0.5697994901052349,-0.5467449426651001,0.4985092282295227,-0.6727247834205627,2.3652873039245605,-0.6293893456459045,0.2599475383758545
4.459816932678223,-0.08184760808944702,-0.14792400598526,0.23955756425857544,-0.49872618609333264,-0.6739583594818916,-0.5333359267832577,-0.548065721988678,0.4783072769641876,-0.6861822605133057,1.6701147556304932,-0.4769982397556305,0.5550742149353027
4.479825973510742,-0.05716782808303833,-0.0169217586517334,0.18589460849761963,-0.47508322921901314,-0.6716540119397771,-0.49925628515767534,-0.5533668398857117,0.457412451505661,-0.6961027979850769,2.135496139526367,-0.8834868669509888,0.41191771626472473
4.499855041503906,-0.07391434907913208,0.22831422090530396,0.2282513976097107,-0.44271415624654925,-0.6726205868276485,-0.45939242089905163,-0.5629722476005554,0.42839354276657104,-0.7067822813987732,2.657120704650879,-1.0089046955108643,0.2532598674297333
4.519816875457764,-0.14815235137939453,0.04503011703491211,0.29610317945480347,-0.4016403878067806,-0.6756464951856929,-0.419843777251845,-0.5756330490112305,0.390928715467453,-0.718207061290741,2.6482157707214355,-0.7996394038200378,0.09827618300914764
4.539825916290283,0.0592305064201355,0.012212961912155151,0.3194533586502075,-0.3678042465911126,-0.6757008731795086,-0.38119649064541206,-0.5836140513420105,0.35956740379333496,-0.7280837297439575,2.174539089202881,-0.7066298723220825,0.6158075332641602
4.559814929962158,0.1424046754837036,-0.09880730509757996,0.23949384689331055,-0.35302760226816315,-0.6820381505169849,-0.3488893640502103,-0.5915013551712036,0.34574028849601746,-0.7284159660339355,0.8300090432167053,-1.0968514680862427,0.7360809445381165
4.579843044281006,0.0019940733909606934,-0.28451007604599,0.09403014183044434,-0.3543811651768042,-0.6955346507442084,-0.3296951767313701,-0.6009778380393982,0.3470100462436676,-0.7200067639350891,0.35288238525390625,-0.8312220573425293,0.7697383761405945
4.599820137023926,-0.03898942470550537,-0.07995730638504028,-0.03778207302093506,-0.3588171748882182,-0.7022857801096213,-0.31253535966544166,-0.6048246622085571,0.3511669933795929,-0.7147509455680847,0.5024974942207336,-0.49154725670814514,0.672767162322998
4.619821071624756,0.028748750686645508,-0.03763347864151001,-0.22340917587280273,-0.352115650265853,-0.7062011846204365,-0.29293295489673726,-0.6091321110725403,0.3448844254016876,-0.7141518592834473,1.1059643030166626,-0.6792486310005188,0.3089762330055237
4.639820098876953,0.05515795946121216,-0.131736159324646,-0.08161365985870361,-0.3375093361861478,-0.7159503708207416,-0.2734514479982507,-0.6193059086799622,0.3311379849910736,-0.7119044661521912,1.1073075532913208,-0.8899271488189697,0.17905591428279877
4.659864902496338,0.07654327154159546,-0.20411929488182068,0.0441511869430542,-0.3272218942127227,-0.7284516977117914,-0.2557036308766099,-0.630391538143158,0.3214135766029358,-0.7066115140914917,0.7301400303840637,-0.8943873643875122,0.5221348404884338
4.679818153381348,0.16372430324554443,-0.15579482913017273,0.1425020694732666,-0.3274314989745388,-0.7448872062913674,-0.23597859494988715,-0.6418737173080444,0.32161206007003784,-0.6961062550544739,0.5672094225883484,-1.4150876998901367,0.7431235909461975
4.699815988540649,0.1638818383216858,-0.14078181982040405,0.21559178829193115,-0.32933543258384557,-0.7712602912324927,-0.21911649777815556,-0.6595788598060608,0.32341423630714417,-0.6784976720809937,0.4311803877353668,-1.8086644411087036,0.5200621485710144
4.719819068908691,0.1312224268913269,-0.1996961534023285,0.2630597949028015,-0.331723084050059,-0.8070012012635797,-0.20714162716532375,-0.6828429102897644,0.3256726562976837,-0.6539593935012817,0.09891098737716675,-2.074706554412842,0.5716548562049866
4.739818096160889,0.025833308696746826,-0.2082296907901764,0.15733033418655396,-0.3432572084009933,-0.8477036998544063,-0.19867467840795094,-0.7060242891311646,0.336556077003479,-0.6231048703193665,-0.3358252942562103,-2.1908462047576904,0.8638688921928406
4.759840965270996,-0.20242935419082642,-0.011229157447814941,0.03503406047821045,-0.3602326241682868,-0.8897181733119204,-0.1898719968116438,-0.7270292639732361,0.35249194502830505,-0.5892180800437927,-0.018541119992733,-2.2377777099609375,0.752528190612793
4.779814004898071,-0.5176164507865906,0.05050739645957947,-0.014953076839447021,-0.3628596141888949,-0.9259513847599669,-0.18183473898575267,-0.7471539974212646,0.35494908690452576,-0.5619359016418457,0.4027888774871826,-1.5649986267089844,0.004592393524944782
4.7999348640441895,-0.511224091053009,-0.10983023047447205,-0.03706282377243042,-0.35985634518385046,-0.949325845706703,-0.17752977609221718,-0.7609469294548035,0.35213977098464966,-0.5449379086494446,-0.02650168165564537,-1.011077880859375,0.06137692555785179
4.819805145263672,-0.4488915801048279,-0.15507575869560242,-0.07412046194076538,-0.36434689052962665,-0.9677038663368744,-0.18322483851486243,-0.7695226669311523,0.35633912682533264,-0.5299597382545471,-0.5714830160140991,-0.6091928482055664,0.0035982897970825434
4.839846134185791,-0.3922109007835388,-0.14085286855697632,-0.09644889831542969,-0.373899815708976,-0.9791466434432287,-0.19481813142427032,-0.7726755142211914,0.36524859070777893,-0.519197404384613,-0.8592221140861511,-0.10701558738946915,0.18112662434577942
4.8599019050598145,-0.2823254466056824,-0.12841561436653137,-0.03716146945953369,-0.3864690491388389,-0.98220102900107,-0.20811420350426219,-0.7703784108161926,0.37692025303840637,-0.5142453908920288,-0.7852399945259094,0.25230637192726135,0.15739324688911438
4.879806041717529,-0.14671969413757324,-0.11698088049888611,0.027902185916900635,-0.3957550464360476,-0.9792591937826616,-0.2180226308214975,-0.7659237384796143,0.38550499081611633,-0.5145354270935059,-0.5222514867782593,0.4129117727279663,0.10867293179035187
4.8998119831085205,-0.07099425792694092,-0.18101388216018677,0.05642068386077881,-0.40281806220655825,-0.9730451526789362,-0.22619704086504613,-0.7604418992996216,0.3920123875141144,-0.5177396535873413,-0.5271902084350586,0.5111398100852966,0.06414753943681717
4.9198219776153564,-0.018632233142852783,-0.19989410042762756,0.04639303684234619,-0.4106988368439612,-0.9666725467136436,-0.2361604596047982,-0.754561185836792,0.3992501497268677,-0.5208040475845337,-0.7001625299453735,0.4873228669166565,0.07796924561262131
4.939800024032593,0.016781985759735107,-0.16258427500724792,0.045175373554229736,-0.4215568733820826,-0.9642812435114252,-0.25080572418133473,-0.7497073411941528,0.40918153524398804,-0.5201051235198975,-1.0381267070770264,0.34878212213516235,0.037750668823719025
4.959824085235596,0.029118061065673828,-0.12306299805641174,0.032334327697753906,-0.4343523555088929,-0.9672503312836105,-0.2717845088596474,-0.7468762397766113,0.42082297801971436,-0.5148630142211914,-1.2257806062698364,0.22907038033008575,-0.07165589183568954
4.979801177978516,0.0473514199256897,-0.05259469151496887,0.0478290319442749,-0.44605441947195795,-0.9731764592978649,-0.2951417123372778,-0.745792031288147,0.4314093589782715,-0.5076221227645874,-1.144484281539917,0.1771831214427948,-0.15516617894172668
4.999804973602295,0.07876592874526978,0.00787508487701416,0.062028586864471436,-0.45427475465965256,-0.9794389792740621,-0.3163806729687162,-0.7459871172904968,0.4388107359409332,-0.5009477138519287,-0.9062898755073547,0.12099858373403549,-0.24281039834022522
5.019798040390015,0.10791283845901489,0.028058230876922607,0.07101011276245117,-0.4590566798370077,-0.9861558173709513,-0.3354770479931714,-0.7475765347480774,0.4431026577949524,-0.49476197361946106,-0.8139966130256653,0.05324554815888405,-0.30052804946899414
5.039794921875,0.1383339762687683,0.04488632082939148,0.03749895095825195,-0.4636943240894625,-0.9937577560956005,-0.35393065384316175,-0.7495858073234558,0.44725537300109863,-0.48793840408325195,-0.8391151428222656,-0.006026030518114567,-0.21849007904529572
5.059823989868164,0.17218661308288574,0.0831516683101654,0.010538995265960693,-0.469832557730039,-1.0041385777767855,-0.37366798195670875,-0.752280056476593,0.4527370035648346,-0.4786481261253357,-0.9876998662948608,-0.15571299195289612,-0.22668346762657166
5.079426050186157,0.23907876014709473,0.14288443326950073,-0.024360358715057373,-0.47710804649984007,-1.0193038138590647,-0.3951237880623442,-0.7566264271736145,0.4592120945453644,-0.465446799993515,-0.9629813432693481,-0.3960948884487152,-0.16158708930015564
5.099806070327759,0.3093717098236084,0.26430544257164,-0.06346246600151062,-0.4822258765314744,-1.037032551471805,-0.4114215883655673,-0.7627255916595459,0.4637523591518402,-0.4507586658000946,-0.4890662729740143,-0.6372027397155762,-0.1685500591993332
5.1198039054870605,0.3832760453224182,0.3592884838581085,-0.10365208983421326,-0.4809895298006041,-1.0547929532943394,-0.4161976567913257,-0.7711086869239807,0.4626566469669342,-0.43742457032203674,0.19835610687732697,-0.9325203895568848,-0.11248298734426498
5.139867067337036,0.42172181606292725,0.41673022508621216,-0.16109710931777954,-0.47712938576305863,-1.0715839951518678,-0.4071642334398063,-0.779906690120697,0.45923104882240295,-0.42526763677597046,0.602886438369751,-1.155048131942749,0.16281788051128387
5.1597819328308105,0.38541972637176514,0.47534456849098206,-0.1850588023662567,-0.4752519315659521,-1.08964162974886,-0.39128373431239366,-0.7882212400436401,0.45756247639656067,-0.4115140438079834,0.7401824593544006,-1.3700140714645386,0.3211231529712677
5.179813861846924,0.3383200764656067,0.5550487041473389,-0.21622344851493835,-0.4753979909025496,-1.1078393520343652,-0.37068495239169513,-0.7955191135406494,0.45769235491752625,-0.39707303047180176,0.8793264627456665,-1.3672196865081787,0.5388651490211487
5.310579061508179,0.3205806612968445,0.5648775100708008,-0.21152162551879883,-0.47852158644998105,-1.1232633229159654,-0.34565883410781545,-0.8002560138702393,0.4604673385620117,-0.3841356933116913,0.9883511066436768,-1.3473254442214966,0.7032493352890015
5.380743980407715,0.3361087441444397,0.5776640772819519,-0.20720970630645752,-0.48351336110531606,-1.136677355322084,-0.315964194644852,-0.8032413125038147,0.4648926556110382,-0.3723953664302826,1.2203975915908813,-1.3656920194625854,0.8904752135276794
5.4065399169921875,0.2336183786392212,0.5035954713821411,-0.15377217531204224,-0.5055677983242148,-1.1484179380269894,-0.18276082408630923,-0.7980104684829712,0.484304279088974,-0.35864847898483276,1.9220713376998901,-1.155514121055603,1.3487790822982788
5.42316198348999,0.024127960205078125,0.35953646898269653,-0.03972905874252319,-0.5276986529621472,-1.1243017804147393,-0.009931416224373763,-0.7792701721191406,0.5035463571548462,-0.3730669915676117,2.1591975688934326,-0.8396080136299133,1.3482375144958496
5.443073987960815,-0.029654324054718018,0.10821801424026489,0.1443745493888855,-0.5509845799142274,-1.0687359478430682,0.1866806802602408,-0.746865451335907,0.5235263705253601,-0.410014808177948,1.2907812595367432,-0.34497007727622986,1.027497410774231
5.45983099937439,-0.0008270144462585449,0.04456526041030884,0.21982711553573608,-0.5588937156191759,-1.0440672471563754,0.25523708447861143,-0.7329224348068237,0.5302485823631287,-0.42621752619743347,1.0403205156326294,-0.27963778376579285,0.7341590523719788
5.47979998588562,-0.00228041410446167,-0.008348047733306885,0.2587510943412781,-0.5608516468348794,-1.0356214011326637,0.28152245685236676,-0.7284019589424133,0.5319075584411621,-0.4318619966506958,0.7572695016860962,-0.27686843276023865,0.5529170632362366
5.499799013137817,-0.005761921405792236,-0.058738887310028076,0.29113322496414185,-0.5634741135051701,-1.032220565757706,0.2980093316104989,-0.72572922706604,0.5341264605522156,-0.43361979722976685,0.2892434895038605,-0.27805763483047485,0.3682069480419159
5.519795894622803,-0.0013626813888549805,-0.10193765163421631,0.3170710802078247,-0.5683743421061093,-1.035587862124098,0.30162658814870075,-0.7249252200126648,0.538262665271759,-0.4298335611820221,-0.26647520065307617,-0.27606070041656494,0.18580955266952515
5.539478063583374,0.011055946350097656,-0.1117674708366394,0.32605770230293274,-0.5748733210448433,-1.0456936313955667,0.2929676244396986,-0.7261895537376404,0.5437284708023071,-0.42072319984436035,-0.6433586478233337,-0.2652508616447449,0.0030794446356594563
5.559841156005859,0.024990558624267578,-0.08157438039779663,0.30801254510879517,-0.5804883038898916,-1.0595126912203991,0.27704616725040876,-0.7292600274085999,0.5484322905540466,-0.40914782881736755,-0.7825735211372375,-0.26087066531181335,-0.1820434331893921
5.579769134521484,0.03696638345718384,-0.07454919815063477,0.29719412326812744,-0.5835314110268972,-1.0768382771527023,0.2564335345705409,-0.7347661256790161,0.550974428653717,-0.39565911889076233,-0.8824695348739624,-0.35535234212875366,-0.3786240816116333
5.599786996841431,0.015734970569610596,-0.10051000118255615,0.2996700406074524,-0.5841050035317791,-1.0986482797298147,0.2312050295374363,-0.7429383397102356,0.5514529943466187,-0.3793971836566925,-1.0245938301086426,-0.4090307652950287,-0.5396935343742371
5.6197829246521,-0.0014116168022155762,-0.12993037700653076,0.3055470883846283,-0.5833568443460139,-1.122870615134135,0.20062245657851416,-0.7522810101509094,0.5508286952972412,-0.361470490694046,-1.2420622110366821,-0.3193401098251343,-0.6635118722915649
5.639791011810303,0.03525954484939575,-0.14315223693847656,0.3003160357475281,-0.5814477470291946,-1.148216120991314,0.164482333445975,-0.7621577978134155,0.5492343306541443,-0.3427201807498932,-1.405258297920227,-0.26239147782325745,-0.7772605419158936
5.659801959991455,0.07282638549804688,-0.11750739812850952,0.28960978984832764,-0.5779339382743649,-1.1768464972902153,0.12473370281599128,-0.7734336853027344,0.5462945699691772,-0.32150065898895264,-1.4827122688293457,-0.4552608132362366,-0.8793700933456421
5.679778099060059,-0.0035052895545959473,-0.08663028478622437,0.25040215253829956,-0.570690219492381,-1.2100350186124802,0.08438352363827292,-0.7873578071594238,0.5402129888534546,-0.29704827070236206,-1.3779278993606567,-0.6509447693824768,-1.0680350065231323
5.6997761726379395,-0.13334953784942627,-0.041210711002349854,0.2025025486946106,-0.556455357953967,-1.2430062236539288,0.04732312073980845,-0.803921639919281,0.5281796455383301,-0.2733796238899231,-1.0636569261550903,-0.6374141573905945,-1.3444081544876099
5.719778060913086,-0.18685495853424072,0.008172094821929932,0.15033367276191711,-0.5336788329931508,-1.2688620625951392,0.018142954429373293,-0.8219950795173645,0.5087040066719055,-0.2560160160064697,-0.6029574275016785,-0.4070618748664856,-1.5779327154159546
5.739778995513916,-0.07729661464691162,0.049176424741744995,0.08538195490837097,-0.5051285325028771,-1.2859447943715914,-0.001244061191219017,-0.8398482799530029,0.4839199185371399,-0.24591967463493347,-0.1885415017604828,-0.399758517742157,-1.6231975555419922
5.759778022766113,0.03725939989089966,0.06790336966514587,0.04491336643695831,-0.4754761714524185,-1.3003696379476761,-0.01102321625446767,-0.8567631244659424,0.45776185393333435,-0.23750978708267212,0.12986589968204498,-0.5883774757385254,-1.4440020322799683
5.779778003692627,0.008355855941772461,0.03799852728843689,0.025946080684661865,-0.4492007465074042,-1.3145317686109297,-0.014790971945774226,-0.8713777661323547,0.4342457056045532,-0.22832337021827698,0.19858556985855103,-0.6494511961936951,-1.2042949199676514
5.799782991409302,-0.12978297472000122,0.04187282919883728,0.03709113597869873,-0.4269934300760057,-1.328510580815061,-0.01865175136611664,-0.883629560470581,0.41413605213165283,-0.21838082373142242,-0.016780372709035873,-0.5683183073997498,-1.0492671728134155
5.819797039031982,-0.28329092264175415,0.08326399326324463,0.023057609796524048,-0.4084855228762268,-1.3420488825059904,-0.027238827529335746,-0.8938177824020386,0.3972199261188507,-0.20810091495513916,-0.32820335030555725,-0.4306398034095764,-0.9483657479286194
5.839779853820801,-0.3758261203765869,0.12714850902557373,0.015958696603775024,-0.3930402659121169,-1.3546283944135822,-0.042241632928124856,-0.9022502303123474,0.38299861550331116,-0.19813337922096252,-0.6600283980369568,-0.2413695752620697,-0.860868513584137
5.859748840332031,-0.3375782370567322,0.13006994128227234,-0.02577553689479828,-0.38077384181060897,-1.364934846757151,-0.061410294637665834,-0.9087749123573303,0.3716389834880829,-0.18977010250091553,-0.7988374829292297,-0.09302564710378647,-0.7027245163917542
5.879716873168945,-0.19996178150177002,0.15967896580696106,-0.08116064965724945,-0.37243068348251757,-1.3734426035693235,-0.08108465225576032,-0.9133651852607727,0.36388054490089417,-0.18263329565525055,-0.7843272686004639,-0.05775793269276619,-0.49513766169548035
5.898861885070801,-0.04371768236160278,0.17037510871887207,-0.1446787565946579,-0.3674230103540091,-1.3808568211022116,-0.09638190885785589,-0.9164721369743347,0.35921162366867065,-0.17619827389717102,-0.48695051670074463,-0.132040873169899,-0.28689315915107727
5.919790983200073,0.07349705696105957,0.16242331266403198,-0.1701812595129013,-0.36546384446938335,-1.3867100417987792,-0.10321868772815643,-0.9181777834892273,0.35738253593444824,-0.1709594577550888,-0.10557293891906738,-0.20555245876312256,-0.046758972108364105
5.939779043197632,0.11937212944030762,0.11208686232566833,-0.17719323933124542,-0.3664745669824249,-1.390934446711418,-0.10202344282155665,-0.9185361266136169,0.35832634568214417,-0.16701452434062958,0.17790700495243073,-0.24825827777385712,0.12811903655529022
5.959775924682617,0.11528736352920532,0.06617948412895203,-0.17435336112976074,-0.3694931886569255,-1.3932649242377306,-0.09635306705978565,-0.9178539514541626,0.3611428737640381,-0.16468165814876556,0.26343247294425964,-0.180813729763031,0.23725076019763947
5.979820966720581,0.1072283387184143,0.02296176552772522,-0.17816095054149628,-0.37442838389919075,-1.3935942776980534,-0.09103743891129294,-0.916142463684082,0.365740567445755,-0.16406315565109253,0.10599550604820251,-0.03955824673175812,0.31428202986717224
5.999755859375,0.10704511404037476,-0.017092883586883545,-0.18052341043949127,-0.3815212243759174,-1.3928357611246478,-0.09010800840374594,-0.9134417772293091,0.37233275175094604,-0.16429468989372253,-0.13535936176776886,0.057071179151535034,0.3517757058143616
6.019757032394409,0.09754902124404907,-0.027911007404327393,-0.18670551478862762,-0.38836965360840914,-1.392606499538005,-0.09394786267964526,-0.9108729958534241,0.3786799907684326,-0.16404825448989868,-0.3582671880722046,0.0835321694612503,0.24967510998249054
6.039777040481567,0.12021076679229736,-0.03212490677833557,-0.16419391334056854,-0.3946453260114492,-1.3943506255679965,-0.10293039092197878,-0.9088002443313599,0.3844808042049408,-0.16203898191452026,-0.5438862442970276,0.06777655333280563,0.20983463525772095
6.059731960296631,0.12336277961730957,-0.004493623971939087,-0.17237137258052826,-0.39956215680069374,-1.3982869909456948,-0.11388764675415049,-0.9075576663017273,0.3890150189399719,-0.15813395380973816,-0.48487672209739685,-0.05504710227251053,0.08177512139081955
6.079773902893066,0.11651402711868286,0.045230209827423096,-0.19745492935180664,-0.4007103340617037,-1.4038831086646182,-0.12104802335488149,-0.9079874157905579,0.3900724947452545,-0.15297840535640717,-0.14405736327171326,-0.2249150574207306,-0.08731690794229507
6.099772930145264,0.10975676774978638,0.06977367401123047,-0.24325984716415405,-0.39659620331362766,-1.4090354452011766,-0.11888318479537549,-0.9103397130966187,0.38628098368644714,-0.14855533838272095,0.39534640312194824,-0.37482750415802,-0.2851001024246216
6.119807004928589,0.12676972150802612,0.08246749639511108,-0.23702973127365112,-0.3875493539251441,-1.4137459630996008,-0.10831810958912257,-0.9144436717033386,0.37792065739631653,-0.14480622112751007,0.6688337326049805,-0.488803505897522,-0.44922196865081787
6.139762878417969,0.1459791660308838,0.05574062466621399,-0.21204444766044617,-0.3756222410103257,-1.4193415181849516,-0.09594963570367941,-0.9196301698684692,0.36685144901275635,-0.14035725593566895,0.5979535579681396,-0.5279872417449951,-0.5544885993003845
6.159764051437378,0.17787384986877441,0.053596436977386475,-0.17527525126934052,-0.36260756291047175,-1.426547463607411,-0.08764001917497724,-0.9252645373344421,0.35471343994140625,-0.1344018578529358,0.353837788105011,-0.4804497957229614,-0.6137472987174988
6.179779052734375,0.2210642695426941,0.09720119833946228,-0.17166630923748016,-0.3497184682615033,-1.4348115536996011,-0.08402222024328372,-0.9307963252067566,0.34263333678245544,-0.12736013531684875,0.19114074110984802,-0.5112250447273254,-0.6204131841659546
6.199763059616089,0.20829319953918457,0.15094152092933655,-0.20699548721313477,-0.3368372757853554,-1.4452942442281762,-0.08129540292255655,-0.9363816380500793,0.33050376176834106,-0.11813875287771225,0.27506130933761597,-0.6312676072120667,-0.6312400698661804
6.220008850097656,0.11669427156448364,0.2153530716896057,-0.23590447008609772,-0.3231392332730639,-1.4560888756663912,-0.07477620352330766,-0.9420117735862732,0.3175448775291443,-0.10853220522403717,0.515426754951477,-0.6424069404602051,-0.667233407497406
6.23980188369751,0.023833096027374268,0.2816670835018158,-0.2295209765434265,-0.30745891259873276,-1.464611886707722,-0.06219573839230015,-0.9477375745773315,0.3026376962661743,-0.10101491957902908,0.8402606248855591,-0.5970318913459778,-0.7521576285362244
6.259768962860107,-0.051079630851745605,0.3257274031639099,-0.1721610426902771,-0.2908593711084977,-1.4715586199973711,-0.044907041085291165,-0.9532843828201294,0.2867756187915802,-0.0949135348200798,0.9320462346076965,-0.6275722980499268,-0.7173572182655334
6.279762029647827,-0.2086760401725769,0.34968242049217224,-0.1605040431022644,-0.27527129185372445,-1.478667821034345,-0.02772334069012627,-0.9582703709602356,0.27180802822113037,-0.0885346457362175,0.8440222144126892,-0.508428156375885,-0.6911622881889343
6.299768924713135,-0.2838693857192993,0.3879829943180084,-0.1526445746421814,-0.26088610545396596,-1.4811877030623968,-0.013050769698285907,-0.9622854590415955,0.2579367756843567,-0.08646061271429062,0.7117512226104736,-0.1498796045780182,-0.599281907081604
6.3198981285095215,-0.15996301174163818,0.399936318397522,-0.13265615701675415,-0.2505339698949073,-1.4783153871128802,0.00011650128327256848,-0.9646403193473816,0.24792128801345825,-0.08946605026721954,0.647323489189148,0.06935030966997147,-0.30757084488868713
6.33975887298584,-0.018633246421813965,0.398957222700119,-0.047564923763275146,-0.24763957812584803,-1.4729521543252606,0.011742426389952064,-0.9648568034172058,0.2451162338256836,-0.09470803290605545,0.4902804493904114,0.15134769678115845,0.12686654925346375
6.359766960144043,-0.01474308967590332,0.3633390963077545,0.018100067973136902,-0.2538025982376831,-1.468021552278587,0.021519070594857886,-0.962857186794281,0.2510865330696106,-0.09930732846260071,0.42259708046913147,0.08954674750566483,0.5635026097297668
6.379756927490234,-0.15327739715576172,0.3767417371273041,-0.0065031498670578,-0.266729517038821,-1.462741064875042,0.03456777175432062,-0.959011971950531,0.26357802748680115,-0.10403149574995041,0.8031492829322815,0.13121242821216583,0.811029851436615
6.399755954742432,-0.20731514692306519,0.42272067070007324,-0.060579538345336914,-0.28046574788442646,-1.4523964657068984,0.06173878184562005,-0.9541991949081421,0.27680322527885437,-0.1135079488158226,1.6943734884262085,0.13975673913955688,0.8357071280479431
6.419796943664551,-0.09391844272613525,0.41533905267715454,-0.05461035668849945,-0.29186632742023244,-1.4380217175688619,0.10902239583771307,-0.9492791295051575,0.2877401113510132,-0.12678608298301697,2.633352756500244,-0.06405950337648392,0.8968420624732971
6.439779043197632,-0.03161120414733887,0.33415186405181885,0.036222994327545166,-0.30332087951716336,-1.4226651973350182,0.17160910888672098,-0.9438984394073486,0.29869112372398376,-0.14085249602794647,3.046252727508545,-0.19753243029117584,1.0724008083343506
6.459768056869507,-0.09071201086044312,0.22837650775909424,0.10250586271286011,-0.3162357085022016,-1.4048984593406086,0.23841911327605003,-0.9373642206192017,0.3109911382198334,-0.1569492369890213,3.0012972354888916,-0.02109002321958542,1.2031317949295044
6.479750156402588,-0.1011430025100708,0.151445209980011,0.14164374768733978,-0.3318942101888727,-1.3819111917142388,0.30178733471751085,-0.9286117553710938,0.3258344531059265,-0.1775171309709549,2.6021692752838135,0.3132323920726776,1.4183903932571411
6.499752998352051,-0.054901838302612305,0.06646639108657837,0.18770195543766022,-0.352712460684933,-1.3549135890182271,0.3562722511639097,-0.9166557788848877,0.34544456005096436,-0.20102281868457794,2.0166687965393066,0.5491834282875061,1.6722780466079712
6.5197529792785645,-0.04213511943817139,0.014609843492507935,0.20888537168502808,-0.38031028453112237,-1.3253537226105496,0.4008460249838062,-0.9007207751274109,0.3712086081504822,-0.22562424838542938,1.4114549160003662,0.7945575714111328,1.9615925550460815
6.539863109588623,-0.05863922834396362,-0.038670241832733154,0.22581124305725098,-0.41474715559221986,-1.2938998224408593,0.43656782064883504,-0.8803561925888062,0.40295854210853577,-0.2501947581768036,0.8809287548065186,0.9577280879020691,2.2057547569274902
6.55975604057312,-0.07209205627441406,-0.06195071339607239,0.2893402874469757,-0.4548029008326441,-1.2617210472290574,0.46463557724618426,-0.8557796478271484,0.4392852485179901,-0.27325746417045593,0.440264493227005,1.0838581323623657,2.364861249923706
6.5797600746154785,-0.11920177936553955,-0.09608814120292664,0.3557680547237396,-0.49818560241930415,-1.227501749988048,0.48880859325089615,-0.8271940350532532,0.47783246636390686,-0.29567891359329224,0.22383393347263336,1.2586514949798584,2.4328858852386475
6.599761009216309,-0.13996464014053345,-0.14449328184127808,0.3732459843158722,-0.542226868176209,-1.1894110689805024,0.5122091447891773,-0.7950176000595093,0.5160447359085083,-0.3188178539276123,0.13186831772327423,1.366048812866211,2.409162759780884
6.619907855987549,-0.1351746916770935,-0.19019854068756104,0.38067132234573364,-0.5850166465086065,-1.1505830337488543,0.5355046966243209,-0.761172354221344,0.5522132515907288,-0.34011343121528625,0.0057213143445551395,1.2656062841415405,2.2930593490600586
6.639770984649658,-0.1330966353416443,-0.23799735307693481,0.39907366037368774,-0.6254791211019657,-1.1147161438888578,0.5566099142807752,-0.727819561958313,0.5854857563972473,-0.35705095529556274,-0.15844179689884186,1.1240848302841187,2.1011314392089844
6.659703969955444,-0.1401311159133911,-0.2721007466316223,0.4130527973175049,-0.6622457412022267,-1.0831922169911963,0.5739329798273857,-0.6967067122459412,0.6148894429206848,-0.3694736957550049,-0.2596503496170044,1.0022788047790527,1.8078653812408447
6.67977499961853,-0.11467742919921875,-0.2943238615989685,0.420265257358551,-0.6936004005402653,-1.0564854408055726,0.5881701408076266,-0.6694718599319458,0.639309823513031,-0.3782730996608734,-0.26818791031837463,0.7623263001441956,1.4828622341156006
6.699779987335205,-0.050671279430389404,-0.3031997084617615,0.4219909906387329,-0.7185610816685546,-1.035916884070632,0.600507501838677,-0.6476166844367981,0.6583021879196167,-0.3837066888809204,-0.16576366126537323,0.4896162152290344,1.160139799118042
6.719790935516357,-0.01653885841369629,-0.3429110646247864,0.40562498569488525,-0.7375002771201541,-1.0215877825236395,0.6119770343144418,-0.631303608417511,0.6724398136138916,-0.38636839389801025,-0.06046460196375847,0.17145705223083496,0.9030982255935669
6.739729881286621,-0.02889835834503174,-0.35173285007476807,0.3627203106880188,-0.750110194590795,-1.01334374657232,0.6238683756948912,-0.620851457118988,0.6817193627357483,-0.3870428204536438,0.16084951162338257,-0.17324946820735931,0.613959014415741
6.759902000427246,-0.08896511793136597,-0.3317314386367798,0.3110019564628601,-0.7543773438576415,-1.0115496014519716,0.6372274804976789,-0.6176847219467163,0.6848350763320923,-0.3866092562675476,0.4406157433986664,-0.545628547668457,0.26019635796546936
6.779752969741821,-0.17228370904922485,-0.31510651111602783,0.29179656505584717,-0.7499779388003077,-1.015558445473247,0.6510082462269667,-0.6217837333679199,0.6816226243972778,-0.3857143819332123,0.6200600862503052,-0.7691012024879456,-0.1009255051612854
6.799881935119629,-0.22715133428573608,-0.33374232053756714,0.31919318437576294,-0.7396488785174868,-1.0251658406015725,0.6606230603041244,-0.6314455270767212,0.6740285754203796,-0.38335639238357544,0.4666576385498047,-0.8252348899841309,-0.40205180644989014
6.819751024246216,-0.2158326506614685,-0.3726969361305237,0.3390520215034485,-0.7283854917449625,-1.0408585815767302,0.659590776458118,-0.6438933610916138,0.6656656861305237,-0.3772142231464386,0.04116594046354294,-0.6610652804374695,-0.590530276298523
6.839778900146484,-0.15523368120193481,-0.39164048433303833,0.27145916223526,-0.7184203313484908,-1.0607408479109914,0.6477959796933414,-0.65702223777771,0.6581962704658508,-0.3675589859485626,-0.2764976918697357,-0.5838409066200256,-0.7304207682609558
6.859935998916626,-0.1299768090248108,-0.3244217038154602,0.12697049975395203,-0.7061576059916957,-1.0847481178215082,0.630197966140991,-0.6727423071861267,0.6489150524139404,-0.35542502999305725,-0.24509799480438232,-0.7079317569732666,-1.0222378969192505
6.879819869995117,-0.16902309656143188,-0.2625555396080017,0.06532737612724304,-0.6858273851917007,-1.1127948493375646,0.6127517507933433,-0.6941360831260681,0.6333135366439819,-0.34218278527259827,-0.05766928568482399,-0.9984356164932251,-1.4197661876678467
6.899777889251709,-0.314617395401001,-0.2376868724822998,0.10663628578186035,-0.6570254034285351,-1.146657647246935,0.5911404629209771,-0.7216527462005615,0.61076420545578,-0.32585927844047546,-0.33437380194664,-0.9390213489532471,-1.9299659729003906
6.919939994812012,-0.3718048930168152,-0.2366776466369629,0.0997430682182312,-0.6225180129303537,-1.1819401593517052,0.5555415035765877,-0.7517608404159546,0.5830826759338379,-0.3080102801322937,-0.9549663662910461,-0.4696158766746521,-2.3425042629241943
6.939783096313477,-0.16421085596084595,-0.22272586822509766,0.04951468110084534,-0.5866777397523073,-1.218229539451267,0.5054870251644764,-0.781559407711029,0.5535973310470581,-0.28756698966026306,-1.5769649744033813,-0.4251612424850464,-2.450620651245117
6.959823131561279,-0.02069699764251709,-0.13741397857666016,0.014754384756088257,-0.5532738297511297,-1.2618451734865501,0.44681179513804575,-0.8105254769325256,0.5254754424095154,-0.258696585893631,-1.9525837898254395,-0.7805749177932739,-2.315856456756592
6.979765892028809,-0.13741791248321533,-0.01723015308380127,-0.08561757206916809,-0.5208206360914147,-1.3087607745107015,0.38954263948139767,-0.8378019332885742,0.49759212136268616,-0.2247004359960556,-1.773118495941162,-0.9431703090667725,-2.2111735343933105
6.999825954437256,-0.35322487354278564,0.12726473808288574,-0.22410398721694946,-0.48505425409019876,-1.3492238783030999,0.34575762022804724,-0.8630227446556091,0.46625635027885437,-0.19441406428813934,-1.034212350845337,-0.9809512495994568,-2.2023611068725586
7.028119087219238,-0.31383466720581055,0.18176963925361633,-0.10489773750305176,-0.40842464202237655,-1.3946211259689212,0.31619186403443933,-0.9035421013832092,0.3971640467643738,-0.16084928810596466,0.07466642558574677,-0.5209759473800659,-1.6375527381896973
7.03977108001709,-0.31383466720581055,0.18176963925361633,-0.10489773750305176,-0.40842464202237655,-1.3946211259689212,0.31619186403443933,-0.9035421013832092,0.3971640467643738,-0.16084928810596466,0.07466642558574677,-0.5209759473800659,-1.6375527381896973
7.068492889404297,-0.08643096685409546,-0.025788694620132446,-0.03903394937515259,-0.3703642773128224,-1.4128230955564478,0.2755845950719427,-0.9205880761146545,0.36195504665374756,-0.14665022492408752,-1.8288006782531738,0.2143535614013672,-0.7019729018211365
7.088153839111328,0.017633557319641113,0.009341567754745483,-0.04907846450805664,-0.3668262326317866,-1.4236296692192867,0.22559558255418408,-0.9233800768852234,0.35865461826324463,-0.13688036799430847,-2.663689136505127,0.47723421454429626,-0.3842781186103821
7.10807204246521,0.0885704755783081,0.10194993019104004,-0.05952225625514984,-0.36795134796629997,-1.4340463175686529,0.16603538383855188,-0.9243553876876831,0.3597046732902527,-0.12719950079917908,-2.761347532272339,0.6078467965126038,-0.3195820450782776
7.128055095672607,0.14080584049224854,0.16392382979393005,-0.08782236278057098,-0.3683844199801141,-1.4425158545496513,0.10934399269574388,-0.9252448081970215,0.36010870337486267,-0.11934620887041092,-2.49961519241333,0.5666003823280334,-0.342048704624176
7.147194862365723,0.17337483167648315,0.15716013312339783,-0.06643927097320557,-0.3667536926726648,-1.4496581042764385,0.05918522362827553,-0.9266555309295654,0.3585869073867798,-0.11280573159456253,-2.1133182048797607,0.5365061163902283,-0.41651788353919983
7.167744159698486,0.19111132621765137,0.17040351033210754,-0.08290223777294159,-0.36182320912221044,-1.4546337858703178,0.018064758454307994,-0.9289500117301941,0.3539799749851227,-0.10839719325304031,-1.6567466259002686,0.411696195602417,-0.5351543426513672
7.187927007675171,0.1968889832496643,0.21019890904426575,-0.10281210392713547,-0.35330349001410855,-1.460026644898613,-0.013558854694517772,-0.9324846863746643,0.345999151468277,-0.10371557623147964,-1.1810262203216553,0.14523379504680634,-0.6617200970649719
7.207635879516602,0.15693402290344238,0.21685057878494263,-0.11086978018283844,-0.34098860532605557,-1.466921932691726,-0.035342928965778155,-0.9373449087142944,0.3344189524650574,-0.09771784394979477,-0.76413893699646,-0.0757727101445198,-0.7744024395942688
7.226705074310303,0.13686519861221313,0.2189578413963318,-0.10182159394025803,-0.32667752335240163,-1.474352135730643,-0.050693526890020386,-0.9427123069763184,0.32089805603027344,-0.09120207279920578,-0.5456169843673706,-0.14990907907485962,-0.797458827495575
7.2476959228515625,0.14132845401763916,0.24160760641098022,-0.13708138465881348,-0.311373111178648,-1.4811472977111821,-0.06083187029486871,-0.9480911493301392,0.3063659965991974,-0.08522389084100723,-0.26164233684539795,-0.24398525059223175,-0.8187990784645081
7.267291069030762,0.15355294942855835,0.29257214069366455,-0.18616843223571777,-0.2957506268125059,-1.4886460420033731,-0.06478481794280881,-0.9533576965332031,0.29145798087120056,-0.07849526405334473,-0.00031792279332876205,-0.3746553659439087,-0.7548158764839172
7.287323951721191,0.16907626390457153,0.26922574639320374,-0.19623690843582153,-0.28196572760684474,-1.4965491658926966,-0.06470428502800786,-0.9578640460968018,0.278244286775589,-0.07124965637922287,0.08250348269939423,-0.4055563807487488,-0.6193210482597351
7.305593013763428,0.17241746187210083,0.25911828875541687,-0.197462260723114,-0.27132873962971005,-1.5042248565627148,-0.06458958667750013,-0.9612816572189331,0.26801180839538574,-0.06408863514661789,-0.0018177088350057602,-0.3702203333377838,-0.43440836668014526
7.326478958129883,0.15131992101669312,0.2887202799320221,-0.24708575010299683,-0.2646037830831121,-1.511493807375969,-0.06474558809090769,-0.9634993672370911,0.26152685284614563,-0.057205017656087875,0.08315432071685791,-0.36610183119773865,-0.251010000705719
7.347303867340088,0.09086084365844727,0.3407692313194275,-0.3183322548866272,-0.2606997666845027,-1.51810778741584,-0.05997053779924708,-0.9648690819740295,0.2577567398548126,-0.050884637981653214,0.42011699080467224,-0.43037110567092896,-0.12293112277984619
7.367061138153076,-0.00465083122253418,0.36723047494888306,-0.3364763855934143,-0.25896041916641716,-1.524250028944673,-0.04804479436826994,-0.9656097888946533,0.25607576966285706,-0.04497804865241051,0.7154486775398254,-0.46414485573768616,-4.597625229507685e-05
7.387089967727661,-0.11070996522903442,0.3388374149799347,-0.27046847343444824,-0.2598249873494533,-1.528081489827481,-0.03299687726598898,-0.9655534029006958,0.25691142678260803,-0.04126855731010437,0.6746892333030701,-0.27223071455955505,0.16043898463249207
7.407009124755859,-0.15664970874786377,0.2658478915691376,-0.2069941759109497,-0.2650617317508316,-1.5274380855807055,-0.022412637670564846,-0.9641693830490112,0.26196885108947754,-0.04183090478181839,0.28683364391326904,0.05209551006555557,0.41532689332962036
7.426034927368164,-0.18606507778167725,0.22384238243103027,-0.20946240425109863,-0.2759381700288596,-1.5237631017883326,-0.0205147142558325,-0.9611060619354248,0.2724497318267822,-0.045237280428409576,-0.10502289980649948,0.2395319789648056,0.6636663675308228
7.447224140167236,-0.2527627944946289,0.26110395789146423,-0.253418505191803,-0.2907186501190142,-1.5178304231385307,-0.022776277693492723,-0.9566947221755981,0.28664079308509827,-0.05071964114904404,-0.12250449508428574,0.4251667261123657,0.7599776983261108
7.4658730030059814,-0.208149254322052,0.28969186544418335,-0.2539774179458618,-0.30571579873989907,-1.506664189383663,-0.02233382948835697,-0.9516714215278625,0.30097585916519165,-0.0611165352165699,0.0892292857170105,0.6646522879600525,0.7516396641731262
7.486865997314453,-0.012403905391693115,0.22054442763328552,-0.16773855686187744,-0.32202553008937446,-1.491344791802263,-0.017805632985170083,-0.9456039667129517,0.3164886236190796,-0.07528816908597946,0.18807566165924072,0.6859033703804016,0.9382291436195374
7.506678104400635,0.0451282262802124,0.16569268703460693,-0.09368449449539185,-0.3425868340007556,-1.4772122943043615,-0.01169250715799891,-0.9377673864364624,0.3359247148036957,-0.08801715821027756,0.2444436401128769,0.5159258246421814,1.13384211063385
7.525631904602051,-0.06924784183502197,0.18148568272590637,-0.092540442943573,-0.36444668444447925,-1.4639938347839543,-0.0002441230661521761,-0.9289974570274353,0.35643237829208374,-0.099598228931427,0.6932002902030945,0.41063299775123596,1.1168901920318604
7.546776056289673,-0.14122939109802246,0.19754403829574585,-0.09951189905405045,-0.38358622382399327,-1.4475460763146262,0.02452227109933186,-0.920293927192688,0.3742484748363495,-0.11400430649518967,1.3478667736053467,0.300052672624588,1.0822725296020508
7.566475868225098,-0.15494132041931152,0.1637163758277893,-0.05747394263744354,-0.399482505748199,-1.428866598994591,0.0646816694118104,-0.9119989275932312,0.3889416456222534,-0.13031597435474396,2.1593005657196045,0.07497507333755493,0.9654634594917297
7.5845818519592285,-0.182847797870636,0.1612778902053833,0.016925528645515442,-0.4110521766192271,-1.4060923448562659,0.11898064039802317,-0.9042950868606567,0.39957407116889954,-0.15030257403850555,2.434580087661743,0.06743273884057999,0.9995443820953369
7.606541156768799,-0.19372570514678955,0.010778725147247314,0.11698536574840546,-0.4227526610576107,-1.38205138487186,0.17282734145535755,-0.8957672119140625,0.4102723300457001,-0.17110826075077057,2.1683475971221924,0.23773914575576782,1.0173372030258179
7.6264848709106445,-0.16054761409759521,-0.03299504518508911,0.14873653650283813,-0.4358550659323934,-1.355730195828269,0.21855816222969823,-0.8856255412101746,0.4221856892108917,-0.19346003234386444,1.6645159721374512,0.4772982895374298,1.115044355392456
7.64647912979126,-0.08776295185089111,-0.06113812327384949,0.14396223425865173,-0.4520149629234603,-1.328662633243921,0.25614950965381855,-0.8733273148536682,0.4367790222167969,-0.21569381654262543,1.289520263671875,0.5921745896339417,1.239698886871338
7.665994167327881,-0.04132378101348877,-0.08202075958251953,0.16486746072769165,-0.4716600445104123,-1.3017231638076328,0.2873755675705204,-0.858761727809906,0.45436570048332214,-0.23681262135505676,0.920724630355835,0.7347169518470764,1.3740140199661255
7.686348915100098,-0.006847262382507324,-0.13076069951057434,0.20543286204338074,-0.49492822919046736,-1.2736982005911608,0.3125517817860089,-0.8414499759674072,0.47496849298477173,-0.2576179504394531,0.5874773859977722,0.9008084535598755,1.4901164770126343
7.70802116394043,0.024032652378082275,-0.17017892003059387,0.2366923987865448,-0.5216942774743758,-1.2444897061788642,0.33348702460216023,-0.8212282657623291,0.49834975600242615,-0.2779064178466797,0.3500392436981201,0.9854966998100281,1.6262365579605103
7.725327968597412,0.02292656898498535,-0.1896023154258728,0.2798173725605011,-0.5512881133282399,-1.2153143943085627,0.35185876560716156,-0.7985917925834656,0.5237849354743958,-0.2964799106121063,0.14651866257190704,0.9969943761825562,1.6755107641220093
7.746397018432617,-0.004938006401062012,-0.21448075771331787,0.30830907821655273,-0.5815862695672698,-1.1871907529441563,0.36753227785300396,-0.7748624682426453,0.5493500828742981,-0.31273412704467773,-0.016793861985206604,0.9652261137962341,1.6129732131958008
7.766168117523193,-0.05629545450210571,-0.2340279221534729,0.3207217752933502,-0.6107600518018357,-1.1620283833559195,0.38011849819118537,-0.7517186403274536,0.5734902620315552,-0.3256198465824127,-0.11333867162466049,0.8488436937332153,1.4753260612487793
7.785821914672852,-0.10695737600326538,-0.24115467071533203,0.3377249240875244,-0.6368934234775748,-1.1392658949433734,0.3907528697485771,-0.7302466630935669,0.594700813293457,-0.3362600803375244,-0.16894060373306274,0.8134370446205139,1.258713960647583
7.806236028671265,-0.09831094741821289,-0.2702191472053528,0.3668423295021057,-0.6593020114259068,-1.1195580154951283,0.3977686683418212,-0.7113052010536194,0.612565279006958,-0.3446865677833557,-0.2885167896747589,0.7384204864501953,1.0155742168426514
7.825790882110596,-0.045006394386291504,-0.3050428628921509,0.38833868503570557,-0.678719406021236,-1.103836050542623,0.4003249912297699,-0.6950449347496033,0.6277967691421509,-0.35040533542633057,-0.37776708602905273,0.6615241169929504,0.8230376243591309
7.845181941986084,-0.009171247482299805,-0.3121873736381531,0.36496713757514954,-0.6954015226422139,-1.092687802441514,0.4001859487622029,-0.6817009449005127,0.6406937837600708,-0.35326361656188965,-0.3745535910129547,0.4396652579307556,0.6420735716819763
7.867223024368286,-0.022887706756591797,-0.30468565225601196,0.349652498960495,-0.7078148670741434,-1.0867539658513357,0.3990701821363169,-0.6725010871887207,0.6501750946044922,-0.3535739481449127,-0.2639032006263733,0.24132978916168213,0.4113266170024872
7.883525848388672,-0.06574869155883789,-0.3141264319419861,0.3540356159210205,-0.7148796889149038,-1.0847002182940049,0.39725112835005694,-0.6676955223083496,0.6555265784263611,-0.3527996242046356,-0.2184586375951767,0.08983081579208374,0.13843639194965363
7.9055938720703125,-0.11475276947021484,-0.33556318283081055,0.3593612313270569,-0.716960272331314,-1.0882038230678508,0.3907479421162045,-0.6677179932594299,0.6570963263511658,-0.3498244285583496,-0.3283851146697998,-0.006302644498646259,-0.1893814355134964
7.924494028091431,-0.1591702699661255,-0.34125810861587524,0.3502423167228699,-0.7147402848606839,-1.0988241427721812,0.3763794051479303,-0.6726931929588318,0.655421257019043,-0.3433758616447449,-0.551494300365448,-0.11804799735546112,-0.5017067193984985
7.944504022598267,-0.1857500672340393,-0.3197544813156128,0.3452942371368408,-0.7091120371365148,-1.1173566372957429,0.35270866826221065,-0.6822461485862732,0.6511601209640503,-0.3324615955352783,-0.7972371578216553,-0.15879347920417786,-0.804181694984436
7.965285062789917,-0.15661078691482544,-0.3010563254356384,0.29927366971969604,-0.699532761439931,-1.1407863892312597,0.3214344949574563,-0.6954858303070068,0.6438602805137634,-0.31897276639938354,-0.9187529683113098,-0.19763444364070892,-1.0814340114593506
7.985285043716431,-0.09664702415466309,-0.25466108322143555,0.21742013096809387,-0.6847164046376943,-1.1683915784145449,0.2879685230975006,-0.7127249240875244,0.6324533820152283,-0.3033576011657715,-0.804706871509552,-0.43173205852508545,-1.3139318227767944
8.005383014678955,-0.13960206508636475,-0.18805283308029175,0.10850974917411804,-0.6625714286012332,-1.1986193183964668,0.2592678552217666,-0.7344366312026978,0.6151462197303772,-0.28670185804367065,-0.40991896390914917,-0.8296898603439331,-1.6203151941299438
8.025150060653687,-0.35005396604537964,-0.11952143907546997,0.09869340062141418,-0.6297688741327738,-1.230851966150062,0.23751742619111535,-0.7619150280952454,0.5889579653739929,-0.2694697380065918,-0.1581893265247345,-1.0132588148117065,-2.0919158458709717
8.045319080352783,-0.5847761034965515,-0.07898372411727905,0.15427520871162415,-0.5875706222956352,-1.2619479058005976,0.21357388325620558,-0.7929093837738037,0.5543407201766968,-0.25298428535461426,-0.4667450785636902,-0.636384129524231,-2.5055501461029053
8.065088033676147,-0.4654615521430969,-0.09287512302398682,0.17579473555088043,-0.5439049234817892,-1.2883983955716845,0.17562188799960163,-0.8218004107475281,0.5174813270568848,-0.23844730854034424,-1.3802692890167236,-0.021023977547883987,-2.5449233055114746
8.083984851837158,-0.08835142850875854,-0.09434309601783752,0.12443466484546661,-0.5079325420802214,-1.3157454635516916,0.11980523224286428,-0.8454864621162415,0.48637184500694275,-0.22044292092323303,-2.296471357345581,-0.04208221286535263,-2.163437604904175
8.105118036270142,0.057324230670928955,-0.013061940670013428,0.016717910766601562,-0.48288993844701406,-1.3516956792913322,0.055158178418651366,-0.8644837141036987,0.46434059739112854,-0.19249914586544037,-2.4917447566986084,-0.49084073305130005,-1.6183608770370483
8.125117063522339,-0.06423628330230713,0.09967517852783203,-0.08670364320278168,-0.46395628719731313,-1.3885204914442149,-0.0007195008914609185,-0.8794739842414856,0.4474896788597107,-0.16210614144802094,-1.9290544986724854,-0.5546255707740784,-1.296608328819275
8.144822120666504,-0.22414380311965942,0.2093929648399353,-0.18256773054599762,-0.4432888351353359,-1.4152033985780743,-0.03825945543329473,-0.8924334645271301,0.4289127290248871,-0.13998782634735107,-1.0154411792755127,-0.48823705315589905,-1.3387691974639893
8.163851022720337,-0.21531730890274048,0.28423190116882324,-0.19688890874385834,-0.41863987664914126,-1.432156685459509,-0.0546575605357326,-0.904876172542572,0.4065181612968445,-0.12626169621944427,-0.17468711733818054,-0.5296279788017273,-1.3055154085159302
8.186187028884888,-0.15728837251663208,0.2214985191822052,-0.12929266691207886,-0.3939765626257534,-1.4439316228054973,-0.05892830814755428,-0.9159690737724304,0.3838633596897125,-0.11683160066604614,-0.007291982416063547,-0.44054216146469116,-1.2005099058151245
8.208921909332275,-0.0818713903427124,0.08969256281852722,-0.07771366834640503,-0.37211337815732837,-1.4532471106833633,-0.06708272732297708,-0.9251323938369751,0.3635849952697754,-0.10925225913524628,-0.5803129076957703,-0.17503218352794647,-1.0445775985717773
