timestamp,acceleration_x,acceleration_y,acceleration_z,attitude_pitch,attitude_roll,attitude_yaw,gravity_x,gravity_y,gravity_z,rotation_x,rotation_y,rotation_z
0.0,0.2394700050354004,1.1609817743301392,-0.2278696894645691,0.06245056998880368,-1.5323463415771472,-2.5986364378126625,-0.9973130822181702,-0.062409985810518265,-0.03836558386683464,0.4395667612552643,-0.6123064160346985,1.025454044342041
0.019999027252197266,0.10447686910629272,1.1034867763519287,-0.17472445964813232,0.03843285086438706,-1.5451053993892745,-2.5842276988646202,-0.9989320039749146,-0.038423389196395874,-0.02566913701593876,0.864145040512085,-0.5799591541290283,1.4425841569900513
0.040075063705444336,0.02091294527053833,0.9663103222846985,-0.1045716404914856,0.005433909020716888,-1.5567303194648043,-2.565180169026047,-0.9998865127563477,-0.005433882120996714,-0.014065339230000973,0.9322547912597656,-0.5680420398712158,1.9107471704483032
0.05986618995666504,-0.09256976842880249,0.8550884127616882,-0.08580273389816284,-0.03728473505624802,-1.5689666340811192,-2.546306175702388,-0.9993035197257996,0.037276096642017365,-0.0018284203251823783,0.9584232568740845,-0.6748443245887756,2.361358404159546
0.07997488975524902,-0.31813156604766846,0.8393215537071228,-0.08716380596160889,-0.08687412981177477,-1.580267754343365,-2.524906837332136,-0.9961842894554138,0.08676489442586899,0.009435569867491722,1.2671819925308228,-0.5704677700996399,2.5615525245666504
0.10449910163879395,-0.566003143787384,0.7991480827331543,-0.07852566242218018,-0.18912953909926775,-1.583213892181255,-2.4473269093914545,-0.9820926189422607,0.1880040317773819,0.012195826508104801,2.7197070121765137,-0.16006363928318024,2.5308022499084473
0.1200249195098877,-0.566003143787384,0.7991480827331543,-0.07852566242218018,-0.18912953909926775,-1.583213892181255,-2.4473269093914545,-0.9820926189422607,0.1880040317773819,0.012195826508104801,2.7197070121765137,-0.16006363928318024,2.5308022499084473
0.14003586769104004,-0.39010554552078247,0.6261849999427795,0.03569340705871582,-0.24214108860678613,-1.5722234620845348,-2.3861772946802104,-0.9708258509635925,0.23978179693222046,0.0013855007709935308,3.273772954940796,-0.07384967058897018,2.7545056343078613
0.1600968837738037,-0.3278353810310364,0.46238887310028076,0.1198732852935791,-0.29858946185445906,-1.553648716281749,-2.313289207673593,-0.9556118249893188,0.29417237639427185,-0.016388066112995148,3.733320951461792,-0.004570371937006712,2.9200491905212402
0.17996001243591309,-0.36974531412124634,0.3800075054168701,0.13152068853378296,-0.35505118973573024,-1.5254853750740336,-2.2272058578867617,-0.9366664886474609,0.3476383686065674,-0.04247031733393669,4.278752326965332,0.016703402623534203,2.9784767627716064
0.20014214515686035,-0.43206387758255005,0.33469390869140625,0.13323712348937988,-0.4085070538128884,-1.4879856710913328,-2.1250985571306384,-0.9145700335502625,0.39723968505859375,-0.07590974122285843,4.864333629608154,-0.07702930271625519,2.9533843994140625
0.2201070785522461,-0.5262832641601562,0.2805497348308563,0.1988508701324463,-0.4551918206441386,-1.4399183373518059,-2.0070485198554104,-0.8904953598976135,0.43963462114334106,-0.11721627414226532,5.26981258392334,-0.042127687484025955,2.8431901931762695
0.24007105827331543,-0.6103861927986145,0.19601505994796753,0.3510735034942627,-0.493462346606099,-1.3801523441275614,-1.8800024729391833,-0.8647421598434448,0.47367799282073975,-0.1668846160173416,5.2264909744262695,0.25333449244499207,2.7458529472351074
0.2600891590118408,-0.6773661375045776,0.0802343487739563,0.5045778155326843,-0.5238765488283514,-1.3094736466973285,-1.7553257069817263,-0.8364889025688171,0.5002405643463135,-0.22370919585227966,4.66485595703125,0.7519040703773499,2.674636125564575
0.2802140712738037,-0.7092656493186951,-0.032931387424468994,0.6050745248794556,-0.5507047030460261,-1.2327151992781544,-1.6435219474012925,-0.8039180040359497,0.5232878923416138,-0.2826409637928009,3.701291799545288,1.2124618291854858,2.7444121837615967
0.3001570701599121,-0.7222737669944763,-0.13920807838439941,0.6997024416923523,-0.5806357869555678,-1.1538876751029084,-1.5515352440358336,-0.764496922492981,0.5485556125640869,-0.33857259154319763,2.3770341873168945,1.7604538202285767,2.9240596294403076
0.3201711177825928,-0.6835829615592957,-0.27451133728027344,0.7632102966308594,-0.6210813731063315,-1.0759898916311965,-1.4838132018768169,-0.7157090902328491,0.5819149017333984,-0.3861808478832245,0.8718711733818054,2.197436571121216,3.1806867122650146
0.3400900363922119,-0.6131823062896729,-0.3635243773460388,0.7671419382095337,-0.676636323828673,-1.0019430724580312,-1.4375569870217253,-0.6568983197212219,0.6261739730834961,-0.41998913884162903,-0.4459940791130066,2.393994092941284,3.485226631164551
0.3700859546661377,-0.5178806781768799,-0.3622952103614807,0.6895583271980286,-0.8196647956734628,-0.8641848784555852,-1.367443521952421,-0.5190609097480774,0.7309170961380005,-0.4430983066558838,-1.439375400543213,1.9945290088653564,3.680142879486084
0.3799450397491455,-0.5178806781768799,-0.3622952103614807,0.6895583271980286,-0.8196647956734628,-0.8641848784555852,-1.367443521952421,-0.5190609097480774,0.7309170961380005,-0.4430983066558838,-1.439375400543213,1.9945290088653564,3.680142879486084
0.3999810218811035,-0.5171283483505249,-0.39168715476989746,0.6599205732345581,-0.8918308292421587,-0.7957573199281406,-1.3246117768424777,-0.4486308991909027,0.7782227993011475,-0.43943101167678833,-1.3289788961410522,1.6377803087234497,3.5338096618652344
0.42842698097229004,-0.4809684753417969,-0.555875301361084,0.6217312812805176,-1.009193628836017,-0.6433502980937914,-1.2062895755466718,-0.319461852312088,0.8464027047157288,-0.4260829985141754,-0.7670534253120422,1.1208226680755615,2.865312099456787
0.4484710693359375,-0.4246289134025574,-0.6983083486557007,0.5849857926368713,-1.0478539712907287,-0.5618185393796736,-1.1346709232864145,-0.2660602033138275,0.866353452205658,-0.42266276478767395,-0.30200785398483276,0.9132930636405945,2.3758397102355957
0.46823620796203613,-0.34793275594711304,-0.8640101552009583,0.5459415912628174,-1.0713224524713112,-0.4815422568150826,-1.0610910318410949,-0.22183045744895935,0.877834677696228,-0.4244968593120575,0.024776853621006012,0.7146391868591309,1.9098454713821411
0.48798608779907227,-0.275215208530426,-0.9928430318832397,0.5012708306312561,-1.0838658237882837,-0.41605342125959677,-1.000341077890985,-0.18910977244377136,0.8837732672691345,-0.4279980957508087,0.03441370278596878,0.4298073351383209,1.2023804187774658
0.5081260204315186,-0.2326623499393463,-1.0084989070892334,0.4823150038719177,-1.091090113251316,-0.3872857961706666,-0.9704889571422213,-0.17430482804775238,0.8871305584907532,-0.42733752727508545,-0.14731553196907043,-0.25987982749938965,0.34530168771743774
0.5297601222991943,-0.28986722230911255,-0.8892315626144409,0.4328313171863556,-1.093432563541041,-0.40693158946258406,-0.97820632677751,-0.18184298276901245,0.8882092237472534,-0.4219212234020233,-0.16840533912181854,-0.9665645956993103,-0.5976039171218872
0.5472080707550049,-0.4135760962963104,-0.7531341910362244,0.4296991229057312,-1.0863316880443192,-0.46840954136638635,-1.0219503918984592,-0.21026426553726196,0.8849244117736816,-0.41556939482688904,-0.057927414774894714,-1.2462784051895142,-1.5325853824615479
0.5681300163269043,-0.514290452003479,-0.7244479656219482,0.4506572484970093,-1.0686101917476303,-0.5556671210408968,-1.0941557729322071,-0.25391334295272827,0.8765323758125305,-0.4089243710041046,-0.11603844910860062,-1.0938831567764282,-2.2923030853271484
0.5849931240081787,-0.5133552551269531,-0.7205856442451477,0.44617801904678345,-1.0436217116222366,-0.6572704724872065,-1.1867667712281127,-0.30736929178237915,0.8642319440841675,-0.39828065037727356,-0.4492712616920471,-1.0896130800247192,-2.8743250370025635
0.6070559024810791,-0.5080227255821228,-0.6287370920181274,0.36764800548553467,-1.010773529783037,-0.7748369517105168,-1.293021042121292,-0.3716312348842621,0.8472430109977722,-0.3795650601387024,-0.6289162635803223,-1.655217170715332,-3.457679271697998
0.627418041229248,-0.7114222049713135,-0.4467376470565796,0.3709424138069153,-0.9628490056430925,-0.9038720735494571,-1.4027656885568294,-0.4487951397895813,0.8208221793174744,-0.353318452835083,-0.7139163017272949,-1.9274497032165527,-4.204795837402344
0.6479151248931885,-1.0464348793029785,-0.30862414836883545,0.4535107910633087,-0.8969348408390087,-1.0278952804380455,-1.5159068658263226,-0.5342843532562256,0.7814179062843323,-0.32237645983695984,-1.223941683769226,-1.3246549367904663,-5.060261249542236
0.6679351329803467,-0.9796269536018372,-0.2858516573905945,0.43128231167793274,-0.818373180155098,-1.139697445849958,-1.6369486536372069,-0.6208826899528503,0.7300350069999695,-0.2855760455131531,-2.133826494216919,-0.8778539896011353,-5.52797269821167
0.6913721561431885,-0.7573556303977966,-0.06133180856704712,0.18604210019111633,-0.7324901136613803,-1.244961024931986,-1.7579522784419654,-0.7043905854225159,0.6687231063842773,-0.23799820244312286,-2.5840516090393066,-1.1985385417938232,-5.619795322418213
0.7053070068359375,-0.822493314743042,0.22868221998214722,-0.07907447218894958,-0.63848444854411,-1.3338553742974093,-1.8564835587122341,-0.7805647253990173,0.5959791541099548,-0.18848833441734314,-2.0113677978515625,-1.4174976348876953,-5.5687336921691895
0.7248570919036865,-0.911794126033783,0.35271018743515015,-0.2067933827638626,-0.5372869703612149,-1.3987365487871077,-1.919895426490645,-0.8464152812957764,0.5118070840835571,-0.14708839356899261,-1.1639750003814697,-1.5204898118972778,-5.401762962341309
0.7458479404449463,-0.8657811284065247,0.4339256286621094,-0.15387368202209473,-0.4379414334097988,-1.4471692645094858,-1.9599323288426198,-0.8987147212028503,0.4240760803222656,-0.1116749718785286,-1.0225207805633545,-1.3899980783462524,-4.939192295074463
0.7636091709136963,-0.7724549770355225,0.4754933714866638,0.028889842331409454,-0.3490404018297792,-1.4849333007993553,-1.9983355073669335,-0.93623948097229,0.3419962227344513,-0.0805864930152893,-1.6947455406188965,-0.8841648697853088,-4.259807586669922
0.7873630523681641,-0.6782082319259644,0.4565984308719635,0.12109725922346115,-0.27530550032594275,-1.5122352417176887,-2.050442592158302,-0.9606927037239075,0.2718409597873688,-0.05632360652089119,-2.7568869590759277,-0.28509780764579773,-3.4722909927368164
0.8091099262237549,-0.5924392938613892,0.5090813636779785,0.022047337144613266,-0.2153734622239051,-1.5304884404903303,-2.118642486895613,-0.9761033654212952,0.21371227502822876,-0.0393659844994545,-3.4594998359680176,0.055641304701566696,-2.8933162689208984
0.828991174697876,-0.44517821073532104,0.6883647441864014,-0.11248570680618286,-0.16331241534232993,-1.5423356822898397,-2.1905938304655637,-0.9862947463989258,0.16258743405342102,-0.028078164905309677,-3.318268299102783,0.0749378576874733,-2.583423614501953
0.8472368717193604,-0.24161100387573242,0.8340248465538025,-0.12616384029388428,-0.11617220780713107,-1.55044409890664,-2.251343411625851,-0.9930540919303894,0.1159110739827156,-0.0202136542648077,-2.534641981124878,-0.04723447561264038,-2.2843942642211914
0.8670690059661865,-0.07637518644332886,0.8684393763542175,-0.12383067607879639,-0.07381202969364233,-1.5573831220564565,-2.29328164644622,-0.9971874356269836,0.07374502718448639,-0.013376281596720219,-1.576843500137329,-0.2633408308029175,-2.059654951095581
0.8860199451446533,0.012266993522644043,0.8683343529701233,-0.15225732326507568,-0.03374114980351555,-1.565946449867666,-2.3162139892970286,-0.999419093132019,0.033734746277332306,-0.004847097676247358,-0.7015241384506226,-0.4529934227466583,-1.9928966760635376
0.9069550037384033,0.08893758058547974,0.8980409502983093,-0.20383846759796143,0.005890134942305675,-1.576972631387214,-2.322718301915966,-0.999963641166687,-0.0058901007287204266,0.00617615832015872,0.02537928707897663,-0.633376955986023,-1.974613070487976
0.9271371364593506,0.18455910682678223,0.9181885719299316,-0.2649487257003784,0.044072621400377356,-1.5915499032484037,-2.3169758069850017,-0.9988139271736145,-0.04405835643410683,0.020731937140226364,0.44469425082206726,-0.8179256319999695,-1.8392530679702759
0.9468240737915039,0.2544856667518616,0.9126111268997192,-0.3007090091705322,0.07831003800446115,-1.6099930824219346,-2.305309284951779,-0.9961695671081543,-0.07823002338409424,0.0390666238963604,0.5806532502174377,-0.9109355211257935,-1.612602949142456
0.9667661190032959,0.2809046506881714,0.8900296092033386,-0.29032766819000244,0.10709216743427226,-1.6276237846473072,-2.2931501980608897,-0.9926663041114807,-0.106887586414814,0.056471504271030426,0.4598277807235718,-0.7063101530075073,-1.3188912868499756
0.9857370853424072,0.2908586859703064,0.9070934057235718,-0.28759801387786865,0.12974718529669438,-1.639528115299549,-2.284654278014922,-0.9892535209655762,-0.12938345968723297,0.06810043752193451,0.24094903469085693,-0.3872028887271881,-0.9890568256378174
1.0067660808563232,0.31330060958862305,0.9595043063163757,-0.3177189826965332,0.14550301637577542,-1.6451210331026418,-2.280689220612783,-0.9867013692855835,-0.14499014616012573,0.07347162812948227,0.04558310657739639,-0.1332598179578781,-0.6042468547821045
1.0268499851226807,0.34789371490478516,0.9746795892715454,-0.33066272735595703,0.15318012827106037,-1.6460010113762287,-2.2801691421174715,-0.9854975342750549,-0.15258179605007172,0.07425407320261002,-0.024179968982934952,0.025556813925504684,-0.1639190912246704
1.0472052097320557,0.36619675159454346,0.9801880121231079,-0.34375619888305664,0.15166730440437148,-1.6450717764919036,-2.2795120952542542,-0.985795259475708,-0.15108650922775269,0.07335533201694489,0.1319873332977295,0.06437326967716217,0.3128107488155365
1.0673620700836182,0.3434319496154785,1.016891360282898,-0.37850165367126465,0.14059940864357007,-1.6451218153489753,-2.2741404014114766,-0.9873988032341003,-0.14013662934303284,0.0735243409872055,0.5246103405952454,-0.012246046215295792,0.7467409372329712
1.0867459774017334,0.28437018394470215,1.0360381603240967,-0.3883175849914551,0.12055850359877275,-1.6487998067929548,-2.2594127498417014,-0.9897231459617615,-0.12026667594909668,0.07735881209373474,1.0995174646377563,-0.16650263965129852,1.1445074081420898
1.106431007385254,0.17149293422698975,1.0082207918167114,-0.3584686517715454,0.09175406555847193,-1.6557526029513434,-2.23420248624586,-0.9922021627426147,-0.09162537753582001,0.08449719101190567,1.6098227500915527,-0.23899096250534058,1.5273301601409912
1.127873182296753,0.01470184326171875,0.9354232549667358,-0.282159686088562,0.054636846094713254,-1.6626244448547394,-2.202371119645396,-0.9943010210990906,-0.054609667509794235,0.09156230092048645,1.8498026132583618,-0.21258296072483063,1.907253384590149
1.1464760303497314,-0.22937250137329102,0.8864004611968994,-0.21731746196746826,0.009264394037890948,-1.667525997929268,-2.168758260181407,-0.9952827095985413,-0.009264261461794376,0.09657476097345352,1.9233627319335938,-0.1620648354291916,2.300060510635376
1.1654069423675537,-0.616645336151123,0.892916202545166,-0.21199391782283783,-0.042338149723411524,-1.6658768818845733,-2.134388972720943,-0.9945914149284363,0.04232550039887428,0.09485230594873428,2.010222911834717,0.32234686613082886,2.481387138366699
1.1863901615142822,-0.82114577293396,0.7966506481170654,-0.1243441179394722,-0.09610582099111849,-1.6509023853573008,-2.098455171017752,-0.9921934604644775,0.09595794230699539,0.07965115457773209,2.003290891647339,0.9114327430725098,2.6037440299987793
1.2063591480255127,-0.6717369556427002,0.5992196202278137,0.04827380180358887,-0.15467708771091895,-1.6245540890096195,-2.064917530015876,-0.9866340756416321,0.15406104922294617,0.05309038981795311,1.6849335432052612,1.274924635887146,3.0855565071105957
1.2277371883392334,-0.5972305536270142,0.46131497621536255,0.15306508541107178,-0.22282102398180506,-1.5916648914092837,-2.0371111405056825,-0.9750656485557556,0.22098177671432495,0.020351175218820572,1.3467046022415161,1.4754509925842285,3.5857560634613037
1.243669033050537,-0.6778867244720459,0.37485620379447937,0.1692470908164978,-0.29677864385049996,-1.5538694746866542,-2.0102012817892487,-0.9561466574668884,0.292441189289093,-0.016186099499464035,1.3210700750350952,1.610994577407837,3.7886478900909424
1.2638170719146729,-0.7141140103340149,0.2934426963329315,0.19266414642333984,-0.37213032208705066,-1.5106058737113792,-1.9774942935572386,-0.9298679828643799,0.3636007606983185,-0.05603686347603798,1.5002344846725464,1.6304192543029785,3.8640334606170654
1.285851001739502,-0.6808726787567139,0.20705646276474,0.23409287631511688,-0.44663818541243966,-1.4620929467162236,-1.9358169967730285,-0.8965811133384705,0.4319359362125397,-0.0978470966219902,1.6961344480514526,1.5168789625167847,3.906191349029541
1.3056540489196777,-0.6707420349121094,0.1405126452445984,0.28787511587142944,-0.5189423132427732,-1.409074405996635,-1.8830593717092938,-0.8570137619972229,0.495961993932724,-0.1398189812898636,1.9890841245651245,1.3470324277877808,3.8993804454803467
1.3260939121246338,-0.6884303689002991,0.06665939092636108,0.3715689778327942,-0.5867849874774055,-1.3481181792665389,-1.8158644817690577,-0.8121647238731384,0.5536866784095764,-0.18390104174613953,2.329998016357422,1.218914270401001,3.87549090385437
1.3447999954223633,-0.7059285640716553,-0.031875550746917725,0.4791775643825531,-0.64895592217624,-1.2770007147323068,-1.7345712798878499,-0.762577474117279,0.6043549180030823,-0.23071865737438202,2.436748743057251,1.2212494611740112,3.863182783126831
1.3661730289459229,-0.7675111293792725,-0.1409783959388733,0.5508722066879272,-0.7073990637837378,-1.1981561856111296,-1.6456880284740891,-0.7078918218612671,0.6498591303825378,-0.2767174541950226,2.2079343795776367,1.1149276494979858,3.9103589057922363
1.3852169513702393,-0.8517821431159973,-0.24320602416992188,0.6000531911849976,-0.7614662317419131,-1.1118856038304414,-1.554222786468743,-0.6489351391792297,0.6899834871292114,-0.3206341862678528,1.7843036651611328,1.3697030544281006,3.803318738937378
1.4054639339447021,-0.7299345135688782,-0.3612704277038574,0.6489540338516235,-0.813954895264031,-1.0217474967992606,-1.4663441621318893,-0.5857088565826416,0.7270084023475647,-0.35833507776260376,1.1086475849151611,1.404355764389038,3.817288637161255
1.425597906112671,-0.6282609701156616,-0.44434553384780884,0.661438524723053,-0.8685950268906971,-0.9318582247659921,-1.3827669992364962,-0.5184829235076904,0.7634221911430359,-0.3851781487464905,0.493689626455307,1.3600112199783325,3.8317930698394775
1.4453599452972412,-0.5864377617835999,-0.475236713886261,0.6420469284057617,-0.9227900327984466,-0.8396236833887558,-1.2986830332849015,-0.44931361079216003,0.7972887754440308,-0.40304848551750183,0.2087368220090866,1.2990158796310425,3.6832427978515625
1.4653451442718506,-0.5288963317871094,-0.4963526725769043,0.614359438419342,-0.97079016406957,-0.7418091143645917,-1.208588925990551,-0.38148874044418335,0.8253321647644043,-0.4162850081920624,0.18381455540657043,1.1575883626937866,3.443537473678589
1.4840850830078125,-0.46102550625801086,-0.5306531190872192,0.6051182150840759,-1.009051541581787,-0.6394268469788605,-1.1111234312564,-0.31785938143730164,0.846327006816864,-0.42742952704429626,0.2832004427909851,0.9349990487098694,3.1261701583862305
1.5051240921020508,-0.4213811457157135,-0.5726252794265747,0.6035983562469482,-1.0363954069769579,-0.5370314596691346,-1.010162725164359,-0.2605646550655365,0.8605738878250122,-0.4376283884048462,0.3633488416671753,0.6836070418357849,2.7744052410125732
1.5242211818695068,-0.41562527418136597,-0.6298357844352722,0.5937262773513794,-1.0538298014623269,-0.4415373704137953,-0.9122890178430867,-0.21120579540729523,0.8693224787712097,-0.44684508442878723,0.4005986452102661,0.3968859612941742,2.3905179500579834
1.545145034790039,-0.4329468607902527,-0.6933152675628662,0.5975340604782104,-1.0638342743086608,-0.35880081619582144,-0.8246080350947081,-0.170492485165596,0.874223530292511,-0.45460495352745056,0.33873170614242554,0.26411035656929016,1.957179069519043
1.564851999282837,-0.4220476448535919,-0.7757720351219177,0.614494264125824,-1.0698979691378137,-0.291737972444756,-0.7538563812744459,-0.13811777532100677,0.8771514892578125,-0.4599227011203766,0.15566125512123108,0.23797444999217987,1.4728230237960815
1.5853290557861328,-0.36760640144348145,-0.854422926902771,0.6155684590339661,-1.0762085935647265,-0.24566707400556817,-0.7055073261200004,-0.11544106155633926,0.8801645040512085,-0.4604169726371765,-0.14481905102729797,0.09198076277971268,0.9054738283157349
1.6065261363983154,-0.32925945520401,-0.8946549892425537,0.581978440284729,-1.0841315058411818,-0.2267228011396043,-0.6821965717675622,-0.10512778162956238,0.8838975429534912,-0.45571190118789673,-0.3563225269317627,-0.3018435835838318,0.35325998067855835
1.6250579357147217,-0.3690236508846283,-0.8404577970504761,0.49749937653541565,-1.0918264941372655,-0.24075924121712816,-0.6859653748924619,-0.1098887026309967,0.8874701857566833,-0.4475725293159485,-0.4115036725997925,-0.7520245909690857,-0.39874690771102905
1.644685983657837,-0.444031685590744,-0.7268832921981812,0.44202589988708496,-1.094907521299936,-0.2941225199473336,-0.725846691089291,-0.13281160593032837,0.8888859152793884,-0.4384552836418152,-0.36685746908187866,-1.018611192703247,-1.2809208631515503
1.664661169052124,-0.4699169397354126,-0.6751574277877808,0.40286141633987427,-1.0904337413693168,-0.3807992933022613,-0.7986644023982818,-0.1717456579208374,0.8868274092674255,-0.4289996922016144,-0.34510189294815063,-1.1872668266296387,-2.0189971923828125
1.6847870349884033,-0.4556179642677307,-0.6875016093254089,0.3102293610572815,-1.077516975135661,-0.492849657927049,-0.8963966029029974,-0.22403906285762787,0.8807847499847412,-0.4171628952026367,-0.42737624049186707,-1.414514183998108,-2.6887784004211426
1.7046749591827393,-0.47809091210365295,-0.6454449892044067,0.1906544268131256,-1.0521332319011112,-0.6259683304422843,-1.0112755244515725,-0.29043325781822205,0.8684827089309692,-0.40172916650772095,-0.36412182450294495,-1.887568473815918,-3.4063427448272705
1.7244861125946045,-0.613572359085083,-0.5203749537467957,0.2274700403213501,-1.0091205898497908,-0.7735357392067497,-1.1346678529880134,-0.3721149265766144,0.8463637828826904,-0.3810496926307678,-0.5075342059135437,-2.1920340061187744,-4.2658891677856445
1.7443292140960693,-0.9044792652130127,-0.4352642297744751,0.3429512679576874,-0.9484402739209776,-0.9224085709682451,-1.267492011835984,-0.4646461009979248,0.8125072717666626,-0.3520453870296478,-1.1457874774932861,-1.5326316356658936,-5.171071529388428
1.764195203781128,-1.0679893493652344,-0.3675921559333801,0.35495972633361816,-0.8736393220933619,-1.0555135858609643,-1.408849430783573,-0.5586739778518677,0.7666705846786499,-0.3163854479789734,-1.9844591617584229,-0.7174726724624634,-5.799302577972412
1.7851331233978271,-0.8740903735160828,-0.16053873300552368,0.18560484051704407,-0.7870852315327868,-1.1720105473329425,-1.5475077581487808,-0.650521993637085,0.7082986831665039,-0.2741056978702545,-2.5486557483673096,-0.8278623223304749,-6.0545148849487305
1.803657054901123,-0.8195608258247375,0.11242151260375977,0.016460970044136047,-0.6908558149900696,-1.275012014077024,-1.6689001604024134,-0.7372323870658875,0.6371970176696777,-0.2246517688035965,-2.5473363399505615,-1.2425180673599243,-6.061747074127197
1.825141191482544,-0.9785975217819214,0.22777169942855835,-0.052790045738220215,-0.5861501512775574,-1.3599691492196573,-1.7661426244262113,-0.8146306872367859,0.5531579256057739,-0.17433695495128632,-2.4170567989349365,-1.4227267503738403,-6.0545525550842285
1.8444030284881592,-1.0406516790390015,0.31390440464019775,-0.12127412855625153,-0.47702288358475986,-1.4290271417413993,-1.8433049004087187,-0.8794534802436829,0.4591364562511444,-0.1255214661359787,-2.1787071228027344,-1.5830026865005493,-5.837027072906494
1.8640780448913574,-1.0272479057312012,0.6082483530044556,-0.1971287727355957,-0.36905107132871107,-1.484930600497578,-1.8980117681932975,-0.9292340874671936,0.3607305586338043,-0.07998602837324142,-1.4911608695983887,-1.7143173217773438,-5.4961981773376465
1.884080171585083,-0.9192227721214294,0.8501787185668945,-0.16527998447418213,-0.26538268636808426,-1.527263786686875,-1.9294086191686484,-0.9640780091285706,0.26227858662605286,-0.041995298117399216,-0.899121880531311,-1.464141845703125,-5.027536869049072
1.9038279056549072,-0.6298806071281433,0.8694437146186829,-0.0984581708908081,-0.17288967352784304,-1.5562441912370237,-1.9493966510058016,-0.9849876165390015,0.17202965915203094,-0.014334685169160366,-1.0470973253250122,-1.054915428161621,-4.254050254821777
1.9238231182098389,-0.3109637498855591,0.7966747283935547,-0.14588749408721924,-0.09749206144548012,-1.5766513408227498,-1.9745427547098309,-0.9952344298362732,0.09733769297599792,0.005827178247272968,-1.3218480348587036,-0.6722427606582642,-3.300365447998047
1.9437980651855469,-0.07211589813232422,0.8374053239822388,-0.13061320781707764,-0.04077980141004338,-1.5897015837261856,-2.0003798552267855,-0.9989900588989258,0.04076850041747093,0.018888413906097412,-1.25496506690979,-0.47581228613853455,-2.3613107204437256
1.9642012119293213,0.059710800647735596,0.8297540545463562,-0.2316586971282959,-0.0012395526838196442,-1.5993645468000077,-2.0215103835318824,-0.9995911121368408,0.0012395523954182863,0.02856431156396866,-0.9681034684181213,-0.5017940998077393,-1.6199276447296143
1.9830710887908936,0.09991884231567383,0.8290619254112244,-0.26981353759765625,0.028299722377712323,-1.6104421115537597,-2.039472069907697,-0.9988141655921936,-0.02829594537615776,0.039619531482458115,-0.9810469746589661,-0.5789792537689209,-1.3247179985046387
2.0025951862335205,0.0848434567451477,0.8280307650566101,-0.29103708267211914,0.05423841141494974,-1.6203495063006168,-2.0579247672444665,-0.9973039627075195,-0.0542118214070797,0.049460072070360184,-0.9481073021888733,-0.46595335006713867,-1.2440153360366821
2.023505926132202,0.0884285569190979,0.9067736864089966,-0.2890840768814087,0.08131699070933546,-1.6267417415254093,-2.0734494732186386,-0.9951363801956177,-0.08122739940881729,0.05573147162795067,-0.6930457949638367,-0.27675312757492065,-1.3716703653335571
2.0454061031341553,0.17610961198806763,0.9974969029426575,-0.28187549114227295,0.10853446768710798,-1.630186159958443,-2.0799233618438344,-0.9923632740974426,-0.10832151025533676,0.05900568142533302,-0.06530046463012695,-0.1574433594942093,-1.287500262260437
2.0640881061553955,0.2893534302711487,1.0136533975601196,-0.26554369926452637,0.13163273793974337,-1.634788514100362,-2.073161096792555,-0.9893200397491455,-0.1312529295682907,0.06339531391859055,0.5441651940345764,-0.23957285284996033,-1.0354491472244263
2.084131956100464,0.3562875986099243,0.9639841914176941,-0.23392558097839355,0.14719333501396897,-1.6427347050839525,-2.058325321857718,-0.9866281747817993,-0.1466623991727829,0.07109912484884262,0.7579051852226257,-0.3401057720184326,-0.5889602899551392
2.1015169620513916,0.36290043592453003,0.8786120414733887,-0.18091070652008057,0.1525335910581455,-1.6519221168273508,-2.042526235142609,-0.9851386547088623,-0.15194278955459595,0.08009594678878784,0.7551461458206177,-0.2984541952610016,-0.06789790838956833
2.1237220764160156,0.3466993570327759,0.8202024698257446,-0.1734755039215088,0.14795115662194375,-1.6587822592702561,-2.0272950603546653,-0.9852493405342102,-0.1474119871854782,0.08691247552633286,0.8043014407157898,-0.1804383397102356,0.3980173170566559
2.144613027572632,0.38018685579299927,0.803184449672699,-0.14794981479644775,0.13379873308793364,-1.6647299849101493,-2.010444502167247,-0.9866931438446045,-0.1333998739719391,0.0929572582244873,1.017961025238037,-0.2067013680934906,0.8651477098464966
2.1599509716033936,0.40101391077041626,0.7833191752433777,-0.14561140537261963,0.10940400828870456,-1.6738086649294193,-1.9881401815384485,-0.988752007484436,-0.10918588936328888,0.1022154688835144,1.4606095552444458,-0.46753403544425964,1.3544620275497437
2.180119037628174,0.3405030369758606,0.7172040343284607,-0.11726608872413635,0.07432814443289672,-1.6888447532023778,-1.9584129034587268,-0.9902983903884888,-0.07425972074270248,0.11744924634695053,1.844278335571289,-0.7498003244400024,1.8004359006881714
2.1999361515045166,0.19315338134765625,0.5542936325073242,-0.04135119915008545,0.03043356622385912,-1.7078389448144897,-1.9251343976222164,-0.9901657700538635,-0.030428867787122726,0.13655081391334534,1.9786123037338257,-0.9340867400169373,2.1119446754455566
2.219943046569824,-0.03199338912963867,0.28543418645858765,0.05731774866580963,-0.017850428059618773,-1.725175195792007,-1.8937182564556636,-0.9879500269889832,0.017849480733275414,0.15374192595481873,1.7795451879501343,-0.6742770671844482,2.1429877281188965
2.243129014968872,-0.314486026763916,-0.0012083016335964203,0.11451709270477295,-0.05901231947870958,-1.7285223745518845,-1.8693379225366906,-0.9858680367469788,0.05897807329893112,0.15679949522018433,1.2377679347991943,0.23456037044525146,1.4867655038833618
2.2629640102386475,-0.3411899209022522,-0.06339508295059204,0.09675119817256927,-0.09300910017446921,-1.7145386742992461,-1.8524499067965143,-0.9854092001914978,0.09287505596876144,0.1426287144422531,0.9308860301971436,0.9093062281608582,1.704219937324524
2.28312087059021,-0.13321632146835327,0.09144797921180725,0.15124356746673584,-0.12614090336981204,-1.6968403879031653,-1.8387651260141153,-0.9841848015785217,0.12580665946006775,0.1247117891907692,0.9472659230232239,0.5798985958099365,1.2395622730255127
2.302711009979248,-0.037460148334503174,0.0965677797794342,0.32329094409942627,-0.14816006915597324,-1.6841527853662734,-1.812762603298856,-0.9826967716217041,0.1476186066865921,0.11187461763620377,2.372365713119507,0.38968610763549805,0.6760750412940979
2.3226430416107178,-0.025688648223876953,-0.08197560906410217,0.2824608087539673,-0.16337463463728522,-1.6651885805475655,-1.7429006665908386,-0.9822917580604553,0.16264882683753967,0.09299709647893906,4.631137371063232,0.4127782881259918,0.4456971287727356
2.3429720401763916,0.06336873769760132,-0.508966326713562,0.37014734745025635,-0.17347030742674102,-1.6331585947897715,-1.6546329274769414,-0.9830769896507263,0.1726016104221344,0.061386507004499435,3.4165050983428955,0.9452017545700073,-0.007255000993609428
2.363996982574463,0.17697137594223022,-0.7870351076126099,0.354062557220459,-0.19136873353896133,-1.6076274134131971,-1.5974841780241218,-0.9810790419578552,0.19020281732082367,0.036150556057691574,2.05584454536438,0.3099386394023895,1.6495015621185303
2.383151054382324,0.1209416389465332,-0.4726915955543518,0.3756521940231323,-0.23549771821912038,-1.6053609461586302,-1.5701553355224622,-0.971817672252655,0.2333270013332367,0.03360389173030853,0.9330657124519348,-0.6843886971473694,2.3426625728607178
2.4024999141693115,-0.05049121379852295,-0.10308021306991577,0.4829331636428833,-0.2719154821061162,-1.6155060066187348,-1.5559589881914262,-0.9622955918312073,0.26857703924179077,0.04305261746048927,0.7286404967308044,-0.577307403087616,1.0420118570327759
2.4225518703460693,-0.009944677352905273,-0.12416994571685791,0.3882005214691162,-0.2852809455327221,-1.6202684648806678,-1.5339220511676612,-0.9584086537361145,0.2814270555973053,0.04745324328541756,1.5473552942276,-0.5386229157447815,0.4702906906604767
2.4423770904541016,0.2593942880630493,-0.3883098363876343,0.29097938537597656,-0.29760602551201837,-1.6221056428933338,-1.494143888567668,-0.954783022403717,0.2932323217391968,0.0490323007106781,2.283224582672119,-0.8623216152191162,0.6026417016983032
2.462567090988159,0.3586372137069702,-0.3751969635486603,0.19166970252990723,-0.3137770015326641,-1.6300862197086852,-1.4401411830254272,-0.9495033621788025,0.30865341424942017,0.05636201053857803,2.95430326461792,-1.5602781772613525,0.68166184425354
2.4821619987487793,0.25426530838012695,-0.12290140986442566,0.19711589813232422,-0.32785539663625607,-1.642560722435196,-1.3743592124107933,-0.9442984461784363,0.32201340794563293,0.06788358092308044,3.3132472038269043,-1.661607027053833,0.2442755550146103
2.502129077911377,0.13510239124298096,-0.10036301612854004,0.2521704435348511,-0.333274547335786,-1.648296207297751,-1.3048448231376135,-0.942139744758606,0.32713913917541504,0.0731622502207756,3.188141345977783,-1.0914229154586792,-0.12933135032653809
2.522130012512207,0.1979053020477295,-0.3212639093399048,0.3775414228439331,-0.3341298755969818,-1.6452850470703058,-1.2473993695760697,-0.9420765042304993,0.3279472887516022,0.07030414789915085,2.106318712234497,-0.5538403391838074,-0.14924989640712738
2.540911912918091,0.2015971541404724,-0.43435946106910706,0.3644752502441406,-0.3353064387766836,-1.6452394918928532,-1.2177101524343217,-0.9416941404342651,0.32905855774879456,0.07023248076438904,0.7372756600379944,-0.5147892236709595,0.0711989626288414
2.562001943588257,0.05371814966201782,-0.2704179883003235,0.4878808259963989,-0.3388300970560023,-1.650337508116848,-1.215658385266407,-0.940162181854248,0.332383930683136,0.07493972033262253,-0.43005016446113586,0.13897205889225006,0.201718270778656
2.5821170806884766,-0.04500859975814819,-0.2261168360710144,0.4451014995574951,-0.34070227843516654,-1.6442784494119227,-1.2288869505767934,-0.9399768114089966,0.3341490924358368,0.06919608265161514,-0.6806281208992004,0.7585582733154297,0.12157963961362839
2.601724863052368,0.15098971128463745,-0.22187024354934692,0.3132057189941406,-0.3433536144047563,-1.6348282594814971,-1.2403539163854846,-0.9397011995315552,0.3366468548774719,0.06025325506925583,-0.29205751419067383,0.4834166169166565,0.20409101247787476
2.622083902359009,0.21216630935668945,-0.1364620327949524,0.20843803882598877,-0.34592632089347414,-1.6308743998456758,-1.2390644634522079,-0.9390645623207092,0.3390682637691498,0.056485164910554886,0.4477444887161255,-0.13263344764709473,-0.006353028584271669
2.641929864883423,0.13789111375808716,-0.02956157922744751,0.1743718385696411,-0.34406451683884265,-1.6319149699143722,-1.2216703194387193,-0.939633846282959,0.3373161554336548,0.05750076100230217,1.1536837816238403,-0.5091263055801392,-0.252444326877594
2.6616909503936768,0.05596822500228882,-0.07514220476150513,0.19533944129943848,-0.339564881127505,-1.6331120905756005,-1.1928559134554928,-0.9410697221755981,0.3330768644809723,0.05871950462460518,1.4255855083465576,-0.5273880958557129,-0.3593990206718445
2.6821911334991455,0.007587552070617676,-0.15972501039505005,0.23815417289733887,-0.33432998310471945,-1.632821268937625,-1.1647109204536703,-0.9428141713142395,0.3281363248825073,0.058553099632263184,1.1558527946472168,-0.3407852351665497,-0.2738959491252899
2.7005741596221924,-0.022583186626434326,-0.1813245415687561,0.2381284236907959,-0.3330629723760222,-1.631349152708525,-1.1451375586049453,-0.943313479423523,0.326939195394516,0.05719021335244179,0.6719366908073425,-0.15468460321426392,0.03678249567747116
2.7213900089263916,-0.058299481868743896,-0.15924972295761108,0.22583162784576416,-0.3357331814319745,-1.6306426355934511,-1.1369315821845398,-0.9424787163734436,0.3294615149497986,0.05647130683064461,0.12230997532606125,-0.028838515281677246,0.14072708785533905
2.739993095397949,-0.09874916076660156,-0.1316719949245453,0.22856390476226807,-0.3383471369334003,-1.6304696694343215,-1.1394024879199331,-0.9416257739067078,0.33192840218544006,0.056256748735904694,-0.3116561472415924,0.1075923889875412,0.1425458788871765
2.7612030506134033,-0.1188734769821167,-0.10200139880180359,0.2366199493408203,-0.3400543147898604,-1.6301171016666185,-1.1478604157600643,-0.9410783648490906,0.333538293838501,0.05589107424020767,-0.40568971633911133,0.1922072321176529,0.05298219993710518
2.7811501026153564,-0.13091617822647095,-0.062888503074646,0.2063148021697998,-0.33933736059100505,-1.6284176055587487,-1.1542547997867936,-0.9414106607437134,0.33286231756210327,0.05430540442466736,-0.17514054477214813,0.18153025209903717,-0.08890261501073837
2.801053047180176,-0.11407226324081421,-0.08030679821968079,0.14329981803894043,-0.3363053421414926,-1.6257941748439144,-1.1537130854574162,-0.9425531625747681,0.33000168204307556,0.05189072713255882,0.21081052720546722,0.03966047242283821,-0.2111978977918625
2.8218319416046143,-0.09473413228988647,-0.08595576882362366,0.07072758674621582,-0.33170557052555283,-1.62470581695383,-1.1457361610687289,-0.9441147446632385,0.32565608620643616,0.050946108996868134,0.48170387744903564,-0.19881130754947662,-0.2886715829372406
2.840146064758301,-0.1377195119857788,-0.010410845279693604,0.06846737861633301,-0.3248722653224425,-1.626259307337146,-1.1323006076890603,-0.946234405040741,0.319187730550766,0.052534859627485275,0.7093421816825867,-0.3401586711406708,-0.47683534026145935
2.859981060028076,-0.22550290822982788,0.08221778273582458,0.06432938575744629,-0.3140957272901541,-1.6286519053511483,-1.1167416315604604,-0.9494849443435669,0.3089565634727478,0.0549943745136261,0.70662921667099,-0.3980640470981598,-0.6741281747817993
2.880918025970459,-0.31436586380004883,0.026185989379882812,0.02128482609987259,-0.3020717155901945,-1.631424217525022,-1.101709729038527,-0.9529682993888855,0.29749876260757446,0.05784735456109047,0.6547653675079346,-0.318450003862381,-0.5482646226882935
2.9000799655914307,-0.3668941855430603,0.02984839677810669,0.004127979278564453,-0.2942175428406412,-1.6336003546242128,-1.087262551740821,-0.955142617225647,0.2899911105632782,0.060065798461437225,0.6838341355323792,-0.28392156958580017,-0.32696080207824707
2.920837163925171,-0.39725250005722046,0.10042911767959595,0.014885663986206055,-0.28966745390073423,-1.6346629416003409,-1.0750533456757834,-0.9563852548599243,0.28563353419303894,0.06116427108645439,0.4692244827747345,-0.1912182867527008,-0.26103124022483826
2.9400641918182373,-0.4547918438911438,0.12556716799736023,0.008669018745422363,-0.2844577864743176,-1.635001342900509,-1.0668546334812703,-0.957836389541626,0.28063705563545227,0.0615825429558754,0.24148663878440857,-0.028752584010362625,-0.28792983293533325
2.960947036743164,-0.45587795972824097,0.10762107372283936,0.03865516185760498,-0.28002706203114164,-1.6327047144197808,-1.0639014989592654,-0.9592069387435913,0.2763816714286804,0.059458933770656586,0.05153059586882591,0.17464296519756317,-0.13381685316562653
2.980743169784546,-0.5115958452224731,0.10021480917930603,0.03277396410703659,-0.2799218606176133,-1.6274611139858342,-1.0639900089581535,-0.9595344662666321,0.27628055214881897,0.05443008616566658,-0.010591629892587662,0.3300670087337494,0.06537962704896927
3.0006630420684814,-0.5810139179229736,0.13996359705924988,0.018013834953308105,-0.28160560574679067,-1.619254210398506,-1.062100877325964,-0.9594829082489014,0.277898371219635,0.046530939638614655,0.2402544617652893,0.42880749702453613,0.07672730833292007
3.020803213119507,-0.5599334239959717,0.15572643280029297,0.04302823543548584,-0.2836547697829451,-1.609827485419836,-1.0538708869178617,-0.9593079686164856,0.27986621856689453,0.03746192529797554,0.566550076007843,0.25129833817481995,0.13388800621032715
3.0407330989837646,-0.5693415999412537,0.12197008728981018,0.052750349044799805,-0.28873280569309967,-1.6004068458960774,-1.0390371422974922,-0.9581853151321411,0.2847377061843872,0.028380660340189934,0.821320652961731,0.2635602355003357,0.28614670038223267
3.060225009918213,-0.6054933071136475,0.07859364151954651,0.030381441116333008,-0.2958192005770228,-1.5953951714223713,-1.0244094116792366,-0.9562743306159973,0.2915235757827759,0.02352798916399479,0.6822446584701538,-0.39931076765060425,0.5178461074829102
3.080470085144043,-0.4483502507209778,0.059472620487213135,-0.0505526065826416,-0.30593420846291186,-1.6061200115192127,-1.0100073072783686,-0.9529712200164795,0.30118414759635925,0.03367646038532257,0.5165656208992004,-1.0879522562026978,0.4033580422401428
3.1001060009002686,-0.5847560167312622,0.006656229496002197,0.059264179319143295,-0.31391927337678716,-1.6250968375095076,-1.0002264111016856,-0.9497288465499878,0.3087887465953827,0.05162150785326958,0.502093493938446,-1.0172911882400513,0.3669062554836273
3.1203958988189697,-0.5716502070426941,0.043731361627578735,0.1254568099975586,-0.3227112683159997,-1.6373598586612783,-0.9889776871484225,-0.9462789297103882,0.31713902950286865,0.06308086216449738,0.6585347056388855,-0.6022301316261292,0.4264200031757355
3.1400539875030518,-0.4981927275657654,0.13114485144615173,0.06908726692199707,-0.3314811786626417,-1.6428681248808388,-0.9731355969303891,-0.9431067705154419,0.32544392347335815,0.06808933615684509,0.8712222576141357,-0.5005799531936646,0.3396206498146057
3.159985065460205,-0.4395754337310791,0.10442465543746948,0.021376490592956543,-0.3387542859703806,-1.6470383701672286,-0.9551209659240866,-0.9404295086860657,0.3323124349117279,0.07183951884508133,0.8349878191947937,-0.5160807371139526,0.2981419563293457
3.1801979541778564,-0.3580204248428345,0.019453585147857666,0.0142437145113945,-0.3471416200689981,-1.6533629339780815,-0.9406775477293278,-0.9371455907821655,0.34021133184432983,0.07755324244499207,0.5796601176261902,-0.6124938726425171,0.4278574287891388
3.200010061264038,-0.35906368494033813,0.03517073392868042,-0.0012625381350517273,-0.35669906688680836,-1.6625660821848087,-0.9315820592851471,-0.9331117868423462,0.34918299317359924,0.08587263524532318,0.37225160002708435,-0.6000614762306213,0.43380141258239746
3.2200629711151123,-0.33642691373825073,0.04986429214477539,-0.01459311693906784,-0.36576896896417016,-1.6709687837955454,-0.9260819547115567,-0.9291677474975586,0.3576675057411194,0.0933896005153656,0.25128042697906494,-0.4181576073169708,0.45102357864379883
3.239989995956421,-0.2641803026199341,0.015410304069519043,-0.010148629546165466,-0.37726459606595875,-1.6756394593027841,-0.9226155418058961,-0.9245710968971252,0.36837881803512573,0.09729167073965073,0.156216561794281,-0.19279371201992035,0.6533368229866028
3.2601370811462402,-0.24834966659545898,0.02670934796333313,-0.029844149947166443,-0.39118076132836943,-1.6789849654428046,-0.9226606793533306,-0.9190546870231628,0.38128024339675903,0.09982103854417801,0.00620986707508564,-0.15899784862995148,0.6969001293182373
3.280073881149292,-0.2892343997955322,0.07067245244979858,-0.06310689449310303,-0.4044023963696712,-1.6816758052916263,-0.9240733606718788,-0.9136922955513,0.3934694230556488,0.1017269492149353,0.03113160841166973,-0.048572804778814316,0.6312000155448914
3.300014019012451,-0.27040380239486694,0.07943770289421082,-0.061231836676597595,-0.41662666818570604,-1.6818520194683095,-0.9242878697667886,-0.9088261127471924,0.40467798709869385,0.10134731233119965,0.05153622850775719,0.02793794870376587,0.6092880368232727
3.3200299739837646,-0.20586121082305908,0.048618972301483154,-0.015118226408958435,-0.42927273197688803,-1.6817101848611387,-0.9266526300928635,-0.9036818146705627,0.4162096381187439,0.10064388066530228,-0.14244739711284637,0.0712338462471962,0.6792675256729126
3.3399951457977295,-0.22568494081497192,0.036347538232803345,0.04164719581604004,-0.4426589467659409,-1.6820129843832838,-0.93408470328738,-0.8980333209037781,0.42834365367889404,0.10029011219739914,-0.36459028720855713,0.2527071237564087,0.7360559701919556
3.3599979877471924,-0.2243230938911438,0.012422442436218262,0.03828631341457367,-0.45735031469404147,-1.6793051967186001,-0.944782129038329,-0.8919488191604614,0.44157230854034424,0.09716600924730301,-0.3861559331417084,0.43192920088768005,0.830761194229126
3.379995107650757,-0.13777989149093628,0.01871052384376526,-0.016633152961730957,-0.47345049490391317,-1.6742101321577258,-0.9522764079223573,-0.885245680809021,0.4559599459171295,0.0918743684887886,-0.0699506402015686,0.39760279655456543,0.8254795670509338
3.399991035461426,-0.08318459987640381,0.04679548740386963,-0.04518949240446091,-0.4890884912839662,-1.6665916640344411,-0.9509375905630212,-0.878714382648468,0.4698214530944824,0.08443517982959747,0.32486215233802795,0.2934720516204834,0.708857536315918
3.4199910163879395,-0.05249226093292236,0.007764339447021484,-0.011679418385028839,-0.5023753039338136,-1.6572647694760971,-0.9427454820128776,-0.8731668591499329,0.48150870203971863,0.07569011300802231,0.4706917107105255,0.28688162565231323,0.5666124820709229
3.4399921894073486,-0.02826988697052002,-0.08075019717216492,0.008175723254680634,-0.5138130795390187,-1.6453338184398303,-0.9326433120830161,-0.8684585690498352,0.4915015399456024,0.06485287100076675,0.5008648037910461,0.41988813877105713,0.5121656656265259
3.4599931240081787,0.021108925342559814,-0.09950685501098633,0.020313739776611328,-0.5239033314800793,-1.631485170844896,-0.9220469475661519,-0.8642791509628296,0.5002637505531311,0.052516594529151917,0.46801817417144775,0.4182450473308563,0.430826872587204
3.4800260066986084,0.020640015602111816,-0.09741353988647461,0.04046797379851341,-0.5318306785372753,-1.6182237171273564,-0.9125790650080289,-0.8609110116958618,0.5071120262145996,0.040861405432224274,0.40956994891166687,0.46667200326919556,0.31521937251091003
3.5002880096435547,0.025613784790039062,-0.12428838014602661,0.05815589427947998,-0.5373859709433343,-1.6034796529604038,-0.9042338610122846,-0.8585911393165588,0.5118921399116516,0.028071610257029533,0.3285377621650696,0.5742686986923218,0.2140675187110901
3.5200870037078857,0.07170277833938599,-0.13480091094970703,0.07069563865661621,-0.5408166769935153,-1.5888435882635759,-0.8982785701702134,-0.8571489453315735,0.514836311340332,0.015470870770514011,0.18692943453788757,0.5725208520889282,0.11188904941082001
3.540050983428955,0.09974843263626099,-0.13037532567977905,0.059363603591918945,-0.5420089986974787,-1.5763990178076877,-0.8959812172259661,-0.8566606640815735,0.5158581137657166,0.004799655172973871,0.017427366226911545,0.5645170211791992,0.011122317984700203
3.5600459575653076,0.10552865266799927,-0.08542799949645996,0.0460505485534668,-0.5416053910028952,-1.5657752915653935,-0.8967744832546458,-0.856871485710144,0.5155122876167297,-0.0043024178594350815,-0.07012661546468735,0.5529595613479614,-0.04209905117750168
3.580127000808716,0.10604161024093628,-0.05036759376525879,0.06828171014785767,-0.5406312362319745,-1.5539435329064026,-0.8980338660167265,-0.8572623133659363,0.5146772861480713,-0.014448633417487144,-0.02570239268243313,0.7238389849662781,-0.04552774876356125
3.600041151046753,0.13645881414413452,-0.0863504409790039,0.11489427089691162,-0.5408835002828043,-1.5364949924135263,-0.8980749765167149,-0.8567500114440918,0.5148935914039612,-0.029399199411273003,-0.002660083118826151,1.0064001083374023,0.09362021088600159
3.6201469898223877,0.17201471328735352,-0.09576088190078735,0.11620724946260452,-0.5443530048487653,-1.5168893845110183,-0.9005280615526702,-0.8542197346687317,0.5178647041320801,-0.04609303176403046,-0.2477979063987732,1.0614352226257324,0.2087043970823288
3.640094041824341,0.1596577763557434,-0.06121033430099487,0.08743613213300705,-0.5482765485898461,-1.5001097622289299,-0.9084795151067204,-0.8512930870056152,0.5212171673774719,-0.06027540937066078,-0.4169333875179291,1.0535575151443481,0.1535116732120514
3.6599810123443604,0.15433764457702637,-0.04539632797241211,0.05015408992767334,-0.552584155693701,-1.4836532708215284,-0.9181068780667239,-0.8479412198066711,0.5248885154724121,-0.07407980412244797,-0.4556189179420471,1.0915902853012085,0.22639517486095428
3.6799981594085693,0.17359822988510132,-0.05142134428024292,0.04537493735551834,-0.5586521610012177,-1.4681251254262635,-0.9294585424321851,-0.8435048460960388,0.5300437808036804,-0.08690924942493439,-0.5578372478485107,1.0746848583221436,0.2804033160209656
3.700017213821411,0.18227535486221313,-0.06501716375350952,0.03735612332820892,-0.5659570786534565,-1.4533996420568387,-0.9422105529743166,-0.838266134262085,0.5362238883972168,-0.09886426478624344,-0.5829814672470093,1.0825971364974976,0.33199095726013184
3.720062017440796,0.18506395816802979,-0.0726119875907898,0.06300680339336395,-0.5745263894770044,-1.4383488047061672,-0.954583618276141,-0.8320977687835693,0.5434373021125793,-0.11085829138755798,-0.5369538068771362,1.1129776239395142,0.3832702934741974
3.7399919033050537,0.17213135957717896,-0.07282841205596924,0.05560678243637085,-0.5836635675285321,-1.4207223983644433,-0.9633441580073571,-0.8250702023506165,0.5510846972465515,-0.12475956231355667,-0.29261595010757446,1.1179794073104858,0.4173371195793152
3.7599918842315674,0.15423506498336792,-0.007269382476806641,0.03373424708843231,-0.5922371949799774,-1.3998157903220239,-0.9646842900041648,-0.8175958395004272,0.5582185983657837,-0.14117135107517242,0.05067947506904602,1.0597615242004395,0.40023931860923767
3.7799971103668213,0.15694648027420044,-3.057718276977539e-05,0.03073805570602417,-0.598939144431908,-1.3763769627632,-0.9590135001126046,-0.8103736639022827,0.563766598701477,-0.1595679223537445,0.2316892445087433,0.9651279449462891,0.35940951108932495
3.7999908924102783,0.1787894368171692,-0.06089121103286743,0.06087006628513336,-0.6054299915043513,-1.3531472572227359,-0.9523345909767035,-0.8028585910797119,0.5691156983375549,-0.1775539666414261,0.12537315487861633,1.0174529552459717,0.40691420435905457
3.8199920654296875,0.20756757259368896,-0.1275128722190857,0.07544572651386261,-0.6140873073833649,-1.331095297132192,-0.9506606256426986,-0.793932318687439,0.5762128233909607,-0.19403694570064545,-0.20971032977104187,1.097456932067871,0.46290093660354614
3.8400120735168457,0.24289816617965698,-0.13425642251968384,0.05947655439376831,-0.6253894847030435,-1.312265313736295,-0.9556551929670589,-0.7837917804718018,0.5854130983352661,-0.20727311074733734,-0.41015806794166565,1.0641156435012817,0.51849365234375
3.859992027282715,0.2795516848564148,-0.11062991619110107,0.028552204370498657,-0.6371769712839115,-1.2946507462830248,-0.9615466874603547,-0.7733262777328491,0.5949287414550781,-0.21914967894554138,-0.335990846157074,1.026953935623169,0.49583539366722107
3.8800570964813232,0.3172258138656616,-0.11796194314956665,0.01285618543624878,-0.648300258617926,-1.2769077988134252,-0.963691385702689,-0.7629351019859314,0.6038324236869812,-0.2309042364358902,-0.1258188635110855,0.896380603313446,0.4926244020462036
3.899994134902954,0.3309440016746521,-0.14263027906417847,0.016854479908943176,-0.6571867473925116,-1.2585416424714941,-0.9608813341175296,-0.7534293532371521,0.6108919978141785,-0.2432185560464859,0.046800967305898666,0.7762487530708313,0.43418943881988525
3.9199941158294678,0.3259648084640503,-0.16903573274612427,0.023097515106201172,-0.6647351638992455,-1.2413106943497239,-0.9564760137152937,-0.7447422742843628,0.616850733757019,-0.254664808511734,0.03817930817604065,0.6819339990615845,0.39278697967529297
3.9400041103363037,0.30570870637893677,-0.211489737033844,0.03464221954345703,-0.6712320606544075,-1.2263427369330149,-0.9531397213209346,-0.7370594143867493,0.6219512224197388,-0.26442426443099976,-0.0017578047700226307,0.6184340715408325,0.3105615973472595
3.959994077682495,0.2925494909286499,-0.21531778573989868,0.05010026693344116,-0.6773045137337546,-1.2143349421235954,-0.9510783449703766,-0.7302784323692322,0.6266947984695435,-0.2719324827194214,-0.08275635540485382,0.46545758843421936,0.291416198015213
3.979992151260376,0.26383405923843384,-0.23563051223754883,0.06981691718101501,-0.6816633995029545,-1.2071585176714954,-0.9530555597382377,-0.7257481813430786,0.6300855875015259,-0.2761920094490051,-0.18721561133861542,0.3704238533973694,0.07917065918445587
3.999994993209839,0.22056573629379272,-0.1968984603881836,0.07373151183128357,-0.6840364589309555,-1.2036919977046463,-0.95752885680737,-0.7233886122703552,0.6319265365600586,-0.2781686782836914,-0.19359001517295837,0.2992221713066101,0.04819154366850853
4.019994020462036,0.15348559617996216,-0.12640589475631714,0.04962664842605591,-0.6867603896402482,-1.2012423621107067,-0.9629144698699886,-0.7210973501205444,0.6340352892875671,-0.27931714057922363,-0.3407708406448364,0.2883791923522949,0.03165407106280327
4.039993047714233,0.06979435682296753,-0.06972724199295044,0.009132832288742065,-0.6891208646509935,-1.2029871528359586,-0.9743936953343739,-0.7201850414276123,0.6358588933944702,-0.2775196433067322,-0.5415012240409851,0.25970831513404846,-0.11443036794662476
4.060021162033081,0.034661948680877686,0.01838099956512451,-0.039359450340270996,-0.691530008815821,-1.2082221887469022,-0.9896307853179107,-0.72019362449646,0.6377164721488953,-0.27320152521133423,-0.6594504714012146,0.18261007964611053,-0.054905347526073456
4.0800840854644775,0.011863648891448975,0.07912462949752808,-0.06463518738746643,-0.6960372871784388,-1.216068112365852,-1.00701573964875,-0.7196120619773865,0.6411817669868469,-0.266541451215744,-0.7103702425956726,0.19603312015533447,-0.005830336362123489
4.100001096725464,-0.017509758472442627,0.04939955472946167,-0.06028136610984802,-0.702338448841448,-1.2191435018602388,-1.0217486400460394,-0.7166211009025574,0.6460044980049133,-0.2629302144050598,-0.5480177402496338,0.41047415137290955,0.23609639704227448
4.119996070861816,-0.040909767150878906,0.10299795866012573,-0.16978934407234192,-0.7112753099843928,-1.2191157378804462,-1.034324992330183,-0.7111654281616211,0.6528003811836243,-0.2609509229660034,-0.7680619955062866,0.28297343850135803,0.22688859701156616
4.139993906021118,0.029852747917175293,0.09421563148498535,-0.23465043306350708,-0.7174061037672835,-1.2266348777002365,-1.0434652879333741,-0.7093266248703003,0.6574323773384094,-0.25424110889434814,0.13420899212360382,-0.382593035697937,0.17412281036376953
4.160052061080933,0.1056414246559143,0.12969571352005005,-0.1986972689628601,-0.7181511394888656,-1.2298390691146952,-1.0300377629378636,-0.7096759080886841,0.6579935550689697,-0.25180312991142273,0.6524143815040588,-0.751046895980835,0.20424620807170868
4.179991960525513,0.03194683790206909,-0.07546383142471313,-0.10779039561748505,-0.7167605685440273,-1.2332378016575793,-1.0117087657279982,-0.7113901972770691,0.6569457650184631,-0.24969245493412018,0.6338765025138855,-0.7523042559623718,0.13103178143501282
4.199992895126343,-0.02268528938293457,-0.15991348028182983,-0.08912228047847748,-0.7155567418600273,-1.2361657458142097,-0.9964698533180738,-0.7128646373748779,0.6560376882553101,-0.24786800146102905,0.5246607661247253,-0.5378384590148926,0.13205669820308685
4.220026016235352,-0.03354543447494507,-0.16831845045089722,-0.10277941823005676,-0.7139572640317341,-1.2364350632853927,-0.9824508572662811,-0.7139216065406799,0.6548296809196472,-0.2480200231075287,0.5337115526199341,-0.43064287304878235,0.05079243704676628
4.239993095397949,-0.04786360263824463,-0.18782484531402588,-0.1015215516090393,-0.7101753755307025,-1.2351290789206997,-0.9689553825210852,-0.7159304022789001,0.6519667506217957,-0.24976621568202972,0.5418208241462708,-0.31049248576164246,-0.07197068631649017
4.259996175765991,-0.08641612529754639,-0.23026728630065918,-0.10667175054550171,-0.7048047986427491,-1.232791683436053,-0.9575751395755545,-0.7186375856399536,0.6478851437568665,-0.2525964081287384,0.41726914048194885,-0.19756104052066803,-0.135597825050354
4.2800328731536865,-0.1205434799194336,-0.2592100501060486,-0.044830888509750366,-0.699823197945809,-1.2303619630165579,-0.9515723024907285,-0.7210550308227539,0.6440824270248413,-0.25541621446609497,0.19566799700260162,0.0811091959476471,-0.1927585005760193
4.30002498626709,-0.12665021419525146,-0.24007785320281982,0.001637876033782959,-0.6939166378544702,-1.2262016526455868,-0.9513575407855285,-0.7235543131828308,0.6395530104637146,-0.2596944570541382,0.03415737301111221,0.308691143989563,-0.3789013922214508
4.319993019104004,-0.10499370098114014,-0.26055556535720825,0.003457009792327881,-0.6854121114561801,-1.2217078415725708,-0.955449982531032,-0.7274648547172546,0.6329920887947083,-0.2647942006587982,-0.05710776150226593,0.38188350200653076,-0.496842622756958
4.339994192123413,-0.10272735357284546,-0.3121812343597412,0.02159455418586731,-0.6773249545541256,-1.218904022745977,-0.9644120194421489,-0.7315012216567993,0.6267107129096985,-0.2685885429382324,-0.3410243093967438,0.48533809185028076,-0.5016205310821533
4.360079050064087,-0.1365671157836914,-0.3220759630203247,0.017010390758514404,-0.6703044504327444,-1.2169198876992058,-0.9796170837277823,-0.7350759506225586,0.621224582195282,-0.27155742049217224,-0.4777146577835083,0.6542282104492188,-0.573827862739563
4.3800060749053955,-0.14516758918762207,-0.26189160346984863,-0.015265822410583496,-0.6617415496419374,-1.2136478767748953,-0.9960152246293449,-0.7391403317451477,0.6144917607307434,-0.27581077814102173,-0.44242334365844727,0.6793203949928284,-0.693377673625946
4.40001106262207,-0.12403929233551025,-0.23553776741027832,-0.03996440768241882,-0.6502437372255115,-1.2113004384237351,-1.013018084869892,-0.7450556755065918,0.6053804159164429,-0.2800123691558838,-0.4094471037387848,0.5869420766830444,-0.8586045503616333
4.41999888420105,-0.10204917192459106,-0.2748919129371643,-0.03749912977218628,-0.6361535936629327,-1.211447781457555,-1.0314906371373465,-0.7530076503753662,0.5941058397293091,-0.28287431597709656,-0.5263649821281433,0.5211186408996582,-0.9704318046569824
4.439992189407349,-0.07705503702163696,-0.30085593461990356,0.015073508024215698,-0.6221421761156987,-1.214567357791213,-1.055211599569548,-0.7616137266159058,0.5827773213386536,-0.28339922428131104,-0.798597514629364,0.5884990692138672,-0.9874983429908752
4.460028886795044,-0.06261682510375977,-0.2832072973251343,0.011797070503234863,-0.6109652694506577,-1.2200166840751134,-1.085640146127721,-0.7692160606384277,0.5736583471298218,-0.281465619802475,-1.1399815082550049,0.5908582806587219,-0.9484773874282837
4.479995012283325,-0.06902706623077393,-0.2068263292312622,-0.011492937803268433,-0.6005946956335019,-1.2300293915887155,-1.1216667988230364,-0.7775610685348511,0.5651332139968872,-0.2757231593132019,-1.2401268482208252,0.43245622515678406,-1.0403835773468018
4.499993085861206,-0.13431614637374878,-0.10386466979980469,-0.05836412310600281,-0.587398274513615,-1.2435057947437487,-1.1569735509718329,-0.7881997227668762,0.5541972517967224,-0.2675940692424774,-1.0780845880508423,0.20776772499084473,-1.1983413696289062
4.519543886184692,-0.25173330307006836,-0.023757576942443848,-0.07365396618843079,-0.5677661018115604,-1.257518406513332,-1.1886525381069224,-0.802069365978241,0.5377500057220459,-0.2598268389701843,-0.8295328617095947,0.13969093561172485,-1.527373194694519
4.539993047714233,-0.28500425815582275,0.025082767009735107,-0.027822375297546387,-0.5404761485597621,-1.2704993252523251,-1.217861986147874,-0.8190912008285522,0.5145443081855774,-0.25364118814468384,-0.7795029282569885,0.07877733558416367,-1.8032660484313965
4.560020208358765,-0.24114978313446045,0.04374745488166809,0.05230402946472168,-0.5101710902857555,-1.2871225849356136,-1.2507156822528316,-0.8377839922904968,0.4883265495300293,-0.24424424767494202,-1.128312587738037,-0.09655933082103729,-1.9014804363250732
4.579488039016724,-0.24689733982086182,0.05873465538024902,0.08479368686676025,-0.4812322457750213,-1.3099321022441834,-1.292980740962178,-0.856435239315033,0.46287181973457336,-0.2286229431629181,-1.6988145112991333,-0.13833029568195343,-1.8947381973266602
4.599992990493774,-0.24273866415023804,0.08837136626243591,0.0642615556716919,-0.45576276164449026,-1.3349844921954381,-1.3476550412279225,-0.8730756044387817,0.440147340297699,-0.20978456735610962,-2.3504648208618164,0.11497049778699875,-1.7587344646453857
4.619996070861816,-0.11678159236907959,0.12055215239524841,0.011622071266174316,-0.4343429447458724,-1.3593418635038252,-1.411708233428395,-0.8869416117668152,0.4208144545555115,-0.19039393961429596,-2.7911360263824463,0.20646250247955322,-1.6103923320770264
4.640002012252808,0.0614737868309021,0.16416537761688232,-0.030706703662872314,-0.4161308497614195,-1.3826000860340333,-1.4789219177877717,-0.8985099792480469,0.40422454476356506,-0.1711212396621704,-2.799860715866089,0.21781164407730103,-1.3807227611541748
4.660001993179321,0.2062053084373474,0.19466334581375122,-0.05063121020793915,-0.40055708638344834,-1.4032011103307152,-1.5403185035423501,-0.9079417586326599,0.3899313807487488,-0.1536075919866562,-2.4408488273620605,0.15326620638370514,-1.143154501914978
4.680016040802002,0.2818441390991211,0.2332097887992859,-0.058296024799346924,-0.3856540648428797,-1.4210421604841927,-1.5873251382241103,-0.9161825776100159,0.3761652410030365,-0.1382370889186859,-1.6303980350494385,-0.13396182656288147,-1.0382431745529175
4.700053930282593,0.3138565421104431,0.2491900622844696,-0.029040157794952393,-0.37060975474788876,-1.4356945155076735,-1.6165748180332404,-0.9236131310462952,0.3621838688850403,-0.12554657459259033,-0.8468431830406189,-0.2822575569152832,-0.859786331653595
4.720018148422241,0.2562164068222046,0.24630871415138245,-0.010007917881011963,-0.35453188337255365,-1.447197093077402,-1.6284158870837349,-0.9306549429893494,0.34715139865875244,-0.11561758816242218,-0.07256370782852173,-0.41330400109291077,-0.9086484313011169
4.740117073059082,0.14914852380752563,0.3044270873069763,0.012689352035522461,-0.33499759889150965,-1.455022169582186,-1.6257500943088148,-0.9380890130996704,0.32876691222190857,-0.10909432172775269,0.5350802540779114,-0.4554177224636078,-1.0200855731964111
4.760128021240234,0.057182133197784424,0.30922508239746094,0.04279930889606476,-0.31146321835830376,-1.4594478143530834,-1.6127059937686672,-0.9459912776947021,0.3064517676830292,-0.1057722270488739,0.9059383273124695,-0.4019893705844879,-1.1687153577804565
4.7799952030181885,0.01696336269378662,0.3015223443508148,0.07516752183437347,-0.2859461988355537,-1.4620784065189927,-1.5963217614530065,-0.953731119632721,0.28206536173820496,-0.1040981188416481,0.8787128925323486,-0.3459758162498474,-1.1764352321624756
4.799967050552368,0.018745124340057373,0.293025940656662,0.0951392650604248,-0.26199351805600113,-1.465116639690936,-1.5838773400229924,-0.9604871273040771,0.2590065598487854,-0.10188354551792145,0.5311557650566101,-0.29302099347114563,-1.0757954120635986
4.819975137710571,0.03693580627441406,0.29213690757751465,0.10287905484437943,-0.2415937783966256,-1.4692071960521818,-1.579994314627324,-0.9659519195556641,0.23925042152404785,-0.09846919029951096,0.06934650242328644,-0.2067725658416748,-0.9013986587524414
4.839998006820679,0.07789063453674316,0.3048036992549896,0.09318499267101288,-0.226360310627757,-1.4732637056653488,-1.5838629931613741,-0.9698585867881775,0.22443218529224396,-0.0948939323425293,-0.2741298973560333,-0.11402345448732376,-0.653659462928772
4.85993504524231,0.13635289669036865,0.3311070501804352,0.08469825983047485,-0.21660322456716663,-1.4771227135117482,-1.5927907903655134,-0.9723514914512634,0.214913472533226,-0.09135102480649948,-0.47657331824302673,-0.09123087674379349,-0.3980070650577545
4.879968881607056,0.18505877256393433,0.34728169441223145,0.07667708396911621,-0.21221470212207538,-1.4817529174835422,-1.6033555725191493,-0.9736940860748291,0.21062543988227844,-0.08693091571331024,-0.485530287027359,-0.15990838408470154,-0.1335294097661972
4.899996042251587,0.18692398071289062,0.36873000860214233,0.05358559638261795,-0.2123764202236876,-1.4876458692476282,-1.611446982742717,-0.9741554260253906,0.21078352630138397,-0.08118867129087448,-0.2674732208251953,-0.2651626169681549,0.0670294240117073
4.92000412940979,0.14665818214416504,0.39057856798171997,0.023140370845794678,-0.21514223764380358,-1.4944001167475314,-1.6127573686415195,-0.9740965962409973,0.21348638832569122,-0.07456240057945251,0.14224188029766083,-0.3859254717826843,0.1874082386493683
4.9399778842926025,0.09239828586578369,0.3972061276435852,-0.0030214786529541016,-0.2192152344807931,-1.5013463846469135,-1.605029551675301,-0.9737155437469482,0.21746370196342468,-0.06773342192173004,0.5684652328491211,-0.46587419509887695,0.26694947481155396
4.959965944290161,0.05957472324371338,0.35962897539138794,-0.002054750919342041,-0.2244186193922222,-1.5076589363269723,-1.5904458834706663,-0.9729811549186707,0.22253960371017456,-0.06151324883103371,0.7889776229858398,-0.47067689895629883,0.3548898696899414
4.979961156845093,0.047246456146240234,0.29924893379211426,-0.006981063634157181,-0.23178198361191632,-1.5125589354464164,-1.5730770706794452,-0.9716085195541382,0.22971221804618835,-0.05664800480008125,0.8309168815612793,-0.4176265597343445,0.4986504018306732
4.9999940395355225,0.02072298526763916,0.26868724822998047,-0.03605222329497337,-0.24265934360063107,-1.516470733230844,-1.555443636651195,-0.9692703485488892,0.24028490483760834,-0.05270804837346077,0.8262307047843933,-0.37008237838745117,0.6832075715065002
5.020049095153809,-0.032314956188201904,0.2498987913131714,-0.06874394416809082,-0.2570264657109217,-1.518411564787306,-1.5378818672591856,-0.9658234715461731,0.2542058229446411,-0.050640761852264404,0.7824005484580994,-0.246013805270195,0.8475792407989502
5.040003061294556,-0.07018744945526123,0.20094352960586548,-0.09184383600950241,-0.2749027145303767,-1.5173598055395452,-1.52159766317697,-0.9610777497291565,0.27145329117774963,-0.051405590027570724,0.6917716860771179,-0.07447595149278641,1.0285921096801758
5.0599939823150635,-0.10221976041793823,0.1510668694972992,-0.11092650145292282,-0.29670293387804575,-1.512758777824298,-1.5073705973211846,-0.954695463180542,0.2923687994480133,-0.055470481514930725,0.5684289932250977,0.12389394640922546,1.2342158555984497
5.079241037368774,-0.1480758786201477,0.115500807762146,-0.12752872705459595,-0.3224460823117487,-1.5046868678682352,-1.4945082815788504,-0.9463913440704346,0.3168875277042389,-0.06265672296285629,0.5027747750282288,0.30225643515586853,1.4140405654907227
5.100007057189941,-0.22208434343338013,0.0684642493724823,-0.1011153981089592,-0.35133192328966706,-1.4931776632993747,-1.482747337480383,-0.9360882639884949,0.3441486656665802,-0.07280418276786804,0.38124269247055054,0.43260037899017334,1.5402319431304932
5.119996070861816,-0.37094050645828247,-0.01489168405532837,0.026455946266651154,-0.3819609300638318,-1.4820839147092304,-1.476108901254383,-0.9242865443229675,0.37274080514907837,-0.08221147209405899,-0.0815621167421341,0.4995605945587158,1.5446467399597168
5.139992952346802,-0.6444388628005981,-0.1642998456954956,0.14478552341461182,-0.41166926234033235,-1.4687112871318455,-1.4826492339108284,-0.9116829633712769,0.4001396894454956,-0.09339384734630585,-0.8319210410118103,1.2283364534378052,1.3205487728118896
5.159999132156372,-0.6470831036567688,-0.3593490421772003,0.1849583387374878,-0.4374368796923151,-1.4437572546426194,-1.506898204563072,-0.898540735244751,0.4236190915107727,-0.11476785689592361,-1.6393182277679443,2.209510326385498,0.9971336722373962
5.180058002471924,-0.22324979305267334,-0.4419461488723755,0.1269024759531021,-0.45953684239969395,-1.4118865362505826,-1.5439604246771639,-0.8849654793739319,0.4435330331325531,-0.14182549715042114,-1.8393710851669312,2.482070207595825,0.7208324074745178
5.200001001358032,0.12286943197250366,-0.40905022621154785,-0.005667939782142639,-0.47844141203472673,-1.379356297132747,-1.5767480693587228,-0.871496319770813,0.4603961408138275,-0.1689077913761139,-1.289239525794983,2.208017349243164,0.6855923533439636
5.219994068145752,0.32776010036468506,-0.3692411780357361,-0.10237959027290344,-0.4946171833714716,-1.3503055501949945,-1.5941329410249538,-0.8588424324989319,0.47469475865364075,-0.19249647855758667,-0.5593586564064026,1.4513180255889893,0.5122804045677185
5.2400290966033936,0.34620505571365356,-0.36120665073394775,-0.09524005651473999,-0.49974630544998755,-1.333025861425661,-1.5976621176111745,-0.8530105352401733,0.47920289635658264,-0.20673131942749023,0.10780220478773117,0.46503564715385437,-0.09874933958053589
5.260047197341919,0.1614503264427185,-0.3714427947998047,0.01861746609210968,-0.49207529210709233,-1.3262433119658887,-1.594282405324477,-0.855130136013031,0.4724559783935547,-0.2133958488702774,0.27491217851638794,0.16636967658996582,-0.5127030611038208
5.2799952030181885,-0.15035206079483032,-0.4364554286003113,0.1525934934616089,-0.4810390732561498,-1.3198275017412249,-1.5953945390762239,-0.8587422370910645,0.46270057559013367,-0.22015933692455292,-0.21807993948459625,0.6451592445373535,-0.5572842359542847
5.299993991851807,-0.36259496212005615,-0.4763070344924927,0.2768304944038391,-0.4739214935044317,-1.3072771395768925,-1.613045679881141,-0.8590695261955261,0.45637908577919006,-0.23177121579647064,-1.1645771265029907,1.367929458618164,-0.5376537442207336
5.320029020309448,-0.2779731750488281,-0.41946348547935486,0.2913561165332794,-0.4721679218437064,-1.2948815487173155,-1.6507699366500421,-0.8568992018699646,0.45481806993484497,-0.24261942505836487,-1.9619899988174438,1.4893218278884888,-0.5174437761306763
5.339994192123413,-0.126428484916687,-0.27939262986183167,0.22330495715141296,-0.47407608759469994,-1.2909093393414344,-1.7008493749464777,-0.8550930619239807,0.4565166234970093,-0.2457810789346695,-2.3386991024017334,1.179818034172058,-0.5654761791229248
5.360018014907837,-0.07003438472747803,-0.13499370217323303,0.1751880645751953,-0.4742934763199506,-1.2956104081882167,-1.7567268528873399,-0.8561436533927917,0.4567100405693054,-0.24173159897327423,-2.394561290740967,0.9415947198867798,-0.7896316051483154
5.380005121231079,0.006156265735626221,-0.10703861713409424,0.13048607110977173,-0.46946144512847865,-1.3027983761869653,-1.8098565907044257,-0.859977126121521,0.45240604877471924,-0.23615309596061707,-1.971891164779663,0.7522460222244263,-0.9185939431190491
5.399996042251587,0.10649371147155762,-0.057178795337677,0.09392590820789337,-0.4603522801285852,-1.309678104220616,-1.8508210904745677,-0.8655269742012024,0.4442637264728546,-0.2312854677438736,-1.33713960647583,0.37123629450798035,-0.9270377159118652
5.419994115829468,0.15675652027130127,0.0059629082679748535,0.09459167718887329,-0.4479389863659274,-1.3192423556797053,-1.8804440686468333,-0.872973620891571,0.43310877680778503,-0.22435235977172852,-1.0783652067184448,0.032372020184993744,-0.9267321825027466
5.439995050430298,0.12772667407989502,-0.028866887092590332,0.11657699942588806,-0.4378837301222877,-1.3306630782460167,-1.9112864416058437,-0.8796647191047668,0.4240238070487976,-0.21539288759231567,-1.6317365169525146,0.19798904657363892,-0.6442870497703552
5.459993124008179,0.02767205238342285,-0.07300809025764465,0.01126757264137268,-0.42722552297390076,-1.3418021348983047,-1.9454404070358065,-0.8863605856895447,0.4143472909927368,-0.2065952867269516,-1.1888591051101685,0.04700484871864319,-1.1175787448883057
5.480001211166382,0.11520415544509888,0.1527732014656067,0.07392913103103638,-0.41059230238807215,-1.3585858639474453,-1.9809859589487402,-0.8963168859481812,0.3991524577140808,-0.19311542809009552,-1.4770463705062866,-0.2240326851606369,-1.1216533184051514
5.499993085861206,0.14781463146209717,-0.030654549598693848,0.017736688256263733,-0.3959290328137729,-1.3792494549958638,-2.0151862943972234,-0.9057644605636597,0.38566550612449646,-0.17564983665943146,-1.4413707256317139,-0.48451852798461914,-0.9680442214012146
5.520057916641235,0.06997942924499512,0.11507594585418701,0.008627355098724365,-0.381310537490378,-1.4044281979182025,-2.051773663437011,-0.9153621792793274,0.372137188911438,-0.1537078469991684,-1.4829453229904175,-0.6434679627418518,-1.1513088941574097
5.539994955062866,0.03527647256851196,0.1697182059288025,-0.08270572125911713,-0.3609572752180424,-1.4295112554961908,-2.0818220252238318,-0.9262371063232422,0.3531699776649475,-0.1317412257194519,-1.0167781114578247,-0.7720814943313599,-1.2346326112747192
5.55999493598938,0.10245627164840698,0.19343876838684082,-0.09659558534622192,-0.3388735268973041,-1.453823288410058,-2.1033840447786107,-0.9366848468780518,0.3324248790740967,-0.11006934940814972,-0.7133203744888306,-0.933056116104126,-1.2474312782287598
5.579086065292358,0.13059163093566895,0.22566673159599304,-0.11499762535095215,-0.3151536519917042,-1.4785669406954671,-2.118449052332451,-0.9467080235481262,0.30996257066726685,-0.08756271749734879,-0.469416081905365,-1.0485690832138062,-1.2454208135604858
5.600052118301392,0.1172112226486206,0.2776019275188446,-0.15066635608673096,-0.29191008510079547,-1.502807670265269,-2.128032854812743,-0.9554834961891174,0.28778204321861267,-0.06506232172250748,-0.27482983469963074,-1.0842961072921753,-1.1407614946365356
5.619992971420288,0.07550960779190063,0.29510369896888733,-0.19317960739135742,-0.2708641471817644,-1.5264915975441227,-2.1350786914678253,-0.962594747543335,0.26756417751312256,-0.04267542436718941,-0.31555622816085815,-1.0773011445999146,-0.9999637007713318
5.639993906021118,0.0034500956535339355,0.3102571368217468,-0.21880722045898438,-0.2529794974180157,-1.5490886433459188,-2.14356604879971,-0.9679429531097412,0.2502897381782532,-0.021015100181102753,-0.44590049982070923,-0.9587644934654236,-0.8120179176330566
5.659995079040527,-0.09515547752380371,0.3726547956466675,-0.2074747085571289,-0.2393970984376398,-1.569022551303433,-2.1541356084454892,-0.9714797139167786,0.2371169626712799,-0.0017231886740773916,-0.5729682445526123,-0.7960037589073181,-0.5554888844490051
5.679998159408569,-0.2524549961090088,0.4612188935279846,-0.16914093494415283,-0.23096893295082568,-1.5862184619081094,-2.167252674443178,-0.9733292460441589,0.2289208322763443,0.015012005344033241,-0.7083763480186462,-0.5722278356552124,-0.2944979965686798
5.700031995773315,-0.41625821590423584,0.5085183382034302,-0.13271093368530273,-0.2265537696347493,-1.5953261160503387,-2.1823516383296857,-0.9741531014442444,0.22462069988250732,0.02390056475996971,-0.7755839228630066,0.03572831675410271,-0.12243687361478806
5.719994068145752,-0.30660682916641235,0.4980330467224121,-0.11247050762176514,-0.2263997414214808,-1.5927334448589894,-2.199362590892657,-0.9742464423179626,0.2244706004858017,0.021375587210059166,-0.8847318291664124,0.5355651378631592,0.19182857871055603
5.740058183670044,0.00611644983291626,0.4417578876018524,-0.11884355545043945,-0.2348015865064499,-1.585490465639242,-2.2177432468677325,-0.9724554419517517,0.232650026679039,0.014290424063801765,-0.8516028523445129,0.5425809025764465,0.688159167766571
5.760004997253418,0.20740550756454468,0.3735778331756592,-0.10286176204681396,-0.2526361735528069,-1.5790408370219846,-2.2298380766621455,-0.9682239890098572,0.24995732307434082,0.007982713170349598,-0.060171179473400116,0.3875176012516022,1.0209133625030518
5.780026197433472,0.21007120609283447,0.41409292817115784,-0.1735166311264038,-0.27019779426214385,-1.5703464940611582,-2.2133439843613227,-0.9637179970741272,0.2669220566749573,-0.0004335119156166911,1.73329758644104,0.04321437329053879,0.7034698724746704
5.79999303817749,0.15185678005218506,0.30303558707237244,-0.20766568183898926,-0.28222377946830185,-1.5567448588221764,-2.1597122279515593,-0.9603437781333923,0.27849215269088745,-0.0134951276704669,3.2900443077087402,-0.18809635937213898,0.6005139946937561
5.819995164871216,0.04575216770172119,0.038071781396865845,0.015009105205535889,-0.29527113476052574,-1.5423293748847988,-2.0890589660665313,-0.956335723400116,0.29099926352500916,-0.02723131887614727,3.1653106212615967,-0.2819109857082367,0.928924024105072
5.840006113052368,-0.19560980796813965,-0.08218443393707275,0.26285791397094727,-0.31825810288900275,-1.5274756333540307,-2.0391323162293395,-0.9488911032676697,0.31291261315345764,-0.041132353246212006,1.3502928018569946,0.3414742946624756,1.5021928548812866
5.85999608039856,-0.37379467487335205,-0.07257762551307678,0.38172924518585205,-0.3488842315965846,-1.5089426514820763,-2.0246666397793294,-0.9379575848579407,0.3418494760990143,-0.058090224862098694,-0.05967868119478226,0.974125862121582,1.653010368347168
5.880046129226685,-0.2415562868118286,0.08003905415534973,0.37686794996261597,-0.38822767345644826,-1.490070659680798,-2.026971668252356,-0.9225672483444214,0.37854859232902527,-0.07463705539703369,-0.03647749125957489,0.8479722738265991,2.299027919769287
5.899994134902954,-0.1408836841583252,0.18177491426467896,0.2797415852546692,-0.4321860869708008,-1.469664094910578,-2.014507248934882,-0.9034127593040466,0.4188568890094757,-0.09167690575122833,0.7151461243629456,0.5840119123458862,2.175647258758545
5.919996023178101,-0.12401825189590454,0.14322394132614136,0.25973039865493774,-0.47665727646970707,-1.447842553816742,-1.9834094051988096,-0.8818259239196777,0.45881161093711853,-0.10897352546453476,1.640639305114746,0.2660347521305084,2.5952959060668945
5.939992189407349,-0.1889103651046753,-0.041308045387268066,0.2939603328704834,-0.5252234350021694,-1.4198248984534925,-1.9336743304569426,-0.8553707003593445,0.5014063119888306,-0.13012667000293732,1.8180804252624512,0.16485700011253357,2.7596709728240967
5.960013151168823,-0.22917717695236206,-0.18982207775115967,0.3795228600502014,-0.5727910539475656,-1.3888362880930707,-1.8830541807057055,-0.8265175819396973,0.5419797301292419,-0.15207526087760925,1.707861065864563,0.3247232735157013,2.6533021926879883
5.979995012283325,-0.20214879512786865,-0.20564168691635132,0.3597923517227173,-0.6164837634536304,-1.3513866959602518,-1.8298934561588514,-0.7963559031486511,0.5781697630882263,-0.17758706212043762,1.7576713562011719,0.4012024402618408,2.5033929347991943
5.999993085861206,-0.14361244440078735,-0.13871550559997559,0.3114226162433624,-0.6535384738228677,-1.3118083975757926,-1.772800531876793,-0.7674592733383179,0.6079995036125183,-0.20332923531532288,1.8799983263015747,0.14167329668998718,2.184985876083374
6.019994020462036,-0.1410718560218811,-0.09795349836349487,0.24955731630325317,-0.682650144853893,-1.271210237958348,-1.709275635999912,-0.7413439750671387,0.6308515071868896,-0.2289883941411972,2.056668996810913,-0.03913030028343201,2.049231767654419
6.03999400138855,-0.24399644136428833,0.02231234312057495,0.1777348816394806,-0.7065876632840562,-1.2305792279008365,-1.641139425795696,-0.7169868350028992,0.6492422223091125,-0.25379982590675354,2.3062965869903564,-0.2022159844636917,1.8395088911056519
6.0600340366363525,-0.3353843688964844,0.06057816743850708,0.1658860146999359,-0.7198886768423116,-1.178784323860793,-1.55799015611242,-0.6948432326316833,0.6593009829521179,-0.28725433349609375,3.1121432781219482,-0.015112494118511677,1.7100496292114258
6.0794970989227295,-0.33099234104156494,0.043074846267700195,0.21956533193588257,-0.7249756475100979,-1.1084362576864624,-1.4577108429254677,-0.6699232459068298,0.6631172299385071,-0.3338841199874878,3.3798372745513916,0.4093097150325775,1.893237829208374
6.099993944168091,-0.32361119985580444,0.02963697910308838,0.1745317578315735,-0.7287260173181536,-1.0329581535293944,-1.3601948904693675,-0.6406985521316528,0.6659197807312012,-0.3821733891963959,2.8009159564971924,0.6535082459449768,1.8840863704681396
6.120078086853027,-0.31275278329849243,-0.04738575220108032,0.06780445575714111,-0.731485688490783,-0.9612105421333001,-1.2758938821585701,-0.6101445555686951,0.6679760217666626,-0.42606547474861145,2.4369301795959473,0.8870893716812134,1.777075171470642
6.139906167984009,-0.29733365774154663,0.0015075206756591797,0.016478538513183594,-0.7297591954356614,-0.8858435621244938,-1.1935885099421577,-0.5772238969802856,0.6666901707649231,-0.47152605652809143,2.6013293266296387,1.1002026796340942,1.8030482530593872
6.159996032714844,-0.2944124937057495,0.16301846504211426,0.037573814392089844,-0.7196953947427054,-0.8072077279964746,-1.1079318753538467,-0.5432187914848328,0.6591556668281555,-0.5200262069702148,2.8917758464813232,1.0976396799087524,1.6664868593215942
6.180018186569214,-0.34201449155807495,0.22048890590667725,0.06745707988739014,-0.6987157594391392,-0.7307215273535232,-1.0252839743890625,-0.5110129117965698,0.64323490858078,-0.5701883435249329,3.011261224746704,1.204580307006836,1.381612777709961
6.199998140335083,-0.3576027750968933,0.20361387729644775,0.027313828468322754,-0.6667342326995218,-0.6560467066359245,-0.9482336424578937,-0.4793570935726166,0.6184229254722595,-0.622711718082428,3.225933074951172,1.3810298442840576,1.213212251663208
6.220021963119507,-0.2551521956920624,0.21309202909469604,-0.03506666421890259,-0.6298415999237581,-0.5861399069021104,-0.8783666454727205,-0.4470115303993225,0.5890167355537415,-0.6732309460639954,2.9991087913513184,1.3580020666122437,1.1896311044692993
6.23999810218811,-0.15254709124565125,0.1401137113571167,-0.09065103530883789,-0.5923124917263396,-0.5240584513267602,-0.8151903283959379,-0.41515615582466125,0.5582810640335083,-0.7183088064193726,3.020444631576538,1.2647809982299805,1.2747251987457275
6.260035991668701,-0.12981271743774414,0.11984139680862427,-0.041571080684661865,-0.5505235896916307,-0.460673796125666,-0.7499203933670245,-0.37886956334114075,0.5231335163116455,-0.7634062767028809,3.2230310440063477,1.5913887023925781,1.5871319770812988
6.280050039291382,-0.12160176038742065,0.048353493213653564,0.04225897789001465,-0.5059644959194887,-0.3936895509770436,-0.6849919107083364,-0.33553633093833923,0.4846513271331787,-0.8077924251556396,3.176276683807373,1.7532804012298584,1.627243161201477
6.2999961376190186,-0.0772588849067688,0.061746805906295776,0.021031856536865234,-0.45764766459981915,-0.3334654911861343,-0.6269249008728072,-0.2936365306377411,0.4418390691280365,-0.847676694393158,3.2168824672698975,1.5934518575668335,1.4687999486923218
6.319995164871216,-0.11001056432723999,0.10886222124099731,0.034237444400787354,-0.40360907566076937,-0.28061035934581147,-0.576644845639767,-0.2546897530555725,0.3927399814128876,-0.8836789131164551,3.319314956665039,1.6419236660003662,1.2434943914413452
6.3399951457977295,-0.15039673447608948,0.00934368371963501,0.14666491746902466,-0.3469560756550854,-0.23106921279168866,-0.5359335821591341,-0.2153717279434204,0.3400368392467499,-0.9154179096221924,3.0763332843780518,1.775213599205017,1.017243504524231
6.360097169876099,-0.10178972780704498,-0.043511271476745605,0.18466264009475708,-0.29486653315249806,-0.18633502562884569,-0.5037348817794522,-0.1772630214691162,0.290612131357193,-0.9402778148651123,2.7001047134399414,1.7036888599395752,0.9139454364776611
6.380012035369873,-0.08894321322441101,-0.02963574230670929,0.21697503328323364,-0.24761239137104027,-0.14551500461709443,-0.47686846093060636,-0.14057950675487518,0.24508987367153168,-0.9592540860176086,2.396374464035034,1.6618611812591553,0.8693230152130127
6.399994134902954,-0.10316392779350281,-0.02018745243549347,0.2546643018722534,-0.20489135889491036,-0.10780676224547309,-0.45398229941100293,-0.10534743964672089,0.20346079766750336,-0.9733989834785461,2.185933828353882,1.6136668920516968,0.8042265772819519
6.420013189315796,-0.08440722525119781,0.05515570938587189,0.22784602642059326,-0.16306478493541504,-0.07305918318144139,-0.4343286361541747,-0.07202589511871338,0.1623430997133255,-0.9841021299362183,2.173854112625122,1.4972156286239624,0.760510265827179
6.439993143081665,-0.07120497524738312,0.06365936249494553,0.20894187688827515,-0.12139199230292895,-0.04241630590167963,-0.4164847390237821,-0.04209154099225998,0.12109407037496567,-0.9917482137680054,2.0873076915740967,1.3035101890563965,0.7681519985198975
6.459994077682495,-0.08329164981842041,0.033219918608665466,0.21626687049865723,-0.08212201731781403,-0.016480832424781832,-0.4001577723783599,-0.016424546018242836,0.08202974498271942,-0.9964945316314697,1.884681224822998,1.162385106086731,0.743651270866394
6.480025053024292,-0.10187943279743195,0.0006371848285198212,0.26475393772125244,-0.047354167922769724,0.0070387421378990435,-0.38528546418062887,0.0070307934656739235,0.04733647033572197,-0.9988542795181274,1.5903810262680054,1.107779860496521,0.7287577390670776
6.500035047531128,-0.09463145583868027,-0.01011086255311966,0.27189087867736816,-0.017954868085350583,0.02859991856940402,-0.37138298017462057,0.02859141118824482,0.01795390248298645,-0.9994299411773682,1.3565624952316284,0.981051504611969,0.7211416363716125
6.520001173019409,-0.0803847461938858,0.023620210587978363,0.18886619806289673,0.008956611684843145,0.04550541237242931,-0.35793446979189464,0.04548788443207741,-0.008956491947174072,-0.998924732208252,1.3105636835098267,0.7083519697189331,0.7150617241859436
6.539995908737183,-0.11306597292423248,0.10510562360286713,0.10815423727035522,0.036189552082972865,0.0579911471758652,-0.34624753770666644,0.05792069807648659,-0.036181654781103134,-0.997665286064148,1.3466230630874634,0.6047540307044983,0.5761594176292419
6.55999493598938,-0.14861992001533508,0.11946488916873932,0.11080199480056763,0.06317142060374574,0.07012756956008717,-0.33808911147214166,0.06993033736944199,-0.06312941014766693,-0.9955523014068604,1.2825884819030762,0.6695879101753235,0.4298737347126007
6.579272985458374,-0.11382487416267395,0.07749771326780319,0.15059125423431396,0.08817097078098038,0.0834686380675449,-0.33171819998057667,0.08304788917303085,-0.0880567729473114,-0.9926474690437317,1.1621007919311523,0.7070750594139099,0.41177666187286377
6.603531122207642,-0.07464870810508728,0.02544216811656952,0.19277530908584595,0.11078213448590914,0.09673866270965403,-0.32487051401568545,0.09599575400352478,-0.11055567115545273,-0.989223062992096,1.0383427143096924,0.6868861317634583,0.4912416338920593
6.620004892349243,-0.042302705347537994,0.010722517967224121,0.167710542678833,0.13135442365885597,0.10854292791115143,-0.31602744697618046,0.107396699488163,-0.13097701966762543,-0.985551118850708,0.9353654980659485,0.5985721349716187,0.5852419137954712
6.640069007873535,-0.022780954837799072,0.03256933391094208,0.11330658197402954,0.15083161129963077,0.11756879303122066,-0.3068051903790875,0.11596638709306717,-0.15026035904884338,-0.981821596622467,0.928565263748169,0.4309264123439789,0.5239394903182983
6.6599860191345215,-0.017299413681030273,0.0794818252325058,0.08614671230316162,0.1712601574202959,0.12371379874679665,-0.2998307504837832,0.12159324437379837,-0.1704242080450058,-0.9778398275375366,1.0086272954940796,0.31383076310157776,0.416413813829422
6.680039167404175,-0.013464152812957764,0.07790294289588928,0.08994883298873901,0.19257054083442848,0.12830256577029706,-0.2943187704248605,0.12558573484420776,-0.19138255715370178,-0.9734479784965515,1.0317736864089966,0.24660319089889526,0.4070797562599182
6.700735092163086,-0.010484009981155396,0.06433244049549103,0.12451452016830444,0.21309734514646256,0.13202418636621052,-0.2882943794698077,0.1286633312702179,-0.21148818731307983,-0.9688748717308044,0.9182851314544678,0.249383345246315,0.4546709358692169
6.71998405456543,0.0022474080324172974,0.016744136810302734,0.1264469027519226,0.23079317855352163,0.13465323198085374,-0.2806718312436967,0.1306871771812439,-0.22874973714351654,-0.9646732211112976,0.7390447854995728,0.1823558360338211,0.5087867975234985
6.740485906600952,0.007579788565635681,-0.0029687583446502686,0.12994825839996338,0.24501994002289065,0.13544743789244593,-0.27201557312614977,0.1310005486011505,-0.24257567524909973,-0.9612470865249634,0.579148530960083,0.11417429894208908,0.5102789998054504
6.760058164596558,0.011408135294914246,0.016309142112731934,0.11998653411865234,0.25680877271811026,0.13495398102214412,-0.263144859576758,0.13013237714767456,-0.25399526953697205,-0.9584111571311951,0.49929916858673096,0.057978495955467224,0.5014694929122925
6.780133962631226,0.014376044273376465,0.040564507246017456,0.08609867095947266,0.2675456123395453,0.13271949414723105,-0.2546817765167681,0.12762224674224854,-0.26436516642570496,-0.9559412002563477,0.48519542813301086,-0.05627297982573509,0.4494454562664032
6.800102949142456,-0.007051348686218262,0.057279616594314575,0.06540441513061523,0.2785020281905382,0.12935609753445917,-0.24756921232403192,0.12402523308992386,-0.2749156951904297,-0.9534354209899902,0.5064823627471924,-0.05324612185359001,0.38221603631973267
6.820131063461304,-0.021854251623153687,0.03045693039894104,0.08039087057113647,0.2889788176137438,0.12739656845763322,-0.24143386543292375,0.12178406864404678,-0.28497353196144104,-0.950767457485199,0.43937692046165466,0.01738632470369339,0.33983683586120605
6.84076189994812,-0.0037953555583953857,-0.0034201443195343018,0.08106774091720581,0.29686530971860997,0.12608482616621589,-0.2357048327801619,0.12025044113397598,-0.2925240695476532,-0.9486672282218933,0.2704627215862274,0.006652011536061764,0.3022215664386749
6.860170125961304,0.005262836813926697,-0.009444475173950195,0.06604021787643433,0.3015150493302924,0.12400169298406755,-0.23053854343560157,0.1181044727563858,-0.2969672381877899,-0.947555661201477,0.1598072350025177,-0.06814224272966385,0.24955013394355774
6.8791279792785645,-0.010975822806358337,0.018281251192092896,0.0356748104095459,0.3050330290800572,0.12095108002635466,-0.22655640012820633,0.11508654057979584,-0.3003246784210205,-0.9468685984611511,0.15432654321193695,-0.09160460531711578,0.17270563542842865
6.905545949935913,-0.027043119072914124,0.02463388442993164,0.01998990774154663,0.3118925844650384,0.1180518713237932,-0.22169983412272115,0.11209560930728912,-0.30686044692993164,-0.9451302886009216,0.13937608897686005,0.01006920263171196,0.12043042480945587
6.9304358959198,-0.017160482704639435,0.0073340535163879395,0.022796273231506348,0.3140614713270479,0.11759120241172932,-0.21904230416018505,0.11158186197280884,-0.30892398953437805,-0.9445186257362366,0.04046464338898659,0.026246042922139168,0.16273118555545807
6.940397024154663,-0.017160482704639435,0.0073340535163879395,0.022796273231506348,0.3140614713270479,0.11759120241172932,-0.21904230416018505,0.11158186197280884,-0.30892398953437805,-0.9445186257362366,0.04046464338898659,0.026246042922139168,0.16273118555545807
6.960040092468262,-0.025908827781677246,-0.0060211122035980225,0.018976926803588867,0.314025501787308,0.11732056220913194,-0.21551067579870795,0.11132753640413284,-0.308889776468277,-0.9445598721504211,-0.0664435625076294,0.058565810322761536,0.16152997314929962
6.990267038345337,-0.005499109625816345,0.015186607837677002,0.002760589122772217,0.3130449164394089,0.11779065745587895,-0.20881609235706197,0.11180710047483444,-0.3079569935798645,-0.9448077082633972,0.04926367104053497,0.04858649894595146,0.15680289268493652
7.010790109634399,0.0021995380520820618,0.006107449531555176,0.014811873435974121,0.3149378108351078,0.11740224126651198,-0.2055988394697307,0.11137162894010544,-0.3097573518753052,-0.9442704916000366,0.08662519603967667,0.015348653309047222,0.16550807654857635
7.0314881801605225,-0.001686088740825653,-0.016813546419143677,0.022409498691558838,0.31713477917374494,0.11652727564850075,-0.2024578591257076,0.11046599596738815,-0.3118455111980438,-0.9436894059181213,0.09947220981121063,0.003542593214660883,0.15765254199504852
7.0470521450042725,-0.0024188831448554993,-0.00394892692565918,0.013610601425170898,0.3194980157976765,0.11548619804413397,-0.1989787307624485,0.1093982607126236,-0.3140900135040283,-0.9430692195892334,0.09383559226989746,0.013836154714226723,0.19357073307037354
7.069500207901001,-0.008147500455379486,-0.015023589134216309,0.015303730964660645,0.32139851477164133,0.11451406498041279,-0.19495724094908864,0.10841301083564758,-0.3158937692642212,-0.9425803422927856,0.06147892773151398,0.020650917664170265,0.20428718626499176
7.086584091186523,-0.006480388343334198,-0.031232327222824097,0.020104169845581055,0.3223755605529373,0.11370536515379569,-0.1910446401514907,0.1076156422495842,-0.3168206512928009,-0.9423606395721436,0.007545442320406437,0.021649513393640518,0.18556499481201172
7.1073620319366455,0.0011538639664649963,-0.02603211998939514,0.024423539638519287,0.32264586151305097,0.11290089362437462,-0.18751214887612114,0.1068478599190712,-0.31707701086997986,-0.9423617720603943,-0.019074104726314545,0.004380601458251476,0.15497061610221863
7.125713109970093,0.004587844014167786,-0.026915043592453003,0.022483646869659424,0.32263197387741105,0.11166905311969788,-0.1845574438819954,0.10568742454051971,-0.3170638382434845,-0.9424970746040344,-0.02209881693124771,-0.037360984832048416,0.12744763493537903
7.139340162277222,0.004587844014167786,-0.026915043592453003,0.022483646869659424,0.32263197387741105,0.11166905311969788,-0.1845574438819954,0.10568742454051971,-0.3170638382434845,-0.9424970746040344,-0.02209881693124771,-0.037360984832048416,0.12744763493537903
7.175973176956177,-0.02173519879579544,-0.020109623670578003,0.01450270414352417,0.322084969814168,0.10775012914133839,-0.18021151946744282,0.10201168805360794,-0.3165450096130371,-0.9430762529373169,-0.03380347415804863,-0.086196169257164,0.07201650738716125
7.186030149459839,-0.034373991191387177,-0.002163141965866089,-0.011256873607635498,0.32232855263842586,0.10535304043222277,-0.17892747432974368,0.09974264353513718,-0.3167760372161865,-0.9432414174079895,0.018840694800019264,-0.11695212870836258,0.05426586791872978
7.204478979110718,-0.05812826752662659,0.009354084730148315,-0.018200278282165527,0.32340326626470123,0.10284681966070403,-0.17798077496602857,0.09734335541725159,-0.3177952468395233,-0.943149209022522,0.04408346489071846,-0.10462462157011032,0.04373999312520027
7.22335410118103,-0.08374759554862976,-0.013995826244354248,0.012283921241760254,0.32449361554328215,0.1018324836615689,-0.17713818162828773,0.09635135531425476,-0.31882888078689575,-0.9429022073745728,0.023186441510915756,0.031585678458213806,0.05325227230787277
7.24641489982605,-0.059598714113235474,-0.035037070512771606,0.04590106010437012,0.32417230816766984,0.10286322813889759,-0.17562344779542005,0.09733370691537857,-0.3185243010520935,-0.9429042339324951,-0.0781974345445633,0.10056128352880478,0.07511629164218903
7.269162893295288,-0.00965029001235962,-0.028377562761306763,0.06488823890686035,0.32231266520947094,0.10413456149230776,-0.17411016478541905,0.09859377890825272,-0.31676098704338074,-0.9433672428131104,-0.10824481397867203,0.06910136342048645,0.04226326942443848
7.289728879928589,0.033663421869277954,-0.01467946171760559,0.05851715803146362,0.32044259634078504,0.10414051429561337,-0.17306193032470266,0.09866079688072205,-0.3149866461753845,-0.9439541697502136,-0.07885683327913284,-0.0205592792481184,0.03121807426214218
7.309476137161255,0.05769703537225723,0.023476600646972656,0.03209477663040161,0.3198252436588838,0.10246973048679253,-0.1726322676570417,0.09710338711738586,-0.31440067291259766,-0.9443109631538391,0.014935261569917202,-0.11032218486070633,-0.008233997970819473
7.327547073364258,0.062165066599845886,0.028798043727874756,0.01943528652191162,0.3205284912477715,0.09979790987429146,-0.17298091419717126,0.09455796331167221,-0.31506818532943726,-0.9443467855453491,0.026998117566108704,-0.14919616281986237,-0.011604166589677334
7.347374200820923,0.05788668245077133,0.0032166242599487305,0.022180140018463135,0.32024706493274063,0.0964994305600857,-0.17265691270378308,0.09145108610391617,-0.31480106711387634,-0.9447417855262756,-0.06814155727624893,-0.16650263965129852,0.04101673513650894
7.368897199630737,0.04166247695684433,0.005088001489639282,0.005106151103973389,0.31840917503569166,0.09286220009633388,-0.17109448518308149,0.08806774765253067,-0.313056081533432,-0.9456425905227661,-0.12298601120710373,-0.14550796151161194,0.09282094240188599
7.387162923812866,0.01350463181734085,0.027953356504440308,-0.021021366119384766,0.31607251447455853,0.09002359620495302,-0.1686148912618574,0.08544862270355225,-0.3108360469341278,-0.9466147422790527,-0.12487009167671204,-0.06827584654092789,0.1180066242814064
7.40869402885437,-0.0032112672924995422,0.029993563890457153,-0.03846186399459839,0.3139333709190977,0.08880892359265542,-0.1660300427433961,0.08435751497745514,-0.30880215764045715,-0.9473779797554016,-0.0988946482539177,-0.0007396809523925185,0.11397556960582733
7.426403045654297,-0.0026306435465812683,0.03314352035522461,-0.03497284650802612,0.3125289018740338,0.08873538945269221,-0.16357337891265686,0.08432620018720627,-0.3074660301208496,-0.9478152394294739,-0.0666145533323288,0.052783552557229996,0.11932501196861267
7.444298028945923,0.0007481500506401062,0.01847061514854431,-0.020215153694152832,0.31125269750879847,0.0895286601727674,-0.16083589059943632,0.08511306345462799,-0.3062513768672943,-0.9481381177902222,-0.09614785015583038,0.08075473457574844,0.13185225427150726
7.463715076446533,0.009699292480945587,0.0033020973205566406,-0.01851189136505127,0.30928039633287574,0.09018566628183822,-0.15807121948231237,0.08579020947217941,-0.30437326431274414,-0.9486817121505737,-0.11195585131645203,0.05979423597455025,0.11563791334629059
7.484789133071899,0.005773551762104034,0.007398009300231934,-0.013212919235229492,0.3070294489552125,0.09059148362609094,-0.1556591467652808,0.08623695373535156,-0.30222833156585693,-0.949326753616333,-0.11430713534355164,0.05796730890870094,0.09386461973190308
7.506417989730835,0.00013727694749832153,-0.0014180243015289307,-0.0014780163764953613,0.3048089001526392,0.0910478735350616,-0.15350937642264986,0.08673101663589478,-0.3001108765602112,-0.9499532580375671,-0.09820551425218582,0.054251402616500854,0.08984892815351486
7.525690078735352,0.002075091004371643,0.011089175939559937,-0.004013121128082275,0.30314049249997216,0.09117675067637078,-0.1515459725830659,0.08689890801906586,-0.29851898550987244,-0.9504393935203552,-0.06653111428022385,0.015921587124466896,0.08243628591299057
7.54800820350647,-0.013604044914245605,0.017401456832885742,-0.004151701927185059,0.3021922628826133,0.09091774064765659,-0.14990080762578833,0.0866783931851387,-0.29761382937431335,-0.9507433176040649,-0.05030880495905876,0.012315134517848492,0.07074093073606491
7.566767930984497,-0.02834029495716095,0.00012451410293579102,0.008203506469726562,0.30098957770818785,0.09102408504338834,-0.1483646811003874,0.08681197464466095,-0.2964654266834259,-0.9510898590087891,-0.08079782128334045,0.033092938363552094,0.0660652443766594
7.58518385887146,-0.02028249204158783,0.010184258222579956,0.013122141361236572,0.299444551859356,0.09110749993881989,-0.1468643163344402,0.08693287521600723,-0.29498952627182007,-0.9515376091003418,-0.07920881360769272,0.01493710558861494,0.05784965679049492
7.604001045227051,-0.017656579613685608,0.01395067572593689,0.006381809711456299,0.2984041305942081,0.0908843869758921,-0.1457957910150515,0.0867483839392662,-0.2939952313899994,-0.9518621563911438,-0.04208468273282051,-0.01069626398384571,0.036921147257089615
7.625292062759399,-0.01766642928123474,0.001496732234954834,0.010108768939971924,0.2974275622002723,0.09008218034448383,-0.14498803049746506,0.08601055294275284,-0.29306167364120483,-0.9522169232368469,-0.05419435352087021,-0.03574764356017113,0.025301562622189522
7.643388032913208,-0.018970072269439697,0.0010704398155212402,0.016417384147644043,0.2964870583693214,0.08892581354294496,-0.14450098645771517,0.0849338248372078,-0.29216235876083374,-0.9525898694992065,-0.047235939651727676,-0.039971329271793365,0.013857902027666569
7.665735960006714,-0.015009842813014984,0.004010409116744995,0.013337314128875732,0.2956204042446976,0.08772468019661574,-0.14403919305766055,0.08381173014640808,-0.29133340716362,-0.9529430270195007,-0.04215356707572937,-0.05587794631719589,0.01648348942399025
7.685909986495972,-0.012556396424770355,0.01088908314704895,0.0037955641746520996,0.2948676373920327,0.08618720364341852,-0.14357328978088313,0.08236535638570786,-0.29061320424079895,-0.9532889723777771,-0.0356626957654953,-0.0735115334391594,0.012141380459070206
7.703343152999878,-0.013331592082977295,0.010897785425186157,-0.00034862756729125977,0.29414323349154936,0.08456489475539318,-0.1433758387407661,0.08083648234605789,-0.28992000222206116,-0.9536308646202087,-0.04173286259174347,-0.06953951716423035,1.5806173905730247e-05
7.725290060043335,-0.011384837329387665,0.009348809719085693,0.0003231167793273926,0.293290171352734,0.08325404515537091,-0.14327857311326161,0.07960688322782516,-0.2891034483909607,-0.9539821743965149,-0.04964708536863327,-0.05180775001645088,0.00610438222065568
7.745090007781982,-0.0007660090923309326,0.013128817081451416,-0.0011321306228637695,0.29234551242999696,0.08193650031390302,-0.14285583974763308,0.07837221771478653,-0.2881990075111389,-0.9543579816818237,-0.04774577543139458,-0.06175705045461655,0.022311920300126076
7.7660369873046875,0.0024740323424339294,0.01155179738998413,-0.012211740016937256,0.2914954719383353,0.08018390195011,-0.142247743129494,0.07671908289194107,-0.28738492727279663,-0.9547377228736877,-0.03355167433619499,-0.08363882452249527,0.03048226237297058
7.783468961715698,-0.008837848901748657,0.013773947954177856,-0.018446385860443115,0.2908842704045102,0.07838499579292241,-0.14157688478704933,0.07501521706581116,-0.28679946064949036,-0.9550490975379944,-0.026591967791318893,-0.07286518812179565,0.029524363577365875
7.804666996002197,-0.014158762991428375,0.017670035362243652,-0.024883151054382324,0.2905710358234585,0.07688739668323082,-0.14100384493044932,0.07359175384044647,-0.28649938106536865,-0.9552499055862427,0.00562766008079052,-0.04986044391989708,0.01879185065627098
7.823886156082153,-0.013888955116271973,0.021461278200149536,-0.018053412437438965,0.29091288010689254,0.0760536955777162,-0.14051915358527614,0.07278788834810257,-0.28682687878608704,-0.955213189125061,0.024234887212514877,-0.021280109882354736,0.035029176622629166
7.845290899276733,-0.010951444506645203,0.0024525225162506104,-0.009734392166137695,0.29113971678622935,0.07553947333464753,-0.13968763660896835,0.0722917765378952,-0.2870441675186157,-0.95518559217453,0.0009368080645799637,-0.011837960220873356,0.04095005244016647
7.867626905441284,-0.004400461912155151,-0.011014193296432495,-0.0024203062057495117,0.290700836087422,0.07509308100463903,-0.1389236537641001,0.07187482714653015,-0.2866237163543701,-0.9553433060646057,-0.0354226753115654,-0.011819673702120781,0.025115851312875748
7.884310007095337,0.0011580362915992737,-0.012334764003753662,-0.0004030466079711914,0.289816295986849,0.07452581970485922,-0.1386266493759099,0.07135172933340073,-0.28577619791030884,-0.9556363821029663,-0.023639947175979614,-0.02337592840194702,-0.005385944619774818
7.904833078384399,0.0018089339137077332,0.009101957082748413,-0.00739133358001709,0.28984620013451406,0.07397311574225934,-0.13894480301515275,0.07082290202379227,-0.2858048379421234,-0.9556671380996704,0.05761689320206642,-0.02908840961754322,-0.024162745103240013
7.9242541790008545,-0.004409037530422211,0.020141899585723877,-0.011795461177825928,0.2914470622253681,0.07368115964737797,-0.13952816130228188,0.07051011919975281,-0.2873385548591614,-0.9552302956581116,0.09715890884399414,-0.006806450430303812,-0.02206609956920147
7.945080995559692,-0.007868312299251556,-0.002905935049057007,0.00447160005569458,0.29271435976048965,0.07391235088329472,-0.14009237011163891,0.07070401310920715,-0.2885521948337555,-0.9548500180244446,0.017849333584308624,0.007764147594571114,-0.02223861590027809
7.966984987258911,0.0036180391907691956,-0.009962290525436401,0.010093748569488525,0.2922929218973343,0.0740184693688531,-0.14037555717259853,0.07081432640552521,-0.2881486415863037,-0.954963743686676,-0.047323212027549744,-0.011589664965867996,-0.012177931144833565
7.985059976577759,0.0029772743582725525,0.013600289821624756,-0.00018787384033203125,0.29151538711484765,0.07368156209541649,-0.14050786381873917,0.07050905376672745,-0.28740400075912476,-0.9552106857299805,-0.01272258535027504,-0.02282758429646492,-0.004959306679666042
8.004709959030151,-0.0032294243574142456,0.02030208706855774,-0.003045022487640381,0.2915505222547361,0.07337502546972433,-0.14054681416140485,0.07021550834178925,-0.28743764758110046,-0.9552221894264221,0.030733639374375343,-0.008416332304477692,0.003747117007151246
8.023914098739624,-0.0018041804432868958,0.0051152706146240234,0.00147932767868042,0.2921355755382098,0.07304597598308554,-0.14046246750578262,0.06988890469074249,-0.2879979610443115,-0.9550773501396179,0.022875849157571793,-0.01306647714227438,0.0075022755190730095
8.045180082321167,0.001191645860671997,0.007981538772583008,0.008823871612548828,0.292531428612352,0.07287358445965969,-0.14040650467251442,0.0697159469127655,-0.288377046585083,-0.9549756050109863,0.013710247352719307,-0.0029796655289828777,0.0007785316556692123
8.065170049667358,0.004367358982563019,0.014971405267715454,0.0024715065956115723,0.29289934933605166,0.07273587618268701,-0.14034307752883282,0.06957672536373138,-0.28872931003570557,-0.9548792839050293,0.03137405216693878,-0.00813163910061121,0.015256962738931179
8.085031986236572,0.00578375905752182,0.01812577247619629,-0.004367828369140625,0.29353253509815674,0.0723530373569434,-0.1399427557310763,0.06919792294502258,-0.2893354594707489,-0.9547233581542969,0.04329772666096687,-0.01382849644869566,0.026161853224039078
8.103416204452515,0.004145368933677673,0.00950920581817627,-0.002273380756378174,0.29430264537982503,0.07194429214065128,-0.13951448163231614,0.06879164278507233,-0.29007256031036377,-0.9545289874076843,0.03075764700770378,-0.011049753986299038,0.02034807950258255
8.124338865280151,0.005141563713550568,0.006162762641906738,0.0047702789306640625,0.2947441534697597,0.0715017180767686,-0.13902729396127922,0.06836003065109253,-0.29049503803253174,-0.9544315338134766,0.012475259602069855,-0.02459050714969635,0.02975422888994217
8.1438729763031,0.0020282045006752014,0.016093701124191284,0.0002861618995666504,0.2950923433420056,0.0708863241462839,-0.13848112926624753,0.0677654966711998,-0.2908281981945038,-0.9543724656105042,0.03184347227215767,-0.013521966524422169,0.026620982214808464
8.165577173233032,-0.006174094974994659,0.009883850812911987,-0.000979781150817871,0.2956670289512224,0.07066760965759458,-0.137705400033923,0.06754495203495026,-0.291377991437912,-0.9542204141616821,0.027413982897996902,0.006454049609601498,0.05037325248122215
8.18515419960022,-0.003548167645931244,0.0049758851528167725,0.005519211292266846,0.2960075698616437,0.07080140214513536,-0.13671353904367403,0.06766559183597565,-0.2917037606239319,-0.9541122913360596,0.018781572580337524,0.027097897604107857,0.04150770604610443
8.20451807975769,0.002245962619781494,0.00928729772567749,0.005616247653961182,0.2964312070884322,0.07115088695459276,-0.13599791493256258,0.067990243434906,-0.2921089231967926,-0.9539652466773987,0.025418689474463463,0.021361982449889183,0.031371526420116425
8.221625089645386,0.003317601978778839,0.005919098854064941,0.0037856101989746094,0.2969140884189973,0.07131768670432223,-0.1354516254630843,0.06813930720090866,-0.29257071018218994,-0.9538130760192871,0.027511799708008766,0.009298749268054962,0.026500992476940155
8.242234945297241,0.00012253224849700928,0.0005876123905181885,0.0001525282859802246,0.2973225271631583,0.07115690321988834,-0.13494726631674173,0.06797744333744049,-0.2929612696170807,-0.9537047743797302,0.021972477436065674,-0.004724391270428896,0.025586556643247604
8.263837099075317,-0.0018808767199516296,0.004338890314102173,0.002858757972717285,0.2978626933305049,0.07099741560297007,-0.13445537580866448,0.06781410425901413,-0.2934776842594147,-0.9535576105117798,0.030467642471194267,0.007112827152013779,0.03021157532930374
8.281136989593506,-0.003076516091823578,-0.0005470216274261475,0.0074623823165893555,0.2983063653091399,0.07117286661519373,-0.1337887136621348,0.06797213852405548,-0.29390180110931396,-0.9534156918525696,0.016667967662215233,0.02578345127403736,0.03846542164683342
8.300266981124878,0.0007828250527381897,-0.0033968091011047363,0.0063027143478393555,0.29845385672229413,0.07143337591706232,-0.133006620525892,0.06821741908788681,-0.29404276609420776,-0.9533547163009644,0.001632119994610548,0.016221191734075546,0.04079224541783333
8.321265935897827,0.00247327983379364,0.007568091154098511,-0.007051944732666016,0.29862301894164034,0.07142453510463856,-0.1321681534215893,0.06820543855428696,-0.294204443693161,-0.953305721282959,0.010438993573188782,0.012141318991780281,0.03704095631837845
8.344587087631226,-0.0016973689198493958,0.0025029778480529785,-0.004167318344116211,0.29905493147509776,0.07156736749261515,-0.13135477762751196,0.06833250820636749,-0.2946172058582306,-0.9531691074371338,0.020863298326730728,0.026280485093593597,0.043007560074329376
8.36552119255066,0.0038790255784988403,-0.002860426902770996,0.0036753416061401367,0.29938235326090223,0.07172742842559969,-0.1303501713075084,0.06847815960645676,-0.294930100440979,-0.9530619382858276,0.011311512440443039,0.021495671942830086,0.05200081691145897
8.38290286064148,0.002318277955055237,0.0037291646003723145,5.4836273193359375e-05,0.2999070840686505,0.0717596563213807,-0.12938809195417997,0.06849776208400726,-0.2954314351081848,-0.9529051780700684,0.03436094522476196,0.021701624616980553,0.04376458004117012
