timestamp,acceleration_x,acceleration_y,acceleration_z,attitude_pitch,attitude_roll,attitude_yaw,gravity_x,gravity_y,gravity_z,rotation_x,rotation_y,rotation_z
0.0,0.002300078049302101,-0.00415241252630949,0.0025499463081359863,-0.005602043102829845,0.0051157807504315835,-0.8510504926312038,0.005115678068250418,0.005602013785392046,-0.9999712109565735,-0.00048063741996884346,-0.002060618484392762,-0.0038897106423974037
0.01625800132751465,0.0034563522785902023,0.006471273023635149,0.0038921236991882324,-0.00561373346603356,0.0052259897150538,-0.851076164614677,0.005225883796811104,0.005613704212009907,-0.9999706149101257,0.0015043758321553469,0.004756186157464981,-0.0032689678482711315
0.033143043518066406,0.003932054154574871,-0.0005436660721898079,0.00364840030670166,-0.005563852385455304,0.0051927900305695105,-0.8510683390994649,0.005192686337977648,0.005563823506236076,-0.9999710321426392,0.0010537561029195786,-0.0024768707808107138,-0.0008182424353435636
0.110382080078125,0.004011358600109816,0.0009575644508004189,0.005952715873718262,-0.005588501037825967,0.005128742751814041,-0.851073404424563,0.005128640215843916,0.00558847188949585,-0.9999712109565735,1.7240643501281738e-05,-0.004033754579722881,-0.001939771813340485
0.15613698959350586,0.005368689075112343,-0.0010751825757324696,0.004823863506317139,-0.005561310860440682,0.005098925486231529,-0.8510343881106094,0.005098824389278889,0.005561282392591238,-0.9999715089797974,-0.0021045804023742676,-0.004625154193490744,0.00012657709885388613
0.1715700626373291,0.003639254719018936,0.0019550793804228306,0.002627134323120117,-0.005537030404266549,0.005012561183760014,-0.8509947128750751,0.005012463312596083,0.005537001881748438,-0.9999721050262451,-0.00012486660853028297,-0.0015828474424779415,0.0017671515233814716
0.1916821002960205,0.0032565630972385406,3.3196061849594116e-05,0.0030400753021240234,-0.005444752225320233,0.004922225499459965,-0.8508960819745949,0.004922132473438978,0.005444725509732962,-0.9999730587005615,0.00042012380436062813,-0.004793643485754728,-0.00047065154649317265
0.21102118492126465,0.004856114741414785,0.003856925293803215,0.005969822406768799,-0.005405202130642808,0.004955363859171402,-0.8509007419752845,0.0049552712589502335,0.005405175965279341,-0.9999731183052063,0.0004169284366071224,-5.366030381992459e-05,0.0007501100189983845
0.2329399585723877,0.005881879478693008,0.00010762549936771393,0.0029486417770385742,-0.005477134650947819,0.004860384648961722,-0.8509424423933496,0.00486029265448451,0.0054771071299910545,-0.9999731779098511,0.0006379438564181328,-0.002037804340943694,-0.0009080249583348632
0.2525930404663086,0.005599729251116514,0.0035286415368318558,0.0018042922019958496,-0.005474087645367368,0.004852617859680678,-0.850994359359035,0.004852525889873505,0.0054740603081882,-0.9999732375144958,0.002683579223230481,0.00024763174587860703,-0.0019589848816394806
0.27113890647888184,0.00316862715408206,-0.0013500191271305084,0.004123806953430176,-0.005454676552024945,0.004842312747183945,-0.8509877221247959,0.004842221736907959,0.005454649683088064,-0.9999734163284302,-0.001335912849754095,0.0019294179510325193,0.0016455058939754963
0.2913820743560791,0.0007980098016560078,-0.00017167162150144577,0.007237493991851807,-0.005435996291089164,0.004679965824233887,-0.8509823499651439,0.004679879639297724,0.005435969680547714,-0.999974250793457,0.0013767695054411888,-0.0017343813087791204,7.90921039879322e-05
0.31127405166625977,0.0016742320731282234,0.0026273555122315884,0.004216194152832031,-0.005383550683758313,0.004749789478407925,-0.8509203029698827,0.004749702755361795,0.00538352457806468,-0.999974250793457,0.000932780560106039,-0.0008408021531067789,0.0020815120078623295
0.3315761089324951,0.003145108465105295,-0.0015845363959670067,0.0060318708419799805,-0.005414534401880495,0.0047437567990385905,-0.8508811403539731,0.004743669647723436,0.005414507817476988,-0.9999740719795227,0.0019494155421853065,-0.005411585792899132,-0.0003144260845147073
0.3523290157318115,0.005289563909173012,-0.0005911649204790592,0.004261970520019531,-0.005336689869478162,0.004796566921934272,-0.8508301783379624,0.004796480294317007,0.005336664617061615,-0.999974250793457,-0.0005836104974150658,-0.007028656546026468,-0.0003251080051995814
0.3717820644378662,0.006863337475806475,0.0002436898648738861,0.006337225437164307,-0.005356327488474334,0.004763930816304194,-0.8507408645550734,0.004763844422996044,0.00535630201920867,-0.9999743103981018,-0.00019209878519177437,0.0017669651424512267,-0.002526975702494383
0.39209508895874023,0.005147633142769337,0.0053379470482468605,0.005467653274536133,-0.005282210310996869,0.004816426265144494,-0.8507565028385228,0.004816340282559395,0.005282185971736908,-0.9999744296073914,0.0017942064441740513,-0.002905462170019746,0.00021575705613940954
0.41278505325317383,0.005912617780268192,-0.0021774768829345703,0.0029508471488952637,-0.0052445338707171624,0.004661788804779313,-0.8507409345137373,0.0046617076732218266,0.005244509782642126,-0.9999753832817078,2.1180137991905212e-05,-0.009979261085391045,0.0023471578024327755
0.43230199813842773,0.004708992782980204,0.0014016898348927498,0.0025694966316223145,-0.005235923565363476,0.004644710006994111,-0.850851978019211,0.004644629545509815,0.005235899705439806,-0.9999755024909973,0.00218549114651978,0.009059232659637928,-0.001617901842109859
0.4524650573730469,0.001004695426672697,-1.3888347893953323e-05,0.002727806568145752,-0.005415542495194551,0.0062280870002631075,-0.8508598628209217,0.006227955222129822,0.005415515974164009,-0.9999659657478333,0.0002247062511742115,-0.0016939910128712654,-0.0007520048529841006
0.47147488594055176,5.4020900279283524e-05,0.0009798584505915642,0.004094600677490234,-0.005520429477690324,0.0071177629047496005,-0.8509634957731781,0.007117594126611948,0.005520401522517204,-0.999959409236908,-0.003122876398265362,0.0006293516489677131,0.0020743885543197393
0.4919469356536865,-4.522502422332764e-06,-0.00030587660148739815,0.002455413341522217,-0.005661757512034839,0.007878248905887954,-0.8509457354184848,0.00787804089486599,0.005661727394908667,-0.9999529123306274,-0.0017547495663166046,0.0006989544490352273,-0.0010880030458793044
0.5124270915985107,0.001817670650780201,-0.0031640627421438694,-0.004412949085235596,-0.005742845615706554,0.008054970285174943,-0.8510039442264267,0.00805475004017353,0.005742813926190138,-0.9999510645866394,0.00393562950193882,-0.0034807282499969006,0.00146210053935647
0.5312230587005615,-0.002729669213294983,-0.0005397307686507702,0.0012787580490112305,-0.005559917160314647,0.008161999525201991,-0.8510142915365054,0.008161782287061214,0.005559888668358326,-0.9999512434005737,0.0010069720447063446,0.015438752248883247,-0.0016942506190389395
0.5524129867553711,5.561858415603638e-06,0.0010063676163554192,0.003931939601898193,-0.005799100888688078,0.008219140816681845,-0.850972856172064,0.008218909613788128,0.005799068603664637,-0.9999493956565857,0.0004794131964445114,-0.0047991410829126835,0.0004426583182066679
0.5724451541900635,-0.000804513692855835,0.000566406175494194,0.004053711891174316,-0.005811816353367985,0.008251020576972601,-0.8510299310463657,0.008250787854194641,0.005811783485114574,-0.9999490976333618,0.00024914229288697243,0.0011694469721987844,-0.0021814897190779448
0.5904750823974609,0.0015098163858056068,0.0011110682971775532,0.004159212112426758,-0.005770693308999856,0.008439138926527973,-0.8510136906075849,0.008438898250460625,0.005770661402493715,-0.999947726726532,-0.0014156661927700043,-0.0006715962663292885,0.003114153631031513
0.6113450527191162,0.0011373311281204224,-0.0004878723993897438,0.0035638809204101562,-0.0056606481200735465,0.008536966328223473,-0.8510008068998671,0.008536726236343384,0.005660617724061012,-0.9999475479125977,-0.0012233061715960503,-0.0022156082559376955,-0.00235862098634243
0.6331579685211182,-0.00034318771213293076,0.0008690338581800461,0.0027697086334228516,-0.005692292625023607,0.008598422359935732,-0.8510127805210995,0.008598176762461662,0.00569226173684001,-0.9999468326568604,0.0013003544881939888,-0.0012792408233508468,0.0016826471546664834
0.6531310081481934,0.002317938022315502,0.0019535920582711697,0.0017472505569458008,-0.005797920777915168,0.00854655117597431,-0.8509770112616418,0.008546303026378155,0.0057978881523013115,-0.999946653842926,-0.0002465425059199333,-0.0029256069101393223,0.003169122152030468
0.6727290153503418,-0.001039658673107624,0.0022989092394709587,0.0023577213287353516,-0.005727261235693618,0.008577731646672785,-0.8509695491496296,0.00857748556882143,0.005727230105549097,-0.9999468326568604,-0.001184707973152399,-0.0004450500709936023,0.00017802463844418526
0.6916630268096924,-0.002014763653278351,0.000532390084117651,0.004935204982757568,-0.005784797071883156,0.008683093803066094,-0.8510045140321147,0.008682839572429657,0.005784764885902405,-0.9999455809593201,0.0004980769008398056,0.001084847142919898,0.00017434603068977594
0.7122681140899658,-9.83942300081253e-05,-0.0009374646469950676,0.005255758762359619,-0.00577454904894075,0.008674071823682785,-0.8510308064685328,0.008673818781971931,0.005774517077952623,-0.9999457001686096,-0.0008186167106032372,-0.000726990052498877,0.0002247991506010294
0.7310459613800049,-0.00044399499893188477,0.0009138407185673714,0.004354953765869141,-0.005784816283815233,0.008729759394885196,-0.8510572150463643,0.008729502558708191,0.005784783978015184,-0.9999451637268066,0.0003959652967751026,0.0023868251591920853,0.00012676510959863663
0.7524979114532471,0.002050529234111309,-0.0005703899078071117,0.003515481948852539,-0.005788944249855754,0.00875293719723415,-0.8509715245834739,0.008752678520977497,0.0057889120653271675,-0.9999449253082275,0.0013472670689225197,0.003308355575427413,0.0015216671163216233
0.7715170383453369,-0.0013430174440145493,0.00035931868478655815,0.004186868667602539,-0.0057137267596126225,0.008804807991749293,-0.8509745842276619,0.008804550394415855,0.005713695660233498,-0.9999449253082275,-0.0034519792534410954,0.0006301113753579557,0.0014773065922781825
0.792884111404419,-0.0015172306448221207,0.00014040106907486916,0.005575418472290039,-0.005795316295062352,0.008750140113591556,-0.8510249998563537,0.008749881759285927,0.005795283708721399,-0.9999449253082275,-0.0008105384185910225,-0.0002965527819469571,0.002304102061316371
0.8132290840148926,-0.0019974252209067345,-0.0008201934397220612,0.002416849136352539,-0.00585564372648415,0.00871153715262304,-0.85109125729776,0.00871127750724554,0.005855610128492117,-0.9999449253082275,-0.0007449318654835224,0.0031792274676263332,-0.0007036548340693116
0.8330709934234619,-0.00017010048031806946,0.0004289052449166775,0.002447068691253662,-0.0059035420629185275,0.008715268787691003,-0.8510517244330625,0.008715006522834301,0.005903507582843304,-0.9999445676803589,-0.0011134068481624126,-0.0024578855372965336,0.0005415607010945678
0.8520939350128174,-0.0008100727573037148,0.0015503871254622936,0.004048407077789307,-0.005926470362649388,0.008790672194671912,-0.8510521670313895,0.008790404535830021,0.005926435813307762,-0.9999437928199768,-0.0008776504546403885,0.004119944758713245,0.0022883680649101734
0.8715841770172119,-0.0015400554984807968,0.0005476893857121468,0.0036820173263549805,-0.005937346882837285,0.008803492928595924,-0.8510380424133814,0.008803224191069603,0.005937311798334122,-0.9999436140060425,6.149988621473312e-05,0.0013618863886222243,-3.475486300885677e-05
0.8927152156829834,0.0006934544071555138,-0.0007554641924798489,0.004796624183654785,-0.005989280531363364,0.008690949692717114,-0.8510011057022097,0.008690684102475643,0.005989244673401117,-0.999944269657135,0.001148349605500698,0.0019547059200704098,0.0005707743111997843
0.9116098880767822,0.001317114569246769,-0.00041054515168070793,0.003850281238555908,-0.006056350198011488,0.008677645295283858,-0.851078023587003,0.008677377365529537,0.006056313402950764,-0.9999440312385559,0.0021968891378492117,-0.00403705146163702,0.003670737147331238
0.9315969944000244,-0.0017925715073943138,-0.0015833689831197262,0.005558788776397705,-0.006054246872529485,0.00873557548514043,-0.8510231056901744,0.008735304698348045,0.006054210010915995,-0.9999434947967529,-0.002096273470669985,0.00020199106074869633,0.0009666384430602193
0.9528050422668457,-0.0009318040683865547,0.0013926648534834385,0.004109084606170654,-0.006038417700362677,0.00875981894859313,-0.8510642826360373,0.008759547024965286,0.006038380786776543,-0.9999433755874634,-0.0003356705419719219,-0.002261965535581112,0.0006960459286347032
0.9710419178009033,-0.0006466535851359367,0.002036257181316614,0.0044751763343811035,-0.006066213215978027,0.008749328494879057,-0.8510627309869145,0.008749055676162243,0.006066176109015942,-0.9999433159828186,0.00018179835751652718,0.0018649586709216237,0.0005753870354965329
0.9912440776824951,0.000979098491370678,-1.6298145055770874e-06,0.002735614776611328,-0.006028903882871237,0.008786782852675801,-0.8510409468030067,0.008786509744822979,0.0060288673266768456,-0.999943196773529,-0.0015862868167459965,-0.0015102430479601026,0.001020966563373804
1.0132060050964355,0.0004912400618195534,0.0006646765395998955,0.005024611949920654,-0.006064502719354545,0.008740584606808101,-0.851126727670799,0.008740312419831753,0.00606446573510766,-0.9999434351921082,-0.0012468378990888596,-0.0011814312310889363,-0.0005531742353923619
1.0316131114959717,-0.0008815964683890343,-0.0002963067963719368,0.0034676790237426758,-0.006018405214881902,0.008831685078783756,-0.8510472050051072,0.00883141066879034,0.006018368992954493,-0.9999428987503052,-0.004507120233029127,-0.005576333962380886,-0.0013314516982063651
1.0518639087677002,0.00026165973395109177,0.0002487068995833397,0.003971397876739502,-0.005915894532581596,0.00887861197723471,-0.8510094192154967,0.008878340013325214,0.005915860179811716,-0.9999430775642395,-0.0012862905859947205,0.0008149454952217638,0.0011600333964452147
1.0714051723480225,-0.0006278837099671364,-0.00019439030438661575,0.0034522414207458496,-0.005931745450191446,0.00891366473280321,-0.8510361681757151,0.008913390338420868,0.005931710824370384,-0.9999426603317261,-0.00030209263786673546,0.00403151148930192,0.0008874043123796582
1.0920650959014893,0.002820206806063652,-0.0020351577550172806,0.003162086009979248,-0.005895681520123717,0.008959838638043189,-0.8510680064255646,0.008959563449025154,0.005895647220313549,-0.9999424815177917,0.0003377455286681652,-0.002072808798402548,-0.0019128406420350075
1.1110670566558838,0.00038177333772182465,-0.0037519149482250214,0.0034671425819396973,-0.005872936438997746,0.00898738397516089,-0.8509615851939797,0.008987108245491982,0.00587290246039629,-0.9999423623085022,0.0017873526085168123,0.0003027308266609907,-0.0009351155604235828
1.1319000720977783,-0.000807453878223896,0.0005180798470973969,0.005160808563232422,-0.005982216106933064,0.008925392939420232,-0.8509598892608825,0.008925114758312702,0.005982180591672659,-0.9999423027038574,-0.003285778220742941,1.7599668353796005e-06,-0.0020241434685885906
1.1520590782165527,0.0006982013583183289,-0.0011636428534984589,0.00458073616027832,-0.00593969484084531,0.008976134663935485,-0.8509674402279265,0.008975856006145477,0.005939660128206015,-0.9999420642852783,0.0015716052148491144,-0.00016363116446882486,-0.0022854390554130077
1.171734094619751,-0.0007342630997300148,3.846688196063042e-05,0.005022943019866943,-0.0058819932552520585,0.009050567829498108,-0.8509688588963377,0.009050287306308746,0.005881959106773138,-0.9999417662620544,0.0017626637127250433,-0.0010342496680095792,0.0023832167498767376
1.1924011707305908,-0.001969965174794197,-0.00036470359191298485,0.003680288791656494,-0.005934211999820355,0.009004531518385282,-0.8510240860924811,0.009004251100122929,0.005934176966547966,-0.9999418258666992,0.004013040103018284,-0.0016980761429294944,0.0005986333126202226
1.211616039276123,0.0001811012625694275,-0.001468641683459282,0.003527522087097168,-0.005985295132031004,0.008989697605533614,-0.850994835844201,0.008989415131509304,0.005985259544104338,-0.9999417066574097,-0.002128118649125099,-0.0007363279582932591,-0.0016618982190266252
1.232820987701416,-0.0020440947264432907,0.0004242509603500366,0.0032071471214294434,-0.0059997512394049475,0.008971851743694357,-0.8510447702310069,0.008971570059657097,0.005999715067446232,-0.9999417662620544,-0.0026018652133643627,0.00031146605033427477,0.0002838911022990942
1.252166986465454,0.0003928039222955704,0.00018208660185337067,0.004213154315948486,-0.006058811436018286,0.009052661195337671,-0.8511328203981237,0.009052371606230736,0.006058774422854185,-0.9999406933784485,-0.0006705773994326591,0.0017382375663146377,-0.0008151479996740818
1.2710611820220947,0.0011864891275763512,0.0013001905754208565,0.005037844181060791,-0.006008821911889556,0.009006651570633191,-0.8512253105793274,0.009006367065012455,0.006008785683661699,-0.9999414086341858,0.0026591643691062927,-0.0024095166008919477,-0.0010920166969299316
1.2909550666809082,-0.0007120342925190926,0.00011023273691534996,0.004335999488830566,-0.005993334589706047,0.009013083628551645,-0.8513276077737219,0.009012799710035324,0.0059932987205684185,-0.9999414086341858,0.0006310567259788513,0.00579635938629508,-0.003472820157185197
1.3125929832458496,0.0003170901909470558,0.0005637980066239834,0.004107236862182617,-0.0059822738815637445,0.009006297103103737,-0.8514349828591276,0.009006014093756676,0.005982238333672285,-0.9999415278434753,-0.0001592002809047699,0.0005192126845940948,-0.0011774807935580611
1.3321149349212646,0.00022431369870901108,-0.0009101103059947491,0.004535555839538574,-0.005915043094610347,0.008931218983082072,-0.8513782424081348,0.00893094390630722,0.00591500848531723,-0.9999426007270813,0.0006121057085692883,-0.0029522241093218327,-0.0019093162845820189
1.3512051105499268,0.0027739740908145905,0.00043431343510746956,0.00413888692855835,-0.005882874723489825,0.008945034305237144,-0.8514574197423044,0.008944760076701641,0.005882840603590012,-0.9999426603317261,0.0014406200498342514,-0.002059993566945195,-0.0011825805995613337
1.3715569972991943,0.00010405946522951126,0.001825428567826748,0.004445075988769531,-0.005727719602042182,0.00892939407650966,-0.851402852249418,0.008929128758609295,0.005727688316255808,-0.999943733215332,0.0005668634548783302,-0.0030568146612495184,-0.001167146023362875
1.3909940719604492,-0.0005206167697906494,-0.0009744586423039436,0.0025536417961120605,-0.005689471149664278,0.008882678631414946,-0.8514740220264668,0.008882418274879456,0.005689440295100212,-0.9999443888664246,0.0011692834086716175,-0.0003700403030961752,0.000825177994556725
1.41139817237854,0.0011412901803851128,0.0020702825859189034,0.004156231880187988,-0.005681229126400573,0.008838200787687153,-0.8514872384745988,0.008837942965328693,0.005681198555976152,-0.999944806098938,0.00272560678422451,-0.002676263451576233,0.0002576938131824136
1.432647943496704,-0.0017298059538006783,-0.0009765340946614742,0.0046141743659973145,-0.005676287340428566,0.008825383346328137,-0.8514743604219203,0.00882512703537941,0.005676256958395243,-0.9999449253082275,0.003134117228910327,0.0010485888924449682,-0.0010366347851231694
1.4512379169464111,0.0015360545367002487,-0.0015473179519176483,0.006079733371734619,-0.00559094258221975,0.008794381266835315,-0.8514714432219652,0.008794130757451057,0.005590913351625204,-0.9999457001686096,0.0006002020090818405,0.0014364098897203803,-0.0031132083386182785
1.4712212085723877,-0.0032150186598300934,0.0013459911569952965,0.0028144121170043945,-0.005596803178212842,0.00878471182242217,-0.8515882691558457,0.008784460835158825,0.005596774164587259,-0.9999457597732544,0.0015725377015769482,0.0023053993936628103,-0.0008591936202719808
1.491542100906372,0.0024462630972266197,-0.0008556977845728397,0.0040648579597473145,-0.005570708725856468,0.008891256813743946,-0.8516492474661974,0.008891001343727112,0.0055706799030303955,-0.9999449849128723,-0.001154657918959856,-0.0018424740992486477,-0.0005100051639601588
1.5118591785430908,-0.0027182884514331818,-0.0013061631470918655,0.001959502696990967,-0.005593927538187604,0.008837299906149614,-0.8516610742995357,0.008837047033011913,0.005593898240476847,-0.9999452829360962,-0.0017845402471721172,-0.0005380576476454735,-0.000786073156632483
1.5307230949401855,-0.0015975600108504295,-0.0020907330326735973,0.0036983489990234375,-0.0056460772662920026,0.008876245812516071,-0.8517141622659039,0.008875987492501736,0.005646047182381153,-0.9999446868896484,-0.0020303758792579174,-0.0013340584700927138,-0.002047659596428275
1.5523700714111328,-0.0005231304094195366,0.0019045653752982616,0.005040526390075684,-0.005663840307918876,0.008930970017130791,-0.8517166694589082,0.008930708281695843,0.005663809832185507,-0.9999440908432007,0.000811536330729723,0.000413757748901844,0.0017555938102304935
1.5713419914245605,0.0005470355972647667,0.0008924198336899281,0.004429876804351807,-0.005623128848106118,0.008989956158080174,-0.8516006605119101,0.00898969266563654,0.005623099394142628,-0.9999437928199768,0.002608652226626873,0.0029428014531731606,0.0005164224421605468
1.5914671421051025,-0.0018390556797385216,-0.0010001026093959808,0.0018666386604309082,-0.0056235617155334944,0.008965157312581363,-0.8515875709437156,0.008964895270764828,0.005623531993478537,-0.9999440312385559,0.0005506733432412148,0.0037814804818481207,-0.00047447055112570524
1.6113321781158447,-0.001172381453216076,0.0010670148767530918,-0.0005899667739868164,-0.005646898239232581,0.008939351535864308,-0.8516059464854326,0.008939090184867382,0.005646868143230677,-0.9999440908432007,0.002476125257089734,-0.001656516920775175,0.0001471610739827156
1.6320950984954834,-0.0005510393530130386,-0.0021926043555140495,0.0027049779891967773,-0.005641136936909007,0.009050437267787318,-0.8515655398608639,0.009050169959664345,0.005641106981784105,-0.9999431371688843,-0.0005116737447679043,0.003151021432131529,-0.0015674757305532694
1.6513700485229492,-0.002889668568968773,-0.001999875996261835,0.004810631275177002,-0.005646772825937859,0.009054472575334442,-0.8515518169170371,0.009054204449057579,0.005646742880344391,-0.9999430775642395,-0.0005675586871802807,0.001256537507288158,0.0011562691070139408
1.6723110675811768,0.0014754971489310265,0.0002574021928012371,0.004017770290374756,-0.00561727703476635,0.009007540231052625,-0.8514686579787025,0.00900727603584528,0.005617247428745031,-0.9999436736106873,-0.0011861082166433334,0.0014181026490405202,0.0014526464510709047
1.691702127456665,-0.0013509243726730347,0.0012493426911532879,0.004735589027404785,-0.005571380351622793,0.008965303320633906,-0.8514584644433301,0.008965044282376766,0.005571351386606693,-0.999944269657135,-0.0003726058639585972,0.0003989108372479677,0.0024970481172204018
1.712540864944458,-0.002404250204563141,0.0006175474263727665,0.0035451650619506836,-0.005531788717692882,0.009011550989666665,-0.851569057402684,0.009011290967464447,0.005531760398298502,-0.9999440908432007,0.00035834265872836113,-0.0010572695173323154,-0.0007239702390506864
1.7329680919647217,0.005242232233285904,-0.006209388375282288,0.007249772548675537,-0.005522787217250813,0.009375952777968273,-0.8515283698527374,0.009375672787427902,0.005522759165614843,-0.999940812587738,0.0011654868721961975,-0.03404015302658081,0.00027550465893000364
1.7528250217437744,-0.001491304486989975,-0.0019512292928993702,0.002400815486907959,-0.005476052544388532,0.009044648418111027,-0.8515390562329916,0.009044389240443707,0.005476025398820639,-0.9999440908432007,-0.003002613317221403,0.010091270320117474,0.0024172887206077576
1.77156400680542,-0.000918705016374588,-0.004405266139656305,0.0027360916137695312,-0.005458165718394157,0.009097662029070322,-0.8515589613266626,0.009097401052713394,0.005458138417452574,-0.999943733215332,0.0006991410627961159,-0.002138942014425993,0.0010111043229699135
1.7915489673614502,0.0035663368180394173,-0.006538003217428923,0.0036053061485290527,-0.005454672534561957,0.009159742269119843,-0.8516171489566866,0.009159478358924389,0.005454645492136478,-0.999943196773529,-0.00039243558421730995,-0.004418075550347567,0.0027631032280623913
1.8120629787445068,0.0048374393954873085,-0.0030404175631701946,0.0019264817237854004,-0.005420831209376933,0.009216155950408958,-0.8516353153935641,0.009215890429913998,0.005420804489403963,-0.9999428391456604,0.0009601241908967495,-0.004072840791195631,0.002026767935603857
1.8328540325164795,0.0022925399243831635,-0.0011349399574100971,0.00558781623840332,-0.005437961328714241,0.009289136698709215,-0.851596540195295,0.009288866072893143,0.005437934305518866,-0.9999420642852783,0.0022151784505695105,-0.004720255732536316,0.0015186405507847667
1.8526389598846436,-0.002318444661796093,-0.0003967597149312496,0.004230976104736328,-0.005401684923585885,0.009185147430495467,-0.8516018188619889,0.009184883907437325,0.005401658825576305,-0.9999432563781738,0.0004111938178539276,0.0011330177076160908,-0.0003640668001025915
1.8716330528259277,0.00023618340492248535,0.0018330030143260956,0.004519999027252197,-0.005369187292556007,0.009300812940935979,-0.8515186597190594,0.00930054485797882,0.00536916172131896,-0.9999423623085022,-0.0012983023189008236,3.4374999813735485e-05,-0.0011644480982795358
1.8926489353179932,-0.0001935511827468872,-0.001591488253325224,0.002200305461883545,-0.005452004955603138,0.00928804574466148,-0.8516092914274658,0.009287774562835693,0.005451977718621492,-0.9999420046806335,0.0016521071083843708,-0.0030332314781844616,0.0014074956998229027
1.9128239154815674,0.001021718606352806,0.0009085908532142639,0.003725409507751465,-0.005454367403678045,0.009369778385084621,-0.851739792099483,0.0093695018440485,0.005454340483993292,-0.9999412298202515,0.0002665179781615734,-0.0024884375743567944,-0.0012554432032629848
1.9320080280303955,-0.0007025180384516716,0.0032341224141418934,0.003924131393432617,-0.005417653709100315,0.009354509744526283,-0.8517958068094611,0.009354235604405403,0.005417627282440662,-0.9999415874481201,0.0021560972090810537,0.0014057252556085587,-0.0006275541381910443
1.951404094696045,0.0017071915790438652,0.001618922222405672,0.0025205612182617188,-0.00536964527480079,0.009355686791359941,-0.8518080315523918,0.009355415590107441,0.005369619466364384,-0.9999418258666992,0.0006791050545871258,-0.001516012824140489,0.0008367057889699936
1.9724061489105225,-0.0007744031026959419,0.0011284477077424526,0.0022926926612854004,-0.005326061287169518,0.009273798071523221,-0.8517741225324166,0.009273533709347248,0.005326035898178816,-0.9999428391456604,0.00042424164712429047,0.001056587672792375,0.0013444271171465516
1.9925780296325684,0.0007087653502821922,0.0012020180001854897,0.0037423372268676758,-0.005267749111539672,0.009301248205199758,-0.8517548153951002,0.009300985373556614,0.005267724860459566,-0.9999428987503052,-0.0019945064559578896,-0.0030630873516201973,-0.0005450656753964722
2.011343002319336,-0.0016388334333896637,0.0004835566505789757,0.0033306479454040527,-0.005269047291434593,0.009268473854251719,-0.8517562642438279,0.009268212132155895,0.00526902312412858,-0.999943196773529,0.0017048092558979988,0.0010165341664105654,-0.0002737925969995558
2.0318901538848877,-0.0010373760014772415,0.0002937926910817623,0.0033145546913146973,-0.005245187951021427,0.0093689257609584,-0.8518245245347191,0.009368659928441048,0.0052451640367507935,-0.9999423623085022,0.0013837264850735664,0.0007495714817196131,0.0007197966333478689
2.0520269870758057,-0.0013143932446837425,-3.634858876466751e-05,0.0038782358169555664,-0.005300671685328884,0.009432326426254738,-0.8518307004356177,0.009432054124772549,0.005300646647810936,-0.9999414682388306,-0.00263837818056345,-0.0013482883805409074,0.0004177154041826725
2.071439027786255,0.00032558757811784744,0.0008435486815869808,0.0026264190673828125,-0.005351560693952695,0.009470815825609952,-0.8519042477373397,0.00947053823620081,0.0053515350446105,-0.999940812587738,0.0011198781430721283,0.00537826819345355,-0.0002809134894050658
2.0916810035705566,-0.0013982327654957771,3.424333408474922e-05,0.0032528042793273926,-0.005413187041469182,0.009348320310559509,-0.851872560981736,0.009348046965897083,0.0054131606593728065,-0.9999416470527649,0.0006123674102127552,-0.0014511580811813474,-0.0006891652592457831
2.1122429370880127,0.0002822326496243477,-0.0011595925316214561,0.0038933157920837402,-0.005386318981306416,0.009407357643803972,-0.8517671128470785,0.009407082572579384,0.005386292934417725,-0.9999412298202515,0.00028456607833504677,-0.0009001258295029402,0.00021889014169573784
2.1310689449310303,-2.1053478121757507e-05,0.0011639525182545185,0.004564940929412842,-0.00536685092215981,0.009390208084798927,-0.8517660261105987,0.009389935061335564,0.00536682503297925,-0.9999415278434753,0.0007997304201126099,-0.000892316922545433,0.0012192094000056386
2.1516048908233643,-0.00026480667293071747,0.0013324129395186901,0.0034963488578796387,-0.005381495782556313,0.00943559944915226,-0.8517332447290152,0.009435323067009449,0.005381469614803791,-0.9999409914016724,-0.002049617003649473,-0.001391085097566247,0.0004002869827672839
2.1712191104888916,-0.0022151386365294456,-0.0007220599800348282,0.0020156502723693848,-0.005406550521009855,0.009478587690603337,-0.8517010559506023,0.009478307329118252,0.005406524054706097,-0.9999404549598694,-0.0025584991089999676,0.005473963916301727,-0.0020381985232234
2.1924049854278564,-0.0013984348624944687,0.00011291494593024254,0.005464434623718262,-0.005319254581508294,0.00950111350092564,-0.8516296960490195,0.0095008360221982,0.005319229327142239,-0.9999406933784485,9.391456842422485e-06,0.0018916979897767305,0.001457442995160818
2.2114689350128174,-0.0020633991807699203,0.001482279971241951,0.004136383533477783,-0.0052621451624174954,0.009586246787476571,-0.8516700079307117,0.009585967287421227,0.005262121092528105,-0.9999402165412903,-0.0007264870218932629,0.002417296636849642,0.0002514955122023821
2.232523202896118,7.176678627729416e-05,-0.0006172023713588715,0.0049746036529541016,-0.005316950155348023,0.009663611582822976,-0.8516672388200057,0.009663324803113937,0.00531692523509264,-0.9999391436576843,-0.0004660370759665966,-0.0033682710491120815,0.0014685906935483217
2.252600908279419,0.0011247536167502403,0.0008561196736991405,0.003448307514190674,-0.005338990161982195,0.009694002886132754,-0.851682148258818,0.009693712927401066,0.005338964983820915,-0.9999387860298157,0.0008282721973955631,-0.0003230960574001074,0.0013543876120820642
2.271350145339966,-0.0024463720619678497,0.001558681484311819,0.003996908664703369,-0.005414627776209878,0.00972509534174991,-0.8516482607159969,0.009724799543619156,0.005414601415395737,-0.9999380707740784,-0.0015248204581439495,0.0023824810050427914,0.0005830192239955068
2.292733907699585,-0.0016368068754673004,0.002331109717488289,0.0022573471069335938,-0.005374620347740943,0.009754762454455352,-0.8515630243515551,0.009754466824233532,0.00537459459155798,-0.9999379515647888,-0.0009456980042159557,0.0031594508327543736,-0.003036351641640067
2.3124899864196777,-0.001730324700474739,0.0018726005218923092,0.0010671615600585938,-0.005314330261503654,0.009787244314037014,-0.8516382846820099,0.00978694949299097,0.005314305424690247,-0.9999380111694336,0.0015312358736991882,-0.0012118167942389846,-0.0007220712723210454
2.3313040733337402,-0.0014960644766688347,-0.0015186979435384274,0.003355264663696289,-0.005318177453512689,0.009858164950651447,-0.8516417050811628,0.00985786598175764,0.005318152252584696,-0.9999372959136963,0.0008427915163338184,-0.001880708266980946,-0.0011806419352069497
2.3525521755218506,-0.002286274917423725,0.0009320131503045559,0.0030956268310546875,-0.005308872658183749,0.009885437314324681,-0.8515707721856199,0.009885136969387531,0.005308847874403,-0.9999370574951172,-0.0012987162917852402,0.0025271784979850054,0.002047138288617134
2.3726460933685303,-0.0032752249389886856,0.0024879639968276024,0.0032181739807128906,-0.005309318368942083,0.009836786595521242,-0.8516723752607942,0.009836489334702492,0.005309293512254953,-0.9999375343322754,0.004067785572260618,0.0010560485534369946,-0.0009818589314818382
2.3939170837402344,-0.0028326651081442833,0.0012195948511362076,0.0034173130989074707,-0.005250171747125264,0.00979094910733742,-0.8516927821462822,0.00979065801948309,0.005250147543847561,-0.9999383091926575,-0.0009674765169620514,0.0011453721672296524,0.002803998999297619
2.4133729934692383,-0.0021001622080802917,-0.00039072567597031593,0.003294706344604492,-0.0052888374963935645,0.009821390046817008,-0.8516592687573965,0.009821094572544098,0.005288812797516584,-0.9999377727508545,0.0010391892865300179,0.0013201110996305943,-0.003281813580542803
2.4338691234588623,-0.0012436406686902046,-0.0012465487234294415,0.005049407482147217,-0.005366463542716956,0.009788844956126006,-0.8517666277148308,0.00978854764252901,0.00536643760278821,-0.9999377131462097,-0.0008207564242184162,0.0014847125858068466,0.0006512596737593412
2.451812982559204,-0.0002626897767186165,0.0006655203178524971,0.004927456378936768,-0.005407520456139425,0.009753938722349906,-0.8516809178372455,0.009753641672432423,0.005407494027167559,-0.9999378323554993,-0.0014700694009661674,0.001976868836209178,0.0016681592678651214
2.473133087158203,0.0007293643429875374,0.000241041649132967,0.0029125213623046875,-0.00538949339562228,0.009845262330975825,-0.8516708209860372,0.009844960644841194,0.0053894673474133015,-0.9999369978904724,0.0007685236632823944,-0.0001344160409644246,-6.670563016086817e-05
2.492337942123413,0.0007134424522519112,-0.0009778463281691074,0.004727721214294434,-0.005326642377747659,0.009937481875838984,-0.8516322584217496,0.009937177412211895,0.005326617043465376,-0.9999364614486694,-0.001537840347737074,-0.0015645334497094154,-0.0005898328963667154
2.5131499767303467,-0.0010165814310312271,0.0027344967238605022,0.0020751953125,-0.00529166692865342,0.009699104867875072,-0.8515819467271981,0.009698816575109959,0.005291642155498266,-0.99993896484375,-0.00019438238814473152,-0.0012760243844240904,-0.00013013504212722182
2.5335099697113037,-0.0015148241072893143,0.0031099840998649597,0.0033728480339050293,-0.005236613385500166,0.009663285209427719,-0.851648028015844,0.00966300256550312,0.005236589349806309,-0.9999396204948425,-0.0009047403000295162,0.005149561911821365,-0.0011447531869634986
2.551171064376831,-0.0007856087759137154,0.0011152965016663074,0.0029299259185791016,-0.005201881337877263,0.0097275278837233,-0.8516586096285983,0.009727242402732372,0.005201858002692461,-0.9999391436576843,-0.000989789143204689,0.0007372366962954402,-0.00022108631674200296
2.5722849369049072,-0.0014808019623160362,0.0004124627448618412,0.0027467012405395508,-0.005263846925145034,0.009705559829314004,-0.8516350237873188,0.009705273434519768,0.005263822618871927,-0.9999390244483948,0.001198447309434414,0.0008850421872921288,-0.00108072510920465
2.5919580459594727,-0.001022886484861374,-0.0009972588159143925,0.0039514899253845215,-0.0053613138673557215,0.009720672621326669,-0.8515614027156438,0.00972037948668003,0.005361288320273161,-0.9999383687973022,-0.0005661249160766602,0.0020523134153336287,0.0038225757889449596
2.6109111309051514,-0.0010661408305168152,0.0017369547858834267,0.0059201717376708984,-0.005282128180432981,0.009733406470289802,-0.8515337568970394,0.009733117185533047,0.0052821035496890545,-0.9999386668205261,0.0038306794594973326,-0.0005969104822725058,0.0004080408252775669
2.6310551166534424,-0.000953109934926033,0.002022895496338606,0.005097091197967529,-0.005286105105907627,0.009635629486227924,-0.8515120160548051,0.00963534601032734,0.005286080297082663,-0.9999396204948425,0.001204727217555046,-0.0001273489324375987,-0.0013782922178506851
2.6529009342193604,-0.00010793283581733704,-0.0001264144666492939,0.0031133294105529785,-0.005207630932464987,0.009690720738408364,-0.8513516527417095,0.009690437465906143,0.00520760752260685,-0.999939501285553,0.0004887236282229424,-0.00032282492611557245,0.002141703385859728
2.671881914138794,-0.00039152707904577255,0.00021526357159018517,0.0036930441856384277,-0.005247422720733944,0.00968439840037695,-0.8514136219443993,0.009684113785624504,0.005247398745268583,-0.9999393224716187,0.002093001501634717,0.003644130891188979,0.0004817910958081484
2.6909210681915283,-0.00026721227914094925,0.0012292447499930859,0.0047910213470458984,-0.00528629875931682,0.009727936229692903,-0.8514336544999613,0.009727646596729755,0.005286274012178183,-0.9999387264251709,0.0013895239681005478,-0.002058235229924321,-0.002490811515599489
2.712205171585083,-0.0009538838639855385,0.0018904334865510464,0.0005488395690917969,-0.005357533243103739,0.009712705862992504,-0.8514352625942668,0.009712413884699345,0.005357507616281509,-0.9999384880065918,0.0009096921421587467,-0.0011217182036489248,0.0009311893954873085
2.73205304145813,-0.00042052194476127625,0.0008073439821600914,0.003921031951904297,-0.005418284289210117,0.009682884597959095,-0.8514959151738356,0.009682591073215008,0.005418257787823677,-0.999938428401947,6.149150431156158e-05,-0.0008628853829577565,-9.916682029142976e-05
2.753145933151245,-0.002682519145309925,-0.0013108900748193264,0.0034641027450561523,-0.0053850290558963235,0.009610281254177866,-0.8515054058970284,0.009609993547201157,0.005385003052651882,-0.9999393224716187,0.002016814425587654,0.0035587609745562077,-0.0016154551412910223
2.772258996963501,-0.0002651568502187729,0.002075520809739828,0.002685070037841797,-0.0054776229232891245,0.009649590223776462,-0.851550887057059,0.00964929535984993,0.00547759560868144,-0.999938428401947,-2.2191088646650314e-05,0.0002321178326383233,-5.842320388182998e-05
2.792412042617798,-0.0016670934855937958,0.0015677819028496742,0.0020441412925720215,-0.005512340162518724,0.009632462038717211,-0.8515392529802399,0.009632166475057602,0.005512312054634094,-0.999938428401947,-0.0014176997356116772,0.006280393339693546,0.0007322351448237896
2.8124279975891113,-0.0012687565758824348,-0.0021805865690112114,0.003797769546508789,-0.00553756427819825,0.009737671458988918,-0.8515744036760526,0.009737368673086166,0.00553753599524498,-0.9999372363090515,0.00024040276184678078,0.0037927855737507343,0.0017669177614152431
2.832012891769409,0.00020209886133670807,0.0019801463931798935,0.004224181175231934,-0.005588258403472902,0.009792702266604105,-0.8515222403078887,0.009792393073439598,0.005588229279965162,-0.9999364614486694,0.0012732869945466518,-0.0007582405814900994,0.0022269142791628838
2.8523130416870117,0.0022240430116653442,0.006455838680267334,-0.015609979629516602,0.38482626797340264,-0.27161807061434134,0.1557387479071251,-0.24866876006126404,-0.3753981292247772,-0.8928830623626709,-0.058480750769376755,0.011179410852491856,-0.1694219410419464
2.871018171310425,0.019041553139686584,-0.012456685304641724,0.015622198581695557,0.3793263422837874,-0.2583606099282887,0.14051642885714238,-0.23733380436897278,-0.3702947795391083,-0.8980837464332581,-0.09483307600021362,0.0669766291975975,-0.07859587669372559
2.894036054611206,0.007032424211502075,-0.016975343227386475,0.002355337142944336,0.36924193389210747,-0.23964194983484197,0.12408672253244325,-0.22135740518569946,-0.360908567905426,-0.9059503078460693,-0.16525091230869293,0.08914850652217865,-0.12210438400506973
2.913032054901123,-0.022357940673828125,-0.028922349214553833,0.0227125883102417,0.35884106184997583,-0.21730923714749156,0.10325435343899822,-0.20186997950077057,-0.35118934512138367,-0.9142836332321167,-0.25337377190589905,0.19246478378772736,-0.23313522338867188
2.9314980506896973,0.015297800302505493,-0.0481189489364624,0.1563594937324524,0.324649864485023,-0.17180054946676734,0.04367568772826868,-0.1620263159275055,-0.3189769685268402,-0.9338100552558899,-0.6937654614448547,0.2300516664981842,-0.7177198529243469
2.9545140266418457,-0.04947258532047272,-0.044139593839645386,0.06770896911621094,0.2603984519276591,-0.14052581399700398,-0.0767433341209003,-0.13534186780452728,-0.2574656009674072,-0.9567622542381287,-1.1173443794250488,0.09118369966745377,-1.07618248462677
2.970973014831543,-0.05515322834253311,-0.009688645601272583,0.07055765390396118,0.16550436620844783,-0.10782682238440494,-0.20057723014293244,-0.10614743828773499,-0.16474983096122742,-0.9806070923805237,-1.535023808479309,0.04842984303832054,-0.6993956565856934
2.9935519695281982,0.06692902743816376,0.044718317687511444,0.014069318771362305,0.02795252780564745,-0.07401400452910423,-0.27995532304793236,-0.07391756027936935,-0.027948888018727303,-0.9968726634979248,-0.9892340898513794,0.25443804264068604,0.08007325232028961
3.013982057571411,0.04045850783586502,0.04887273907661438,0.17992353439331055,-0.1601854843506903,-0.06353083168125022,-0.26780549686434435,-0.06267531216144562,0.159501314163208,-0.985206127166748,-3.3035361766815186,0.017075471580028534,0.5201181173324585
3.032241106033325,0.08439773321151733,-0.10451558232307434,-0.025467991828918457,-0.3142843802789427,-0.07601415575839025,-0.2598482792176602,-0.07222121953964233,0.30913597345352173,-0.948271632194519,-1.4160252809524536,-0.31102579832077026,0.05128860101103783
3.0512311458587646,-0.004693426191806793,0.08976754546165466,-0.13893091678619385,-0.49497091426132617,-0.08982709194286369,-0.2549974931815389,-0.0789400115609169,0.4750060439109802,-0.8764346837997437,-0.7131043076515198,-0.22598892450332642,0.061505913734436035
3.073293924331665,-0.09043238312005997,-0.05659759044647217,-0.06293123960494995,-0.5407965468193038,-0.11517025280484362,-0.23946322912206058,-0.09851719439029694,0.5148190259933472,-0.8516194820404053,-0.33296042680740356,-0.11651082336902618,-0.15314485132694244
3.0925440788269043,-0.03470271825790405,-0.14685291051864624,0.03404033184051514,-0.7395459725392092,-0.13742566692454597,-0.2827721782920068,-0.10120733827352524,0.673952579498291,-0.7318094968795776,-4.17258358001709,0.605098307132721,0.015111042186617851
3.1118061542510986,-0.09058273583650589,0.06396400928497314,-0.03301773965358734,-1.3619575943307975,-0.354120230488439,-0.5777543684283482,-0.07189285010099411,0.9782723188400269,-0.19446015357971191,-3.4760570526123047,0.8786569237709045,-0.5968298316001892
3.1346662044525146,-0.010959044098854065,0.4082603454589844,-0.09424588084220886,-1.116658753388021,-0.42674313139151154,-0.7162424718459427,-0.18157635629177094,0.8986396789550781,-0.39934536814689636,3.558013916015625,0.13186179101467133,-1.5125792026519775
3.1536319255828857,0.13295787572860718,-0.17104041576385498,0.09856170415878296,-0.9623924683706054,-0.5355921175275805,-0.826120990921599,-0.29169508814811707,0.8205613493919373,-0.49152126908302307,0.26357704401016235,-0.4794842302799225,-0.9105499982833862
3.172755002975464,-0.0936053991317749,-0.22791165113449097,-0.10842406749725342,-0.8799107227266979,-0.6895698796563279,-0.9768088851311852,-0.4054027199745178,0.7706819772720337,-0.4916277229785919,-0.5702250599861145,-0.21054323017597198,-1.214594841003418
3.1916391849517822,-0.18508189916610718,-0.39606863260269165,0.018543004989624023,-0.7426816684303149,-0.7873936584341321,-1.0961208028882221,-0.5219340920448303,0.6762658357620239,-0.519855260848999,0.26406365633010864,-0.24520879983901978,-1.9891470670700073
3.2129650115966797,-0.07954978942871094,0.08421814441680908,0.14200031757354736,-0.56951716720522,-0.9954971388582395,-1.3436652385388164,-0.7065983414649963,0.5392254590988159,-0.4582081437110901,-0.8265017867088318,-0.7879985570907593,-2.1446118354797363
3.2310950756073,-0.016669034957885742,0.21963387727737427,-0.0017749667167663574,-0.42998372364024057,-1.1430206378263248,-1.5044721922508435,-0.8270657658576965,0.4168560206890106,-0.377085417509079,-1.1579623222351074,-0.6245078444480896,-1.555586814880371
3.253892183303833,0.025610685348510742,0.3250882029533386,0.008174270391464233,-0.3309765979043971,-1.2753929266229926,-1.6528965451552171,-0.9047612547874451,0.32496678829193115,-0.27532511949539185,-0.1848141849040985,-0.7344915866851807,-0.8800694346427917
3.272181987762451,-0.1558275818824768,0.2305561602115631,-0.01478034257888794,-0.2980529333545668,-1.359228213165323,-1.6829700741787155,-0.934596061706543,0.2936595380306244,-0.20073473453521729,-0.19901050627231598,-0.7152741551399231,0.1747352033853531
3.291882038116455,-0.11727988719940186,0.014785319566726685,-0.047441646456718445,-0.32259871275826857,-1.396905353467011,-1.6279294379418585,-0.9341116547584534,0.3170322775840759,-0.1640908569097519,0.4695613980293274,-0.2883901596069336,0.4790954291820526
3.314049005508423,0.0649712085723877,0.07561296224594116,-0.16691821813583374,-0.3891522188436127,-1.4115741981820362,-1.6096476158614152,-0.91352778673172,0.3794041574001312,-0.1466955989599228,0.28658854961395264,-0.17402639985084534,0.40751132369041443
3.332710027694702,0.19736874103546143,0.04203999042510986,-0.07030189037322998,-0.45220357426133784,-1.3981863488856765,-1.60729077639683,-0.8861200213432312,0.43694868683815,-0.15449053049087524,-0.32935628294944763,0.35632526874542236,0.7345314621925354
3.3512861728668213,0.22214579582214355,-0.1102990210056305,0.11524708569049835,-0.5070018343576629,-1.342363337094667,-1.5278497275525946,-0.851494550704956,0.485558420419693,-0.1979648619890213,0.42624253034591675,-0.19372011721134186,0.3758789300918579
3.3733909130096436,-0.14665848016738892,-0.14026576280593872,0.08000418543815613,-0.5359139131140429,-1.3302467181554343,-1.4463527896343977,-0.8350461721420288,0.510627031326294,-0.20483624935150146,0.4457935094833374,-0.22986160218715668,0.30545297265052795
3.3926188945770264,-0.11228537559509277,-0.10731697082519531,0.03527732193470001,-0.5390699580130948,-1.3270231815121385,-1.4310486684774397,-0.8328135013580322,0.5133380889892578,-0.20713697373867035,0.009087083861231804,0.16370414197444916,0.003907640930265188
3.412299871444702,0.08673489093780518,-0.029147088527679443,0.05914708971977234,-0.5344367241740037,-1.3180260678777243,-1.4373190365025863,-0.8332100510597229,0.5093563795089722,-0.21521389484405518,-0.37314826250076294,0.3179418444633484,-0.002443494275212288
3.433081865310669,0.05984407663345337,0.18809330463409424,-0.0017803162336349487,-0.5479123532570078,-1.3135032168453409,-1.4290998111431699,-0.8255148530006409,0.5209063291549683,-0.2172137349843979,0.5198554396629333,-0.05040760710835457,0.18610940873622894
3.4512670040130615,-0.20650029182434082,-0.09542065858840942,-0.006901085376739502,-0.5590398348784188,-1.3073201209982346,-1.4051398635546413,-0.8185089230537415,0.5303724408149719,-0.22079049050807953,0.15157167613506317,0.014967135153710842,-0.0654178187251091
3.474008083343506,0.20894253253936768,0.11289364099502563,-0.02373325824737549,-0.5520519882511367,-1.278152834665664,-1.4161473540622347,-0.8152505159378052,0.5244355201721191,-0.24563007056713104,-0.003183910623192787,0.04691912233829498,-0.04566383361816406
3.492495059967041,-0.012299060821533203,-0.004231750965118408,-0.009603679180145264,-0.5537541186329155,-1.2738800973728122,-1.4318865393844158,-0.8133388161659241,0.5258840322494507,-0.24884964525699615,-0.4300028681755066,0.17038460075855255,0.008553586900234222
3.5139849185943604,0.004517555236816406,0.038326382637023926,-0.002833232283592224,-0.5643719316170331,-1.2815069710507836,-1.4865653808527246,-0.8098154067993164,0.5348852276802063,-0.241032674908638,-0.21773134171962738,0.11361745744943619,-0.004202155862003565
3.531712055206299,-0.08502709865570068,0.0022696256637573242,0.025409966707229614,-0.5595576958628433,-1.2690479961795749,-1.4680350428005187,-0.8091989755630493,0.5308114290237427,-0.25186553597450256,0.2781168520450592,0.05026467144489288,0.025152478367090225
3.5537610054016113,-0.07595938444137573,0.26306045055389404,-0.3573000431060791,-0.5298308972000736,-1.2135405817176146,-1.3806711157297742,-0.808409571647644,0.5053874254226685,-0.30175748467445374,2.77786922454834,0.11006444692611694,-0.054409515112638474
3.5728330612182617,0.21876674890518188,0.16992893815040588,-0.19605761766433716,-0.3902559280449309,-1.0298886725897196,-1.088570296628236,-0.7927871942520142,0.3804251253604889,-0.4761987626552582,3.974152088165283,0.32327204942703247,-0.2526073753833771
3.591688871383667,0.0918239951133728,0.36854562163352966,-0.017967045307159424,-0.21276802904885486,-0.9099392067498527,-0.7393604154967466,-0.7716640830039978,0.21116632223129272,-0.5999528169631958,3.5130977630615234,0.13420484960079193,0.6445120573043823
3.610959053039551,-0.14741283655166626,0.6168995499610901,-0.2362760305404663,-0.14787528196959768,-0.7241596115307223,-0.5179238495998252,-0.655275821685791,0.1473369300365448,-0.7408815026283264,2.7072956562042236,2.5031750202178955,0.9571505188941956
3.633249044418335,-0.14428257942199707,0.27002981305122375,0.05611675977706909,-0.06482395149986529,-0.3994186897562267,-0.27285357605855304,-0.3880660831928253,0.06477855890989304,-0.9193522334098816,1.2068394422531128,2.142192840576172,1.4462889432907104
3.652107000350952,-0.19881223142147064,0.03744546324014664,0.13525855541229248,-0.01504536139787209,-0.2133178270662094,-0.10940351958751644,-0.21167972683906555,0.015044793486595154,-0.97722327709198,0.9246389865875244,1.5398683547973633,1.49834144115448
3.6735870838165283,-0.1782839596271515,-0.18858852982521057,0.1340159773826599,0.07495513362249902,-0.06038653375835561,0.03718187891896881,-0.060180388391017914,-0.07488496601581573,-0.9953745603561401,0.7626511454582214,0.8176977038383484,0.7949216365814209
3.6919219493865967,-0.07856739312410355,-0.06430669128894806,0.10540461540222168,0.17593359699204147,-0.014258770714989174,0.11154166758750766,-0.014038190245628357,-0.17502740025520325,-0.9844634532928467,1.097543478012085,0.37252146005630493,0.579274594783783
3.713954210281372,-0.0292772576212883,-0.01614353060722351,0.087918221950531,0.30046012027700575,0.0062095341683746285,0.1711989274758455,0.0059313117526471615,-0.2959597408771515,-0.9551820158958435,0.7969790697097778,0.21331004798412323,0.5620595216751099
3.7326571941375732,0.009548348374664783,-0.05395013093948364,0.044751763343811035,0.3701390021558669,0.01385104453489373,0.2351916633160969,0.012912598438560963,-0.36174502968788147,-0.9321876168251038,0.6180190443992615,0.29266417026519775,0.40081891417503357
3.7522530555725098,-0.02783992700278759,-0.02988576889038086,0.03148370981216431,0.4006873594232569,0.01706133626055798,0.28016260868382087,0.015709199011325836,-0.39005136489868164,-0.9206591248512268,-0.14852647483348846,0.08278657495975494,0.2844395637512207
3.7726950645446777,-0.02817585878074169,-0.016979098320007324,0.004920244216918945,0.3896243688922005,0.02279045537006959,0.3150936671370331,0.02108052745461464,-0.3798409700393677,-0.924811601638794,-0.06640037149190903,0.08697164058685303,0.21262778341770172
3.7921102046966553,0.03306721895933151,0.04076382517814636,0.035988688468933105,0.38852342869302664,0.019900339275618878,0.3519835572554721,0.018415940925478935,-0.37882229685783386,-0.9252861738204956,-0.04776985943317413,0.02393435314297676,0.33916300535202026
3.812527894973755,0.012262377887964249,0.05726945400238037,0.03407001495361328,0.38809004872203634,0.007045174356508622,0.3930302853239429,0.006521195638924837,-0.37842118740081787,-0.9256105422973633,-0.08603883534669876,0.03611529991030693,0.27723434567451477
3.8341338634490967,0.10457520931959152,-0.05205821990966797,0.08514302968978882,0.38099704228344544,-0.00761784265544853,0.43144275177625036,-0.007071531843394041,-0.37184619903564453,-0.9282674193382263,0.30410534143447876,0.017784493044018745,0.33026009798049927
3.8524439334869385,0.09164802730083466,0.012101203203201294,0.07650512456893921,0.3552177825570072,-0.005098024016576591,0.4316012696102676,-0.004779737442731857,-0.3477945625782013,-0.9375585913658142,-0.5235757231712341,0.04866952821612358,-0.04913167282938957
3.870575189590454,0.0702454000711441,-0.07243415713310242,0.20827734470367432,0.3098338706083419,-0.01475011585820988,0.43739948373926285,-0.014047268778085709,-0.3049004077911377,-0.9522806406021118,-0.4184660315513611,-0.23993706703186035,-0.03671310096979141
3.892340898513794,0.03813645988702774,-0.09000550210475922,0.30187690258026123,0.2098092088017033,-0.08400530023699976,0.37371403905524775,-0.08206652104854584,-0.2082732915878296,-0.9746216535568237,-1.0849409103393555,-1.0965479612350464,-1.0009633302688599
3.910996198654175,-0.15562686324119568,0.11527033895254135,0.16513895988464355,0.09465967280946658,-0.25447245302963895,0.22519565828554247,-0.2506079077720642,-0.09451837092638016,-0.963463544845581,-0.9800581336021423,-2.590146780014038,-1.2491406202316284
3.9333560466766357,-0.5800647735595703,-0.035335972905159,0.5313377976417542,-0.170530224102442,-0.6420433548776925,-0.1422945974213167,-0.590147078037262,0.16970489919185638,-0.7892571091651917,-7.717282295227051,-3.110471725463867,-2.8275671005249023
3.9520530700683594,-0.8780351877212524,0.4237886965274811,0.48862549662590027,-0.47282986547240485,-1.1994192335808123,-1.1881866101781497,-0.8295911550521851,0.4554075002670288,-0.323082834482193,-9.731574058532715,0.044318631291389465,-3.638396739959717
3.9709839820861816,-0.15842998027801514,0.6289746761322021,-0.029461577534675598,-0.3012349666734562,-1.4430672476180044,-1.7912914524901118,-0.9471915364265442,0.29669979214668274,-0.12164616584777832,-0.5517297983169556,-0.6569017171859741,-2.430830717086792
3.9934380054473877,0.030736565589904785,0.5242277979850769,-0.08422952890396118,-0.1094132489707649,-1.5495045604638238,-1.909868340086628,-0.9937950372695923,0.10919507592916489,-0.02116284891963005,-1.470882773399353,-0.476024866104126,-1.4611527919769287
4.012491941452026,0.22160625457763672,0.828250527381897,-0.3212110996246338,0.015430749334580557,-1.5818589419922722,-2.0397786167129546,-0.999819815158844,-0.01543013658374548,0.011061073280870914,-0.7357745170593262,-0.15105387568473816,-0.8753463625907898
4.032070875167847,0.04221212863922119,0.8965483903884888,-0.32899224758148193,0.007876620056289392,-1.6112266946471674,-1.9972644719316688,-0.9991518259048462,-0.007876538671553135,0.040418099611997604,1.6590031385421753,-0.49693477153778076,0.9752543568611145
4.051482915878296,-0.23566079139709473,0.5678109526634216,-0.005064963363111019,-0.1598279086860569,-1.5804090567143103,-1.8031590401547573,-0.9872092604637146,0.15914830565452576,0.009490068070590496,2.354989767074585,0.6549612283706665,2.3418357372283936
4.074013948440552,-0.37912416458129883,0.1019696295261383,0.3677092492580414,-0.42338382957389253,-1.3570501547401332,-1.348161850398995,-0.8909565806388855,0.41084784269332886,-0.1933927834033966,3.7591075897216797,0.9505219459533691,2.421377420425415
4.092897176742554,-0.29848653078079224,-0.23792850971221924,0.6689555048942566,-0.5915287907422397,-1.0528493094458988,-1.0496151660852184,-0.72121262550354,0.557630717754364,-0.4109750986099243,-0.27400919795036316,2.0491347312927246,2.6589765548706055
4.113036870956421,-0.29573681950569153,-0.43810272216796875,0.6338108777999878,-0.8596850668036969,-0.7622219342416697,-0.8597028431134726,-0.45069265365600586,0.7576370239257812,-0.4720829427242279,-0.14415977895259857,0.5667670965194702,1.8973312377929688
4.131240129470825,-0.27772971987724304,-0.6622134447097778,0.4344805181026459,-0.918647939935038,-0.6734023611037977,-0.734859306946433,-0.37848976254463196,0.7947818040847778,-0.4744126498699188,0.3713721036911011,-0.9844027161598206,-0.36728546023368835
4.153246164321899,-0.7228958010673523,-0.33718180656433105,0.325922429561615,-0.7188662593731441,-1.0216266489432915,-0.9987192479713449,-0.6418960690498352,0.658531904220581,-0.3928168714046478,-1.1934685707092285,-0.7337326407432556,-3.7962489128112793
4.172313928604126,-0.46939241886138916,0.2935875654220581,-0.167691171169281,-0.43745619677691,-1.3898004229723961,-1.4070756591946578,-0.8910354971885681,0.4236365854740143,-0.16305823624134064,-1.4660059213638306,-1.7565531730651855,-3.69964599609375
4.1917479038238525,-0.1186336874961853,0.5956388711929321,-0.16517645120620728,-0.16015663452552004,-1.5582763112556932,-1.5604506659075517,-0.9871249198913574,0.15947283804416656,-0.012359464541077614,-0.939315140247345,-0.9070389866828918,-2.1476449966430664
4.214079141616821,0.10676491260528564,0.6825425624847412,-0.42076003551483154,0.020159925481885995,-1.6716182608499817,-1.6198369455331687,-0.9947196841239929,-0.0201585590839386,0.10063076764345169,-0.8195353746414185,-0.4650900959968567,-0.7685787677764893
4.232371091842651,0.1666245460510254,0.73789381980896,-0.4953732490539551,0.01589433541532606,-1.6789428247258953,-1.6807172686515652,-0.9940325617790222,-0.015893666073679924,0.10792220383882523,0.15509065985679626,0.1336633414030075,0.8078504800796509
4.2513720989227295,-0.4641529321670532,0.541813313961029,-0.22959470748901367,-0.12175635631505119,-1.6518482178852723,-1.5845885755276998,-0.9893384575843811,0.12145574390888214,0.08036381006240845,1.1162477731704712,0.8314104676246643,1.7149937152862549
4.273997068405151,-0.37183111906051636,0.19466063380241394,0.14465934038162231,-0.3864175986537898,-1.4473374674019128,-1.4027379096188033,-0.9192150831222534,0.37687259912490845,-0.11406536400318146,2.006897211074829,1.3374512195587158,2.661557674407959
4.292996168136597,-0.3979383707046509,-0.13910752534866333,0.45653867721557617,-0.5938590409628614,-1.1814208579260346,-1.0612933349599307,-0.7667497396469116,0.5595635175704956,-0.3146166205406189,2.221958637237549,1.0693851709365845,2.8331212997436523
4.311069011688232,-0.2893564701080322,-0.39489251375198364,0.5300548076629639,-0.7828061106256018,-0.8596924740051293,-0.7875254957034339,-0.537120521068573,0.7052715420722961,-0.4627024233341217,-0.16000545024871826,1.4862042665481567,2.428837537765503
4.33370304107666,-0.20045912265777588,-0.6189103126525879,0.45151665806770325,-0.9386243485471724,-0.6310234482345597,-0.6376496314058914,-0.3486131429672241,0.8067460060119629,-0.47710558772087097,-0.5311483144760132,0.3786081075668335,0.45598042011260986
4.352292060852051,-0.3285897672176361,-0.526034414768219,0.31282323598861694,-0.9256539621136967,-0.7988446931837607,-0.804466780847031,-0.4308707118034363,0.799014151096344,-0.41943633556365967,-0.7462430596351624,-0.6489277482032776,-2.198441743850708
4.371265172958374,-0.46453315019607544,-0.025608062744140625,0.13292405009269714,-0.7092491520528904,-1.2189486655349189,-1.2534083324975716,-0.7123619914054871,0.6512641906738281,-0.2615250051021576,-1.9173266887664795,-1.4106030464172363,-4.373454570770264
4.391710042953491,-0.4995687007904053,0.37130632996559143,-0.039196617901325226,-0.3304127288853509,-1.4989790388103432,-1.4992126985697753,-0.9434704184532166,0.32443344593048096,-0.06787421554327011,-1.501366138458252,-0.9347893595695496,-3.212637186050415
4.410922050476074,0.06605881452560425,0.7666248083114624,-0.49279654026031494,-0.09826408390376684,-1.598274887146525,-1.638461874382581,-0.9948004484176636,0.0981060266494751,0.02734256722033024,-0.4548393189907074,-0.5334879159927368,-1.902887225151062
4.431842088699341,0.22090142965316772,0.7476551532745361,-0.2997943162918091,-0.014247171860103441,-1.6071746843568553,-1.664581152647682,-0.9992370009422302,0.014246690087020397,0.036366645246744156,0.3644310235977173,0.07618246972560883,0.6018553376197815
4.454447984695435,0.19171172380447388,0.09336502850055695,-0.03559768199920654,-0.15692734171600978,-1.5840506023679526,-1.5567184434523327,-0.9876255989074707,0.15628404915332794,0.013091027736663818,1.441503643989563,0.04359602928161621,1.187252163887024
4.472676992416382,-0.07649081945419312,-0.1524946689605713,0.33656859397888184,-0.21964034457289117,-1.5603937511720196,-1.4725895115815641,-0.9759232997894287,0.21787862479686737,-0.01015248242765665,-0.25217536091804504,0.4357026517391205,0.5937448740005493
4.490891218185425,0.12019109725952148,-0.19111871719360352,0.35430723428726196,-0.28557599063225697,-1.5490096798726596,-1.3823456943207593,-0.9592719674110413,0.281710147857666,-0.02090262621641159,1.9306159019470215,-0.8046326041221619,0.4388055205345154
4.513046979904175,0.07813596725463867,-0.42506349086761475,0.33719199895858765,-0.3375497825984455,-1.5453526698335573,-1.2103392951735894,-0.9432634115219116,0.33117613196372986,-0.02400525100529194,-0.06391270458698273,0.1483922153711319,0.11736157536506653
4.53190016746521,-0.04513728618621826,-0.13041219115257263,0.286342978477478,-0.33316640951184623,-1.5588835503031595,-1.2117348062253666,-0.9449445009231567,0.32703694701194763,-0.011257444508373737,0.3140050768852234,-0.18687020242214203,-0.057431090623140335
4.5507330894470215,-0.20365262031555176,-0.13766679167747498,0.17612874507904053,-0.3354349434287814,-1.5692003115101982,-1.1795277095668877,-0.944266140460968,0.32917991280555725,-0.00150706444401294,0.48025229573249817,-0.18329650163650513,-0.168048694729805
4.5726401805877686,-0.16082161664962769,-0.04085808992385864,0.05689191818237305,-0.321643981439461,-1.584363893313618,-1.1831401269711912,-0.9486297369003296,0.31612667441368103,0.012871387414634228,0.6360121965408325,-0.49077674746513367,-0.2790214419364929
4.590916872024536,-0.2979094386100769,0.04106944799423218,0.034501075744628906,-0.30198530775279003,-1.5730009200876671,-1.098389121414451,-0.9547455906867981,0.2974162697792053,0.00210482906550169,0.8543939590454102,0.23065991699695587,-0.16886559128761292
4.613074064254761,-0.5798035264015198,0.17177924513816833,-0.11186832934617996,-0.3029732525419761,-1.5153637614121125,-1.043426800884064,-0.952987790107727,0.29835936427116394,-0.05288073047995567,-0.20312736928462982,-0.4550051689147949,0.16884945333003998
4.6316001415252686,-0.5127480626106262,0.04449284076690674,0.08471548557281494,-0.33546702328640704,-1.5508878627807396,-1.0430906333376007,-0.9440696239471436,0.32921019196510315,-0.018797459080815315,-0.8984099626541138,-0.3375057876110077,0.3529805541038513
4.653553009033203,-0.12813401222229004,0.018807321786880493,-0.14310216903686523,-0.36873382391774395,-1.6416437664110664,-1.1992263804051808,-0.9304445385932922,0.3604346513748169,0.06603012979030609,-0.6428883075714111,-0.40592479705810547,0.33964672684669495
4.672152042388916,-0.08790451288223267,-0.0069876015186309814,-0.10080910474061966,-0.4256379800007321,-1.6715155422444916,-1.2065237171979695,-0.9061598181724548,0.412901908159256,0.09157758206129074,-0.01566779613494873,-0.07142163813114166,0.7453252673149109
4.693641901016235,0.0796782374382019,0.04188847541809082,-0.11378931999206543,-0.5299322029028708,-1.6818576122535869,-1.2358587661286835,-0.8575255870819092,0.505474865436554,0.09563140571117401,0.1439778357744217,-0.27317383885383606,0.9265068769454956
4.714523077011108,0.1410781741142273,-0.15794223546981812,0.16846881806850433,-0.6374741020937442,-1.6542167584010021,-1.1338723090334755,-0.8008071184158325,0.5951675176620483,0.06695906817913055,0.7002189755439758,0.6302748322486877,0.4375094175338745
4.732928037643433,0.20280498266220093,-0.1447077989578247,0.10191178321838379,-0.6622104434434367,-1.5569447156846883,-1.0842659268045232,-0.7885593175888062,0.6148616075515747,-0.010923516005277634,-0.11041450500488281,0.9601161479949951,0.14363422989845276
4.753245115280151,0.17008233070373535,-0.03443962335586548,-0.09721972048282623,-0.6912063082876126,-1.400255684171279,-1.0469432366968046,-0.7593006491661072,0.637467086315155,-0.1307617723941803,0.7333278059959412,1.0974960327148438,0.6162840723991394
4.770921945571899,0.12031424045562744,-0.19488763809204102,0.04501119256019592,-0.7332440256726284,-1.1733897539641098,-0.8871036905920529,-0.685103178024292,0.6692835092544556,-0.28756487369537354,1.0108569860458374,1.1579643487930298,0.7196875810623169
4.79236102104187,0.3023974299430847,-0.08862411975860596,0.08021289110183716,-0.7511517168835009,-0.9637682672945401,-0.7212413199793563,-0.6003252863883972,0.6824809908866882,-0.4169284999370575,1.2041475772857666,0.19289815425872803,0.32450374960899353
4.81370997428894,0.02690523862838745,-0.1507003903388977,0.13183563947677612,-0.6617217327298088,-0.9192256378058934,-0.5723983522171282,-0.6273080706596375,0.6144760847091675,-0.47843897342681885,0.7741575241088867,-0.6555333733558655,-0.11960966140031815
4.832916021347046,-0.1415259838104248,0.37362098693847656,-0.22117969393730164,-0.6201434878483686,-0.9833117567374009,-0.5547553252371951,-0.6773521304130554,0.5811519622802734,-0.4510614275932312,1.1977953910827637,-0.9090874791145325,-0.0013084347592666745
4.854335069656372,-0.05538088083267212,-0.1653273105621338,0.08621150255203247,-0.5847978997058191,-0.9806126073925359,-0.44662973430606023,-0.6927728056907654,0.5520308613777161,-0.4640343189239502,0.8460371494293213,-0.13125549256801605,0.1610209345817566
4.87528395652771,-0.19267547130584717,-0.17557477951049805,-0.13048863410949707,-0.5353642185555925,-0.9400204643878666,-0.387476263156184,-0.6945773363113403,0.5101543068885803,-0.5072523951530457,0.325695276260376,0.3364728093147278,-0.6933605670928955
4.892646074295044,-0.22965186834335327,-0.32956334948539734,-0.09794408082962036,-0.40587758715540273,-0.929158907355928,-0.35693835746342945,-0.7360310554504395,0.39482519030570984,-0.5498829483985901,1.754084825515747,-0.2780475318431854,-0.9973031282424927
4.9130308628082275,-0.05598616600036621,-0.04402679204940796,0.09091329574584961,-0.34330263212859097,-0.9312598444453587,-0.43178147055183297,-0.7555525302886963,0.33659884333610535,-0.5619978308677673,-1.1611312627792358,0.4495830535888672,-1.1500301361083984
4.932867050170898,0.1387363076210022,0.22012901306152344,0.4835703372955322,-0.34781571242588166,-0.8928553732760263,-0.5679414224466784,-0.7322269678115845,0.34084513783454895,-0.5896341800689697,-1.6590694189071655,1.0059075355529785,-0.32474395632743835
4.952092885971069,0.19425523281097412,-0.09278050065040588,0.08401620388031006,-0.3422029712755705,-0.8746105919383209,-0.6296773510169017,-0.7228044867515564,0.33556315302848816,-0.6041119694709778,0.5015999674797058,0.1470654308795929,-0.8647792935371399
4.971672058105469,0.03259783983230591,-0.051702141761779785,-0.16733992099761963,-0.3454588395986057,-0.9597903701365353,-0.7869577692950704,-0.7706807851791382,0.3386284410953522,-0.5397981405258179,-1.4820150136947632,-0.5290202498435974,-1.507954478263855
4.990851163864136,0.06713950634002686,-0.06457889080047607,-0.2398608922958374,-0.33865426229320317,-1.0582658136955123,-0.9409613974383074,-0.8220071196556091,0.33221808075904846,-0.4625316262245178,-2.531079053878784,-1.0428903102874756,-1.4855717420578003
5.0108489990234375,0.05171465873718262,-0.04777824878692627,-0.20001405477523804,-0.338475538865156,-1.1015306248334436,-1.0102561502446272,-0.8412960171699524,0.33204951882362366,-0.4265727996826172,-3.3729941844940186,-0.9826347827911377,-1.5571916103363037
5.03084921836853,0.11627638339996338,-0.048880159854888916,-0.1893773078918457,-0.3458652362918525,-1.1521380341128074,-1.1025807694414718,-0.8595320582389832,0.3390108048915863,-0.3824610114097595,-4.794483661651611,-1.0591214895248413,-1.5889089107513428
5.050055027008057,0.04415106773376465,-0.035337477922439575,-0.28332966566085815,-0.35682644514570117,-1.2142343355816083,-1.220684595479896,-0.8780744671821594,0.34930235147476196,-0.32706764340400696,-5.909458637237549,-0.9720397591590881,-1.5151845216751099
5.070852041244507,-0.15866529941558838,0.07860276103019714,-0.42475858330726624,-0.37042335037123203,-1.2773624322429178,-1.3565006631736045,-0.892329752445221,0.36201009154319763,-0.2696230709552765,-6.525473594665527,-0.38872405886650085,-1.1983567476272583
5.090623140335083,-0.2851601243019104,0.32591840624809265,-0.4470095634460449,-0.3809690559011792,-1.3270281664140078,-1.5023639452478386,-0.9008597731590271,0.37182021141052246,-0.2240566462278366,-6.727478504180908,0.6848509907722473,-1.4900362491607666
5.110850095748901,-0.21287322044372559,0.6759004592895508,-0.4302150011062622,-0.37542887286456195,-1.3631045350712006,-1.639331232424002,-0.9103567600250244,0.3666715621948242,-0.19183997809886932,-5.364546775817871,0.7655207514762878,-1.8248145580291748
5.13087010383606,-0.08041423559188843,0.7468999624252319,-0.3228389620780945,-0.35779210951455365,-1.3840935813390673,-1.7391870430902563,-0.9203945398330688,0.35020703077316284,-0.17386509478092194,-3.475595712661743,0.6409220099449158,-1.6797257661819458
5.1508848667144775,-0.09061646461486816,0.5122628211975098,-0.26502346992492676,-0.33598781825487656,-1.396894647048168,-1.794871753577531,-0.9298456311225891,0.32970190048217773,-0.16335172951221466,-1.2272365093231201,-0.027334071695804596,-1.4039726257324219
5.170868158340454,-0.07396221160888672,0.478524386882782,-0.16264605522155762,-0.3171399250842799,-1.4039206142594367,-1.8049863107835187,-0.9369326233863831,0.3118503987789154,-0.1578189879655838,0.3508667051792145,-0.23188163340091705,-0.5663672685623169
5.190948009490967,-0.12344622611999512,0.5391529202461243,-0.1411755084991455,-0.3061049752931893,-1.4049224358692143,-1.786512574747991,-0.9404271841049194,0.30134695768356323,-0.15743890404701233,1.6037652492523193,-0.4306359887123108,-0.35459446907043457
5.211911916732788,-0.10927122831344604,0.6408718228340149,-0.10485143959522247,-0.29399386207618455,-1.4012551339453068,-1.7444486897857188,-0.9433717727661133,0.2897770404815674,-0.16149064898490906,2.461878538131714,-0.41294336318969727,-0.09840212762355804
5.231637001037598,-0.03094935417175293,0.4664592444896698,0.01419435441493988,-0.2873412528816761,-1.3932153460072898,-1.6916102929804386,-0.9439195990562439,0.2834034860134125,-0.16940666735172272,2.506504774093628,-0.2830871045589447,0.29795318841934204
5.25134015083313,-0.022020041942596436,0.28958311676979065,0.06463438272476196,-0.28867410257837545,-1.383017261775105,-1.6448326990450137,-0.9417709112167358,0.28468143939971924,-0.17895318567752838,1.8486799001693726,-0.017829958349466324,0.6418468952178955
5.272253036499023,-0.014650583267211914,0.2152726948261261,0.03946113586425781,-0.29830226146349664,-1.3709408112435046,-1.6104872679424305,-0.9368112683296204,0.2938978672027588,-0.18976013362407684,1.2478450536727905,0.22645407915115356,0.9208813309669495
5.2908971309661865,0.02835625410079956,0.22235572338104248,0.0030030161142349243,-0.31356499091705387,-1.3570173714725722,-1.583573674041789,-0.9295861124992371,0.30845174193382263,-0.20180968940258026,0.9926738142967224,0.3187350928783417,1.081584095954895
5.310899972915649,0.07948571443557739,0.2163407802581787,0.04675406217575073,-0.3318297535039478,-1.3427123184410756,-1.5600275537647292,-0.9209622144699097,0.3257735073566437,-0.21377672255039215,0.788470983505249,0.374334454536438,1.1934630870819092
5.331341981887817,0.09329748153686523,0.15405499935150146,0.0750291645526886,-0.35261166243840497,-1.3273552962679291,-1.5395445457498447,-0.9108025431632996,0.3453499674797058,-0.22621320188045502,0.6217572689056396,0.4772379994392395,1.2758066654205322
5.351206064224243,0.11097019910812378,0.11201533675193787,0.09421795606613159,-0.37527760671046145,-1.309894144636911,-1.5202576139872834,-0.8989189267158508,0.3665308356285095,-0.240000382065773,0.5809623599052429,0.5673744678497314,1.381292700767517
5.371208906173706,0.12672513723373413,0.09006986021995544,0.11330157518386841,-0.3994742843688265,-1.2912950336170925,-1.4989212219721828,-0.8855143189430237,0.38893407583236694,-0.25415539741516113,0.688142716884613,0.4654078185558319,1.470252513885498
5.392847061157227,0.09710723161697388,0.06681343913078308,0.1473883092403412,-0.423735168137783,-1.2729706612086276,-1.474277915165617,-0.8714297413825989,0.4111681282520294,-0.26749011874198914,0.7795621752738953,0.3840785026550293,1.491350769996643
5.410930871963501,0.041784048080444336,0.03163239359855652,0.17356419563293457,-0.4467496244895252,-1.2543494547706782,-1.4470239731970802,-0.8570764660835266,0.43203645944595337,-0.2806502878665924,0.8923664689064026,0.3337002992630005,1.4477952718734741
5.431092023849487,0.008484482765197754,0.008105844259262085,0.18763133883476257,-0.46754431205253294,-1.2348952958217854,-1.4166154251781438,-0.8427894711494446,0.4506955146789551,-0.2942444682121277,1.025129795074463,0.2546767592430115,1.3968528509140015
5.451069116592407,-0.02878361940383911,-0.018491536378860474,0.21466630697250366,-0.48612891655287893,-1.2162977783907096,-1.3840342310417797,-0.8291723728179932,0.46720677614212036,-0.306905597448349,1.0645161867141724,0.10744451731443405,1.3263098001480103
5.472398996353149,-0.10077452659606934,-0.06652545928955078,0.2578602135181427,-0.5024215779823916,-1.1991895210425125,-1.3514952882126072,-0.8165991306304932,0.4815492630004883,-0.31823915243148804,1.0034894943237305,0.07561033219099045,1.2116767168045044
5.490969896316528,-0.15890038013458252,-0.13499808311462402,0.3139304518699646,-0.51702573737774,-1.1827046128523542,-1.3228459815952183,-0.8046464323997498,0.4942968189716339,-0.3289603292942047,0.7535271048545837,0.1868593692779541,1.0713670253753662
5.510900020599365,-0.15577924251556396,-0.22328341007232666,0.3468932807445526,-0.5309990212379797,-1.1666379021339475,-1.3019505089903411,-0.7928293347358704,0.5063950419425964,-0.33909597992897034,0.33206161856651306,0.35918718576431274,0.9099591970443726
5.530975103378296,-0.09718650579452515,-0.28587621450424194,0.36559146642684937,-0.5453772300921205,-1.1531003881111366,-1.2908069351743707,-0.7814298868179321,0.5187406539916992,-0.3468078374862671,-0.020456213504076004,0.4138301908969879,0.7893001437187195
5.550615072250366,-0.06684011220932007,-0.324802041053772,0.3629336953163147,-0.5597012642224936,-1.1437492659513449,-1.2872084676896542,-0.7713099718093872,0.5309330821037292,-0.3509860038757324,-0.2557201385498047,0.3268028795719147,0.6337938904762268
5.57336688041687,-0.08392494916915894,-0.33728861808776855,0.34507668018341064,-0.5718175303455115,-1.1393784885636415,-1.2886907632323943,-0.7638686895370483,0.5411613583564758,-0.35163792967796326,-0.3452370762825012,0.1892637461423874,0.41138675808906555
5.5908849239349365,-0.12990713119506836,-0.33942562341690063,0.3201901912689209,-0.5795678219614889,-1.139365142309524,-1.2932189029878534,-0.7600312829017639,0.5476623773574829,-0.3498837351799011,-0.3138400614261627,0.05447131395339966,0.12444091588258743
5.610943078994751,-0.16086196899414062,-0.3638395667076111,0.32274988293647766,-0.5815568172701496,-1.1435895861091745,-1.3001177295296644,-0.7605096697807312,0.5493254661560059,-0.3462178707122803,-0.3091651201248169,-0.10636000335216522,-0.18144696950912476
5.631718873977661,-0.19339746236801147,-0.4093402624130249,0.3551977574825287,-0.5787459382979364,-1.153906164597863,-1.3120861740190108,-0.7654495239257812,0.5469745397567749,-0.33897754549980164,-0.4959874749183655,-0.23119647800922394,-0.48181310296058655
5.650889158248901,-0.2372654676437378,-0.437152624130249,0.3586415946483612,-0.5726648762972437,-1.1696405884460233,-1.3323037759442513,-0.7737360596656799,0.5418736934661865,-0.32818496227264404,-0.8283469676971436,-0.22969187796115875,-0.7459872364997864
5.670008897781372,-0.23231899738311768,-0.4174768924713135,0.3143528401851654,-0.5638939057117761,-1.188866422093198,-1.3608432946989562,-0.7842825651168823,0.5344812870025635,-0.31500884890556335,-1.0362555980682373,-0.19734618067741394,-0.9801938533782959
5.690977096557617,-0.1914464831352234,-0.334270179271698,0.22613570094108582,-0.5511620096539785,-1.2125348375612683,-1.3925931765026058,-0.7978265285491943,0.5236775279045105,-0.29872167110443115,-0.9661843180656433,-0.5418915748596191,-1.1821446418762207
5.711865186691284,-0.29108500480651855,-0.2075798511505127,0.16850250959396362,-0.5334578298203944,-1.243170192336737,-1.42097295135629,-0.8152535557746887,0.5085137486457825,-0.27708402276039124,-0.7715551853179932,-1.0626856088638306,-1.3086811304092407
5.732936143875122,-0.5712770223617554,-0.12419137358665466,0.2518031895160675,-0.5114835977154186,-1.2799674950830815,-1.4485510197877245,-0.8354001641273499,0.48947152495384216,-0.25004833936691284,-0.9085183143615723,-1.1217799186706543,-1.5449321269989014
5.751586198806763,-0.7252780199050903,-0.18987992405891418,0.43802815675735474,-0.4859064269638204,-1.313193607272456,-1.4848695051813294,-0.8550747632980347,0.4670100510120392,-0.22527478635311127,-1.5937023162841797,-0.3620032072067261,-1.7610002756118774
5.771281957626343,-0.47820037603378296,-0.2737460732460022,0.37032395601272583,-0.46162929844832057,-1.3349340221890964,-1.536843219927696,-0.8705392479896545,0.4454074501991272,-0.20922160148620605,-2.2402584552764893,0.470275342464447,-1.6893677711486816
5.79111909866333,-0.06156700849533081,-0.17250418663024902,0.09175187349319458,-0.4415836937151379,-1.3499999338347304,-1.5928901759530782,-0.882128119468689,0.4273717701435089,-0.1979987621307373,-2.066221237182617,0.3273557424545288,-1.4267058372497559
5.811154127120972,0.16809529066085815,-0.006450295448303223,-0.14127099514007568,-0.42078119904373323,-1.3684863193682169,-1.633497040092584,-0.8941543102264404,0.4084736406803131,-0.18340544402599335,-1.016457438468933,-0.5647873282432556,-1.4424159526824951
5.830909967422485,0.18369168043136597,0.06345093250274658,-0.115208700299263,-0.39357695908161644,-1.3960358143940772,-1.6491081342990654,-0.9094761610031128,0.3834943473339081,-0.16057860851287842,0.004625250585377216,-1.4397258758544922,-1.4598877429962158
5.850967168807983,-0.00023484230041503906,-0.10144951939582825,0.11057169735431671,-0.365679066619842,-1.4253492358672628,-1.653097028551384,-0.9240204691886902,0.35758355259895325,-0.13535188138484955,-0.17686930298805237,-1.1554824113845825,-1.4016543626785278
5.8724281787872314,-0.2757141590118408,-0.26883450150489807,0.23859138786792755,-0.3382513634977003,-1.447318585214977,-1.674998994807465,-0.9361540675163269,0.33183804154396057,-0.1161852777004242,-1.6318023204803467,-0.2654411792755127,-1.5464996099472046
5.890872001647949,-0.3535841107368469,-0.23284274339675903,0.24649876356124878,-0.3164519457212091,-1.461986075212809,-1.7305300794052343,-0.9447252750396729,0.3111966550350189,-0.1032034158706665,-3.267611026763916,0.46047499775886536,-1.228013515472412
5.910866975784302,-0.27825939655303955,0.01836186647415161,0.162541925907135,-0.2978512840447993,-1.4744733975301685,-1.8089675219312482,-0.9515380263328552,0.2934667766094208,-0.09193944185972214,-3.862818956375122,0.5897839069366455,-1.4620682001113892
5.9302918910980225,-0.1706165075302124,0.3170902132987976,0.029084734618663788,-0.27202184944625,-1.4896459995956692,-1.8910189268103985,-0.9600599408149719,0.26867949962615967,-0.07808065414428711,-3.636119842529297,0.1972048580646515,-1.7687947750091553
5.9508490562438965,-0.05488330125808716,0.4021053910255432,-0.01965939998626709,-0.2410611720651311,-1.5076410384447074,-1.9621667158978533,-0.9691493511199951,0.23873324692249298,-0.061288412660360336,-3.0175013542175293,-0.17577822506427765,-1.8004696369171143
5.9708521366119385,0.0012133121490478516,0.38690489530563354,-0.025417622178792953,-0.20834920021950112,-1.5267508816288313,-2.019073826571337,-0.9774249196052551,0.20684508979320526,-0.04307897761464119,-2.370434522628784,-0.4492107629776001,-1.7636501789093018
5.9908411502838135,0.023107469081878662,0.44356244802474976,-0.05600708723068237,-0.17520669182193863,-1.5463332221006323,-2.062794667783446,-0.9843959212303162,0.17431166768074036,-0.024086184799671173,-1.8251643180847168,-0.6681289672851562,-1.7016676664352417
6.010841131210327,0.03594934940338135,0.5348337888717651,-0.11833769083023071,-0.1423123770849866,-1.5668715477157846,-2.0941919015121946,-0.9898830056190491,0.14183248579502106,-0.003885091980919242,-1.2311969995498657,-0.8986085057258606,-1.6372648477554321
6.030841112136841,0.038365960121154785,0.59492427110672,-0.1915886402130127,-0.11023967361359364,-1.589034806950112,-2.11374094494714,-0.9937646985054016,0.11001652479171753,0.01812676712870598,-0.789274275302887,-1.0343774557113647,-1.5453197956085205
6.050957918167114,0.05355417728424072,0.5908462405204773,-0.2567194700241089,-0.08052062265026647,-1.6106756128699,-2.1263815247906375,-0.9959673881530762,0.08043364435434341,0.03973953798413277,-0.5970498323440552,-0.9995617866516113,-1.389176845550537
6.070910215377808,0.09121930599212646,0.5820572972297668,-0.23915576934814453,-0.05459702277791821,-1.6291027589418559,-2.138272524065875,-0.9968132376670837,0.05456990376114845,0.05818657577037811,-0.7786983847618103,-0.7221364378929138,-1.1209512948989868
6.090856075286865,0.14404147863388062,0.5794234275817871,-0.24650752544403076,-0.034765066617475804,-1.6405992097959805,-2.156297845832499,-0.9969620704650879,0.0347580648958683,0.069704070687294,-1.148804783821106,-0.37400752305984497,-0.7467761635780334
6.110862970352173,0.19625860452651978,0.5988677740097046,-0.26320135593414307,-0.02181572633139941,-1.646649505563494,-2.181543085400898,-0.9968873262405396,0.021813996136188507,0.07576243579387665,-1.4386168718338013,-0.17374880611896515,-0.3603951036930084
6.130879163742065,0.23424023389816284,0.619691789150238,-0.2999908924102783,-0.01605107654802022,-1.6486316187324828,-2.211059513466902,-0.9968440532684326,0.016050387173891068,0.07774671912193298,-1.521401047706604,0.015560132451355457,-0.0022894260473549366
6.150889158248901,0.26890629529953003,0.6408821940422058,-0.3969700336456299,-0.016436668262802916,-1.6481825233629022,-2.2403020441223607,-0.9968726634979248,0.016435928642749786,0.07729855179786682,-1.3745263814926147,0.04958796501159668,0.260669469833374
6.170891046524048,0.3176701068878174,0.6588435173034668,-0.46663057804107666,-0.022097026179083424,-1.6493739101558156,-2.264974950851945,-0.9966711401939392,0.022095227614045143,0.07847759127616882,-1.0184892416000366,-0.13557115197181702,0.49323925375938416
6.1909260749816895,0.31648266315460205,0.6489977836608887,-0.4476531744003296,-0.03303031369192091,-1.653752289820051,-2.282803309171121,-0.9960176348686218,0.03302430734038353,0.08281566202640533,-0.6950640678405762,-0.23164859414100647,0.7404954433441162
6.210891008377075,0.22915440797805786,0.6416701674461365,-0.45654094219207764,-0.048320543588164566,-1.6583342220048145,-2.2944604405717883,-0.9950082302093506,0.04830174148082733,0.08732409030199051,-0.30015429854393005,-0.16227412223815918,0.8668333888053894
6.230889081954956,0.14584112167358398,0.6891109347343445,-0.4816896915435791,-0.06656871760992028,-1.6606855664863363,-2.295754502210611,-0.993756890296936,0.06651956588029861,0.08956941962242126,0.3770560324192047,-0.0867171511054039,0.9776443839073181
6.250890016555786,0.07017982006072998,0.7076486349105835,-0.4541308879852295,-0.08897747992142319,-1.6615184758383534,-2.2824550596757427,-0.9919480681419373,0.08886012434959412,0.09023936837911606,1.1218230724334717,-0.0965762585401535,1.1402145624160767
6.270888090133667,-0.04420274496078491,0.6382848024368286,-0.36918842792510986,-0.11574236370447682,-1.6597516769285325,-2.2577948973816175,-0.9893819093704224,0.11548411846160889,0.08824369311332703,1.4915035963058472,0.05457349121570587,1.316782832145691
6.290888071060181,-0.14636749029159546,0.5041133165359497,-0.2625061273574829,-0.14671154839485132,-1.6526933061161035,-2.230938489679145,-0.9859416484832764,0.14618580043315887,0.08092664927244186,1.3692920207977295,0.2857683598995209,1.5688263177871704
6.310889005661011,-0.2844145894050598,0.4357156753540039,-0.19885730743408203,-0.18245191079257986,-1.6425015950219655,-2.209294061191859,-0.9808748960494995,0.18144133687019348,0.0704546868801117,1.0602067708969116,0.37440502643585205,1.8307693004608154
6.330918073654175,-0.5144597291946411,0.47101283073425293,-0.18647325038909912,-0.221545196795235,-1.629432521474924,-2.1907085509785262,-0.9738827347755432,0.21973732113838196,0.057170312851667404,1.0912991762161255,0.587254524230957,1.9350091218948364
6.350886106491089,-0.6538860201835632,0.48505017161369324,-0.14083373546600342,-0.26097468028509635,-1.6084837642513867,-2.1668329817830148,-0.965453028678894,0.25802233815193176,0.036402687430381775,1.4363154172897339,0.9339061379432678,1.9019169807434082
6.370877981185913,-0.5188069343566895,0.3808845281600952,-0.006334184668958187,-0.30084889332886977,-1.5787865568980544,-2.135875992788267,-0.9550549387931824,0.2963310778141022,0.00763127114623785,1.5994163751602173,1.1435967683792114,2.058833599090576
6.390854120254517,-0.3769218325614929,0.25393202900886536,0.1181604266166687,-0.34471227554292516,-1.5449222166291081,-2.1029933684841375,-0.9408578276634216,0.33792588114738464,-0.024349292740225792,1.4527150392532349,1.200778603553772,2.3748397827148438
6.410968065261841,-0.36285412311553955,0.12929776310920715,0.14120495319366455,-0.39370346895554786,-1.5082991232408784,-2.0679331965354657,-0.9216917753219604,0.38361117243766785,-0.05767827481031418,1.872962236404419,1.1615957021713257,2.6125540733337402
6.43088698387146,-0.40146106481552124,0.17500334978103638,0.1355312466621399,-0.4398754084455652,-1.4687568714773955,-2.0174340361167067,-0.900098443031311,0.4258267283439636,-0.09216565638780594,2.103074312210083,0.8734287023544312,2.490894317626953
6.45088791847229,-0.37906527519226074,-0.13202258944511414,0.1990349292755127,-0.4869811478322173,-1.4250753189277867,-1.961234015766494,-0.874383270740509,0.4679601192474365,-0.12832561135292053,2.2867233753204346,0.97556072473526,2.8029439449310303
6.470914125442505,-0.38477373123168945,-0.08991461992263794,0.2726523280143738,-0.5353850677929884,-1.3758912291177323,-1.904376268810896,-0.8437878489494324,0.5101722478866577,-0.166573166847229,1.7642008066177368,1.1029499769210815,2.7500057220458984
6.490890026092529,-0.3194611072540283,-0.09739857912063599,0.23803949356079102,-0.5789572470845388,-1.3289045893538474,-1.8523583634348573,-0.812664806842804,0.5471513867378235,-0.20050281286239624,1.7009676694869995,0.8376863598823547,2.5146567821502686
6.510884046554565,-0.2615128755569458,-0.09613430500030518,0.24489404261112213,-0.6173128799461225,-1.282534872754729,-1.7956799365847222,-0.7817915678024292,0.5788460969924927,-0.23181714117527008,1.8431710004806519,0.5980690121650696,2.412400007247925
6.530885934829712,-0.28088754415512085,-0.15872764587402344,0.284758061170578,-0.6490779039384055,-1.234593612400075,-1.7318700830431661,-0.7520409226417542,0.6044520735740662,-0.26281583309173584,2.0730879306793213,0.47244778275489807,2.202775716781616
6.550930023193359,-0.2920488715171814,-0.22753965854644775,0.3570899963378906,-0.6739600694296964,-1.181747388078645,-1.6634606120705573,-0.7229657769203186,0.6240850687026978,-0.29637518525123596,2.0650250911712646,0.6268243789672852,2.0514976978302
6.570887088775635,-0.2586040496826172,-0.29113060235977173,0.4000232219696045,-0.6939919485482012,-1.1251464861712874,-1.5963858792125212,-0.6936207413673401,0.6396108865737915,-0.3313433527946472,1.867168664932251,0.7858699560165405,1.9010545015335083
6.5908849239349365,-0.19726449251174927,-0.33678990602493286,0.41440585255622864,-0.710951821630362,-1.0684876821413472,-1.5343068557525639,-0.6641398668289185,0.6525552868843079,-0.3648146688938141,1.5867067575454712,0.8640106916427612,1.783785343170166
6.6108880043029785,-0.15634804964065552,-0.37615966796875,0.4158986210823059,-0.7255660130158843,-1.0142406677171354,-1.4779272678579347,-0.6352169513702393,0.6635590195655823,-0.39520761370658875,1.329586386680603,0.8502198457717896,1.621230959892273
6.630882978439331,-0.13652056455612183,-0.3999805450439453,0.4783124327659607,-0.7386370427973952,-0.9652322133233806,-1.4301749281150133,-0.6079100370407104,0.6732807755470276,-0.4208782911300659,0.9030308723449707,0.8704221844673157,1.4247370958328247
6.650883913040161,-0.1392350196838379,-0.44488799571990967,0.519036054611206,-0.7524072524231408,-0.9238427904555575,-1.3949912249213885,-0.5825209617614746,0.6833981275558472,-0.4400412440299988,0.38735419511795044,0.8910830020904541,1.2086750268936157
6.670882940292358,-0.14039701223373413,-0.4678614139556885,0.5297533273696899,-0.7678310545779979,-0.8908324402335255,-1.3728670925911353,-0.5594168305397034,0.6945765018463135,-0.4523453414440155,-0.04697241634130478,0.8683582544326782,0.9984754323959351
6.690922021865845,-0.14706921577453613,-0.4674730896949768,0.5093057751655579,-0.7837242707640735,-0.86599061279592,-1.360233625319081,-0.5395305156707764,0.7059221863746643,-0.4588906466960907,-0.23951910436153412,0.7358193397521973,0.7933821082115173
6.710880994796753,-0.1461009979248047,-0.46588170528411865,0.500849723815918,-0.7974054908766811,-0.847937689934806,-1.3539549904445505,-0.5238667130470276,0.7155460715293884,-0.4621228575706482,-0.31620514392852783,0.6221646070480347,0.5225470066070557
6.73088812828064,-0.12585824728012085,-0.4985795021057129,0.5054187774658203,-0.8082317794173538,-0.8371628753622804,-1.3542769759296658,-0.5130730271339417,0.7230668663978577,-0.46252626180648804,-0.4291779100894928,0.476516991853714,0.27937906980514526
6.7508862018585205,-0.09934085607528687,-0.5420029759407043,0.500868558883667,-0.8178181818869931,-0.8342945068187165,-1.3606996718405975,-0.5065857172012329,0.7296556234359741,-0.4593188464641571,-0.5337812304496765,0.30447086691856384,0.11823984980583191
6.7708799839019775,-0.10034167766571045,-0.5604130029678345,0.47267818450927734,-0.8240090093754326,-0.8411882567958261,-1.3750866525753012,-0.5063630938529968,0.7338749766349792,-0.45279595255851746,-0.6083806753158569,0.030897632241249084,-0.3365977108478546
6.7909181118011475,-0.12573689222335815,-0.5172364711761475,0.4412004351615906,-0.8246467844489941,-0.8616426937992948,-1.399163264694514,-0.5151627659797668,0.7343080639839172,-0.4420396089553833,-0.6654767990112305,-0.30471277236938477,-0.6745914220809937
6.811020135879517,-0.2092353105545044,-0.47472965717315674,0.4072113335132599,-0.8203245820373245,-0.8939456417408778,-1.4310520532892508,-0.5316399335861206,0.7313672304153442,-0.4271545112133026,-0.7350249290466309,-0.5619823932647705,-1.0706146955490112
6.8309550285339355,-0.297677218914032,-0.4475874900817871,0.4023422300815582,-0.8096063381038714,-0.9361557414078853,-1.4719988103336215,-0.555472195148468,0.7240157127380371,-0.40896445512771606,-0.8593736290931702,-0.6640073657035828,-1.4794427156448364
6.850858926773071,-0.3489490747451782,-0.42715829610824585,0.43018147349357605,-0.7940303782585894,-0.9854890587144791,-1.5218104937903087,-0.5842937231063843,0.7131842374801636,-0.3872584104537964,-1.128282070159912,-0.6959843039512634,-1.7803494930267334
6.870845079421997,-0.38160693645477295,-0.39856964349746704,0.465861439704895,-0.7758134403582067,-1.0422492147519653,-1.5822452539486649,-0.616439938545227,0.7002969980239868,-0.35998061299324036,-1.5499413013458252,-0.6972442269325256,-2.038738489151001
6.890910863876343,-0.40445196628570557,-0.33815997838974,0.41376712918281555,-0.7537556413686354,-1.10368174334495,-1.6517130841299354,-0.6510137319564819,0.684381902217865,-0.3283330798149109,-1.769840955734253,-0.6684604287147522,-2.3091609477996826
6.910186052322388,-0.3957231044769287,-0.21341323852539062,0.34000712633132935,-0.7239609860730749,-1.168080777454257,-1.7221690904566593,-0.6892531514167786,0.6623573899269104,-0.29362037777900696,-1.6514242887496948,-1.1340200901031494,-2.6045029163360596
6.9308412075042725,-0.5650073289871216,-0.05699598789215088,0.38506457209587097,-0.6832560929692004,-1.2380446614841893,-1.7847425237338352,-0.7329815626144409,0.6313215494155884,-0.2533200979232788,-1.4072626829147339,-1.6647965908050537,-2.9243905544281006
6.9508750438690186,-0.9146546125411987,0.023393332958221436,0.44411733746528625,-0.6325271958080045,-1.3013654709702833,-1.8408394532555648,-0.777438223361969,0.5911849141120911,-0.2146860659122467,-1.3067021369934082,-1.1201075315475464,-3.258706569671631
6.970924139022827,-0.8188530206680298,0.037722647190093994,0.2697979509830475,-0.5727843455059817,-1.3452070417182431,-1.8883379947900247,-0.819101870059967,0.5419740676879883,-0.1879802793264389,-1.0209777355194092,-0.7038378119468689,-3.448076009750366
6.990828990936279,-0.3341239094734192,0.1838119626045227,0.006111994385719299,-0.5107084976016771,-1.379801960229667,-1.9215855787417566,-0.8565346598625183,0.4887954592704773,-0.16561199724674225,-0.4594416618347168,-1.1290472745895386,-3.1578574180603027
7.010845899581909,-0.08951044082641602,0.24129971861839294,-0.09224563837051392,-0.4550438348193536,-1.4155098267524562,-1.9383320472886978,-0.8874335885047913,0.43950170278549194,-0.13892492651939392,-0.16193588078022003,-1.6291927099227905,-2.5895044803619385
7.030857086181641,-0.15716761350631714,0.12837663292884827,-0.06695824861526489,-0.4103735357127058,-1.4555257039716598,-1.955251704334038,-0.9108866453170776,0.3989518880844116,-0.10546600073575974,-0.9293907284736633,-1.5469589233398438,-2.083911895751953
7.050859212875366,-0.3500751852989197,0.04085615277290344,-0.028078794479370117,-0.37800950398093797,-1.4930973920091046,-2.0012815820707335,-0.9265972375869751,0.36907124519348145,-0.07214085012674332,-3.1387276649475098,-0.43312543630599976,-1.504955530166626
7.070878982543945,-0.4154009222984314,0.1343734860420227,0.031621821224689484,-0.36267606647087286,-1.5155012779375907,-2.0954029140584183,-0.9335217475891113,0.3547774851322174,-0.05167180299758911,-5.315117835998535,1.824110746383667,-0.5244834423065186
7.090895891189575,-0.518134355545044,0.41372746229171753,-0.4326326847076416,-0.35897814519560384,-1.503485359042127,-2.2080899896117603,-0.934136152267456,0.35131770372390747,-0.06297273933887482,-5.130284786224365,2.3742330074310303,-1.0614656209945679
7.110964059829712,-0.11589229106903076,0.800017237663269,-0.34439563751220703,-0.3335923255229171,-1.5111114100005312,-2.324462153687349,-0.9431896209716797,0.32743942737579346,-0.056361135095357895,-5.442995548248291,1.1929175853729248,-1.6693334579467773
7.1308839321136475,0.20889443159103394,0.30969616770744324,-0.14416062831878662,-0.306852028667526,-1.5338404222136341,-2.425165851425478,-0.9526383876800537,0.30205920338630676,-0.0352216474711895,-3.796144485473633,-0.288276731967926,-1.6434483528137207
7.150920152664185,0.07980459928512573,0.4298941493034363,-0.10678571462631226,-0.27367408839745955,-1.562908621076527,-2.484036024687184,-0.9627544283866882,0.27027061581611633,-0.007594081107527018,-1.8274091482162476,-0.6921612024307251,-1.7459163665771484
7.1708760261535645,0.01201707124710083,0.43613117933273315,-0.06882107257843018,-0.23799954836277729,-1.5789025143962534,-2.508010146795222,-0.9717795848846436,0.23575903475284576,0.007877600379288197,-0.717191755771637,-0.30594536662101746,-1.8932191133499146
7.190896987915039,0.12552344799041748,0.4091832637786865,-0.015319586731493473,-0.19717921372702052,-1.5863881675856923,-2.5191173035680583,-0.9805039167404175,0.1959039866924286,0.015289099887013435,-0.46909475326538086,-0.2777128219604492,-2.152113914489746
7.21088719367981,0.2198200225830078,0.48341870307922363,-0.016831398010253906,-0.15409222605161604,-1.5946108536427117,-2.5270143279077786,-0.9878712296485901,0.15348313748836517,0.023530133068561554,-0.42502379417419434,-0.4074312448501587,-2.1189730167388916
7.23088002204895,0.1652207374572754,0.5619498491287231,-0.09929001331329346,-0.11183658663596882,-1.604814747527157,-2.5349317465956878,-0.9931778907775879,0.11160360276699066,0.03379938378930092,-0.5129157900810242,-0.47902747988700867,-2.106977939605713
7.250915050506592,0.09462141990661621,0.6380673050880432,-0.18780219554901123,-0.0700435218826678,-1.6147691280181915,-2.54491837128812,-0.9965837001800537,0.0699862614274025,0.043850842863321304,-0.620281994342804,-0.4148910343647003,-2.005516290664673
7.270878076553345,0.10875272750854492,0.7223886251449585,-0.25425875186920166,-0.03263732336116711,-1.6228969688475667,-2.554898766013931,-0.9981113076210022,0.0326315276324749,0.052049342542886734,-0.5127341151237488,-0.3567466139793396,-1.6573615074157715
7.290884017944336,0.16531246900558472,0.773381769657135,-0.26669883728027344,-0.0046181009169169885,-1.629368944952326,-2.561740373435648,-0.9982746243476868,0.0046180845238268375,0.058538518846035004,-0.4016130268573761,-0.2692132890224457,-1.0751845836639404
7.310945987701416,0.1910809874534607,0.7563190460205078,-0.24728286266326904,0.010530689004437566,-1.6332325629540845,-2.5718665855291674,-0.9979963898658752,-0.010530494153499603,0.062392231076955795,-0.7429088354110718,-0.1047893613576889,-0.39186912775039673
7.330877065658569,0.18172621726989746,0.7166794538497925,-0.2286379337310791,0.013585420252203889,-1.632410482625757,-2.590466024188976,-0.9980104565620422,-0.013585002161562443,0.06156950443983078,-1.110862135887146,0.16576595604419708,0.19269341230392456
7.350878000259399,0.19584524631500244,0.7265127301216125,-0.26875901222229004,0.005794404235051996,-1.6271380905784782,-2.6144696616595016,-0.9983965158462524,-0.005794371943920851,0.05631101876497269,-1.186811923980713,0.29365912079811096,0.7079572081565857
7.370913028717041,0.2312326431274414,0.7354022860527039,-0.30387580394744873,-0.01092051191397644,-1.6220426179481637,-2.6368867685826864,-0.9986276626586914,0.010920294560492039,0.051220811903476715,-0.9250559210777283,0.18771983683109283,1.0629255771636963
7.390839099884033,0.23810583353042603,0.7079133987426758,-0.30174875259399414,-0.03414338238078462,-1.6206264706029556,-2.6521339321045017,-0.998176634311676,0.03413674980401993,0.04978049546480179,-0.4668973684310913,-0.010690556839108467,1.3218966722488403
7.410952091217041,0.18833422660827637,0.6691505908966064,-0.30254101753234863,-0.061754135802673964,-1.6224976566851506,-2.6569592560719815,-0.9967603087425232,0.06171489134430885,0.051579799503088,0.14319191873073578,-0.14406344294548035,1.4496005773544312
7.430845022201538,0.12461310625076294,0.6565714478492737,-0.31843411922454834,-0.09161880139938303,-1.6254640744167597,-2.6484648687056356,-0.9943183660507202,0.09149067848920822,0.05441135913133621,0.8901795148849487,-0.22044697403907776,1.4867022037506104
7.450875997543335,0.07934319972991943,0.6302871704101562,-0.3101917505264282,-0.12284442867644194,-1.62850996299677,-2.624615480308488,-0.9908117055892944,0.12253569066524506,0.05724692344665527,1.6277738809585571,-0.34352612495422363,1.5076793432235718
7.470931053161621,0.004504144191741943,0.562603771686554,-0.251442551612854,-0.1554902784684305,-1.6309689340147742,-2.5889246785381688,-0.9861478805541992,0.15486447513103485,0.059410810470581055,2.0318779945373535,-0.37116754055023193,1.5545369386672974
7.4908740520477295,-0.11383050680160522,0.4600762724876404,-0.16636860370635986,-0.18935339127924786,-1.630743031881525,-2.5494804421782806,-0.980362057685852,0.18822388350963593,0.05883997306227684,2.0050837993621826,-0.25524330139160156,1.5995155572891235
7.510885953903198,-0.2652122974395752,0.3798370957374573,-0.10390651226043701,-0.22366180364663282,-1.6254938158875472,-2.513351346141633,-0.9736335277557373,0.22180169820785522,0.053308483213186264,1.7253397703170776,0.0650419294834137,1.6273291110992432
7.53087592124939,-0.3867493271827698,0.36000895500183105,-0.08051323890686035,-0.25798616100852517,-1.61326837485297,-2.4814154502681984,-0.966033935546875,0.25513386726379395,0.041054125875234604,1.608942985534668,0.3681604564189911,1.6506880521774292
7.550883054733276,-0.4352051019668579,0.3952239453792572,-0.07169723510742188,-0.29210955072736305,-1.5943446828546035,-2.4473577181028507,-0.9573730826377869,0.2879730463027954,0.022548729553818703,1.848658561706543,0.5805198550224304,1.6578686237335205
7.570874929428101,-0.374350905418396,0.377201110124588,-0.003813147312030196,-0.32645795915145104,-1.568797174946688,-2.4050997893171986,-0.947182297706604,0.3206900954246521,-0.0018935637781396508,2.2114686965942383,0.6521596908569336,1.7622383832931519
7.590872049331665,-0.3195180296897888,0.2818019688129425,0.09174489974975586,-0.3628413316443793,-1.5389708350479083,-2.3558288745731852,-0.9344186782836914,0.3549320101737976,-0.029748378321528435,2.315974235534668,0.6789235472679138,1.964454174041748
7.610872983932495,-0.3282362222671509,0.16404989361763,0.15502244234085083,-0.4017385760194587,-1.5057693562958465,-2.305046327865563,-0.9184374213218689,0.3910190761089325,-0.05980752408504486,2.2234408855438232,0.7499436736106873,2.137423515319824
7.630872964859009,-0.3300565481185913,0.07688820362091064,0.18386417627334595,-0.4423570877695856,-1.4696967141651749,-2.253983091027857,-0.8991304039955139,0.42807087302207947,-0.09121271222829819,2.1149775981903076,0.747835636138916,2.3187923431396484
7.650875091552734,-0.33535057306289673,0.023379892110824585,0.18701189756393433,-0.48467829443185034,-1.4320292565133763,-2.200655495940069,-0.876319408416748,0.4659237265586853,-0.12239088863134384,2.1222360134124756,0.6387537717819214,2.4337191581726074
7.67087721824646,-0.3690569996833801,0.007613658905029297,0.19161765277385712,-0.5250800611401102,-1.3929185714548098,-2.1431327244743907,-0.8516310453414917,0.501282274723053,-0.15310439467430115,2.250061511993408,0.5050641298294067,2.3458242416381836
7.691033124923706,-0.3712642192840576,-0.008575379848480225,0.22256572544574738,-0.5604894862032285,-1.3501422351494605,-2.078960837992101,-0.8264591693878174,0.531600832939148,-0.1853800117969513,2.453042984008789,0.4554186463356018,2.2245023250579834
7.710878133773804,-0.3485466241836548,-0.05406218767166138,0.2719287872314453,-0.58993277032565,-1.3024307452606914,-2.0081124512645228,-0.8012335896492004,0.5563051700592041,-0.22033870220184326,2.606701612472534,0.46663063764572144,2.089601516723633
7.730912923812866,-0.3220004439353943,-0.10906636714935303,0.3235069513320923,-0.6136783471216277,-1.2495671558688437,-1.932657790800662,-0.7757169008255005,0.5758785009384155,-0.258122980594635,2.65771222114563,0.5654199123382568,2.009937047958374
7.7509238719940186,-0.29869896173477173,-0.1667574644088745,0.37870165705680847,-0.6329571498814932,-1.191530513784929,-1.8553933097728832,-0.7489847540855408,0.5915316343307495,-0.2985166013240814,2.557602882385254,0.7402091026306152,1.973398208618164
7.770877122879028,-0.26391929388046265,-0.229079008102417,0.43187379837036133,-0.6497973980603369,-1.1304219474192267,-1.7807417339257137,-0.7202421426773071,0.6050251126289368,-0.33940544724464417,2.235287666320801,0.9069966077804565,1.9678393602371216
7.790869951248169,-0.23504048585891724,-0.2946242690086365,0.4857941269874573,-0.6670358972698872,-1.070334106653366,-1.7140631994079525,-0.6893064975738525,0.6186599135398865,-0.376983642578125,1.6701184511184692,1.0153361558914185,1.9662303924560547
7.8109450340271,-0.22942525148391724,-0.3560294508934021,0.5329359173774719,-0.6875224936406779,-1.0149346513417972,-1.6593904959294579,-0.6564695835113525,0.6346244812011719,-0.40779855847358704,0.9789958596229553,1.1163798570632935,1.955723524093628
7.83096718788147,-0.23391669988632202,-0.4064352512359619,0.5540357828140259,-0.71263002284738,-0.9652372075613344,-1.6180556519099214,-0.6221014261245728,0.6538259983062744,-0.4306989014148712,0.3131778836250305,1.1770720481872559,1.8813289403915405
7.85087513923645,-0.23013579845428467,-0.4301058053970337,0.5452358722686768,-0.7414531853851848,-0.9222847358749844,-1.588195318362414,-0.5877658128738403,0.6753603219985962,-0.4454432725906372,-0.13722649216651917,1.1385037899017334,1.7737232446670532
7.870824098587036,-0.2244548797607422,-0.4485930800437927,0.48036548495292664,-0.7710010729396548,-0.8849854143257622,-1.5650321770619238,-0.5550556182861328,0.6968535780906677,-0.4542118310928345,-0.30597639083862305,0.9963625073432922,1.5651596784591675
7.8909010887146,-0.21123671531677246,-0.4628366231918335,0.4444064199924469,-0.7961052780194268,-0.8526513546991662,-1.544747940873062,-0.5267393589019775,0.7146371603012085,-0.4602602422237396,-0.23189659416675568,0.8016114830970764,1.2844737768173218
7.910567998886108,-0.19377297163009644,-0.5239925980567932,0.4761357307434082,-0.8156934451517521,-0.8258190234846645,-1.5280235740171542,-0.5038130879402161,0.7282010316848755,-0.4646458327770233,-0.23368389904499054,0.7054049968719482,0.9357066750526428
7.930810213088989,-0.16812258958816528,-0.6221597790718079,0.5256659984588623,-0.8307191898112982,-0.8054776669340212,-1.519835130831022,-0.4863116443157196,0.7384165525436401,-0.4671637713909149,-0.4318476617336273,0.7188770771026611,0.550604522228241
7.950869083404541,-0.1295998990535736,-0.6869844794273376,0.5214251279830933,-0.8445444870549795,-0.7949264156838695,-1.52423644825716,-0.4740225374698639,0.7476686835289001,-0.4650743007659912,-0.7209174633026123,0.6618942022323608,0.23790889978408813
7.970912218093872,-0.11191242933273315,-0.6896526217460632,0.4952784776687622,-0.8566878449374828,-0.7971303190458308,-1.541956711734686,-0.4685167074203491,0.7556774616241455,-0.4576502740383148,-0.9438793063163757,0.4221731722354889,-0.1957108974456787
7.990817070007324,-0.14097175002098083,-0.6177991032600403,0.44674307107925415,-0.8639643115198719,-0.8143359612239226,-1.5719018931816304,-0.47230955958366394,0.7604230642318726,-0.4457359313964844,-0.9484873414039612,0.14137621223926544,-0.6323419809341431
8.01083493232727,-0.20876014232635498,-0.5542789101600647,0.42002564668655396,-0.8638971164846542,-0.8440396866798083,-1.6106338113459777,-0.4853774607181549,0.760379433631897,-0.4315459728240967,-0.9176478981971741,-0.1765170842409134,-1.0886740684509277
8.030833959579468,-0.31080538034439087,-0.5062828063964844,0.43250125646591187,-0.8562377490471828,-0.886564539965766,-1.6584826560604955,-0.5077828764915466,0.7553825974464417,-0.4141906499862671,-0.9822940230369568,-0.4075339436531067,-1.518241286277771
8.050832033157349,-0.41961216926574707,-0.44717317819595337,0.44273632764816284,-0.8419226722519225,-0.9377984783923362,-1.7153749950811439,-0.5369918942451477,0.7459250688552856,-0.39399972558021545,-1.135317325592041,-0.43482547998428345,-1.9315543174743652
8.0708749294281,-0.46504539251327515,-0.3881940245628357,0.44478723406791687,-0.8206110088355004,-0.995139603562317,-1.7813588082641607,-0.5718961358070374,0.7315625548362732,-0.3711482584476471,-1.3267395496368408,-0.43457674980163574,-2.3570022583007812
8.090866088867188,-0.4444350600242615,-0.32268691062927246,0.42731061577796936,-0.7917337592423557,-1.0581217022296654,-1.8541369007880795,-0.6122819781303406,0.711572527885437,-0.34463849663734436,-1.4814132452011108,-0.6876401901245117,-2.726989507675171
8.110956907272339,-0.519167423248291,-0.2184709906578064,0.4238736033439636,-0.7543641023723537,-1.129324541210679,-1.9291376027634188,-0.6588416695594788,0.6848254203796387,-0.31135523319244385,-1.6053165197372437,-1.1826871633529663,-3.0842132568359375
8.130871057510376,-0.8010903596878052,-0.11071628332138062,0.4793098270893097,-0.7075745505743244,-1.206704822030531,-2.006704777117724,-0.7101249694824219,0.6499924659729004,-0.2706153094768524,-1.9086883068084717,-1.2743664979934692,-3.5072786808013916
8.150865077972412,-1.0424549579620361,-0.05908626317977905,0.5132356286048889,-0.6512230535804158,-1.2781615562436546,-2.088320473202318,-0.7615306973457336,0.6061596274375916,-0.22943735122680664,-2.311985492706299,-0.67818284034729,-3.857503652572632
8.170913934707642,-0.6993565559387207,0.009784519672393799,0.4225962460041046,-0.588918631406254,-1.334923255086775,-2.172764552181088,-0.8085171580314636,0.555462121963501,-0.19432468712329865,-2.6800284385681152,-0.20206718146800995,-3.893181324005127
8.190867185592651,-0.21703952550888062,0.13875150680541992,0.22704017162322998,-0.5274931962899997,-1.3837512456228889,-2.252286488550482,-0.8490005731582642,0.5033688545227051,-0.16067960858345032,-2.515810012817383,-0.6118846535682678,-3.509227752685547
8.210869073867798,-0.08613651990890503,0.22246083617210388,0.08017037808895111,-0.47048706128143714,-1.433914731606358,-2.3118404341404157,-0.8830103874206543,0.4533204734325409,-0.12162845581769943,-1.666734218597412,-1.507906436920166,-2.9776394367218018
8.230867147445679,-0.3551810383796692,0.2163676917552948,0.06582732498645782,-0.4180145197614432,-1.4825070333627979,-2.3485952759611024,-0.9103370308876038,0.4059467315673828,-0.08058250695466995,-1.2195388078689575,-1.6012252569198608,-2.718118667602539
8.250881910324097,-0.6564478278160095,0.24259886145591736,0.10882562398910522,-0.36393864263700404,-1.521138202496522,-2.38178906550575,-0.933350145816803,0.35595765709877014,-0.04638655483722687,-1.5505772829055786,-1.0032724142074585,-2.9201512336730957
8.270878076553345,-0.5560805201530457,0.3596096336841583,0.07337808609008789,-0.3065137886309688,-1.5505985418638937,-2.4212869971895827,-0.9531968832015991,0.3017367422580719,-0.019255083054304123,-1.941375970840454,-0.7375156283378601,-2.9196579456329346
8.290865182876587,-0.38781386613845825,0.47685426473617554,-0.028040289878845215,-0.2498741715637324,-1.5775624985514352,-2.463477259266869,-0.9689213633537292,0.24728204309940338,0.0065559884533286095,-2.0336756706237793,-0.8333642482757568,-2.769340753555298
8.310864210128784,-0.34699511528015137,0.5042157173156738,-0.1151125431060791,-0.19531158073362667,-1.6016772616181045,-2.5034415098130625,-0.9805195331573486,0.1940722018480301,0.03028898872435093,-2.0085554122924805,-0.7047810554504395,-2.649181604385376
8.330876111984253,-0.2564862370491028,0.5340416431427002,-0.1561819314956665,-0.1412628713972653,-1.6211626858393509,-2.544760357041504,-0.988783597946167,0.14079351723194122,0.04984358325600624,-2.321303606033325,-0.5626007318496704,-2.5790467262268066
8.35096001625061,-0.10890793800354004,0.5980265736579895,-0.16332542896270752,-0.08944003533265513,-1.6366387369020805,-2.5917260178914074,-0.993844747543335,0.0893208384513855,0.06553185731172562,-2.6154119968414307,-0.46685001254081726,-2.316380262374878
