timestamp,acceleration_x,acceleration_y,acceleration_z,attitude_pitch,attitude_roll,attitude_yaw,gravity_x,gravity_y,gravity_z,rotation_x,rotation_y,rotation_z
0.0,-0.001985907554626465,-0.00011438131332397461,-0.0024355053901672363,-0.5925328927538556,-0.7556268682390935,1.326759083201138,-0.568845272064209,0.5584639310836792,-0.6037657260894775,0.012550683692097664,-0.014173844829201698,0.011108997277915478
0.01679682731628418,-0.0023787617683410645,-0.0015961527824401855,-0.0038915276527404785,-0.5913580846810315,-0.7556721536987411,1.3277904584713633,-0.5693221092224121,0.5574889779090881,-0.6042170524597168,0.02798355743288994,-0.006023861933499575,0.000581144355237484
0.033364057540893555,-0.0015501976013183594,0.00010818243026733398,-0.004828035831451416,-0.5901878004255253,-0.7554704077956673,1.328279631455367,-0.5696471333503723,0.5565170645713806,-0.6048063635826111,0.0125284343957901,0.0100224819034338,-0.005957715213298798
0.054045915603637695,0.002155303955078125,2.4974346160888672e-05,0.0023276209831237793,-0.588635846381753,-0.7545655406432448,1.3288988343365065,-0.5696905255317688,0.5552269816398621,-0.605950117111206,0.014507308602333069,0.006503114942461252,-0.01219075359404087
0.07265400886535645,0.00822526216506958,0.0008012652397155762,0.0024709701538085938,-0.5879778630144944,-0.754299008287151,1.329022089387991,-0.569779098033905,0.5546796321868896,-0.6063680648803711,0.02168547362089157,-0.001348860445432365,-0.005169750656932592
0.10279583930969238,0.003439962863922119,0.0033768415451049805,-0.006897032260894775,-0.586185484495478,-0.7509322068840957,1.3293952256172878,-0.5684117078781128,0.553187370300293,-0.6090087294578552,0.017633847892284393,0.027650300413370132,-0.020036393776535988
0.11879611015319824,0.0038486719131469727,-0.006116807460784912,0.005599498748779297,-0.5859872803043613,-0.7496773997541589,1.3287851203382703,-0.5677218437194824,0.5530222058296204,-0.6098017692565918,-0.010742373764514923,0.03181513026356697,-0.01781349629163742
0.13543009757995605,-0.0025305747985839844,0.002227783203125,0.0035022497177124023,-0.5859164330928748,-0.7485565461731033,1.3286770557683338,-0.567064642906189,0.5529631972312927,-0.6104664206504822,0.008996935561299324,0.013547442853450775,-0.00448134820908308
0.15242981910705566,-0.0040718913078308105,0.00043636560440063477,0.006048142910003662,-0.5847704108677518,-0.7479259985059511,1.3290072628363745,-0.5671102404594421,0.5520079731941223,-0.6112880110740662,0.026403769850730896,0.008901823312044144,-0.020139314234256744
0.17244791984558105,-0.003198087215423584,0.003322601318359375,0.006542563438415527,-0.583871329075347,-0.7481794364056554,1.3283006447847332,-0.5676025748252869,0.5512580275535583,-0.6115078330039978,0.00712579907849431,0.014996469020843506,-0.012645002454519272
0.19202113151550293,0.004843175411224365,0.0018692612648010254,-0.005741715431213379,-0.5841501397463279,-0.7492993634748517,1.3270188222626755,-0.5681822896003723,0.5514906644821167,-0.6107591986656189,0.024967340752482414,0.011898590251803398,-0.005300130695104599
0.21278095245361328,0.006365478038787842,0.0018930435180664062,0.007164478302001953,-0.5837192781803411,-0.7474068209655668,1.3279500322621198,-0.5671868920326233,0.5511311888694763,-0.6120076775550842,-0.00406645517796278,0.0006826876779086888,0.00207816855981946
0.23461294174194336,0.005225777626037598,-0.0071239471435546875,0.01600635051727295,-0.5838644328024488,-0.7471294105379667,1.3279421287479407,-0.566962718963623,0.5512523055076599,-0.6121062636375427,-0.005520953796803951,-0.004228980280458927,-0.006743109785020351
0.27214503288269043,0.004359304904937744,-0.001244962215423584,0.016088664531707764,-0.5839688841863658,-0.7474480099536397,1.3278489010330692,-0.5671185851097107,0.5513394474983215,-0.6118833422660828,0.0013760472647845745,-0.015367474406957626,0.00168940844014287
0.35396695137023926,0.0033922195434570312,0.0005786418914794922,0.006313502788543701,-0.584581546609867,-0.748238539567761,1.3277797002927172,-0.5673721432685852,0.551850438117981,-0.6111871004104614,-0.018900329247117043,-0.012714166194200516,-6.5183499827981e-05
0.39342403411865234,-0.0001666545867919922,-0.0004178285598754883,0.003633856773376465,-0.585355841209172,-0.749934175077351,1.32655134252943,-0.568116307258606,0.5524960160255432,-0.6099113821983337,-0.015653561800718307,-0.01581168919801712,-0.0019262791611254215
0.41388702392578125,-0.010646045207977295,-0.005994617938995361,-0.013356387615203857,-0.5859505934991,-0.751885786562687,1.3242572766274607,-0.5690810084342957,0.5529916286468506,-0.6085613965988159,-0.03716055676341057,0.016626499593257904,-0.027777014300227165
0.43177199363708496,0.0008451938629150391,-0.009169399738311768,-0.014345645904541016,-0.5829512114229476,-0.7496364404332794,1.3226392871741055,-0.5688382387161255,0.550490140914917,-0.6110511422157288,0.040486469864845276,0.01904633641242981,-0.02991683967411518
0.453355073928833,0.006369411945343018,-0.0004622936248779297,0.014217793941497803,-0.5753733641992562,-0.7400585550412763,1.3248869520710607,-0.5657564997673035,0.5441480875015259,-0.6195339560508728,-0.0041380408219993114,0.043568193912506104,-0.016826698556542397
0.47221803665161133,0.0018766522407531738,0.005676209926605225,0.012819409370422363,-0.577242532563124,-0.7401220840632871,1.321699849262951,-0.5651089549064636,0.54571533203125,-0.6187459230422974,-0.00406116945669055,0.0007964934920892119,-0.015616819262504578
0.4934108257293701,0.010183393955230713,0.0028069615364074707,-0.0019865036010742188,-0.573969072607631,-0.7415906347561755,1.3167355110162737,-0.5672206282615662,0.5429693460464478,-0.6192293167114258,0.035399727523326874,-0.0408501960337162,0.038340017199516296
0.5127708911895752,0.005483269691467285,-0.0038359761238098145,-0.016218602657318115,-0.5735212804145565,-0.7218923614902226,1.3460812014023469,-0.5550742149353027,0.542593240737915,-0.6304641962051392,0.06201184540987015,0.09794958680868149,0.07818029820919037
0.530811071395874,-0.05658233165740967,-0.01538151502609253,0.019314944744110107,-0.5754233344342028,-0.7003638526189577,1.3510134522136696,-0.540707528591156,0.544189989566803,-0.6414767503738403,-0.013016714714467525,0.09560493379831314,0.05626017600297928
0.553476095199585,0.044943928718566895,-0.010650455951690674,-0.03417694568634033,-0.5851106533186963,-0.7066032076015983,1.3870485284721872,-0.5412511825561523,0.5522916316986084,-0.6340512037277222,0.17784303426742554,-0.27942097187042236,0.46699753403663635
0.5731241703033447,0.048388004302978516,0.01939290761947632,-0.05142223834991455,-0.6100673820613327,-0.6896680133780256,1.5665933187634553,-0.5215019583702087,0.5729227066040039,-0.6322935819625854,0.8450984358787537,-0.7783081531524658,1.1112637519836426
0.5927779674530029,0.029082030057907104,0.03485196828842163,0.08804607391357422,-0.6185986261983535,-0.6524729824347875,1.8677660038660038,-0.49464282393455505,0.5798940658569336,-0.6473417282104492,0.8575305342674255,-0.8292426466941833,1.4366376399993896
0.6118099689483643,0.1268397569656372,0.2448229193687439,-0.09445083141326904,-0.6369498161442418,-0.624732066466994,2.1916422237563435,-0.47019293904304504,0.5947461128234863,-0.6520702242851257,1.4679921865463257,-1.5124127864837646,1.8641051054000854
0.633188009262085,-0.006505370140075684,-0.07731235027313232,-0.06416678428649902,-0.6904082877301327,-0.6327397039524472,2.567414115452083,-0.45592740178108215,0.6368520259857178,-0.6217311024665833,0.8679278492927551,-1.7491679191589355,1.614465594291687
0.6523969173431396,-0.03419780731201172,-0.06429338455200195,0.05396550893783569,-0.6578057555572414,-0.6412186964033258,2.8947708749294914,-0.4733552038669586,0.6113819479942322,-0.634150505065918,0.8897714614868164,-1.328029751777649,1.2863304615020752
0.6730358600616455,0.11782407760620117,0.03648585081100464,-0.021356582641601562,-0.6596452664919095,-0.6812248713129914,3.0297316991162315,-0.4976305067539215,0.6128365993499756,-0.6138363480567932,-0.42189139127731323,-0.1976795792579651,0.18027004599571228
0.6932430267333984,0.006030052900314331,-0.10682344436645508,-0.07518190145492554,-0.6641506574642343,-0.6689315193548626,3.0017092845741553,-0.4883297383785248,0.6163905262947083,-0.6177350282669067,-0.20164254307746887,0.5057767033576965,-0.42722827196121216
0.7118330001831055,0.02380305528640747,0.10539072751998901,-0.08851128816604614,-0.6583761984912491,-0.6279436555402819,2.9098378462493057,-0.4646903872489929,0.6118332743644714,-0.6400958895683289,-0.07080596685409546,0.7319040298461914,-0.3731628954410553
0.7325971126556396,0.06657513976097107,-0.024092793464660645,0.0896921157836914,-0.6947941279491181,-0.5497437055548611,2.8863925833384667,-0.4013528823852539,0.6402273178100586,-0.654999852180481,-0.44340452551841736,-0.318322092294693,0.24451854825019836
0.7539980411529541,0.05844804644584656,-0.1744796633720398,0.13834071159362793,-0.6649631955977677,-0.5944008437786106,2.9955178414720307,-0.4406958520412445,0.617030143737793,-0.6519668102264404,0.22697000205516815,-0.9514539837837219,0.8708294034004211
0.7724359035491943,0.16961219906806946,-0.0991479754447937,-0.18256694078445435,-0.7241748734695733,-0.6477093755880291,3.0952369276003786,-0.4519454836845398,0.6625176072120667,-0.5973403453826904,0.010231191292405128,-0.7311287522315979,0.4442373812198639
0.7914998531341553,-0.08770933747291565,0.02539193630218506,-0.2445269227027893,-0.7278302367396405,-0.6217478612220653,-2.960258254974879,-0.4348736107349396,0.6652511954307556,-0.6068983674049377,1.1740727424621582,-1.188492774963379,0.9449446797370911
0.8134949207305908,0.1539294421672821,-0.0012950897216796875,0.2437896728515625,-0.6243215582631801,-0.6171000125781513,-2.6583426557571253,-0.46951162815093994,0.5845469236373901,-0.6617127060890198,0.34673330187797546,-1.271647572517395,0.35980141162872314
0.8326799869537354,0.14780712127685547,0.06315755844116211,0.161060631275177,-0.5687059693173294,-0.6850733773653734,-2.3665019507122973,-0.5331372618675232,0.5385421514511108,-0.6524852514266968,1.22653329372406,-1.9436588287353516,0.7146102786064148
0.8522908687591553,0.21675974130630493,-0.1749228537082672,0.2526552081108093,-0.5234179681909265,-1.0147846562785903,-2.435480994196081,-0.7356500029563904,0.49984341859817505,-0.457138329744339,-1.010786771774292,-2.273907423019409,-1.6941816806793213
0.872061014175415,-0.6688269972801208,0.5029652118682861,-0.11200320720672607,-0.19212320227667393,-1.5071009138549558,-2.7681562048790873,-0.9796103239059448,0.19094346463680267,-0.06248120591044426,-1.1038686037063599,-2.071078062057495,-3.4062304496765137
0.8960158824920654,-0.5902637243270874,0.4847070276737213,-0.09021354466676712,-0.2571622385196567,-1.5061454125498073,-3.0489462656358537,-0.9650951623916626,0.2543371319770813,-0.0624813586473465,-1.0910145044326782,1.385899543762207,1.9663283824920654
0.911574125289917,-0.1049392819404602,0.1449616253376007,-0.6482001543045044,-0.42967676235632957,-1.3965562742637658,-2.961879256674983,-0.8953351378440857,0.41657698154449463,-0.15760138630867004,0.046040505170822144,1.3104497194290161,1.8581739664077759
0.9336369037628174,-0.5867540240287781,0.37657076120376587,0.14942842721939087,-0.7837400932835097,-0.7508650404172024,-2.598062194003394,-0.48323795199394226,0.7059333920478821,-0.5178214311599731,2.744720220565796,2.153571128845215,3.0150094032287598
0.9529550075531006,-0.667124330997467,-0.19396275281906128,0.739818811416626,-0.8000631248998197,0.13888574058963996,-1.846879591825986,0.09644556790590286,0.717400074005127,-0.689953088760376,-0.39254117012023926,2.4385459423065186,2.7073795795440674
0.9723429679870605,0.0011993050575256348,0.5602247714996338,-0.3520755171775818,-0.6464321736275755,0.6534163017971956,-1.2608806870263245,0.4852508306503296,0.6023422479629517,-0.6338101625442505,-1.3600314855575562,2.056547164916992,5.272958755493164
0.9911839962005615,-0.31909632682800293,0.20122389495372772,0.350675106048584,-0.13387718877728189,1.1459349909661996,-0.5103363612794776,0.9029431939125061,0.13347762823104858,-0.40850603580474854,-1.4716169834136963,0.0809718444943428,4.546048164367676
1.0139520168304443,-0.8463800549507141,0.33503636717796326,0.4272070825099945,0.17744244079144061,1.0776347090096778,0.19950797841509554,0.8670097589492798,-0.17651274800300598,-0.4659797251224518,-2.8839404582977295,-0.15281464159488678,2.0483527183532715
1.0335018634796143,-0.10080111026763916,-1.0756129026412964,-1.5534558296203613,0.2508310453552842,1.1087452282120955,0.40056743068958706,0.8671278953552246,-0.24820908904075623,-0.4318348467350006,-0.4154413640499115,0.5554803013801575,1.506777286529541
1.0529389381408691,0.03846555948257446,0.2412070482969284,0.19120192527770996,0.2093465368500481,1.1000390222111303,0.6469441268404489,0.8717668056488037,-0.20782074332237244,-0.4436586797237396,-0.35417434573173523,-0.23351427912712097,0.33538269996643066
1.071955919265747,-0.032426297664642334,-0.05078446865081787,0.08569133281707764,0.2557826506520662,1.1441829051604582,0.5464168273036141,0.8807538151741028,-0.25300267338752747,-0.4003276824951172,1.3428435325622559,0.6413543820381165,-0.2503573000431061
1.0927789211273193,0.17398440837860107,-0.024998128414154053,0.1908426582813263,0.40581874131285045,1.3004286248649584,0.35898001237996674,0.8854027390480042,-0.39477112889289856,-0.24539294838905334,-1.091846227645874,0.2788829803466797,1.547279715538025
1.113063097000122,-0.34861618280410767,-0.1623932421207428,0.02998495101928711,0.4469771975403774,1.2613671521825696,0.4318609236291968,0.8589310050010681,-0.43224167823791504,-0.27459871768951416,-0.9354740977287292,0.5465307235717773,-0.7417415976524353
1.1337299346923828,-0.3382909297943115,-0.17183545231819153,0.07955695688724518,0.31199163972807037,1.3733408823302058,0.39070535524677635,0.9332308769226074,-0.3069547414779663,-0.18670430779457092,-0.05192617326974869,0.08824564516544342,-1.6212835311889648
1.153898000717163,-0.35045528411865234,-0.20176297426223755,0.41827595233917236,-0.10586074786762226,1.2315762104884693,0.33395510720880656,0.937735378742218,0.10566313564777374,-0.3308889865875244,0.13295233249664307,-2.4174301624298096,-3.9800000190734863
1.1716499328613281,-0.23543846607208252,-0.40210747718811035,0.55051189661026,-0.5834190091331793,0.6317034750454023,0.21851480337520182,0.49283888936042786,0.5508806109428406,-0.6735283136367798,-1.8899497985839844,-6.715775966644287,-3.6124002933502197
1.1925740242004395,-0.798599362373352,1.3189631700515747,-0.7243858575820923,-0.6029243333273693,-0.5133955009939104,-0.31645849876671683,-0.4045408368110657,0.5670536160469055,-0.71749347448349,6.378056049346924,-7.161735534667969,-3.6561732292175293
1.2136139869689941,-0.7527592778205872,0.5036871433258057,-0.8786296248435974,-0.36987763811483204,-1.1065697945948019,-0.26559776333080964,-0.8336968421936035,0.3615013360977173,-0.4174518883228302,1.2926408052444458,0.051332104951143265,1.290765404701233
1.2314188480377197,-0.3357102870941162,0.12574973702430725,-0.2588207721710205,-0.3097683421006455,-0.8398481538414625,0.0349640216641222,-0.7091046571731567,0.30483800172805786,-0.6358020305633545,2.809356927871704,2.5139694213867188,0.5416948795318604
1.251641035079956,0.04218444228172302,0.1908295750617981,0.4396005868911743,-0.08218161935979564,-0.3834479959730045,0.2801633353968207,-0.37285763025283813,0.0820891410112381,-0.9242502450942993,1.836510419845581,2.217745780944824,-0.00618537375703454
1.2718310356140137,-0.20810756087303162,0.1562434881925583,0.14415693283081055,0.030103589212006628,-0.19000020966046574,0.3253538921765111,-0.1887735277414322,-0.030099041759967804,-0.9815592765808105,0.74942946434021,0.9223394393920898,0.5567156672477722
1.29237699508667,-0.10516247153282166,-0.0012179911136627197,0.11709392070770264,0.08137602162720471,-0.1598999153616651,0.3103446328360595,-0.15869250893592834,-0.0812862366437912,-0.9839762449264526,-0.3214658796787262,-0.17147967219352722,-0.6167373061180115
1.3128941059112549,-0.06170856952667236,-0.0280052050948143,0.06889218091964722,0.08470587522964958,-0.1639913221633648,0.24955039945174007,-0.16267192363739014,-0.08460461348295212,-0.9830462336540222,-0.029870864003896713,-0.16310028731822968,-0.4968583285808563
1.333817958831787,-0.007060781121253967,-0.051891498267650604,0.031561434268951416,0.08191280119427198,-0.17755306119575903,0.2144918580400049,-0.17602942883968353,-0.08182123303413391,-0.9809785485267639,0.0985877513885498,-0.09798618406057358,0.21438102424144745
1.3516759872436523,-0.04025670886039734,-0.04754027724266052,-0.08429229259490967,0.10984596533887403,-0.19441459025473923,0.24611961007690997,-0.19202782213687897,-0.1096251979470253,-0.9752474427223206,0.13787570595741272,0.00835765153169632,0.18719586730003357
1.3719499111175537,-0.0026244819164276123,-0.021459393203258514,-0.03002983331680298,0.12369215239859273,-0.18629830350571303,0.30372909090494826,-0.1838074028491974,-0.12337698042392731,-0.975188672542572,0.09274338185787201,-0.12478327006101608,0.2862093150615692
1.3925721645355225,0.05078348517417908,0.04987873136997223,0.04940980672836304,0.1318952854704147,-0.18816000095930652,0.36447841273439213,-0.18542703986167908,-0.13151320815086365,-0.973817765712738,0.24858754873275757,0.14983923733234406,0.5895823240280151
1.4119069576263428,0.03731653094291687,0.08982089161872864,0.0409775972366333,0.1193397563931419,-0.18839695395491848,0.4111955952211423,-0.18595238029956818,-0.11905668675899506,-0.9753190279006958,-0.25954803824424744,0.040244653820991516,0.2272055745124817
1.4339268207550049,0.10275737941265106,-0.09644607454538345,0.16655206680297852,0.06682687763090867,-0.1746338856642279,0.4270294003564457,-0.17335978150367737,-0.06677714735269547,-0.9825921058654785,-0.10816994309425354,-0.16155505180358887,-0.18274563550949097
1.4515068531036377,0.1715637892484665,-0.21706268191337585,0.4608640670776367,-0.11399215536474248,-0.23735441672615132,0.3281136880141278,-0.2336060106754303,0.11374544352293015,-0.9656553268432617,-2.6032207012176514,-1.4118461608886719,-1.2733073234558105
1.4734199047088623,-0.29416975378990173,0.15405869483947754,-0.01694512367248535,-0.3743043342166177,-0.54493479317796,-0.0099446466875779,-0.4824720621109009,0.3656251132488251,-0.7959516048431396,-2.617155075073242,-1.648720145225525,-1.8251794576644897
1.4934649467468262,-0.42414480447769165,0.21985936164855957,-0.13615810871124268,-0.5737737622798632,-1.1012965694058254,-0.8393751735057172,-0.7489812970161438,0.5428053140640259,-0.3799857199192047,-5.23341178894043,-0.211696058511734,-2.623645067214966
1.5143389701843262,-0.0512615442276001,0.23125237226486206,0.07450634986162186,-0.4137194743312029,-1.4431334415518822,-1.5034806617299616,-0.9081804156303406,0.4020177721977234,-0.11657492071390152,-0.9572274088859558,-0.004895125515758991,-1.910186529159546
1.5338449478149414,0.06967884302139282,0.30420082807540894,0.2034534364938736,-0.25942937362121415,-1.4497529686434458,-1.866819533184788,-0.9594643712043762,0.2565290629863739,-0.11670733243227005,-2.809190511703491,0.6875696182250977,-1.4156618118286133
1.5544109344482422,0.24254965782165527,0.58836430311203,-0.23367875814437866,-0.13089644368545508,-1.5036027865962136,-2.093978688159337,-0.989207923412323,0.1305229663848877,-0.06656859815120697,-0.43849366903305054,-0.4958163797855377,-0.5134698748588562
1.571563959121704,0.1834404468536377,0.4032961130142212,-0.3474811315536499,-0.20423022825207174,-1.5697447227549675,-2.143468481484911,-0.9792168140411377,0.20281344652175903,-0.0010297487024217844,0.40191155672073364,-0.31702089309692383,1.3786671161651611
1.591588020324707,-0.5183872580528259,0.26923906803131104,-0.22869747877120972,-0.4006000879491116,-1.5482400788668158,-2.010705257498882,-0.9205926060676575,0.389970988035202,-0.02076863683760166,1.241769790649414,0.7211951017379761,1.3068933486938477
1.6123030185699463,-0.38013774156570435,-0.16093164682388306,0.18790757656097412,-0.6739555690802437,-1.372560898739975,-1.886327732152923,-0.7660565972328186,0.624081552028656,-0.1538805514574051,1.0522774457931519,0.7883111238479614,1.998295545578003
1.632308006286621,-0.16837376356124878,-0.47719889879226685,0.23017242550849915,-0.8905946991654414,-1.1171880123869509,-1.6866548743412713,-0.565345048904419,0.777445912361145,-0.27561312913894653,0.0038957572542130947,0.7792313098907471,1.1767934560775757
1.6515228748321533,-0.0586400032043457,-0.4814993739128113,0.20920324325561523,-0.9252059818958913,-1.1199454152260362,-1.769017521269421,-0.5415490865707397,0.7987447381019592,-0.2621666193008423,-0.5625981688499451,-0.1130923479795456,-1.2866495847702026
1.674293041229248,-0.7409527897834778,0.13797849416732788,0.17287851870059967,-0.5379734405546734,-1.4130185463336518,-2.1390080818740005,-0.8480820655822754,0.5123967528343201,-0.13492999970912933,-2.178334951400757,0.27657338976860046,-3.646496295928955
1.6942570209503174,0.03127467632293701,0.1746087372303009,0.006452552974224091,-0.37363605175370174,-1.4925236525980545,-2.487040570684105,-0.928155779838562,0.3650030195713043,-0.07279796153306961,-1.4953601360321045,0.6886864900588989,-0.28528299927711487
1.7134439945220947,0.21155977249145508,0.2579551041126251,-0.10523927211761475,-0.2896096502851853,-1.5203178005867084,-2.658437230306763,-0.9571346044540405,0.2855781614780426,-0.0483558215200901,-0.7539753317832947,-0.15148651599884033,-1.05404794216156
1.7324409484863281,0.24122267961502075,0.6734321117401123,-0.1747812032699585,-0.2066830618911994,-1.5774605268260906,-2.794779934343543,-0.9786950349807739,0.2052146941423416,0.0065223160199820995,0.06023789942264557,-0.6233838796615601,-0.24872753024101257
1.7524449825286865,-0.04610085487365723,0.15999947488307953,0.19504272937774658,-0.23432029125094656,-1.58487902947526,-2.7372210771273555,-0.9725760221481323,0.23218190670013428,0.01369740441441536,2.257833480834961,-0.20723286271095276,0.3172719478607178
1.7730600833892822,0.3190060257911682,-0.2181147336959839,0.2526615262031555,-0.30676573287706477,-1.5116927094799713,-2.2965629020486604,-0.9516505002975464,0.3019769489765167,-0.05631157383322716,3.352612018585205,-0.34438085556030273,0.483513206243515
1.7933349609375,0.26291942596435547,-0.022823750972747803,0.23683618009090424,-0.31696884008103604,-1.4156848959211668,-1.9981228829467288,-0.938776969909668,0.3116878271102905,-0.14679419994354248,1.7603583335876465,-0.09090812504291534,0.4976281225681305
1.8114869594573975,-0.04357755184173584,-0.07453674077987671,0.2839133143424988,-0.321244449849434,-1.399291430067078,-1.9301359541432372,-0.9349226951599121,0.31574758887290955,-0.16193465888500214,1.1210212707519531,0.15739817917346954,0.19694581627845764
1.8315179347991943,-0.019658446311950684,-0.14820507168769836,0.3456600308418274,-0.3219831224649316,-1.3851321997998929,-1.9103206435044549,-0.9323067665100098,0.3164483904838562,-0.17511266469955444,0.7792672514915466,0.5381235480308533,0.2610427141189575
1.851449966430664,0.08978283405303955,-0.17801174521446228,0.26994025707244873,-0.3254662068661501,-1.3696895369021886,-1.892502721221721,-0.92840576171875,0.3197505474090576,-0.18926717340946198,0.8963367342948914,0.3734489679336548,0.40176334977149963
1.8713939189910889,0.11283260583877563,-0.14693984389305115,0.24749153852462769,-0.33005419630597777,-1.3583322143828698,-1.8698667045537618,-0.9247526526451111,0.324094295501709,-0.19948750734329224,1.0755136013031006,0.09674565494060516,0.4577471911907196
1.8913929462432861,-0.018190622329711914,-0.10539078712463379,0.283195823431015,-0.3325559740768533,-1.347896919392771,-1.8449716955317053,-0.9218268394470215,0.3264600336551666,-0.20894663035869598,1.2179800271987915,0.15108941495418549,0.30475330352783203
1.9153201580047607,-0.022889137268066406,-0.18699708580970764,0.2113027572631836,-0.3328812915921994,-1.3305132777803979,-1.7914136619746208,-0.9179524183273315,0.3267675042152405,-0.22491368651390076,1.1277503967285156,-0.15810856223106384,0.26968440413475037
1.9367620944976807,-0.09272605180740356,-0.16667205095291138,0.1890592724084854,-0.33115391014087864,-1.3263002519193647,-1.76640835279283,-0.9175429344177246,0.3251344561576843,-0.22891531884670258,1.3113783597946167,-0.20852592587471008,0.10577821731567383
1.9569790363311768,-0.22278034687042236,-0.11956164240837097,0.13079506158828735,-0.3248448987674886,-1.319833912297319,-1.735665930574245,-0.9180123805999756,0.3191618025302887,-0.2353483885526657,1.5989967584609985,-0.15175744891166687,0.02873135916888714
1.976714849472046,-0.2525023818016052,-0.1003093421459198,0.12252411246299744,-0.3167295002846126,-1.313491220506872,-1.7037776543428196,-0.918975830078125,0.31146040558815,-0.24181745946407318,1.5158730745315552,-0.22379489243030548,-0.06998731195926666
1.996338129043579,-0.2707405090332031,-0.10424801707267761,0.1446961760520935,-0.3086331188942415,-1.3089917447300055,-1.675649542080141,-0.9202840924263,0.30375662446022034,-0.24659450352191925,1.2490150928497314,-0.18404161930084229,-0.004594906698912382
2.019408941268921,-0.321071982383728,-0.11916068196296692,0.19874253869056702,-0.3034213848509563,-1.3050111458671496,-1.6534838564247016,-0.9208101630210876,0.29878705739974976,-0.2506682276725769,0.8882845640182495,-0.04359547048807144,0.04412588104605675
2.0393240451812744,-0.442984402179718,-0.07706478238105774,0.20675602555274963,-0.2999090043388728,-1.2993753427076984,-1.6378615816522568,-0.920388400554657,0.29543328285217285,-0.2561335563659668,0.7093834280967712,0.13222366571426392,0.01193622313439846
2.058637857437134,-0.4357216954231262,-0.029546767473220825,0.22676688432693481,-0.29665012193263585,-1.2903274827164146,-1.6229885558186201,-0.9189534783363342,0.29231828451156616,-0.2647155821323395,0.7901927828788757,0.29649463295936584,0.048876214772462845
2.0798709392547607,-0.3585158586502075,-0.007527381181716919,0.18479952216148376,-0.29258290840529244,-1.2797770406557896,-1.6043935856552798,-0.9172408580780029,0.28842630982398987,-0.27473488450050354,1.015038013458252,0.19517849385738373,0.0622822567820549
2.0993800163269043,-0.2957369089126587,0.025354504585266113,0.14755991101264954,-0.28627904059396936,-1.271753474003979,-1.5819998508370812,-0.9167262315750122,0.2823846638202667,-0.2826155424118042,1.2439510822296143,-0.024846907705068588,-0.020887773483991623
2.119349956512451,-0.36473798751831055,0.017513692378997803,0.11251279711723328,-0.278586773902852,-1.2679354069757756,-1.557393911861523,-0.9176867604255676,0.27499717473983765,-0.28675299882888794,1.195890188217163,-0.2031833529472351,-0.03799343481659889
2.139186143875122,-0.5611388087272644,-0.03367573022842407,0.16687366366386414,-0.27287401549135426,-1.2643111996331242,-1.5362595405224584,-0.9181243181228638,0.2695002257823944,-0.2905462384223938,0.8264814019203186,0.0043478189036250114,0.1385716050863266
2.159533977508545,-0.64198899269104,-0.024952977895736694,0.25638580322265625,-0.2728161499340438,-1.257423944444726,-1.5264536802503372,-0.9161162972450256,0.2694444954395294,-0.2968674600124359,0.21923641860485077,0.360822468996048,0.05665238946676254
2.179084062576294,-0.6228859424591064,0.1541546881198883,0.20569437742233276,-0.26975938709423203,-1.2482515706991968,-1.515858358502446,-0.9141317009925842,0.26649951934814453,-0.3055174648761749,1.0067895650863647,0.32086682319641113,0.07002243399620056
2.198198080062866,-0.6107898354530334,0.14998281002044678,0.12869992852210999,-0.26498789680934065,-1.2342000184000852,-1.4847172539010822,-0.9109385013580322,0.26189759373664856,-0.3187481760978699,1.9991413354873657,0.2682357430458069,0.6477013230323792
2.218719005584717,-0.586245059967041,0.07228997349739075,0.10065799951553345,-0.2696816055709396,-1.2255477889127315,-1.4627951428186488,-0.9069798588752747,0.2664245665073395,-0.3261982202529907,-0.08170544356107712,0.018538828939199448,0.32010146975517273
2.2387490272521973,-0.662707507610321,-0.17989188432693481,-0.029885292053222656,-0.2722945096648235,-1.2330260055244453,-1.46512655322278,-0.9087340235710144,0.26894211769104004,-0.31917479634284973,0.09612765163183212,-0.4937274754047394,0.23761917650699615
2.2585790157318115,-0.5837202668190002,0.08816495537757874,0.04060262441635132,-0.27899627896717294,-1.2378146625878208,-1.4542623070890917,-0.9085281491279602,0.2753908634185791,-0.31422334909439087,0.6784873008728027,-0.15830865502357483,0.5015504956245422
2.278527021408081,-0.7436707615852356,0.11425212025642395,-0.07449349761009216,-0.27970029802390856,-1.2349370469340117,-1.4339264313272866,-0.9074368476867676,0.2760676145553589,-0.3167724311351776,1.1128638982772827,-0.2205769121646881,0.2848113775253296
2.2986669540405273,-0.5946837067604065,0.014882981777191162,-0.1425739824771881,-0.2807206408173271,-1.2335175214569278,-1.4105554095410262,-0.9067201018333435,0.27704814076423645,-0.31796690821647644,0.8471747040748596,-0.20922145247459412,0.5886088609695435
2.3187291622161865,-0.6411429047584534,-0.012201309204101562,-0.07168319821357727,-0.2898002156068439,-1.2317062251678303,-1.3954297922989476,-0.90373295545578,0.2857607901096344,-0.3187587857246399,0.35522493720054626,-0.05522256717085838,0.7329156994819641
2.3388278484344482,-0.6630081534385681,0.07669875025749207,-0.11802014708518982,-0.3020011670273539,-1.2272147797922364,-1.379927678894231,-0.8989423513412476,0.29743140935897827,-0.32161614298820496,0.7404735684394836,0.06037779897451401,0.8867702484130859
2.361017942428589,-0.6461809873580933,0.20962825417518616,-0.08801975846290588,-0.31170643156070843,-1.2183156787678577,-1.3559422879533052,-0.8932933211326599,0.3066832721233368,-0.3285910189151764,1.0374749898910522,0.07996197789907455,0.7953611016273499
2.37873911857605,-0.5712471604347229,0.049096524715423584,-0.0055258870124816895,-0.32070690708231314,-1.2089343959914767,-1.332362665410078,-0.8875539898872375,0.31523749232292175,-0.3359658718109131,0.6686534285545349,0.16161946952342987,0.8647649884223938
2.3987619876861572,-0.43193739652633667,-0.0009805858135223389,0.036866068840026855,-0.3322391897558437,-1.198610232198665,-1.310651125960467,-0.8805930018424988,0.32616057991981506,-0.34376612305641174,0.9776477217674255,0.16856960952281952,0.9552610516548157
2.4182980060577393,-0.3429943323135376,0.13585537672042847,-0.004573076963424683,-0.3396790456145061,-1.186372727578251,-1.2800523798989452,-0.8740466237068176,0.33318448066711426,-0.353596568107605,1.414475440979004,0.06438452005386353,0.760459303855896
2.438148021697998,-0.31364721059799194,0.0962577760219574,0.05967754125595093,-0.34296731135615854,-1.171738570486156,-1.2464517651174563,-0.867764413356781,0.3362830579280853,-0.3659214675426483,1.236598253250122,0.2985129654407501,0.7868868708610535
2.4600319862365723,-0.28735172748565674,-0.013423353433609009,0.12174743413925171,-0.3500577954689546,-1.1546795542565906,-1.2213257221466889,-0.8591936230659485,0.34295210242271423,-0.37969735264778137,0.6638047099113464,0.5709560513496399,0.8335691094398499
2.4774959087371826,-0.18257427215576172,-0.0052381157875061035,0.06690102815628052,-0.36131500366713026,-1.1362446927875232,-1.2018463883090205,-0.8484925031661987,0.35350462794303894,-0.3938206732273102,0.6715850234031677,0.5391070246696472,0.9181695580482483
2.4983088970184326,-0.09479385614395142,0.11386805772781372,-0.003288090229034424,-0.3697334034437382,-1.1160667985215031,-1.1755423489357688,-0.837670624256134,0.361366868019104,-0.40953850746154785,1.1681636571884155,0.5753640532493591,0.9005877375602722
2.5174360275268555,-0.09578990936279297,0.08591437339782715,-0.0024417638778686523,-0.37448309827673787,-1.0931025153181702,-1.144644190033768,-0.8265122175216675,0.3657914996147156,-0.4278714060783386,1.07089102268219,0.6253975629806519,0.81971275806427
2.5379741191864014,-0.11470860242843628,-0.060528725385665894,0.11770516633987427,-0.3823698212743952,-1.0685586365938566,-1.1212549064441104,-0.8132087588310242,0.37312018871307373,-0.44662365317344666,0.4982549548149109,0.9853420853614807,0.9284913539886475
2.5570080280303955,-0.10811501741409302,-0.03609362244606018,0.11395934224128723,-0.3946633665101658,-1.0412044129507534,-1.1038356161709528,-0.7966699600219727,0.3844974637031555,-0.466345876455307,0.33049824833869934,1.0811667442321777,0.9067499041557312
2.577808141708374,-0.08508098125457764,0.048665136098861694,0.08545506000518799,-0.4066153260693403,-1.0120711763456838,-1.087422865105001,-0.7787952423095703,0.39550289511680603,-0.4868833124637604,0.4208430051803589,1.1464478969573975,0.8971269130706787
2.598223924636841,-0.050028443336486816,0.057642847299575806,0.03690218925476074,-0.4154812485417255,-0.9813615760082355,-1.0665298930683031,-0.7605336308479309,0.4036302864551544,-0.508597195148468,0.6548908948898315,1.11290442943573,0.9103559851646423
2.617640972137451,-0.059646785259246826,0.014015883207321167,0.06653863191604614,-0.423770904346419,-0.9502981089614997,-1.0450486855554695,-0.7416226863861084,0.41120070219039917,-0.5300091505050659,0.44682320952415466,1.1569664478302002,0.8439231514930725
2.637403964996338,-0.14871996641159058,-0.03877246379852295,0.12884598970413208,-0.43467081120016016,-0.9170773973108235,-1.0294621034152391,-0.7200085520744324,0.4211118519306183,-0.5515907406806946,0.013875501230359077,1.4782172441482544,0.9096369743347168
2.6577441692352295,-0.13500738143920898,-0.00879475474357605,0.09720993041992188,-0.44973675256853524,-0.881963766241843,-1.0190133312818535,-0.6952232122421265,0.4347284734249115,-0.5724296569824219,-0.04520028084516525,1.5928364992141724,0.8900428414344788
2.677478075027466,-0.016480565071105957,0.08109205961227417,-0.004966020584106445,-0.4606295485803034,-0.8421048268830896,-0.9995257315000113,-0.6682880520820618,0.44451212882995605,-0.5964897274971008,0.7029457092285156,1.5394785404205322,1.0468770265579224
2.6975820064544678,-0.07150864601135254,0.09128466248512268,-0.011920809745788574,-0.46277730339096296,-0.7973098185884837,-0.9701263844327908,-0.6402222514152527,0.44643500447273254,-0.6251488924026489,0.9365411400794983,1.6730161905288696,0.888587236404419
2.7172670364379883,-0.12448692321777344,-0.06404951214790344,0.06288903951644897,-0.464414658797428,-0.7495386544262085,-0.9442491379768079,-0.6091403365135193,0.4478995203971863,-0.654472291469574,0.5006466507911682,1.9632843732833862,0.9108365178108215
2.7363550662994385,-0.10911279916763306,-0.11721876263618469,0.055237650871276855,-0.47215227432521095,-0.6984977948809701,-0.9239209902873733,-0.5727108716964722,0.45480412244796753,-0.6820229887962341,0.22516107559204102,2.197286367416382,0.9244449734687805
2.7573211193084717,-0.06262075901031494,-0.07112053036689758,0.020965158939361572,-0.47688517699276806,-0.6448249816683678,-0.903345594433061,-0.5339978337287903,0.4590141177177429,-0.7100368142127991,0.5792825222015381,2.2415716648101807,0.8526785373687744
2.777458906173706,-0.03595304489135742,-0.05839231610298157,0.09286868572235107,-0.47508000011899243,-0.5871738037222275,-0.87802777177534,-0.4926571249961853,0.4574095904827118,-0.7403143644332886,0.7696692943572998,2.3856117725372314,0.867006778717041
2.7963478565216064,-0.04543295502662659,-0.08447656035423279,0.16137218475341797,-0.47109383813846273,-0.5293196869020429,-0.8552582956609872,-0.4499436318874359,0.4538612365722656,-0.7691298127174377,0.690296471118927,2.3903615474700928,0.7097151875495911
2.8164010047912598,-0.0022697746753692627,-0.0799662172794342,0.1524760127067566,-0.46520188263632395,-0.4718390863044819,-0.8309151589456764,-0.40622326731681824,0.44860324263572693,-0.7960764765739441,0.9098423719406128,2.213310956954956,0.8953173160552979
2.836068868637085,-0.0028411149978637695,-0.022434592247009277,0.2303575873374939,-0.454688601018457,-0.41596586418489734,-0.8037013443772781,-0.36301887035369873,0.4391825795173645,-0.8217882513999939,1.0491753816604614,2.200727701187134,0.8512434363365173
2.856884002685547,0.006298184394836426,-0.1297030746936798,0.3121519684791565,-0.44094205200035186,-0.36052915131067487,-0.7774529996954339,-0.31902700662612915,0.42679160833358765,-0.8462095856666565,1.1452125310897827,2.2386486530303955,0.8449302315711975
2.87709903717041,0.061173319816589355,-0.19495487213134766,0.31714946031570435,-0.42250088037240374,-0.30509779754565897,-0.7509031444902597,-0.27397236227989197,0.4100427031517029,-0.8699448704719543,1.4683542251586914,2.1028730869293213,0.7178617119789124
2.8971331119537354,0.04598827660083771,-0.07311666011810303,0.20394796133041382,-0.38711037980967933,-0.25716284479924584,-0.7278581105649422,-0.2355176955461502,0.37751418352127075,-0.8955525755882263,2.558927297592163,1.8530155420303345,0.40686699748039246
2.917171001434326,0.001170828938484192,0.008674442768096924,0.23954355716705322,-0.33484314737978166,-0.21160004738162846,-0.7073587411473696,-0.1983601599931717,0.3286210298538208,-0.9233967065811157,2.688413381576538,2.046884059906006,0.18875011801719666
2.936807870864868,-0.04129509627819061,-0.2831086218357086,0.4022276997566223,-0.2910612650376937,-0.16553288011337938,-0.6987262996419794,-0.1578473597764969,0.28696900606155396,-0.9448454976081848,1.7241272926330566,2.2809290885925293,-0.15602527558803558
2.9556310176849365,0.060711756348609924,-0.31106454133987427,0.5236219763755798,-0.2686451936998382,-0.1205062025653798,-0.7014001623667779,-0.11590281873941422,0.2654254734516144,-0.9571394324302673,0.7367323040962219,2.2823023796081543,-0.45635363459587097
2.976454973220825,0.08561216294765472,-0.18248304724693298,0.38330698013305664,-0.2520689502935904,-0.07892352566420481,-0.7093968769426866,-0.07635010033845901,0.2494080662727356,-0.9653840065002441,0.7997636198997498,2.079589366912842,-0.41444969177246094
2.9956729412078857,0.1581830084323883,-0.14009283483028412,0.43214911222457886,-0.23576140879207813,-0.04182883207312556,-0.7167740790416736,-0.04065985232591629,0.23358340561389923,-0.9714862704277039,0.8037904500961304,1.8172739744186401,-0.4304147958755493
3.016638994216919,0.20572014153003693,-0.12659448385238647,0.46295833587646484,-0.21933705004533127,-0.011789011523724038,-0.7252591178322936,-0.011506302282214165,0.2175825983285904,-0.9759740829467773,0.8119181990623474,1.3926565647125244,-0.3715481162071228
3.0364139080047607,0.2674122750759125,-0.05412629246711731,0.4891470670700073,-0.20752922970323698,0.011240974313303105,-0.730464532688878,0.010999544523656368,0.20604278147220612,-0.9784811735153198,0.3891794979572296,1.0210050344467163,-0.19068528711795807
3.055377960205078,0.27372801303863525,-0.016077876091003418,0.46338921785354614,-0.19845396934555787,0.027909723604076467,-0.7344868920067712,0.02735837548971176,0.19715388119220734,-0.9799907207489014,0.5223850607872009,0.7548799514770508,-0.1488785445690155
3.076287031173706,0.3016519844532013,0.11841432750225067,0.3401404023170471,-0.18303623358830678,0.03892795868368637,-0.7372192430603218,0.03826802223920822,0.18201592564582825,-0.9825506210327148,1.0683813095092773,0.3851660192012787,-0.06286388635635376
3.0966060161590576,0.28578850626945496,0.10401007533073425,0.28131651878356934,-0.16034801714562327,0.04158473132436515,-0.7386825330335676,0.04103944078087807,0.15966176986694336,-0.9863183498382568,1.1059788465499878,-0.03184560313820839,-0.001271792920306325
3.1161930561065674,0.2391456663608551,-0.007744461297988892,0.2705145478248596,-0.1414554667594033,0.03723570701683496,-0.7402029009420034,0.03685527294874191,0.1409841924905777,-0.9893255829811096,0.8752657771110535,-0.33292174339294434,-0.06628875434398651
3.1498191356658936,0.22719472646713257,0.02020089328289032,0.3813115954399109,-0.12314598494529107,0.029379571527766237,-0.7412420447743907,0.02915288880467415,0.12283497303724289,-0.9919988512992859,1.0064668655395508,-0.22937127947807312,0.16699200868606567
3.158118963241577,0.1928136795759201,0.03812103718519211,0.21861732006072998,-0.10431043454064429,0.02626515390460682,-0.7332940919305624,0.02611938863992691,0.1041213795542717,-0.994221568107605,0.8915112018585205,-0.27368342876434326,0.5574283003807068
3.1725590229034424,0.1934339851140976,0.013997294008731842,0.14567416906356812,-0.08636023750376408,0.018243853733649843,-0.7245572273956957,0.018174855038523674,0.08625292778015137,-0.9961074590682983,0.9117966294288635,-0.5835329294204712,0.35437050461769104
3.191589117050171,0.20525796711444855,0.09082254022359848,0.11883240938186646,-0.06616234799920097,0.004988521970799624,-0.7180815254302575,0.004977586679160595,0.06611409038305283,-0.9977996349334717,1.1793875694274902,-0.762036919593811,0.35130420327186584
3.2138330936431885,0.1644189953804016,0.12165454030036926,0.11267697811126709,-0.03788515957964513,-0.01045027842193266,-0.7117085907617732,-0.010442589409649372,0.03787609934806824,-0.9992278814315796,1.5700236558914185,-0.720342755317688,0.2922239303588867
3.236178159713745,0.12775297462940216,-0.0002530151978135109,0.11708277463912964,-0.011300617484118881,-0.022562270933320826,-0.7036951262828433,-0.022558916360139847,0.011300376616418362,-0.9996816515922546,1.0907800197601318,-0.6130147576332092,0.5050707459449768
3.255504846572876,0.15372449159622192,-0.05537049099802971,-0.008945345878601074,0.00714482888244665,-0.03729429628544458,-0.6910527549088223,-0.03728469833731651,-0.0071447682566940784,-0.9992791414260864,0.8696264624595642,-0.8274582028388977,0.6679083704948425
3.272488832473755,0.16075581312179565,0.04826819896697998,-0.04997199773788452,0.02504693389392156,-0.054537761140900295,-0.6769552045250276,-0.054493632167577744,-0.025044314563274384,-0.998199999332428,1.0255059003829956,-0.9398297071456909,0.619017481803894
3.2914888858795166,0.1422296017408371,0.09565837681293488,-0.10906696319580078,0.04773338070299758,-0.07644254773526926,-0.6659227286901143,-0.07628113776445389,-0.04771525785326958,-0.9959440231323242,1.3745874166488647,-1.2046222686767578,0.312190979719162
3.318006992340088,0.15652425587177277,0.044241949915885925,0.09762352705001831,0.08014007216945175,-0.10052757315076581,-0.6580930365208466,-0.10003624111413956,-0.08005432039499283,-0.9917580485343933,1.7923004627227783,-1.0285948514938354,0.297161340713501
3.3316729068756104,0.0928044393658638,-0.0810515359044075,0.04123532772064209,0.10965880742513903,-0.12032003012378048,-0.6445518669246494,-0.1193089708685875,-0.10943916440010071,-0.9868071675300598,1.2427856922149658,-0.9442145824432373,0.7450734972953796
3.3530638217926025,0.14386728405952454,-0.0686059445142746,-0.029316484928131104,0.12678653131633968,-0.14436326024702223,-0.6248397900736532,-0.14270761609077454,-0.12644712626934052,-0.9816545248031616,0.8275421261787415,-1.198026180267334,0.8591094613075256
3.3728179931640625,0.13729658722877502,0.01803085207939148,0.00030690431594848633,0.1411800206964851,-0.17266915294068774,-0.6063703514824563,-0.17010299861431122,-0.1407114863395691,-0.975328266620636,0.9397927522659302,-1.3483251333236694,0.7374163269996643
3.3947980403900146,0.12201894819736481,0.09596161544322968,0.0500912070274353,0.16052337045846046,-0.20325054261823822,-0.5888988787681924,-0.1992589384317398,-0.1598348766565323,-0.9668239951133728,1.2558908462524414,-1.4406405687332153,0.5758293271064758
3.4170539379119873,0.1409267783164978,-0.010886609554290771,0.1877908706665039,0.18365601671689288,-0.2352522510124227,-0.5711206438779745,-0.2291683554649353,-0.18262532353401184,-0.9561013579368591,1.3017462491989136,-1.4266623258590698,0.6954656839370728
3.435899019241333,0.1446557343006134,-0.16451075673103333,0.34332138299942017,0.19991635630233973,-0.26504087695217854,-0.5484456546295258,-0.2567315399646759,-0.1985873579978943,-0.9458604454994202,0.6268466114997864,-1.2002315521240234,0.9835989475250244
3.4587550163269043,0.15660962462425232,-0.18363940715789795,0.2536708116531372,0.19962653024186022,-0.2951145438160379,-0.5279525747367863,-0.2850733697414398,-0.19830329716205597,-0.9377681016921997,0.11945481598377228,-1.4441428184509277,0.9094899892807007
3.4781601428985596,0.20351660251617432,0.05915941298007965,0.23972511291503906,0.20148046797779431,-0.3289427394036461,-0.5119008874568558,-0.3165079355239868,-0.20012007653713226,-0.9272403717041016,0.5973935127258301,-1.5599948167800903,0.5191426873207092
3.49845814704895,0.15111124515533447,0.1788172721862793,0.2946022152900696,0.21632819930020247,-0.36129704418509323,-0.4976178519829822,-0.3452487885951996,-0.21464486420154572,-0.9136360287666321,1.2078629732131958,-1.3423779010772705,0.3201095163822174
3.516566038131714,0.17534923553466797,0.0669453889131546,0.32302314043045044,0.2354037591163512,-0.3910492906882739,-0.48258813695726643,-0.3706464469432831,-0.23323562741279602,-0.8990118503570557,0.9313324689865112,-1.3400254249572754,0.37221571803092957
3.5364558696746826,0.238937109708786,-0.12612950801849365,0.38596343994140625,0.2404381935419211,-0.4213202864454341,-0.47166477533992174,-0.39720121026039124,-0.23812824487686157,-0.8862990736961365,0.000479693990200758,-1.4273289442062378,0.3886092007160187
3.5569489002227783,0.22957289218902588,0.006379172205924988,0.31065744161605835,0.23778534584842073,-0.45194478318282455,-0.46516097465529727,-0.4244275689125061,-0.2355508655309677,-0.8742865920066833,0.17369118332862854,-1.4821009635925293,0.25885969400405884
3.577847957611084,0.13477346301078796,0.19088107347488403,0.19733059406280518,0.2429779537626811,-0.4813706728075645,-0.45907482970967306,-0.44939443469047546,-0.24059416353702545,-0.8603249788284302,0.529059648513794,-1.287962794303894,0.06737519055604935
3.597799062728882,0.047176241874694824,0.12436209619045258,0.1448313593864441,0.2496744161972863,-0.5064413007565115,-0.45394294034193067,-0.47002777457237244,-0.2470884770154953,-0.8473612666130066,0.2104768455028534,-1.2152612209320068,0.06666798889636993
3.6168978214263916,0.07053270936012268,0.11147293448448181,0.06674927473068237,0.24950586972072294,-0.53324614833127,-0.45243320532669434,-0.4925907254219055,-0.24692516028881073,-0.8344951868057251,-0.07641139626502991,-1.4208595752716064,0.09405551850795746
3.6354920864105225,0.00015115737915039062,0.22707952558994293,0.07542014122009277,0.24924438220467904,-0.5617813799474198,-0.45106121309151354,-0.5162338614463806,-0.24667176604270935,-0.8201558589935303,0.19774039089679718,-1.3527456521987915,-0.03313374146819115
3.656280994415283,-0.12437558174133301,0.1843600869178772,0.1102914810180664,0.25815607757868425,-0.5867841296122561,-0.45148363513485923,-0.5353381037712097,-0.2552981674671173,-0.8051310181617737,0.4264717400074005,-1.2707901000976562,-0.5709033608436584
3.6768910884857178,-0.19706696271896362,-0.061636149883270264,0.21908050775527954,0.27290004226429754,-0.6122622939467065,-0.46263382433430106,-0.5534517765045166,-0.26952528953552246,-0.788065493106842,0.17097200453281403,-1.7135026454925537,-1.0245838165283203
3.6980369091033936,-0.3385394811630249,-0.18006980419158936,-0.10507726669311523,0.2807415386735841,-0.6405724783212527,-0.47662434684393695,-0.5742564797401428,-0.27706822752952576,-0.7703652381896973,-0.28267598152160645,-1.279675006866455,-0.5154876708984375
3.7164418697357178,-0.8045673370361328,-0.01913478970527649,-0.6898833513259888,0.26973828335260036,-0.6566891587922419,-0.4873670722883523,-0.5884227156639099,-0.2664791941642761,-0.7633789777755737,-0.8893275856971741,-0.9186306595802307,0.15526248514652252
3.7351090908050537,-0.84211665391922,0.14402702450752258,-0.5172398090362549,0.26878806933143384,-0.6628798911537318,-0.5026107712340847,-0.5932928323745728,-0.2655632197856903,-0.7599208354949951,0.30464857816696167,-0.5242623686790466,-0.6358699202537537
3.755781888961792,-0.25489598512649536,-0.014419972896575928,-0.04242187738418579,0.2800750245751186,-0.6737523136213308,-0.5005110428321145,-0.5996114015579224,-0.2764277458190918,-0.7510351538658142,0.485360711812973,-0.40376153588294983,-0.3683575391769409
3.777284860610962,-0.590721607208252,-0.504379153251648,0.08626937866210938,0.2826010246143247,-0.6746474220930455,-0.5017726326564813,-0.5998453497886658,-0.2788544297218323,-0.7499504685401917,-0.46567973494529724,0.37273722887039185,0.09493450820446014
3.7976338863372803,-0.665859580039978,-0.5727027654647827,-0.017745912075042725,0.26239000879894614,-0.6601257866323376,-0.5100112830713979,-0.5922275185585022,-0.2593894898891449,-0.7628784775733948,-1.3861829042434692,0.6202138662338257,0.5580931901931763
3.8164851665496826,-0.3886428475379944,-0.19089846312999725,-0.07758980989456177,0.23245393633056882,-0.6467763761068845,-0.518682521106396,-0.5864089727401733,-0.23036615550518036,-0.7765666842460632,-1.401975393295288,0.5460020899772644,0.5145877003669739
3.8350398540496826,-0.3283786177635193,-0.02036416530609131,-0.010064184665679932,0.21054271831066346,-0.6340959000253885,-0.5249030178577189,-0.5793666839599609,-0.2089906632900238,-0.7878178954124451,-0.6064285039901733,0.6129640936851501,0.27986830472946167
3.854512929916382,-0.2569209337234497,0.042439743876457214,0.006597280502319336,0.205847144597376,-0.6212573517622101,-0.5243845530083746,-0.5697696805000305,-0.20439648628234863,-0.7959802150726318,0.1508762389421463,0.7308201789855957,0.07048870623111725
3.871372938156128,-0.2037004828453064,-0.09449945390224457,0.05581843852996826,0.20906795027822375,-0.6070980648586787,-0.5200476314069429,-0.5580639839172363,-0.20754823088645935,-0.8034228086471558,0.28170105814933777,0.7775211930274963,0.07738649845123291
3.891382932662964,-0.1685442328453064,-0.1791597604751587,0.07170379161834717,0.21134123288708442,-0.5929866287175269,-0.5171726673101015,-0.5464062690734863,-0.20977148413658142,-0.8108242750167847,0.045563094317913055,0.7421621680259705,0.013822348788380623
3.911393880844116,-0.15406394004821777,-0.1841312050819397,0.07015681266784668,0.21039235385399793,-0.5796816664458984,-0.5188431585149796,-0.535679042339325,-0.20884361863136292,-0.8181884288787842,-0.2075290083885193,0.6222962141036987,-0.11470392346382141
3.931619882583618,-0.1702338457107544,-0.09932993352413177,0.05114161968231201,0.2082012287638521,-0.5670937380604238,-0.5245911637870064,-0.5255821347236633,-0.20670031011104584,-0.825250506401062,-0.2554713487625122,0.5910928845405579,-0.24509961903095245
3.955235004425049,-0.2132202386856079,-0.00662502646446228,0.004260599613189697,0.20728911549412338,-0.5537698461585028,-0.5323758785977631,-0.5146391987800598,-0.20580780506134033,-0.8323398232460022,-0.2586165964603424,0.6650223135948181,-0.3933621644973755
3.9715020656585693,-0.24813678860664368,0.035527557134628296,0.029702067375183105,0.20885662210544634,-0.5359117436228428,-0.5438861721794217,-0.49952858686447144,-0.2073415070772171,-0.8411186933517456,-0.1990053951740265,0.8930257558822632,-0.602022647857666
3.991452932357788,-0.17135992646217346,0.006733879446983337,0.06116676330566406,0.21100923555882634,-0.5149629431717433,-0.5569514704515802,-0.48157888650894165,-0.20944686233997345,-0.8510075211524963,-0.292157381772995,0.9255840182304382,-0.6111422777175903
4.012527942657471,-0.09999337792396545,-0.05472886562347412,0.07794046401977539,0.20988544950933877,-0.4943148551316581,-0.5714607135317835,-0.46401718258857727,-0.2083478718996048,-0.8609757423400879,-0.5280884504318237,0.8381685018539429,-0.5761020183563232
4.031435012817383,-0.0905066430568695,-0.05062934756278992,0.05873262882232666,0.20214838003458388,-0.47557333828420933,-0.588515601106677,-0.4485252797603607,-0.2007744312286377,-0.8709274530410767,-0.9190683960914612,0.733246922492981,-0.5997458100318909
4.055665016174316,-0.16838157176971436,0.048313528299331665,-0.024452567100524902,0.19328301926829328,-0.4559459980992539,-0.6085178165643046,-0.43211278319358826,-0.19208180904388428,-0.8811260461807251,-0.64354008436203,0.8883592486381531,-0.756150484085083
4.07630181312561,-0.20366117358207703,0.12350176274776459,-0.06038558483123779,0.19276273416564804,-0.4324954635854128,-0.627413055110416,-0.4113748371601105,-0.1915711909532547,-0.8911067247390747,-0.2519104778766632,1.117096185684204,-0.9196164608001709
4.095919847488403,-0.14933928847312927,0.031034067273139954,0.03164947032928467,0.19627807630266797,-0.4043111340872173,-0.6482776849610019,-0.3858322203159332,-0.19502022862434387,-0.9017208814620972,-0.3030310273170471,1.260521411895752,-1.0826759338378906
4.115380048751831,-0.03959593176841736,-0.08850570023059845,0.11772704124450684,0.19669569718923158,-0.37506449041956796,-0.6725390759269136,-0.35926878452301025,-0.19542981684207916,-0.9125421047210693,-0.5710005760192871,1.242516040802002,-1.144455909729004
4.1351611614227295,-0.012482672929763794,-0.1312038153409958,0.21860557794570923,0.19093810913890055,-0.3444001254755487,-0.7004496486812168,-0.3314961791038513,-0.18978004157543182,-0.9241719245910645,-1.016029715538025,1.2993714809417725,-1.253339171409607
4.155216932296753,-0.0049552321434021,-0.0678810328245163,0.28411418199539185,0.1766117055698135,-0.31094280738934565,-0.7347024556259156,-0.3011971116065979,-0.17569500207901,-0.9372361302375793,-1.329479694366455,1.44491446018219,-1.4682241678237915
4.1753990650177,0.023530125617980957,0.06989644467830658,0.22083288431167603,0.16365887076048813,-0.27705371042728905,-0.7713354609654502,-0.26986801624298096,-0.16292926669120789,-0.949012815952301,-0.9159881472587585,1.3644959926605225,-1.6118379831314087
4.195574998855591,0.05195312201976776,0.1729433834552765,0.19114702939987183,0.15982903452054312,-0.24541795353953066,-0.8078339435871674,-0.23986510932445526,-0.1591494232416153,-0.9576722979545593,-0.4248148798942566,1.2103960514068604,-1.7838321924209595
4.21526312828064,0.0781092494726181,0.1122414767742157,0.2330968976020813,0.1611404438014207,-0.217550927191231,-0.8457179753064746,-0.2130427211523056,-0.160443976521492,-0.9637792706489563,-0.3924071490764618,1.002478837966919,-1.8717819452285767
4.234609842300415,0.10408298671245575,-0.01383402943611145,0.35289663076400757,0.15646605314957185,-0.1932465768535323,-0.8847337244238961,-0.18970003724098206,-0.15582841634750366,-0.9693974256515503,-0.9692226648330688,0.8227283358573914,-1.8036657571792603
4.2548699378967285,0.10811513662338257,-0.053152039647102356,0.4617077708244324,0.1351865765218424,-0.17131355780021598,-0.9262107411417378,-0.16892142593860626,-0.13477519154548645,-0.9763714671134949,-1.7955055236816406,0.7882668375968933,-1.8815048933029175
4.272835969924927,0.11367441713809967,0.059993110597133636,0.3755757808685303,0.10523116283278514,-0.15101440193873636,-0.9695667268768517,-0.14960886538028717,-0.10503705590963364,-0.9831502437591553,-1.7232093811035156,0.7162792086601257,-1.8783073425292969
4.294706106185913,0.16467419266700745,0.251681923866272,0.2726719379425049,0.0831528276539096,-0.13517082412177672,-1.0106506818342424,-0.13429395854473114,-0.08305703848600388,-0.9874546527862549,-1.0160932540893555,0.47957125306129456,-1.875264286994934
4.315057992935181,0.21844270825386047,0.2591613531112671,0.2899513244628906,0.07242657977571358,-0.12487047582388652,-1.0495722931802163,-0.12421970069408417,-0.07236327975988388,-0.9896125793457031,-0.6774590015411377,0.2672044038772583,-1.790257215499878
4.335089921951294,0.2555830180644989,0.06501592695713043,0.3881201148033142,0.061071346176810995,-0.12070920442557856,-1.0841316298585588,-0.120191790163517,-0.06103339046239853,-0.9908728003501892,-0.9162301421165466,-0.11709871888160706,-1.5237210988998413
4.354341983795166,0.2849652171134949,0.00016023963689804077,0.3776323199272156,0.040882084551626646,-0.12716474410548836,-1.115859875170396,-0.12671633064746857,-0.04087069630622864,-0.9910966157913208,-1.4986821413040161,-0.7296192049980164,-1.3912638425827026
4.371474027633667,0.2592936158180237,0.1408819854259491,0.330575168132782,0.013364698077159577,-0.14656482911689359,-1.1479313661197308,-0.14602762460708618,-0.01336430013179779,-0.9891902208328247,-1.5383455753326416,-1.2225288152694702,-1.4765232801437378
4.395637035369873,0.1338077336549759,0.1951218545436859,0.34144002199172974,-0.009956418646068369,-0.1707623911304719,-1.1825124593755376,-0.1699252724647522,0.009956253692507744,-0.9854066371917725,-1.362941026687622,-1.1376521587371826,-1.5237740278244019
4.4152281284332275,0.0916617214679718,0.1455507129430771,0.3842484951019287,-0.03235713037459139,-0.19207689638409922,-1.2164548143149203,-0.1907980889081955,0.03235148265957832,-0.9810960292816162,-1.4817286729812622,-0.9727047681808472,-1.4140592813491821
4.434664964675903,0.15627916157245636,0.06518279016017914,0.3996278643608093,-0.058507786889732995,-0.2141067318461202,-1.2502064148609957,-0.21211107075214386,0.05847441405057907,-0.9754945635795593,-1.7746928930282593,-1.1345536708831787,-1.3911164999008179
4.452923059463501,0.24557872116565704,0.0616300106048584,0.4028228521347046,-0.08708533603145656,-0.24446819451603322,-1.2854121920671293,-0.24112313985824585,0.08697530627250671,-0.9665893316268921,-1.7490158081054688,-1.7160770893096924,-1.3486368656158447
4.4740331172943115,0.2797955870628357,0.1995687335729599,0.2195826768875122,-0.11102292764411627,-0.2873716743695825,-1.3182608211799154,-0.2816876471042633,0.11079499125480652,-0.9530878663063049,-1.3886423110961914,-2.131263494491577,-1.1951526403427124
4.494783163070679,0.10153642296791077,0.24146276712417603,0.24731427431106567,-0.1276272946599029,-0.3301224454364336,-1.3472011336282257,-0.32152238488197327,0.1272810995578766,-0.9383085370063782,-1.1502233743667603,-1.7353969812393188,-1.0295979976654053
4.511703014373779,0.037030577659606934,0.159417524933815,0.2963676452636719,-0.14225496803004117,-0.36485317287367897,-1.3732354917472989,-0.35320791602134705,0.14177566766738892,-0.9247398376464844,-1.1002485752105713,-1.4693255424499512,-0.913095235824585
4.531566858291626,0.13745439052581787,0.0896189957857132,0.18034356832504272,-0.1553130849156621,-0.4045398899109554,-1.3976597698941595,-0.3888581693172455,0.15468941628932953,-0.9082183241844177,-1.0011659860610962,-2.3142025470733643,-0.8317049741744995
4.550749063491821,0.16465523838996887,0.1974988728761673,-0.2792285680770874,-0.16682978840821264,-0.4589849542444276,-1.4204482143505082,-0.436887264251709,0.16605699062347412,-0.8840557336807251,-1.0595989227294922,-2.6052114963531494,-0.8165906667709351
4.57137393951416,-0.2521315813064575,0.18714363873004913,-0.2036404013633728,-0.17710777625860316,-0.5080042946936661,-1.4466039574724607,-0.4788254201412201,0.1761833280324936,-0.8600497841835022,-1.0248363018035889,-1.870856761932373,-0.9214468002319336
4.591392993927002,-0.07921773195266724,0.15793217718601227,-0.08984440565109253,-0.1849011612497733,-0.5421607704341701,-1.469886516416788,-0.5071927905082703,0.18384937942028046,-0.84199458360672,-0.8438357710838318,-1.3913570642471313,-0.669109046459198
4.611470937728882,0.11716246604919434,0.1034613698720932,-0.09161734580993652,-0.19215244467975148,-0.574380572186039,-1.4870726461203816,-0.5333154201507568,0.19097216427326202,-0.824077844619751,-0.6400059461593628,-1.4586962461471558,-0.49872252345085144
4.6320860385894775,-0.08353137969970703,0.004395872354507446,-0.3013530373573303,-0.19397704696674078,-0.6063118967744525,-1.5045597422843897,-0.5591534376144409,0.19276286661624908,-0.8063434958457947,-0.4916936755180359,-1.650787353515625,-0.8618754148483276
4.651422023773193,-0.10946911573410034,0.05247777700424194,-0.3748531937599182,-0.19036914847757472,-0.6448730859271784,-1.5245118798034756,-0.5902378559112549,0.18922138214111328,-0.7847384810447693,-0.40747377276420593,-1.6510509252548218,-0.8883474469184875
4.671799898147583,-0.21895700693130493,-0.06366895139217377,-0.2799636125564575,-0.18756955293621264,-0.6799727344462566,-1.5443948997009151,-0.6177433729171753,0.186471626162529,-0.7639511823654175,-0.6372605562210083,-1.587681531906128,-0.8036575317382812
4.691421031951904,-0.16365301609039307,-0.0556502640247345,-0.2576528787612915,-0.18891297443071253,-0.7145003592153902,-1.5670703296731965,-0.6435826420783997,0.18779131770133972,-0.7419809699058533,-0.8314160704612732,-1.5398880243301392,-0.9471969604492188
4.711820840835571,-0.27407944202423096,-0.016410544514656067,-0.350765585899353,-0.18700848399403897,-0.751017373209662,-1.5958849347567048,-0.6704853177070618,0.1859203726053238,-0.7182499766349792,-0.9497174024581909,-1.4892582893371582,-1.2380948066711426
4.731420040130615,-0.2395029067993164,-0.022136583924293518,-0.2760075330734253,-0.18426453527148132,-0.7883984153766521,-1.6300643282780067,-0.6972188353538513,0.18322357535362244,-0.6930476427078247,-1.2177317142486572,-1.630959391593933,-1.2713773250579834
4.751438856124878,-0.16224515438079834,-0.041768431663513184,-0.25624531507492065,-0.18408745851359534,-0.8251863663317108,-1.6658344799513594,-0.7222608923912048,0.18304948508739471,-0.6669571995735168,-1.190284252166748,-1.5098779201507568,-1.2726372480392456
4.771467924118042,-0.22199273109436035,0.021465972065925598,-0.31723833084106445,-0.17986537985451415,-0.8586871818741553,-1.6972435547652849,-0.7447735071182251,0.17889712750911713,-0.6428905129432678,-0.8784687519073486,-1.2632479667663574,-1.0649733543395996
4.791476011276245,-0.19001919031143188,0.03584897518157959,-0.36859577894210815,-0.17368686281025814,-0.887222050995897,-1.7221441317300477,-0.7636550664901733,0.17281490564346313,-0.6220659017562866,-0.6266002058982849,-1.1467970609664917,-0.9643787145614624
4.812569856643677,-0.1026659607887268,-0.0016099214553833008,-0.29647988080978394,-0.16917905216731544,-0.912082480478191,-1.7422978620896012,-0.7794904112815857,0.16837318241596222,-0.6033615469932556,-0.7182210087776184,-0.9290467500686646,-0.6484829187393188
4.833076000213623,-0.09747588634490967,-0.062077417969703674,-0.28890860080718994,-0.1694855073190026,-0.9335713642808028,-1.7632863955853186,-0.7922334671020508,0.1686752438545227,-0.5864423513412476,-0.8944210410118103,-0.8072673082351685,-0.5287554264068604
4.851488828659058,-0.030597031116485596,-0.021739110350608826,-0.3080695867538452,-0.17300670809349147,-0.9520692356923909,-1.7867555529604662,-0.8024564385414124,0.17214494943618774,-0.5713402628898621,-1.173520803451538,-0.6562639474868774,-0.5694365501403809
4.871394872665405,-0.008534491062164307,-0.051107123494148254,-0.3845599889755249,-0.1787666912415897,-0.9707815955398599,-1.8172992490751525,-0.8121746182441711,0.17781604826450348,-0.5556561350822449,-1.4668350219726562,-0.7335422039031982,-0.6577703952789307
4.891520977020264,0.08626574277877808,-0.03703288733959198,-0.3268691301345825,-0.18575858466648312,-0.9900930388440763,-1.8462323863937913,-0.821693480014801,0.1846921145915985,-0.53917396068573,-1.3581119775772095,-0.6855358481407166,-0.4364244043827057
4.911440134048462,0.033225178718566895,0.017391204833984375,-0.24974364042282104,-0.1926140453332902,-1.0088546763988713,-1.8755003684074314,-0.8305730819702148,0.19142524898052216,-0.5229766964912415,-1.340564489364624,-0.6734639406204224,-0.4633483588695526
4.931359052658081,0.11600971221923828,-0.015936464071273804,-0.2221977710723877,-0.20084726551978085,-1.0277440810923566,-1.9025827725457272,-0.8389252424240112,0.19949963688850403,-0.5063636898994446,-1.4099211692810059,-0.6999860405921936,-0.26746731996536255
4.951426029205322,0.10988974571228027,-0.02447575330734253,-0.11291664838790894,-0.21033405466011895,-1.0469080458311355,-1.9268298924269698,-0.8467975854873657,0.20878660678863525,-0.48922574520111084,-1.172099232673645,-0.7915574312210083,-0.1657944619655609
4.971358060836792,0.1656903624534607,0.05153077840805054,-0.07890596985816956,-0.21671736200289235,-1.0697787358974455,-1.9498941797837601,-0.8565776348114014,0.215024933218956,-0.46908292174339294,-1.0906140804290771,-0.967666506767273,-0.38953718543052673
4.990455865859985,0.131267249584198,0.05675883591175079,-0.05253946781158447,-0.22130346218225488,-1.0942726821067734,-1.9749942310585098,-0.8669239282608032,0.21950148046016693,-0.4475063383579254,-1.2958933115005493,-0.9795180559158325,-0.37702667713165283
5.011586904525757,0.14746993780136108,0.005818024277687073,0.030048489570617676,-0.22749283164200035,-1.1200165548258176,-2.0042721933927607,-0.876916229724884,0.22553566098213196,-0.42444249987602234,-1.6191926002502441,-0.9552545547485352,-0.29656434059143066
5.0314390659332275,0.13850009441375732,-0.02182839810848236,0.0244675874710083,-0.2373061895858051,-1.1500492274230543,-2.040132606048758,-0.8872029781341553,0.2350851595401764,-0.39699578285217285,-1.6890838146209717,-1.2929036617279053,-0.39900919795036316
5.0506110191345215,0.16520273685455322,0.08205501735210419,-0.06660056114196777,-0.23863916972806076,-1.1821482590849475,-2.0653179775074437,-0.8991961479187012,0.23638057708740234,-0.3681987226009369,-0.6974899768829346,-1.2777241468429565,-0.4049467146396637
5.0714781284332275,0.042182087898254395,0.18840493261814117,-0.07515841722488403,-0.23313474986714244,-1.2087453440635378,-2.0765129827171225,-0.9098730087280273,0.23102860152721405,-0.34461095929145813,-0.21544961631298065,-1.1794966459274292,-0.4781467318534851
5.09171199798584,0.1288241744041443,0.083885058760643,-0.07463610172271729,-0.22769329770502128,-1.2351402723175942,-2.0836534727051763,-0.9198244214057922,0.22573095560073853,-0.3208870589733124,-0.38361820578575134,-1.3313699960708618,-0.29354122281074524
5.111392974853516,0.14298176765441895,0.05402013659477234,-0.07090437412261963,-0.22697642865727988,-1.2659773680064645,-2.098940561170389,-0.9294348359107971,0.22503253817558289,-0.29242274165153503,-1.008457064628601,-1.3812956809997559,-0.2327543944120407
5.131481885910034,0.09552419185638428,0.07910841703414917,-0.0440865159034729,-0.23104715285091695,-1.2978715555413671,-2.1257250931556553,-0.9373972415924072,0.22899697721004486,-0.26238638162612915,-1.5872167348861694,-1.2091655731201172,-0.13520698249340057
5.15267014503479,0.06606590747833252,0.08182770013809204,-0.17994624376296997,-0.23631403707562848,-1.329892569152796,-2.1598647408271137,-0.9441328048706055,0.2341206967830658,-0.23194962739944458,-1.6001687049865723,-1.229984998703003,-0.22061888873577118
5.170490026473999,0.07289350032806396,0.15645107626914978,-0.3072453737258911,-0.23858231317051193,-1.3606080223708619,-2.188010320698154,-0.9502890110015869,0.23632533848285675,-0.20273400843143463,-1.1943717002868652,-1.1412007808685303,-0.14382053911685944
5.191579103469849,0.039634644985198975,0.1966313123703003,-0.2859124541282654,-0.24066748764831938,-1.3868548858969858,-2.214061569599454,-0.9547956585884094,0.23835092782974243,-0.17763441801071167,-1.3450000286102295,-0.8933830261230469,-0.1953093707561493
5.211427927017212,0.03164565563201904,0.15715540945529938,-0.1829783171415329,-0.24264906739670222,-1.4077043419156825,-2.2422538308088584,-0.9578234553337097,0.24027493596076965,-0.15761326253414154,-1.480582594871521,-0.47679439187049866,-0.030295854434370995
5.231436014175415,0.02406930923461914,0.15777836740016937,-0.2480383962392807,-0.2480786366268372,-1.4203854318223257,-2.272451720946138,-0.9584410786628723,0.24554187059402466,-0.14525704085826874,-1.3520461320877075,-0.10853274911642075,0.0782240554690361
5.251424074172974,-0.008745372295379639,0.21840324997901917,-0.3308904767036438,-0.2544412401924127,-1.4260640990798255,-2.295032895321896,-0.957685112953186,0.2517046630382538,-0.13958390057086945,-0.9392873048782349,0.03270835429430008,0.1992214322090149
5.271186113357544,-0.038678646087646484,0.29653066396713257,-0.37897396087646484,-0.2596136305635644,-1.4305741527735054,-2.3100162231166292,-0.9570029377937317,0.25670716166496277,-0.1350795179605484,-0.5836450457572937,-0.12608706951141357,0.10243667662143707
5.291391134262085,-0.09727674722671509,0.3138236403465271,-0.43782687187194824,-0.26281496944381266,-1.4372161446528626,-2.3185703778695665,-0.9570595622062683,0.25979989767074585,-0.1286100596189499,-0.3110277056694031,-0.2740010917186737,0.11865296214818954
5.311434984207153,-0.0994335412979126,0.32685595750808716,-0.5015621781349182,-0.26458382414788933,-1.443736270990234,-2.321168892339423,-0.9574204683303833,0.2615076005458832,-0.12230880558490753,0.10320616513490677,-0.3661237955093384,-0.021079719066619873
5.3314220905303955,-0.05094432830810547,0.2999093532562256,-0.3888552188873291,-0.2640142880920079,-1.4481947730474578,-2.31277219642182,-0.9581038951873779,0.26095783710479736,-0.11805713176727295,0.6948346495628357,-0.2736670970916748,0.08053728193044662
5.351383924484253,-0.08158063888549805,0.29062509536743164,-0.34249019622802734,-0.26373699397803035,-1.4448180304923552,-2.2905033053808754,-0.9577716588973999,0.2606901526451111,-0.1213008239865303,1.4746400117874146,0.04160517826676369,0.1689673811197281
5.371451139450073,-0.08253312110900879,0.3119443655014038,-0.22283077239990234,-0.26523595725752436,-1.4310953428068764,-2.2542499684784905,-0.9556289315223694,0.2621369957923889,-0.1343776285648346,1.9614332914352417,0.31690695881843567,0.4197624921798706
5.3914220333099365,-0.004508316516876221,0.23716029524803162,-0.1160510778427124,-0.27079085768501854,-1.411519993986106,-2.2109631530349856,-0.9513631463050842,0.2674935460090637,-0.15282414853572845,1.976635217666626,0.419549822807312,0.7402758002281189
5.411031007766724,0.025574564933776855,0.19205430150032043,-0.056773096323013306,-0.28205314154209943,-1.3912959394915958,-2.169629584388383,-0.9450536370277405,0.2783282399177551,-0.17148321866989136,1.7872214317321777,0.40113839507102966,0.9702651500701904
5.431504011154175,-0.01771223545074463,0.22415611147880554,0.0032578706741333008,-0.2956981636266009,-1.36945169364555,-2.1279797492069075,-0.9372742176055908,0.2914077937602997,-0.19130732119083405,1.9788298606872559,0.5396377444267273,1.0627834796905518
5.4515039920806885,-0.06460189819335938,0.24756783246994019,-0.024831771850585938,-0.30806291773980055,-1.341433287720775,-2.077428338693361,-0.9279669523239136,0.30321332812309265,-0.21665391325950623,2.403820037841797,0.6390420794487,1.121917724609375
5.471421957015991,-0.049828290939331055,0.20027998089790344,0.018774449825286865,-0.31844132362891164,-1.3106230306836948,-2.0211610225981076,-0.9177618622779846,0.3130866289138794,-0.2443147450685501,2.4805498123168945,0.5524300932884216,1.1036477088928223
5.491425037384033,-0.02830672264099121,0.14939501881599426,0.0669059157371521,-0.32741661855534937,-1.2831476311204273,-1.9667587108763043,-0.907972514629364,0.32159796357154846,-0.26862719655036926,2.1911633014678955,0.3936426639556885,1.097440242767334
5.511422872543335,-0.06455469131469727,0.11063021421432495,0.08469495177268982,-0.33491143378531474,-1.2585724857350384,-1.9177365167922786,-0.8987784385681152,0.3286855220794678,-0.290108859539032,2.0818488597869873,0.36476653814315796,0.927025318145752
5.531453847885132,-0.0942542552947998,0.1405506134033203,0.24016854166984558,-0.3402826285041362,-1.2332940681634088,-1.8695545190222234,-0.88947993516922,0.3337535262107849,-0.31214436888694763,2.065880537033081,0.5787952542304993,1.0516494512557983
5.5505900382995605,-0.053261637687683105,0.15720978379249573,0.25554096698760986,-0.3454708533087947,-1.2036555523831056,-1.8209856937043782,-0.8782110810279846,0.3386397361755371,-0.3377401530742645,2.0331339836120605,0.7296991944313049,0.9632245898246765
5.571420907974243,-0.06404799222946167,0.10402995347976685,0.24739354848861694,-0.34909272088300297,-1.1722485217974934,-1.7758486726919849,-0.8660361170768738,0.342045396566391,-0.3646726608276367,1.7157020568847656,0.8669571876525879,0.984298586845398
5.591418027877808,-0.04383361339569092,0.023960530757904053,0.2734365463256836,-0.3559446059028589,-1.1414341721887569,-1.7392039566867923,-0.8522387146949768,0.3484759032726288,-0.390196830034256,1.1746985912322998,0.903296947479248,0.9988910555839539
5.611515045166016,-0.013155043125152588,-0.004946768283843994,0.33951252698898315,-0.36711060790046385,-1.11319699183424,-1.712077764198908,-0.8373392224311829,0.35892006754875183,-0.4123580753803253,0.6476867198944092,0.9543461203575134,1.0871617794036865
5.631440877914429,-0.010214686393737793,0.027816593647003174,0.34694546461105347,-0.3818633464462727,-1.0871581863011552,-1.692304538943584,-0.8215417861938477,0.37265023589134216,-0.43150976300239563,0.3875798285007477,0.9075756072998047,1.0297564268112183
5.65143084526062,-0.025333642959594727,0.02591484785079956,0.35255903005599976,-0.3972468335352574,-1.062474439751698,-1.675106016389572,-0.8055377006530762,0.386881023645401,-0.44881147146224976,0.28444841504096985,0.8806027770042419,1.0577938556671143
5.671504974365234,-0.021421730518341064,-0.001485377550125122,0.36843341588974,-0.412764827206227,-1.039647260249002,-1.6587933261458767,-0.7898116707801819,0.40114349126815796,-0.46398401260375977,0.26806482672691345,0.747922956943512,1.025694489479065
5.691421985626221,-0.0022596120834350586,-0.019658297300338745,0.39320361614227295,-0.42790723821079985,-1.0197195933127474,-1.6421085225900778,-0.7751450538635254,0.4149676561355591,-0.4763945937156677,0.24785152077674866,0.5547686219215393,1.0613605976104736
5.711458921432495,0.0008115768432617188,-0.04475477337837219,0.4029482305049896,-0.4427621683942633,-1.0040521262713598,-1.6255853543279393,-0.7623013257980347,0.42843690514564514,-0.4851168692111969,0.23381716012954712,0.31162911653518677,0.9735632538795471
5.731420040130615,-0.006744980812072754,-0.0526672899723053,0.448106586933136,-0.45678433049307404,-0.9922180060801892,-1.610013802357238,-0.7514031529426575,0.44106441736221313,-0.49077025055885315,0.20143288373947144,0.1974647343158722,0.9599927663803101
5.751420021057129,-0.019779503345489502,-0.0610729455947876,0.40029919147491455,-0.46887274077597013,-0.9831135484377989,-1.5944940264415377,-0.7424122095108032,0.45188096165657043,-0.4945985674858093,0.31809180974960327,0.010927778668701649,0.809251070022583
5.771424055099487,-0.015182673931121826,-0.08684757351875305,0.37725579738616943,-0.4781683895176958,-0.9775095645023089,-1.5781123609591352,-0.7361142039299011,0.4601537585258484,-0.4963812232017517,0.32972219586372375,-0.19559627771377563,0.785565197467804
5.791486978530884,-0.02215433120727539,-0.13014331459999084,0.3786059617996216,-0.48759991369150646,-0.9767397711135748,-1.5643580314894745,-0.7321028113365173,0.4685068726539612,-0.49449649453163147,0.14346493780612946,-0.3578326106071472,0.6650591492652893
5.811432123184204,-0.03156685829162598,-0.15873956680297852,0.3566938638687134,-0.4969687490589977,-0.9817084053440762,-1.5554138996670506,-0.730868935585022,0.47676315903663635,-0.48839256167411804,0.0025845898780971766,-0.5625109672546387,0.5610544681549072
5.831499814987183,-0.056150197982788086,-0.1686912477016449,0.3067808151245117,-0.5048176334887481,-0.9931106353418245,-1.5496045977206256,-0.7332326173782349,0.48364782333374023,-0.477969229221344,-0.007147559430450201,-0.8427990078926086,0.3792785108089447
5.851423025131226,-0.09684169292449951,-0.1563704013824463,0.3210403323173523,-0.5095752020732447,-1.0086974431532485,-1.544950439435252,-0.7386379241943359,0.4878064692020416,-0.46525123715400696,0.10992938280105591,-0.9300628304481506,0.2312500923871994
5.87142014503479,-0.18493694067001343,-0.15414991974830627,0.27087920904159546,-0.510702598486112,-1.0253979350437874,-1.5415590161399417,-0.7458338141441345,0.4887903034687042,-0.4525657296180725,0.0434948205947876,-0.9018589854240417,0.0034596826881170273
5.891427040100098,-0.23494195938110352,-0.177956223487854,0.199704110622406,-0.509551577870018,-1.044479718828355,-1.544378050273852,-0.7548193335533142,0.48778584599494934,-0.4385347366333008,-0.22266574203968048,-0.8976978063583374,-0.21537600457668304
5.9114179611206055,-0.20716452598571777,-0.22624173760414124,0.14922791719436646,-0.5083012020772253,-1.06953241075202,-1.5564417556230137,-0.7661020159721375,0.4866939187049866,-0.41978156566619873,-0.6312451362609863,-1.0526193380355835,-0.43622708320617676
5.931416988372803,-0.2608327865600586,-0.22717538475990295,0.10679042339324951,-0.5055467736269519,-1.1029666057202092,-1.5790612836842555,-0.7808999419212341,0.4842858910560608,-0.39454078674316406,-0.9803078770637512,-1.164479374885559,-0.7330365777015686
5.951422929763794,-0.3826294541358948,-0.17744076251983643,0.0568084716796875,-0.4990981506258827,-1.142160858362943,-1.6113085090719848,-0.7985838651657104,0.47863391041755676,-0.36492928862571716,-1.3042930364608765,-1.2106077671051025,-1.079470157623291
5.971480131149292,-0.4669380187988281,-0.14056196808815002,0.08059391379356384,-0.4880973072885076,-1.1841317438465762,-1.652921255035607,-0.818019688129425,0.4689462184906006,-0.3330658972263336,-1.6259641647338867,-0.9312480688095093,-1.3485491275787354
5.991426944732666,-0.4415684938430786,-0.13706690073013306,0.025253385305404663,-0.47530340133107585,-1.2209276505575315,-1.7021963369306155,-0.8352869749069214,0.45760825276374817,-0.3047792315483093,-2.0032081604003906,-0.4808886647224426,-1.3914850950241089
6.011425018310547,-0.2085336446762085,-0.10608214139938354,-0.07455858588218689,-0.4639649597637451,-1.2523658753559475,-1.7569890262166799,-0.8493275046348572,0.4474974274635315,-0.2799794673919678,-2.174631357192993,-0.24456027150154114,-1.2742972373962402
6.031491041183472,0.07128584384918213,-0.07926753163337708,-0.1966688334941864,-0.45364602913939905,-1.2809837003006652,-1.8083581456248357,-0.8613705039024353,0.4382456839084625,-0.2568682134151459,-1.8695470094680786,-0.3578917980194092,-1.082075834274292
6.051044940948486,0.220353364944458,-0.05156800150871277,-0.22897586226463318,-0.44407160494895276,-1.3066516234652106,-1.8486045043211952,-0.871690034866333,0.4296197295188904,-0.23576118052005768,-1.3301193714141846,-0.44294074177742004,-0.8625955581665039
6.071418046951294,0.14298611879348755,-0.043287694454193115,-0.27502310276031494,-0.4323825731117335,-1.3271153054560314,-1.874439134230833,-0.8811452388763428,0.41903528571128845,-0.21907182037830353,-0.6129889488220215,-0.4468235373497009,-0.8452707529067993
6.091418027877808,-0.007302284240722656,0.033659785985946655,-0.23396065831184387,-0.41819729702470076,-1.337468351420448,-1.8851028372684642,-0.8890600800514221,0.40611377358436584,-0.21129094064235687,-0.10063443332910538,-0.13731370866298676,-0.788598358631134
6.111418962478638,-0.09539049863815308,0.0394422709941864,-0.1598392128944397,-0.4031860019466868,-1.3414425796154046,-1.8932835751710515,-0.8957287669181824,0.39235085248947144,-0.20911842584609985,-0.4936477541923523,0.09476710855960846,-0.856442928314209
6.131505012512207,-0.13158851861953735,-0.05294942855834961,-0.1016463041305542,-0.39061148717334854,-1.3505107042911755,-1.9200685365210557,-0.9023315906524658,0.38075390458106995,-0.20204950869083405,-1.6542659997940063,0.13872338831424713,-0.8771421313285828
6.151429891586304,-0.22530126571655273,-0.033025652170181274,-0.07145524024963379,-0.3843369171025179,-1.3628129819510737,-1.971831655755858,-0.9070685505867004,0.3749445080757141,-0.19142328202724457,-2.8808112144470215,0.6442959308624268,-0.7697098851203918
6.171426057815552,-0.19537699222564697,0.06409993767738342,-0.03789496421813965,-0.38611151350294143,-1.3715179827389943,-2.0453060727084607,-0.9080469608306885,0.3765890598297119,-0.1833881139755249,-3.8355908393859863,1.2408710718154907,-0.48750680685043335
6.191431999206543,-0.021888673305511475,0.16062960028648376,-0.07028768956661224,-0.39032900297336864,-1.378669903183419,-2.1287446755423134,-0.9077681303024292,0.3804926872253418,-0.17658433318138123,-3.6169111728668213,1.1362037658691406,-0.5980104804039001
6.211426019668579,0.1728542447090149,0.3066554367542267,-0.13058972358703613,-0.390197906351147,-1.385482457485096,-2.1961930941316816,-0.9089991450309753,0.38037145137786865,-0.17040526866912842,-2.4894468784332275,0.7786197662353516,-0.5386219620704651
6.231511831283569,0.26884692907333374,0.30195847153663635,-0.10957694053649902,-0.38824884232907336,-1.3904087274368595,-2.2420524333883614,-0.9105551838874817,0.378568172454834,-0.16605794429779053,-1.7693394422531128,0.47781631350517273,-0.46286386251449585
6.2514259815216064,0.2539186477661133,0.17946773767471313,-0.103412926197052,-0.38233021571873915,-1.3970614144980609,-2.274455826550163,-0.9138306379318237,0.3730834424495697,-0.16038118302822113,-0.9590049982070923,0.03335905447602272,-0.6360542178153992
6.271415948867798,0.27461403608322144,0.17696362733840942,-0.16194643080234528,-0.37184480408642195,-1.405615251965917,-2.285671000251769,-0.9189774394035339,0.3633347749710083,-0.15319350361824036,0.07329896837472916,-0.46427425742149353,-0.5716185569763184
6.291416883468628,0.25692278146743774,0.23685801029205322,-0.18680213391780853,-0.3583965195140099,-1.4156454138488188,-2.276819358472295,-0.9252117276191711,0.3507730960845947,-0.1447104662656784,0.8991042971611023,-0.8246089816093445,-0.6325997114181519
6.311453104019165,0.18643826246261597,0.210282564163208,-0.15025222301483154,-0.3426638407885737,-1.4264979053115392,-2.2561327757355056,-0.9320741295814514,0.33599725365638733,-0.13543817400932312,1.184426188468933,-0.93314528465271,-0.6281797885894775
6.331526041030884,0.11469697952270508,0.19789651036262512,-0.12458483874797821,-0.32718139815361086,-1.4371196430607565,-2.233918372042576,-0.9385035037994385,0.3213752210140228,-0.12620869278907776,1.0705641508102417,-0.8328110575675964,-0.6116321682929993
6.351480007171631,0.06539207696914673,0.19775936007499695,-0.13508599996566772,-0.3134517800174193,-1.4459507525744477,-2.2157193772414834,-0.9438709020614624,0.3083440661430359,-0.11845417320728302,0.8155117034912109,-0.637829065322876,-0.5182180404663086
6.371424913406372,0.08644521236419678,0.2042505443096161,-0.16543203592300415,-0.30310041809101257,-1.4531563120983804,-2.20264054185274,-0.9478189945220947,0.29848071932792664,-0.11201866716146469,0.5653352737426758,-0.49579107761383057,-0.35924333333969116
6.391425848007202,0.15183478593826294,0.21005302667617798,-0.16889607906341553,-0.2968988254640573,-1.459454561285741,-2.1930963174083007,-0.9503269791603088,0.29255613684654236,-0.10625050961971283,0.422380268573761,-0.42195209860801697,-0.14149753749370575
6.4114158153533936,0.18727505207061768,0.22672832012176514,-0.1925671100616455,-0.29516268360269926,-1.4655986455836953,-2.184342419547599,-0.9514656066894531,0.2908954918384552,-0.10046284645795822,0.4860978424549103,-0.47622421383857727,0.046966083347797394
6.4314539432525635,0.16755902767181396,0.24827975034713745,-0.24580305814743042,-0.2962570060501555,-1.4724572286157742,-2.1703036296909723,-0.9518148899078369,0.2919423282146454,-0.09390351176261902,0.8929517865180969,-0.6307357549667358,0.18966802954673767
6.451462030410767,0.0943116545677185,0.2939963936805725,-0.29080498218536377,-0.2986176582038929,-1.4788049882637726,-2.1447257192056273,-0.951702892780304,0.2941993176937103,-0.08779621869325638,1.5468989610671997,-0.7427945733070374,0.260394424200058
6.47142481803894,-0.008774936199188232,0.33020997047424316,-0.309176504611969,-0.30054536836019957,-1.4822146765582385,-2.1059041031356833,-0.9514300227165222,0.2960411608219147,-0.08450037240982056,2.088658571243286,-0.7452300190925598,0.258117139339447
6.491419076919556,-0.09001004695892334,0.30074965953826904,-0.2499505877494812,-0.301787008300142,-1.4833447019591561,-2.0598772527047147,-0.9511579871177673,0.2972269356250763,-0.08339301496744156,2.218001127243042,-0.7503201365470886,0.25950464606285095
6.511470079421997,-0.2483031153678894,0.2597123384475708,-0.2093045711517334,-0.30278478708614814,-1.4856635909597276,-2.0139043903739933,-0.9510529637336731,0.2981794774532318,-0.08116190880537033,2.19846510887146,-0.8256848454475403,0.18522529304027557
6.531418085098267,-0.5144897103309631,0.26593017578125,-0.17407280206680298,-0.2993736787669036,-1.4838313594908048,-1.9672426438168924,-0.9519102573394775,0.2949218153953552,-0.08299217373132706,2.3004648685455322,-0.2805308699607849,-0.1617230325937271
6.551455020904541,-0.48050838708877563,0.2369500994682312,-0.1078532487154007,-0.2910841054815837,-1.4688865360007346,-1.9182761110793909,-0.9529632329940796,0.2869908809661865,-0.09745389223098755,2.415580987930298,0.1896020919084549,-0.19199001789093018
6.571418046951294,-0.16956889629364014,0.16403380036354065,-0.03463089466094971,-0.28178872633558977,-1.4515418207545712,-1.8672411084786233,-0.9537372589111328,0.2780742645263672,-0.11427972465753555,2.614771604537964,0.0340738445520401,-0.20652765035629272
6.59144401550293,-0.0869513750076294,0.08721286058425903,0.0036067217588424683,-0.27205728407708846,-1.4359516133227948,-1.81137106768494,-0.9544762372970581,0.2687136232852936,-0.1294918805360794,2.693746328353882,0.08003316819667816,-0.034736502915620804
6.6114161014556885,-0.09024733304977417,0.019603222608566284,0.09800966084003448,-0.27024960638508155,-1.4157332678715895,-1.7637976498056032,-0.9521414041519165,0.26697200536727905,-0.14883677661418915,1.81217622756958,0.7023124694824219,0.5724684596061707
6.631416082382202,0.017685353755950928,0.025581300258636475,0.11195176839828491,-0.2846432930849908,-1.3887904721590754,-1.7338966662871875,-0.9439089894294739,0.28081512451171875,-0.17371943593025208,0.950113832950592,1.066211462020874,1.2271937131881714
6.651456117630005,0.0998581051826477,0.25936955213546753,0.04418867826461792,-0.3042792455135457,-1.361599146572887,-1.7029136167867225,-0.9332625269889832,0.2996056079864502,-0.19813470542430878,1.8206597566604614,0.6846684813499451,1.2283809185028076
6.671426057815552,0.09071022272109985,0.4842963218688965,0.020246535539627075,-0.3165734327012191,-1.3343667182667729,-1.6437333819160507,-0.9238703846931458,0.31131210923194885,-0.22259344160556793,3.386075019836426,0.2844710946083069,1.2731242179870605
6.69141697883606,-0.05267453193664551,0.43189114332199097,0.13106176257133484,-0.32342823175156804,-1.3029814143361063,-1.5611623633732874,-0.9143511652946472,0.31781890988349915,-0.25090447068214417,3.81672739982605,0.3239259719848633,1.290438175201416
6.711460828781128,-0.20861971378326416,0.342724084854126,0.23571261763572693,-0.3262563826296638,-1.267201112617611,-1.4797583574698012,-0.9039291143417358,0.32049915194511414,-0.2831827998161316,3.5236079692840576,0.6527599692344666,1.202689290046692
6.7314159870147705,-0.2128279209136963,0.3921939432621002,0.25496619939804077,-0.3293337630542985,-1.2282018972061608,-1.4045702976130852,-0.8912673592567444,0.3234126567840576,-0.31787821650505066,3.1450445652008057,0.790383517742157,1.3600507974624634
6.751415014266968,-0.1629839539527893,0.43239736557006836,0.2626630961894989,-0.3356978075147637,-1.1895753541943515,-1.3356179179155991,-0.8763988018035889,0.329428106546402,-0.3512862026691437,2.7369942665100098,0.8380244970321655,1.5639662742614746
6.771415948867798,-0.15707921981811523,0.41390514373779297,0.2470431625843048,-0.3473885348103566,-1.1502001947560954,-1.2722788606647004,-0.8583167195320129,0.34044349193573,-0.3839145302772522,2.3578784465789795,1.0236284732818604,1.859260082244873
6.7914159297943115,-0.18335092067718506,0.4325339198112488,0.2072545289993286,-0.36332494809127336,-1.1053720007718806,-1.209023342041786,-0.8352952599525452,0.35538408160209656,-0.4195043742656708,2.374133348464966,1.2269200086593628,2.1214499473571777
6.8114190101623535,-0.19049638509750366,0.5571786165237427,0.19882503151893616,-0.37771864579464987,-1.0553847146806008,-1.1395995440124154,-0.8087558150291443,0.3688008785247803,-0.45814815163612366,2.7818126678466797,1.267222285270691,2.1720893383026123
6.831439018249512,-0.19585365056991577,0.5951420068740845,0.26066672801971436,-0.38330684648988594,-0.9980758299293945,-1.0579394549850443,-0.7794421911239624,0.37398937344551086,-0.5025948286056519,3.375068187713623,1.4655576944351196,2.2757256031036377
6.851330995559692,-0.21224457025527954,0.5449879169464111,0.32965385913848877,-0.3823511241446963,-0.9319534982177345,-0.9674597623364305,-0.7448170781135559,0.3731028437614441,-0.553210437297821,3.5190107822418213,1.7721558809280396,2.427304983139038
6.871442079544067,-0.24221175909042358,0.45049721002578735,0.2976740002632141,-0.3781533017973673,-0.8612954023316796,-0.8768263205887977,-0.7050842642784119,0.36920487880706787,-0.6054285764694214,3.3563969135284424,1.9126224517822266,2.487462043762207
6.891417026519775,-0.25334644317626953,0.35304567217826843,0.25780487060546875,-0.37076877259566865,-0.7899382099469398,-0.7890069909496863,-0.6620435118675232,0.3623320758342743,-0.6560592651367188,3.1546051502227783,2.0159389972686768,2.527783155441284
6.911423921585083,-0.253337562084198,0.3236974775791168,0.2508748173713684,-0.36118254573326064,-0.7192838191993658,-0.7053607383760262,-0.6163370013237,0.3533807396888733,-0.7037404775619507,2.9394710063934326,2.088738441467285,2.4993929862976074
6.931416034698486,-0.28481149673461914,0.337798148393631,0.2516116499900818,-0.34595679382298616,-0.6486963018149338,-0.6241786292161915,-0.5683531165122986,0.33909693360328674,-0.7496585249900818,3.1651270389556885,2.1437923908233643,2.4439773559570312
6.950809001922607,-0.3388670086860657,0.40791380405426025,0.24094557762145996,-0.31732512554814246,-0.5775604033675676,-0.5421249214244253,-0.518722653388977,0.31202635169029236,-0.795968770980835,3.625481128692627,2.3046438694000244,2.2692458629608154
6.971419095993042,-0.3577965795993805,0.36309343576431274,0.31572794914245605,-0.27869931836076967,-0.5067612844587072,-0.46367033570562405,-0.4666205048561096,0.27510538697242737,-0.8405845165252686,3.4929893016815186,2.4671874046325684,2.1905605792999268
6.991417169570923,-0.3380010724067688,0.18542800843715668,0.30033373832702637,-0.24134663014132812,-0.4394691399648676,-0.39276661581036576,-0.4131280183792114,0.23901043832302094,-0.8787486553192139,2.917003631591797,2.4408793449401855,2.2087392807006836
7.011435031890869,-0.333783894777298,0.10569863021373749,0.3106984496116638,-0.2111282104833497,-0.3774515523254604,-0.33042120110641054,-0.360368937253952,0.20956319570541382,-0.9089650511741638,2.383012056350708,2.3424367904663086,2.1707801818847656
7.03144097328186,-0.2932524085044861,0.17467579245567322,0.28034067153930664,-0.1812651595317885,-0.321352328306074,-0.2726186215780292,-0.3106752038002014,0.1802741438150406,-0.9332642555236816,2.4401891231536865,2.1940624713897705,2.153792142868042
7.0514140129089355,-0.31214073300361633,0.23840507864952087,0.2871411442756653,-0.14576226287379643,-0.26778286535523743,-0.21628051747211371,-0.2617880702018738,0.14524665474891663,-0.9541333317756653,2.562323808670044,2.264770984649658,2.122551679611206
7.071414947509766,-0.31693631410598755,0.17562642693519592,0.31654250621795654,-0.10606648523316667,-0.21517117471639263,-0.16292529593213853,-0.21231475472450256,0.10586772114038467,-0.9714496731758118,2.554901361465454,2.310016632080078,2.089916229248047
7.091410875320435,-0.25833362340927124,0.07239986956119537,0.3054678440093994,-0.06544897665848066,-0.16706919157032357,-0.11286366195144817,-0.16593703627586365,0.06540226191282272,-0.9839651584625244,2.415238618850708,2.0452046394348145,2.0390615463256836
7.111462831497192,-0.212656170129776,0.04014483094215393,0.2588491439819336,-0.025653899221338088,-0.12794456708317567,-0.06719080087140475,-0.127553790807724,0.02565108612179756,-0.9914999008178711,2.202678918838501,1.6988255977630615,1.9199153184890747
7.13142204284668,-0.24405968189239502,0.01687733083963394,0.2673971652984619,0.011781142606886454,-0.09497205725870562,-0.02517443773199377,-0.09482277184724808,-0.011780870147049427,-0.9954244494438171,2.0109031200408936,1.5913219451904297,1.8401330709457397
7.151415109634399,-0.24289900064468384,-0.019524548202753067,0.2831002473831177,0.04819732497478656,-0.0653287630283237,0.013462775858535836,-0.06520649045705795,-0.04817866533994675,-0.9967080354690552,1.963126301765442,1.498557209968567,1.7504186630249023
7.171508073806763,-0.2020830661058426,-0.015021808445453644,0.2469642162322998,0.08476529110277665,-0.038604661091047134,0.051238564357552224,-0.038456499576568604,-0.08466381579637527,-0.9956671595573425,1.8864328861236572,1.4231442213058472,1.8292443752288818
7.19146203994751,-0.20192840695381165,0.0026180818676948547,0.24082022905349731,0.11994030677761547,-0.014438666790160527,0.08814363021411946,-0.014334438368678093,-0.11965294182300568,-0.9927123188972473,1.765264868736267,1.391623854637146,1.7157182693481445
7.211364030838013,-0.1863001585006714,-0.027601301670074463,0.23577570915222168,0.15385205356026838,0.008050588171749501,0.12078399961672617,0.007955409586429596,-0.15324580669403076,-0.9881560802459717,1.6520564556121826,1.2762054204940796,1.5273112058639526
7.231426954269409,-0.1155882328748703,-0.04179564118385315,0.20622867345809937,0.1852135660613128,0.02656812800785475,0.14928519064207213,0.026110660284757614,-0.18415644764900208,-0.9825500845909119,1.4440733194351196,1.0482723712921143,1.3322933912277222
7.251435995101929,-0.0991225391626358,-0.052893564105033875,0.22132748365402222,0.21215248533180553,0.04097023286692493,0.17267735791327554,0.04004047438502312,-0.21056461334228516,-0.9767596125602722,1.245964527130127,0.8428358435630798,1.0454511642456055
7.2714149951934814,-0.07939796149730682,-0.08153639733791351,0.20301741361618042,0.23644103036020034,0.05187203973693668,0.19047896563813976,0.050406232476234436,-0.23424416780471802,-0.9708701372146606,1.130230188369751,0.6355358362197876,0.8450643420219421
7.293032884597778,-0.07006078958511353,-0.06645545363426208,0.18490171432495117,0.2569497450216706,0.059379144138510385,0.20533453467301205,0.05739596113562584,-0.25413161516189575,-0.9654650688171387,0.9094666838645935,0.4840523898601532,0.7054845094680786
7.313030958175659,-0.07928238809108734,-0.0655052661895752,0.1767699122428894,0.27339812213591974,0.0649699993863602,0.2170580850822335,0.06251294165849686,-0.27000489830970764,-0.9608274698257446,0.7955335974693298,0.36261841654777527,0.554175615310669
7.331434965133667,-0.06689612567424774,-0.04422515630722046,0.16074293851852417,0.2885113046931641,0.06838509682988196,0.22666729065616628,0.06550755351781845,-0.2845253646373749,-0.9564277529716492,0.7450528740882874,0.24513433873653412,0.497045636177063
7.351445913314819,-0.057251304388046265,-0.02269279956817627,0.1290099024772644,0.30400491936900886,0.06952600709753703,0.23563084705203463,0.06628447771072388,-0.29934388399124146,-0.9518401026725769,0.7833154201507568,0.13820698857307434,0.46087270975112915
7.371402978897095,-0.06335444748401642,0.007099509239196777,0.0969962477684021,0.3207207930315981,0.06980584428723156,0.24342885497346964,0.06619254499673843,-0.3152506947517395,-0.9466971755027771,0.8353908658027649,0.13089661300182343,0.3918742835521698
7.390581846237183,-0.07289049029350281,0.03146249055862427,0.08962243795394897,0.33730655515550706,0.07070469660725437,0.24917176450251088,0.06666487455368042,-0.3309466242790222,-0.9412917494773865,0.7980702519416809,0.1499432921409607,0.26733794808387756
7.411633014678955,-0.06995392590761185,0.006189167499542236,0.1131448745727539,0.3529490979444131,0.07262929349632176,0.25263108625134617,0.06809233129024506,-0.3456666171550751,-0.9358835220336914,0.7355384826660156,0.15183812379837036,0.18927909433841705
7.431411027908325,-0.05443096160888672,0.0029326677322387695,0.12428760528564453,0.3661136514016892,0.07441067509616162,0.25551422810327956,0.06941505521535873,-0.3579893708229065,-0.9311418533325195,0.5600454807281494,0.13501226902008057,0.16379930078983307
7.451552152633667,-0.057458147406578064,0.03056243062019348,0.13993120193481445,0.3761300736984396,0.07666613329070869,0.2568227947409431,0.07123681157827377,-0.3673238456249237,-0.927361011505127,0.44622862339019775,0.13169130682945251,0.024730363860726357
7.471527814865112,-0.04765084385871887,0.053285032510757446,0.151156485080719,0.383608155686513,0.07944203973472458,0.2551687769395876,0.07359074801206589,-0.3742688000202179,-0.9243956208229065,0.31578734517097473,0.0724412053823471,-0.11406482756137848
7.49083399772644,-0.030241623520851135,0.06893780827522278,0.1279374361038208,0.38820035481985027,0.08144423347071884,0.251156585585937,0.07530079782009125,-0.3785232901573181,-0.9225236773490906,0.17068450152873993,-0.024722713977098465,-0.21369245648384094
7.511470079421997,-0.030733563005924225,0.054917722940444946,0.09029364585876465,0.3894565324610629,0.08223493382602391,0.24577509204419748,0.07599110156297684,-0.3796856999397278,-0.9219892024993896,-0.004690979607403278,-0.09667200595140457,-0.2593839764595032
7.531445026397705,-0.04404613375663757,0.04108095169067383,0.06252270936965942,0.38711867824075186,0.0821967026390461,0.2405044339428481,0.07602851837873459,-0.3775218725204468,-0.9228742122650146,-0.16917729377746582,-0.10610616207122803,-0.24400587379932404
7.551507949829102,-0.0501730740070343,0.03049778938293457,0.0277177095413208,0.38271343130598157,0.0815965299204457,0.23595251750266763,0.07560943812131882,-0.3734389543533325,-0.9245682954788208,-0.22222499549388885,-0.11907745152711868,-0.21036475896835327
7.571447134017944,-0.05296069383621216,0.010990619659423828,-0.0008379220962524414,0.378055869893116,0.08086271809366623,0.23282143058566387,0.07507064193487167,-0.36911433935165405,-0.9263471364974976,-0.19409337639808655,-0.07578688114881516,-0.10517129302024841
7.590895891189575,-0.0288352370262146,-0.023718982934951782,0.0028790831565856934,0.37517238304161393,0.07997921898548249,0.2323391440631472,0.07433690875768661,-0.36643293499946594,-0.9274701476097107,-0.08162771165370941,-0.02985871024429798,0.0442410409450531
7.611506938934326,0.02021688222885132,-0.0477328896522522,0.02454817295074463,0.3748644886530167,0.0781654100724313,0.23456062882887163,0.07266334444284439,-0.366146445274353,-0.9277158975601196,0.028462670743465424,-0.08716949075460434,0.1393185257911682
7.631436109542847,0.03945931792259216,-0.061351239681243896,0.05063730478286743,0.37575842134695514,0.07468767641321895,0.2372983161442733,0.06941210478544235,-0.36697813868522644,-0.9276362061500549,0.03287617117166519,-0.1253599375486374,0.09654464572668076
7.651240110397339,0.03782925754785538,-0.08652448654174805,0.07936465740203857,0.37591009181406304,0.07031430524113316,0.23899540183251688,0.06535065174102783,-0.3671192228794098,-0.9278753995895386,-0.017743118107318878,-0.19191817939281464,0.034027110785245895
7.671425104141235,0.05423779785633087,-0.06967121362686157,0.0698627233505249,0.3754425188983413,0.06470641268080903,0.239150860614477,0.06015731766819954,-0.3666842579841614,-0.9283984899520874,-0.06450600177049637,-0.30063170194625854,-0.05842747911810875
7.691096067428589,0.02444566786289215,-0.020824700593948364,0.06065869331359863,0.37595442108060406,0.060486325222696265,0.23683083638449748,0.05622751638293266,-0.36716046929359436,-0.9284566044807434,-0.03139633312821388,-0.24759627878665924,-0.12080246955156326
7.7114410400390625,-0.004163842648267746,9.673833847045898e-05,0.0665786862373352,0.3779747204253409,0.059218249509514875,0.23418281918928135,0.055006105452775955,-0.3690389096736908,-0.92778480052948,-0.06194864213466644,-0.20730692148208618,-0.03996595740318298
7.731434106826782,-0.0034220442175865173,0.005759596824645996,0.0416530966758728,0.379766900466023,0.05641985347195271,0.23331954904686808,0.05237220227718353,-0.3707039952278137,-0.9272732734680176,-0.11152585595846176,-0.25601425766944885,-0.004968628287315369
7.75150990486145,-0.03542076051235199,0.03385379910469055,-0.00980997085571289,0.3804271375579908,0.053934150358298766,0.23255613377028364,0.0500539131462574,-0.3713170886039734,-0.9271559715270996,-0.1167873814702034,-0.16925494372844696,0.017077334225177765
7.771435022354126,-0.04713748022913933,0.042672306299209595,-0.0154801607131958,0.38001518244238836,0.051948580921981596,0.23404173785069546,0.04822082072496414,-0.3709345757961273,-0.9274061918258667,-0.06574252992868423,-0.11610127985477448,0.16701851785182953
7.791152000427246,-0.016621183604002,0.02772626280784607,-0.01795661449432373,0.380269786984743,0.04803938458811999,0.2386254423294708,0.04459051415324211,-0.3711709976196289,-0.9274932742118835,0.0023612570948898792,-0.13208255171775818,0.2538604140281677
7.811444997787476,-0.030869144946336746,-0.0072612762451171875,-0.01825171709060669,0.3816349893071211,0.04378229461300623,0.24468989827762525,0.04061948135495186,-0.37243834137916565,-0.9271675944328308,0.06040291115641594,-0.08638785034418106,0.33539438247680664
7.831251859664917,-0.040992237627506256,-0.024489760398864746,0.004402339458465576,0.3827189845050872,0.0393798485447685,0.2531512307997252,0.03652137890458107,-0.3734441101551056,-0.9269334673881531,0.0510161854326725,-0.046980347484350204,0.4446677565574646
7.851207971572876,-0.020892996340990067,-0.03785565495491028,0.015780389308929443,0.38446402411097746,0.03426478242166619,0.2632197413081472,0.03175722435116768,-0.37506234645843506,-0.9264554381370544,0.11134316027164459,-0.09707991033792496,0.48584088683128357
7.871443033218384,-0.015161391347646713,-0.03640994429588318,0.0040673017501831055,0.3872597298597731,0.0277315507373471,0.27391207241033483,0.025674665346741676,-0.37765249609947205,-0.9255913496017456,0.14937476813793182,-0.1402382105588913,0.5186395645141602
7.89116096496582,-0.01905391365289688,-0.03587844967842102,0.0022271275520324707,0.3904229870324414,0.020176759064354788,0.2851784650013523,0.018657155334949493,-0.3805795907974243,-0.9245599508285522,0.14284344017505646,-0.18814590573310852,0.5261361598968506
7.911546945571899,-0.029682166874408722,-0.021299630403518677,-0.01715528964996338,0.3929065301780276,0.01212818807358722,0.2959412136357018,0.011203747242689133,-0.38287508487701416,-0.9237321615219116,0.11403389275074005,-0.18846309185028076,0.47602614760398865
7.931537866592407,-0.04146704822778702,0.003198385238647461,-0.03562361001968384,0.39489775484528855,0.004836732964268843,0.3063825453338537,0.004464460536837578,-0.3847138285636902,-0.9230250716209412,0.09052152186632156,-0.13209913671016693,0.5080909729003906
7.9515299797058105,-0.03781748190522194,0.00952962040901184,-0.0387609601020813,0.39676521393332964,-0.0020447536693984918,0.3181878542721068,-0.001885907375253737,-0.3864368796348572,-0.922313928604126,0.11860868334770203,-0.1095808818936348,0.5821141600608826
7.971452951431274,-0.02984413504600525,0.009495288133621216,-0.056115686893463135,0.39904524596996094,-0.009259344649275848,0.3313045473483081,-0.008531738072633743,-0.38853877782821655,-0.9213928580284119,0.12415625900030136,-0.08664236217737198,0.6181961894035339
7.99142599105835,-0.049253687262535095,0.01416507363319397,-0.0426291823387146,0.40101733102646714,-0.01566460694369104,0.34506851392920584,-0.014421255327761173,-0.3903551697731018,-0.9205513596534729,0.10252809524536133,-0.019125638529658318,0.6608752012252808
8.011604070663452,-0.021538550034165382,0.02083909511566162,-0.03262418508529663,0.4020184252277805,-0.022360147202477285,0.36005542881886915,-0.02057572826743126,-0.39127662777900696,-0.9200430512428284,0.04577997326850891,-0.07441587746143341,0.6992201805114746
8.030622959136963,-0.01389525830745697,0.023630499839782715,-0.04731041193008423,0.4027138355988065,-0.02976499567321485,0.37474557869632696,-0.027379775419831276,-0.39191651344299316,-0.9195932745933533,0.08453802019357681,-0.06975028663873672,0.6615502834320068
8.051437139511108,-0.019282404333353043,0.014570832252502441,-0.054184556007385254,0.404194846857469,-0.03693988445942692,0.38956550936600665,-0.03395552188158035,-0.3932786285877228,-0.9187921285629272,0.12149415165185928,-0.06800574064254761,0.6971497535705566
8.0714750289917,-0.015375189483165741,-0.01008269190788269,-0.05285513401031494,0.40571069251655595,-0.04421155401629525,0.4044432657358361,-0.04060932248830795,-0.39467185735702515,-0.9179242849349976,0.0949997678399086,-0.06316367536783218,0.6604939103126526
8.091534852981567,-0.0150890052318573,-0.026807934045791626,-0.04164856672286987,0.40599127195019674,-0.0512796736623736,0.41888625223664344,-0.047090575098991394,-0.3949296474456787,-0.9175037145614624,0.011745264753699303,-0.0740872472524643,0.6664479374885559
8.11143708229065,-0.013423334807157516,-0.002103835344314575,-0.031295716762542725,0.4053603494429118,-0.05820288103595097,0.433215751483439,-0.05345594882965088,-0.39434993267059326,-0.917404294013977,0.028283655643463135,-0.0487343966960907,0.657536506652832
8.131436109542847,-0.016556408256292343,0.019359469413757324,-0.011347770690917969,0.40547025800446135,-0.06465514589522878,0.4478050746361744,-0.05937132611870766,-0.39445093274116516,-0.9169970154762268,0.08394960314035416,-0.022149214521050453,0.6850935220718384
8.151446104049683,-0.01568126678466797,0.019841432571411133,0.015689194202423096,0.4061774709985496,-0.0709905026257836,0.4630245450194872,-0.06515979766845703,-0.3951007127761841,-0.9163239598274231,0.09159558266401291,-0.009780516847968102,0.6938442587852478
8.171419858932495,-0.02056272327899933,0.006738096475601196,0.03378772735595703,0.4067300499358278,-0.07675648105152456,0.47773187480616364,-0.07042543590068817,-0.3956082761287689,-0.915715217590332,0.08355914056301117,0.01608818769454956,0.6549072265625
8.19144606590271,-0.011959634721279144,0.01257026195526123,0.05818384885787964,0.40670036732336257,-0.082185673827646,0.4918521284621537,-0.07539693266153336,-0.3955810070037842,-0.9153310656547546,0.04834093526005745,-0.00788230448961258,0.6304781436920166
8.212281942367554,-0.006158784031867981,0.026209890842437744,0.06327825784683228,0.4062998213580874,-0.08775909203491307,0.5046309367665375,-0.08051113784313202,-0.3952130973339081,-0.9150543808937073,0.02317003905773163,-0.032047562301158905,0.5413153767585754
8.23151183128357,-0.019002072513103485,0.03509026765823364,0.07827675342559814,0.4049876429874781,-0.09234862031058053,0.5156301709860955,-0.08475769311189651,-0.3940074145793915,-0.9151908159255981,-0.04714035615324974,0.006357262376695871,0.48948922753334045
8.251526117324829,-0.01636415719985962,0.0426812469959259,0.08803826570510864,0.4021252801668512,-0.09633070840224987,0.5255087638655553,-0.08850949257612228,-0.39137497544288635,-0.9159649014472961,-0.19353246688842773,-0.07317520678043365,0.41647258400917053
8.271422147750854,-0.014538660645484924,0.011613160371780396,0.2520703673362732,0.3950873701842893,-0.10268442627831176,0.5312930047472195,-0.09460745751857758,-0.38488882780075073,-0.9181013107299805,-0.3239848017692566,-0.20316480100154877,0.1658295840024948
8.291424036026001,-0.03875717520713806,-0.07142221927642822,0.17403638362884521,0.3881899006612103,-0.1084224324479189,0.5328521274331244,-0.10015883296728134,-0.3785136044025421,-0.9201606512069702,-0.3930322527885437,-0.28777602314949036,0.1618240475654602
8.311484098434448,0.030366793274879456,0.028681933879852295,0.08630985021591187,0.3795900929077751,-0.1163459429500609,0.5374390751841946,-0.10782040655612946,-0.3705397844314575,-0.9225372672080994,-0.35163426399230957,-0.28908005356788635,0.30147847533226013
8.33143401145935,0.03355668485164642,0.18136245012283325,-0.009855031967163086,0.37243866818083066,-0.12202280346108396,0.5419224267482036,-0.11337541043758392,-0.3638879954814911,-0.9245169162750244,-0.33272600173950195,-0.08836604654788971,0.19454830884933472
8.35153603553772,0.05358440428972244,0.13104850053787231,-0.01989293098449707,0.36453221426131455,-0.12323752765326816,0.54527228326065,-0.11484844237565994,-0.35651227831840515,-0.9272048473358154,-0.38348153233528137,0.08092257380485535,0.1476525366306305
