timestamp,acceleration_x,acceleration_y,acceleration_z,attitude_pitch,attitude_roll,attitude_yaw,gravity_x,gravity_y,gravity_z,rotation_x,rotation_y,rotation_z
0.0,-0.7235918045043945,-0.45329350233078003,0.375113308429718,-0.6839992594353925,-1.0352319344021574,2.546608081241845,-0.6665297150611877,0.6318976879119873,-0.39552950859069824,1.7860287427902222,1.7999026775360107,4.0563435554504395
0.01999187469482422,-0.6470504999160767,-0.5386739373207092,0.42984288930892944,-0.7261277899885381,-0.9375760367403697,2.642867258990185,-0.6027817130088806,0.663979172706604,-0.4424770772457123,1.9626168012619019,1.724988579750061,3.522184371948242
0.039151906967163086,-0.58216392993927,-0.6269531846046448,0.5056460499763489,-0.7521737981172523,-0.839361508560798,2.738469014350096,-0.5434312224388123,0.6832277178764343,-0.4877321422100067,1.8491328954696655,1.6582705974578857,2.959991216659546
0.06009793281555176,-0.5104339122772217,-0.7000871300697327,0.5811797976493835,-0.7666895308070805,-0.7486113280643041,2.8235235293057652,-0.4901917576789856,0.6937547922134399,-0.5276519060134888,1.5001146793365479,1.540858507156372,2.4135708808898926
0.08011698722839355,-0.42869287729263306,-0.7704288959503174,0.6352741122245789,-0.7759239229471099,-0.6729970438754659,2.8910126655288857,-0.44491860270500183,0.7003758549690247,-0.5581408143043518,0.9307771921157837,1.3160241842269897,1.8605879545211792
0.09923410415649414,-0.38587912917137146,-0.814356803894043,0.6631805300712585,-0.785068969354605,-0.6173636633087346,2.936279915098273,-0.40946999192237854,0.7068739533424377,-0.5767698884010315,0.28922948241233826,1.0532217025756836,1.2463409900665283
0.12003278732299805,-0.35557952523231506,-0.8339048624038696,0.6694981455802917,-0.7947827486212845,-0.5842310985745157,2.9574174223741196,-0.3863333463668823,0.7137114405632019,-0.5842624306678772,-0.21115295588970184,0.7553858757019043,0.5138348340988159
0.1401069164276123,-0.31975507736206055,-0.8408001065254211,0.6325184106826782,-0.8023909370940109,-0.5739428077903511,2.954975690911533,-0.37734273076057434,0.7190198302268982,-0.5836291909217834,-0.4746249318122864,0.42343059182167053,-0.26064589619636536
0.16002702713012695,-0.291142076253891,-0.7973843216896057,0.5522366762161255,-0.8039664699997902,-0.5875292497313567,2.930411734989565,-0.3846087157726288,0.7201139330863953,-0.5775051712989807,-0.5968999266624451,-0.003280095988884568,-1.096237301826477
0.18002796173095703,-0.42861872911453247,-0.73402339220047,0.5313760638237,-0.7977753981317227,-0.6250200034466477,2.88216802877515,-0.4085852801799774,0.715804398059845,-0.5662880539894104,-0.8312323689460754,-0.25933054089546204,-2.04602313041687
0.20002508163452148,-0.5229002237319946,-0.6621636152267456,0.5813488364219666,-0.7832771788637034,-0.6849006503566183,2.808071088261172,-0.44826069474220276,0.7056054472923279,-0.5488017201423645,-1.2237365245819092,-0.4729883670806885,-2.9544615745544434
0.22002792358398438,-0.38738542795181274,-0.6284754276275635,0.5896700620651245,-0.7618249599488114,-0.7659926708694496,2.7113626194639964,-0.501622200012207,0.6902430653572083,-0.5214784741401672,-1.8106456995010376,-0.9389519095420837,-3.6315441131591797
0.2400529384613037,-0.29934149980545044,-0.6205232739448547,0.49090391397476196,-0.7352472165093111,-0.8685836135298146,2.5958849072087893,-0.5661981105804443,0.670770525932312,-0.4790477454662323,-2.5263397693634033,-1.4243592023849487,-4.08291482925415
0.2600398063659668,-0.38668107986450195,-0.5494630932807922,0.32987454533576965,-0.6999633849744852,-0.982179455871892,2.4698850381625133,-0.636146068572998,0.6441896557807922,-0.4246620535850525,-2.929887533187866,-1.5907974243164062,-4.454474449157715
0.28022289276123047,-0.5032408237457275,-0.4183621406555176,0.2044290006160736,-0.6509835333604851,-1.0908295790616136,2.3445314038967124,-0.7056063413619995,0.6059690713882446,-0.36731648445129395,-2.9487721920013428,-1.4489084482192993,-4.757102966308594
0.30002498626708984,-0.525015652179718,-0.3299204707145691,0.11422795057296753,-0.5859471308969751,-1.1845697470532714,2.233266423942652,-0.7718136310577393,0.5529887676239014,-0.3138585686683655,-2.5158040523529053,-1.487573266029358,-4.960354328155518
0.3200230598449707,-0.5912269949913025,-0.23456507921218872,0.07449284195899963,-0.5069303249906788,-1.2605234913728178,2.143646179793336,-0.8324943780899048,0.4854958951473236,-0.2669213116168976,-2.030623197555542,-1.4153209924697876,-5.089881896972656
0.3400249481201172,-0.7130715250968933,-0.13179880380630493,0.08257192373275757,-0.41882354079225487,-1.3189004118602583,2.0726913661821036,-0.8847374320030212,0.4066859483718872,-0.2276981621980667,-1.6577353477478027,-1.2488934993743896,-5.155930519104004
0.3600809574127197,-0.7665061354637146,-0.0030670166015625,0.0848311334848404,-0.32514137232239126,-1.362448246267758,2.0160525831910547,-0.9271126985549927,0.3194427490234375,-0.19600653648376465,-1.3687649965286255,-1.0297496318817139,-5.184845924377441
0.3797740936279297,-0.752070426940918,0.12727338075637817,0.08678622543811798,-0.22846882414294978,-1.3933176878297786,1.9697638784160605,-0.9587145447731018,0.22648639976978302,-0.17196066677570343,-1.1780582666397095,-0.8099114894866943,-5.175341606140137
0.4000239372253418,-0.6593536734580994,0.25501811504364014,0.09323714673519135,-0.1308068908637122,-1.4155414653888907,1.930207626413896,-0.9795320630073547,0.13043418526649475,-0.1533108949661255,-1.0674949884414673,-0.7189971208572388,-5.108485698699951
0.41968393325805664,-0.5826592445373535,0.38066384196281433,0.04619240760803223,-0.034504139765801724,-1.4321899648374616,1.895492427390917,-0.989820122718811,0.03449729457497597,-0.13808076083660126,-0.9366520047187805,-0.655113935470581,-4.925526142120361
0.44006776809692383,-0.5303776264190674,0.5336179733276367,-0.04572521150112152,0.05829394926182456,-1.444570962471965,1.86683146922212,-0.9903591275215149,-0.05826094001531601,-0.12567661702632904,-0.6679408550262451,-0.5977124571800232,-4.6333513259887695
0.4600229263305664,-0.4688682556152344,0.716037929058075,-0.09880991280078888,0.1455367781178714,-1.4542461135319111,1.846007796486456,-0.9827158451080322,-0.14502355456352234,-0.11505718529224396,-0.3618622422218323,-0.5232155323028564,-4.183582782745361
0.4800679683685303,-0.3971518278121948,0.8753620982170105,-0.05584549903869629,0.22215569115542264,-1.4605370412000909,1.8321871443491542,-0.9695017337799072,-0.22033284604549408,-0.10733187198638916,-0.14100997149944305,-0.3460763394832611,-3.548780679702759
0.5000228881835938,-0.258242666721344,1.0096077919006348,-0.013406746089458466,0.28447085242789544,-1.463561670458792,1.8228210508642277,-0.9542970657348633,-0.2806496024131775,-0.10272778570652008,-0.13987436890602112,-0.19630050659179688,-2.7212586402893066
0.5200920104980469,-0.050686419010162354,1.098734974861145,-0.05483310669660568,0.32966470626289884,-1.464536588370327,1.8134380150749358,-0.9408144950866699,-0.3237258195877075,-0.10034866631031036,-0.3175215423107147,-0.22751514613628387,-1.865796685218811
0.5390920639038086,0.11623245477676392,1.0332316160202026,-0.17652912437915802,0.3577058701898737,-1.4666954910525356,1.8008226437252368,-0.931631863117218,-0.3501262366771698,-0.09733551740646362,-0.5738844871520996,-0.40143969655036926,-1.0769623517990112
0.5600290298461914,0.13318896293640137,0.9877786636352539,-0.3102450966835022,0.3717883899811257,-1.4704986131969666,1.7854418512697179,-0.9269970655441284,-0.3632822036743164,-0.09328871220350266,-0.6679707765579224,-0.5018375515937805,-0.521518349647522
0.5799989700317383,0.09109538793563843,1.0636777877807617,-0.36907297372817993,0.37789026707306134,-1.4753761902133133,1.771981895715478,-0.9252172112464905,-0.3689604103565216,-0.08855327218770981,-0.4970756471157074,-0.4711216986179352,-0.2543882429599762
0.6000239849090576,0.05320405960083008,1.1042981147766113,-0.39894455671310425,0.3811116718389147,-1.4806296858371613,1.7641562660542807,-0.9244810342788696,-0.371952623128891,-0.08358398824930191,-0.18297605216503143,-0.3288984000682831,-0.13952472805976868
0.6207919120788574,0.017594516277313232,1.152632713317871,-0.3628600835800171,0.3820431823681501,-1.485303420291074,1.7637185638705555,-0.9245159029960632,-0.37281712889671326,-0.07923268526792526,0.12633739411830902,-0.16769468784332275,0.06296824663877487
0.6399428844451904,-0.024730205535888672,1.1446504592895508,-0.30810272693634033,0.3775886398799476,-1.4885101543842865,1.7680524403786402,-0.9264112710952759,-0.36868005990982056,-0.07640335708856583,0.1896202117204666,0.008015879429876804,0.4402588903903961
0.6604058742523193,-0.09745073318481445,1.0979492664337158,-0.2772265672683716,0.36420251955856264,-1.48856968626912,1.7718501726970468,-0.9312511086463928,-0.35620424151420593,-0.07674669474363327,0.08900671452283859,0.07950080186128616,0.9319723844528198
0.6799728870391846,-0.23992979526519775,1.0864624977111816,-0.3290266990661621,0.3405017945320827,-1.4912300235036122,1.77718692027238,-0.939605176448822,-0.3339601159095764,-0.07491907477378845,0.26115891337394714,-0.1449555605649948,1.4861464500427246
0.7000508308410645,-0.6308291554450989,1.029300570487976,-0.2692810297012329,0.3065878040865463,-1.4963615611716141,1.790537866296498,-0.9507291316986084,-0.30180731415748596,-0.07089828699827194,0.8251855969429016,0.18522723019123077,2.004697561264038
0.7203340530395508,-0.7160017490386963,0.9559482932090759,-0.22514116764068604,0.2623691533140603,-1.494915445032566,1.8185718532375106,-0.9629992246627808,-0.2593693435192108,-0.07321380823850632,1.4729015827178955,0.6510887742042542,2.62105655670166
0.7401938438415527,-0.2925114035606384,0.7734010219573975,-0.18492478132247925,0.20613211680692672,-1.4899307795155596,1.8562201419904465,-0.9756314158439636,-0.20467543601989746,-0.07906739413738251,1.68088960647583,0.6926644444465637,3.288957357406616
0.7591218948364258,-0.184237539768219,0.6061198711395264,-0.11644936352968216,0.13772863129607768,-1.482901767609341,1.8958347964217435,-0.9867069125175476,-0.13729360699653625,-0.08695019781589508,1.6264950037002563,0.7143958806991577,3.8242902755737305
0.7802047729492188,-0.39635246992111206,0.4991903305053711,-0.06400995701551437,0.06035365670612037,-1.4710688093289375,1.9349494753395484,-0.9932197332382202,-0.0603170245885849,-0.09938102215528488,1.5349571704864502,0.8523041605949402,4.245898723602295
0.8001680374145508,-0.5893945097923279,0.3647613525390625,-0.015030845999717712,-0.024263864661118652,-1.4540122021557422,1.9747238532138804,-0.9928961396217346,0.024261483922600746,-0.11648455262184143,1.5314841270446777,0.900965690612793,4.579429626464844
0.8201217651367188,-0.8085702657699585,0.24922358989715576,0.0503963977098465,-0.11278600976443695,-1.4315751307848945,2.018875934192097,-0.9840322732925415,0.11254703998565674,-0.13789018988609314,1.7627792358398438,1.0571826696395874,4.733784198760986
0.8400840759277344,-0.968676745891571,0.17028610408306122,0.15053725242614746,-0.20173065603569318,-1.3989960224075335,2.0720437524339976,-0.965298593044281,0.20036518573760986,-0.1674896776676178,2.0432376861572266,1.3060888051986694,4.784927845001221
0.8691377639770508,-0.9220406413078308,-0.09153461456298828,0.32318639755249023,-0.37250504562098485,-1.3048283777537084,2.193154867112479,-0.8986687064170837,0.36394980549812317,-0.24481718242168427,1.5619765520095825,1.6603058576583862,4.794567108154297
0.8888349533081055,-0.8127126097679138,-0.2064686119556427,0.41047635674476624,-0.4566234617799869,-1.248294006627229,2.249974589749485,-0.8512738347053528,0.44092002511024475,-0.2844691872596741,0.9906835556030273,1.6856237649917603,4.781389236450195
0.9085140228271484,-0.6956958770751953,-0.2856352925300598,0.4298323392868042,-0.5411564739283119,-1.1905621158340216,2.3028910401539924,-0.7958966493606567,0.5151275396347046,-0.31810739636421204,0.49681639671325684,1.5378516912460327,4.769265651702881
0.9284529685974121,-0.6489196419715881,-0.3614886999130249,0.41477280855178833,-0.6251992832788413,-1.1329318852014587,2.3553793169494606,-0.7343507409095764,0.5852589011192322,-0.34380412101745605,0.22795891761779785,1.3548641204833984,4.69022274017334
0.940155029296875,-0.6489196419715881,-0.3614886999130249,0.41477280855178833,-0.6251992832788413,-1.1329318852014587,2.3553793169494606,-0.7343507409095764,0.5852589011192322,-0.34380412101745605,0.22795891761779785,1.3548641204833984,4.69022274017334
0.9673519134521484,-0.6198252439498901,-0.4828386902809143,0.403537780046463,-0.7752718661355212,-1.0020078528701228,2.4829926005950314,-0.6017781496047974,0.6999102830886841,-0.38469308614730835,0.5900849103927612,1.0650043487548828,4.194201946258545
0.9883418083190918,-0.5423345565795898,-0.5381736755371094,0.4272501468658447,-0.8322566410546527,-0.9220261483411908,2.5666839101778622,-0.5364313721656799,0.7394524216651917,-0.40675750374794006,0.9238463044166565,0.9059556722640991,3.8125195503234863
1.0080780982971191,-0.49094322323799133,-0.5889753103256226,0.45818716287612915,-0.8738905733744483,-0.8337092500677887,2.6616598839467955,-0.47524335980415344,0.7668318748474121,-0.43140795826911926,1.2185235023498535,0.7571835517883301,3.3933005332946777
1.0196290016174316,-0.49094322323799133,-0.5889753103256226,0.45818716287612915,-0.8738905733744483,-0.8337092500677887,2.6616598839467955,-0.47524335980415344,0.7668318748474121,-0.43140795826911926,1.2185235023498535,0.7571835517883301,3.3933005332946777
1.0502867698669434,-0.44001278281211853,-0.6915723085403442,0.5255249738693237,-0.9127139574090488,-0.6558206964634714,2.857704937525,-0.37296026945114136,0.7911664843559265,-0.48472291231155396,1.4647489786148071,0.5244631171226501,2.4097037315368652
1.06364107131958,-0.40142562985420227,-0.7265332341194153,0.5397616624832153,-0.9128935764221272,-0.5789695392018326,2.9427364610739297,-0.3345668315887451,0.7912763357162476,-0.5118075013160706,1.5377649068832397,0.41715091466903687,1.8402622938156128
1.0849227905273438,-0.36865076422691345,-0.7376654744148254,0.563285231590271,-0.9024964027121347,-0.5185258140155902,3.010872493494612,-0.3071000277996063,0.7848762273788452,-0.538199782371521,1.5268311500549316,0.2518112063407898,1.1854764223098755
1.106353759765625,-0.3783189654350281,-0.7635488510131836,0.6049601435661316,-0.8852325096424389,-0.4796900042807239,3.0560909934631435,-0.2921827435493469,0.7740622162818909,-0.5616556406021118,1.3417755365371704,0.0944279134273529,0.46297118067741394
1.1278400421142578,-0.3723682463169098,-0.7812070846557617,0.6296883821487427,-0.8646015068800548,-0.4651691873310984,3.0754357380696704,-0.2910991609096527,0.7608367204666138,-0.5799903869628906,1.0509140491485596,-0.14243994653224945,-0.2933196425437927
1.1469359397888184,-0.33373549580574036,-0.7762057781219482,0.6109031438827515,-0.8435848007273751,-0.4752623030795154,3.069739475961055,-0.30418872833251953,0.747031033039093,-0.591112494468689,0.631399929523468,-0.45659229159355164,-0.9950582981109619
1.1679530143737793,-0.3834054172039032,-0.7551729679107666,0.577391505241394,-0.8246109959143492,-0.5103813945938822,3.038843670934727,-0.3316214978694916,0.7342837452888489,-0.5923298001289368,0.0286342054605484,-0.721571683883667,-1.759762167930603
1.189478874206543,-0.5420098304748535,-0.7316688895225525,0.6117337942123413,-0.8074092225548668,-0.5687219074514434,2.9801828988125134,-0.372342586517334,0.7224984169006348,-0.582543671131134,-0.6011785864830017,-0.8596945405006409,-2.574756145477295
1.2060229778289795,-0.5213252305984497,-0.6570243835449219,0.6203022599220276,-0.7883329810987324,-0.6485584624634514,2.896767875567212,-0.42586416006088257,0.7091789841651917,-0.5618762373924255,-1.178727149963379,-1.212132215499878,-3.288510322570801
1.2258567810058594,-0.44601479172706604,-0.6007072329521179,0.5254645347595215,-0.7662667571104219,-0.7499618774615314,2.7916613926341265,-0.49110379815101624,0.6934502720832825,-0.5272039175033569,-1.991835355758667,-1.5058914422988892,-3.8617475032806396
1.2489819526672363,-0.5372865200042725,-0.5440200567245483,0.3649962544441223,-0.7395613891981553,-0.8645372378909468,2.6682254314560954,-0.5620482563972473,0.6739639639854431,-0.47945234179496765,-2.612553358078003,-1.5150480270385742,-4.295495510101318
1.2675139904022217,-0.5870614647865295,-0.3935390114784241,0.20873329043388367,-0.7019672015301955,-0.9810759561954119,2.5387128502165495,-0.6346030235290527,0.6457210183143616,-0.4246450662612915,-2.839919090270996,-1.5919913053512573,-4.587353706359863
1.2873449325561523,-0.6492399573326111,-0.2788301706314087,0.12643566727638245,-0.6503243294475805,-1.090688053340373,2.4149350915290193,-0.7059084177017212,0.6054445505142212,-0.3676007091999054,-2.8305065631866455,-1.6011050939559937,-4.784915447235107
1.307157039642334,-0.7208202481269836,-0.19115090370178223,0.1090315580368042,-0.5853721880483328,-1.186296345735439,2.303910904367302,-0.7726490497589111,0.5525096654891968,-0.31264472007751465,-2.6467111110687256,-1.507354736328125,-4.911015033721924
1.3271560668945312,-0.7840650677680969,-0.08239588141441345,0.08509886264801025,-0.5090861550804159,-1.2635488034576021,2.2105701982643664,-0.8322985768318176,0.4873794913291931,-0.2640843987464905,-2.260141372680664,-1.3480161428451538,-4.984164237976074
1.3470568656921387,-0.7908073663711548,0.043534815311431885,0.031133651733398438,-0.4240296430426549,-1.3223264570535784,2.136888510722335,-0.8834481239318848,0.4114365577697754,-0.22414197027683258,-1.7301716804504395,-1.209592342376709,-5.016280174255371
1.3673501014709473,-0.7196037769317627,0.1727597713470459,-0.041805118322372437,-0.3329778893254391,-1.365053332135594,2.0836672120752633,-0.9251410961151123,0.326858788728714,-0.19307328760623932,-1.0263665914535522,-1.0982275009155273,-4.975168228149414
1.386909008026123,-0.5903797745704651,0.2815591096878052,-0.09709013998508453,-0.2394135755874277,-1.395665626755797,2.051021696494199,-0.956617534160614,0.2371329665184021,-0.16926716268062592,-0.3009100556373596,-1.0390897989273071,-4.808193683624268
1.407066822052002,-0.4542597532272339,0.3498307466506958,-0.10717134177684784,-0.14773057830227282,-1.4190875745384441,2.03505253957329,-0.9777471423149109,0.1471938043832779,-0.14948135614395142,0.18887527287006378,-0.9887315630912781,-4.492044448852539
1.42694091796875,-0.3426945209503174,0.4211568236351013,-0.09784591197967529,-0.062144290004207715,-1.4393428743478829,2.0277746050543843,-0.9894589185714722,0.062104299664497375,-0.13082219660282135,0.22586800158023834,-0.9591295719146729,-4.08691930770874
1.4465889930725098,-0.27996301651000977,0.4818272590637207,-0.06335233151912689,0.01475624420512709,-1.4583934279235702,2.0198603091155474,-0.9935812950134277,-0.01475570909678936,-0.11215414851903915,-0.11197568476200104,-0.9216805100440979,-3.647723913192749
1.4667999744415283,-0.262711763381958,0.5630420446395874,-0.0821581482887268,0.08187126203451252,-1.4756280957781753,2.006339746120208,-0.9921406507492065,-0.0817798301577568,-0.09470636397600174,-0.5411131381988525,-0.8466355800628662,-3.1641008853912354
1.4869709014892578,-0.254036545753479,0.6181421279907227,-0.12566936016082764,0.1385588026835918,-1.4892965665264675,1.9856135670473285,-0.9871286749839783,-0.13811586797237396,-0.08062934875488281,-1.035294771194458,-0.7302734851837158,-2.649062156677246
1.505612850189209,-0.23045849800109863,0.6375751495361328,-0.13250625133514404,0.18470516481621999,-1.4973685105875443,1.9550945800434376,-0.9803417921066284,-0.1836567223072052,-0.0721140056848526,-1.6225215196609497,-0.5333701372146606,-2.1805810928344727
1.5256459712982178,-0.15617990493774414,0.6894148588180542,-0.1348111629486084,0.22243352542090863,-1.49831573151092,1.9142865153935313,-0.9728027582168579,-0.2206038385629654,-0.07063305377960205,-2.0849459171295166,-0.360009104013443,-1.8519861698150635
1.5465688705444336,-0.05653190612792969,0.780265748500824,-0.17455726861953735,0.2544693390166403,-1.4934916887180152,1.866567873058885,-0.9649069309234619,-0.25173187255859375,-0.07474072277545929,-2.260734796524048,-0.2812635898590088,-1.6691522598266602
1.5668799877166748,-0.004669487476348877,0.873887300491333,-0.23039484024047852,0.2829676996066469,-1.48663758650911,1.8193389804005327,-0.9568326473236084,-0.2792065441608429,-0.08071648329496384,-1.9925689697265625,-0.270061194896698,-1.5423451662063599
1.583198070526123,-0.02841651439666748,0.9861235022544861,-0.264881432056427,0.30961979823141816,-1.4807235337710865,1.7815513688303632,-0.9485886096954346,-0.30469653010368347,-0.08567384630441666,-1.3559205532073975,-0.2427757829427719,-1.4334146976470947
1.6071648597717285,-0.07104825973510742,1.0683271884918213,-0.29774802923202515,0.33496247958566666,-1.47789438665375,1.7583829945853404,-0.9403501749038696,-0.32873374223709106,-0.08761255443096161,-0.5985351204872131,-0.2082567662000656,-1.2861440181732178
1.626499891281128,-0.11210352182388306,1.1532273292541504,-0.3255155682563782,0.3576087599793411,-1.4791220595707362,1.7512146460803177,-0.9328033328056335,-0.35003527998924255,-0.08575442433357239,0.10873143374919891,-0.1530013233423233,-1.0113422870635986
1.6454188823699951,-0.10777467489242554,1.2197353839874268,-0.3112858533859253,0.37376292388032184,-1.4834629400214725,1.7568535876109328,-0.927412211894989,-0.36512112617492676,-0.08120059221982956,0.5006672143936157,-0.08799826353788376,-0.5221552848815918
1.6661200523376465,-0.06638973951339722,1.2410411834716797,-0.3016210198402405,0.3781806650739796,-1.49116289948851,1.7695039326642616,-0.9263929724693298,-0.3692303001880646,-0.07392818480730057,0.7448437213897705,-0.2463453859090805,0.19264861941337585
1.685959815979004,-0.2884793281555176,1.2891649007797241,-0.371626615524292,0.36762607999793717,-1.503393019488107,1.791255503631311,-0.931064248085022,-0.359401136636734,-0.06285201758146286,1.2441425323486328,-0.07782872021198273,1.021221399307251
1.70576810836792,-0.4697387218475342,1.2219374179840088,-0.3485478162765503,0.3399269113868522,-1.5114509414194652,1.8250685161893698,-0.9411196708679199,-0.33341819047927856,-0.055916767567396164,1.702085018157959,0.428160697221756,1.9649684429168701
1.7262849807739258,-0.24143195152282715,1.0196586847305298,-0.241374671459198,0.29385881456422086,-1.5123307657239053,1.8641461573095979,-0.955498218536377,-0.28964775800704956,-0.05592747777700424,1.6865605115890503,0.6445867419242859,2.836336612701416
1.7459688186645508,-0.0590093731880188,0.8070799112319946,-0.16567349433898926,0.23194460785452076,-1.5086153508759168,1.9002709329896155,-0.9713405966758728,-0.2298704832792282,-0.060476869344711304,1.4288661479949951,0.6505195498466492,3.521898031234741
1.765887975692749,-0.1522730588912964,0.6726318001747131,-0.1457461714744568,0.15833900190715533,-1.501897082969037,1.9327171179917606,-0.9851478338241577,-0.15767820179462433,-0.06798355281352997,1.3253368139266968,0.66044020652771,4.0247483253479
1.7857728004455566,-0.36811256408691406,0.5449347496032715,-0.12234723567962646,0.0765494381002568,-1.4925941592398382,1.9675974864331334,-0.9940244555473328,-0.07647469639778137,-0.07789371907711029,1.5949382781982422,0.6729629039764404,4.376364707946777
1.8056719303131104,-0.6105778217315674,0.44941022992134094,-0.06513064354658127,-0.009147018356923458,-1.4804813967323436,2.0111260927237327,-0.9958827495574951,0.009146890603005886,-0.09018842875957489,2.022077798843384,0.6915031671524048,4.516554355621338
1.8260269165039062,-0.8787485361099243,0.3337174654006958,0.05041498690843582,-0.09509091630008464,-1.461597251524724,2.06281320753297,-0.989552915096283,0.09494767338037491,-0.10848983377218246,2.240295171737671,0.9772749543190002,4.532007694244385
1.84602689743042,-1.020880937576294,0.17588648200035095,0.2146056890487671,-0.18011203088733665,-1.4289756348678897,2.1183984789753025,-0.9739464521408081,0.17913979291915894,-0.13905932009220123,2.112563371658325,1.4089770317077637,4.494717121124268
1.8656578063964844,-0.8752325773239136,0.01055842638015747,0.3328242301940918,-0.2627643937198295,-1.3873614763038915,2.1707180364438523,-0.949474573135376,0.2597510516643524,-0.17614684998989105,1.5579606294631958,1.564996361732483,4.490367412567139
1.8853509426116943,-0.7139097452163696,-0.13768428564071655,0.36824339628219604,-0.34581444033795217,-1.3426957065489982,2.2150930104336504,-0.9164309501647949,0.33896300196647644,-0.212740957736969,0.9345066547393799,1.558373212814331,4.526402473449707
1.9047808647155762,-0.6293941140174866,-0.20076525211334229,0.3673985004425049,-0.4300891348833288,-1.2975151884795442,2.254518678777255,-0.8751989006996155,0.41695183515548706,-0.24531283974647522,0.5707190036773682,1.455606460571289,4.5661301612854
1.923543930053711,-0.5955692529678345,-0.2715098559856415,0.3686186373233795,-0.5142796776918729,-1.2513315319187286,2.2953985832926787,-0.8265957236289978,0.49190783500671387,-0.2734341621398926,0.4925168454647064,1.3060325384140015,4.567626953125
1.9441509246826172,-0.618669331073761,-0.34076082706451416,0.3713761270046234,-0.5959326387923011,-1.2010584507649595,2.343257696338255,-0.7716963291168213,0.5612808465957642,-0.29907989501953125,0.603898823261261,1.2140511274337769,4.502316951751709
1.9653739929199219,-0.5939365029335022,-0.4072614312171936,0.39811351895332336,-0.6719355448375173,-1.1435274751354085,2.401577977855072,-0.7122616171836853,0.6225019693374634,-0.3243066668510437,0.7838336825370789,1.060483455657959,4.334625720977783
1.985145092010498,-0.5550328493118286,-0.47115880250930786,0.4364456236362457,-0.7396639801439101,-1.07898427368244,2.470763488080676,-0.6511439681053162,0.6740397214889526,-0.3488295376300812,0.9313406944274902,0.9165815114974976,4.083691120147705
2.005023956298828,-0.5257408022880554,-0.5335590243339539,0.47303682565689087,-0.797565052264489,-1.0077619153474715,2.5489274934799813,-0.5906381011009216,0.7156575322151184,-0.3728017508983612,1.0103142261505127,0.7593380808830261,3.757748603820801
2.025448799133301,-0.49428290128707886,-0.5946817398071289,0.49746185541152954,-0.8445870178886122,-0.9325547510155757,2.632853595367539,-0.5333203077316284,0.7476969361305237,-0.3956245481967926,1.0665446519851685,0.619970977306366,3.3521673679351807
2.044919967651367,-0.4624570608139038,-0.6391569972038269,0.5051248073577881,-0.8794172509055836,-0.8554042394615664,2.719382257910929,-0.48128384351730347,0.770367443561554,-0.4182106852531433,1.139675498008728,0.5314592123031616,2.903207778930664
2.0647168159484863,-0.39449113607406616,-0.682258129119873,0.524763822555542,-0.9028861427189493,-0.7805153186225181,2.803241206348892,-0.4358006715774536,0.7851176857948303,-0.4400774836540222,1.0962615013122559,0.42195454239845276,2.421368360519409
2.0847067832946777,-0.33508825302124023,-0.7234488129615784,0.5262327194213867,-0.9168680310233154,-0.7140610154467586,2.8784353311907376,-0.39838650822639465,0.7937003374099731,-0.45970430970191956,1.0128861665725708,0.2901073098182678,1.921851396560669
2.105041027069092,-0.3032515347003937,-0.7400703430175781,0.4986909031867981,-0.9234005512431815,-0.6595310888756627,2.940449545376523,-0.3695542812347412,0.7976571321487427,-0.4766266345977783,0.8640149235725403,0.23332925140857697,1.3918203115463257
2.124976873397827,-0.2695612609386444,-0.7415372729301453,0.47815245389938354,-0.9249489282235532,-0.6203858805360454,2.9848162114787504,-0.3498998284339905,0.7985900044441223,-0.4897185266017914,0.6042584776878357,0.12628109753131866,0.839660108089447
2.1438798904418945,-0.2388891875743866,-0.6897624731063843,0.47510015964508057,-0.9246671315430557,-0.600761283446977,3.008229336069454,-0.3403497338294983,0.7984203696250916,-0.4966760575771332,0.23645798861980438,-0.04108748584985733,0.3111249506473541
2.164944887161255,-0.2167646288871765,-0.6406648755073547,0.4311511516571045,-0.9245491055575943,-0.6013591666991225,3.010593031942159,-0.3407000005245209,0.7983493208885193,-0.4965502619743347,-0.20023299753665924,-0.23688414692878723,-0.21188382804393768
2.1847169399261475,-0.3251573443412781,-0.5826575756072998,0.4165571928024292,-0.9260818975654157,-0.6277052225232056,2.9863934164812784,-0.3529433012008667,0.7992714047431946,-0.48641183972358704,-0.7687075734138489,-0.4094056785106659,-0.9182838797569275
2.204576015472412,-0.4176843464374542,-0.4295424222946167,0.43922799825668335,-0.9259663075082664,-0.680577942693913,2.931945604548181,-0.37821412086486816,0.7992019653320312,-0.4671515226364136,-1.2085866928100586,-0.576628565788269,-1.680324912071228
2.2245020866394043,-0.2485596239566803,-0.19999301433563232,0.25760892033576965,-0.9212149572006981,-0.7601318116533197,2.8522372630236053,-0.4167541265487671,0.7963370680809021,-0.4383644461631775,-1.5797210931777954,-1.0294140577316284,-2.2009096145629883
2.244502067565918,-0.18919166922569275,0.062255859375,-0.017399489879608154,-0.9105244641447567,-0.854050111081702,2.762239080084105,-0.462419718503952,0.7898254990577698,-0.4029190242290497,-1.551378607749939,-1.1297959089279175,-2.287665367126465
2.263369083404541,-0.11877024173736572,0.05631566047668457,-0.19628512859344482,-0.8941837570345141,-0.9341372481931515,2.687113221086786,-0.503483235836029,0.7796982526779175,-0.372257262468338,-1.0227974653244019,-1.0288761854171753,-1.8423681259155273
2.2844979763031006,0.023927688598632812,0.0863335132598877,-0.31690430641174316,-0.8784187621455781,-0.9919636482542442,2.638756347763417,-0.5343800783157349,0.7697304487228394,-0.34921807050704956,-0.6482067704200745,-0.9722277522087097,-1.238720178604126
2.305119037628174,0.00869297981262207,0.15469574928283691,-0.259487509727478,-0.8653700124591782,-1.0329035360064827,2.608177085637388,-0.5568040013313293,0.7613351941108704,-0.3321719467639923,-0.29613247513771057,-0.7971876859664917,-0.9661012291908264
2.32464599609375,0.02793300151824951,0.23339134454727173,-0.14265486598014832,-0.8496892137297823,-1.0596962740642375,2.5922907013189205,-0.5758455991744995,0.751075267791748,-0.32293644547462463,0.17030829191207886,-0.6941438913345337,-0.9548383355140686
2.3441948890686035,0.04452681541442871,0.13262897729873657,-0.11323738098144531,-0.8290274284275235,-1.0772197905179057,2.5863601820463207,-0.594957172870636,0.7372746467590332,-0.3200816214084625,0.4456895589828491,-0.6181274652481079,-1.0558223724365234
2.364133834838867,0.1106870174407959,0.01609736680984497,-0.13980033993721008,-0.8057640104288061,-1.0912440811481594,2.5835446615421125,-0.6144407391548157,0.7213599681854248,-0.31953489780426025,0.4140506684780121,-0.585241436958313,-1.081501841545105
2.3839728832244873,0.20549356937408447,-0.04588723182678223,-0.12940457463264465,-0.7843913122852768,-1.1075783115608246,2.576887185557977,-0.6332279443740845,0.7063944935798645,-0.3162740170955658,0.1221930980682373,-0.5634339451789856,-1.0227288007736206
2.403963088989258,0.26107704639434814,-0.09300339221954346,-0.07108169794082642,-0.7675831798444022,-1.127356429581484,2.5639413577255885,-0.6499931216239929,0.6943981647491455,-0.3087400197982788,-0.2213255614042282,-0.510574460029602,-0.8998215198516846
2.4239020347595215,0.27661561965942383,-0.13256186246871948,-0.029767632484436035,-0.7553249144025076,-1.1510374459246542,2.5436946631597106,-0.6648450493812561,0.6855252385139465,-0.2967092990875244,-0.5904048085212708,-0.4517548978328705,-0.8339366316795349
2.442673921585083,0.2692074775695801,-0.15816205739974976,0.0006195902824401855,-0.7458878224776655,-1.1778042154827382,2.5164549510970513,-0.6784940361976624,0.678624153137207,-0.2812744081020355,-0.8289151191711426,-0.36946481466293335,-0.8339145183563232
2.4638168811798096,0.2805895209312439,-0.16244852542877197,0.061875492334365845,-0.736680429784368,-1.2053821277522665,2.4858370935793475,-0.691798746585846,0.671832799911499,-0.26467999815940857,-0.9241114258766174,-0.3259480595588684,-0.8640963435173035
2.4862489700317383,0.3168331980705261,-0.20303797721862793,0.08574360609054565,-0.7263678505112133,-1.2334069442657856,2.4537202325107352,-0.7054440975189209,0.6641586422920227,-0.247471421957016,-0.9583050012588501,-0.3505670428276062,-0.9242359399795532
2.50032377243042,0.39888304471969604,-0.2471776008605957,0.07959748804569244,-0.7148482532463768,-1.262589978319167,2.4217546607906932,-0.7196075916290283,0.6555028557777405,-0.22908775508403778,-0.9503968954086304,-0.4861990809440613,-0.9273057579994202
2.5227739810943604,0.46396517753601074,-0.3036835789680481,0.09704047441482544,-0.7029715614829753,-1.2934565554444826,2.391996548102734,-0.7337711453437805,0.6464875936508179,-0.2088872790336609,-0.86934494972229,-0.631972074508667,-0.8673380017280579
2.5399670600891113,0.43219178915023804,-0.3261449933052063,0.1349249631166458,-0.6904578724033779,-1.3225265054587358,2.366877391614726,-0.7473163604736328,0.6368902325630188,-0.18944451212882996,-0.642866849899292,-0.6415460109710693,-0.8428623080253601
2.5596659183502197,0.35272401571273804,-0.273571252822876,0.13730649650096893,-0.6759287789066175,-1.3460993871699607,2.3487345185309323,-0.7605153918266296,0.6256221532821655,-0.17382070422172546,-0.4138519763946533,-0.5857645869255066,-0.9098838567733765
2.579958915710449,0.3443814516067505,-0.2550288438796997,0.1411309689283371,-0.6592730123357703,-1.367887124948352,2.3336297855176644,-0.7742217183113098,0.6125423908233643,-0.15928882360458374,-0.4348990023136139,-0.68233722448349,-0.9854757189750671
2.5999629497528076,0.2511919140815735,-0.3287540674209595,0.15675590932369232,-0.640769437059483,-1.3928149374155445,2.316572560818862,-0.7889728546142578,0.5978124141693115,-0.14192426204681396,-0.5390589237213135,-0.7433326244354248,-1.0926616191864014
2.61995792388916,0.04991382360458374,-0.3493849039077759,0.2367229461669922,-0.6203857760234396,-1.4171104857956982,2.2985610836911197,-0.8040643334388733,0.5813490748405457,-0.12455549091100693,-0.5343140959739685,-0.6282868385314941,-1.1665453910827637
2.6422557830810547,-0.06806623935699463,-0.26065534353256226,0.21341091394424438,-0.5971538939105789,-1.436484160257329,2.283887135135002,-0.8194918632507324,0.5622912049293518,-0.11073440313339233,-0.28062736988067627,-0.4596521556377411,-1.3340604305267334
2.660033941268921,-0.08717066049575806,-0.15947234630584717,0.1785385012626648,-0.5692907013480311,-1.448139274603561,2.277661043938981,-0.8359556794166565,0.5390347242355347,-0.10305318236351013,0.10803615301847458,-0.382260262966156,-1.4922115802764893
2.6813249588012695,-0.10963785648345947,-0.13513892889022827,0.11039626598358154,-0.5387916832666557,-1.4542348107794436,2.279703247561936,-0.8525052070617676,0.5130992531776428,-0.0998217836022377,0.41178518533706665,-0.34184688329696655,-1.478338360786438
2.7000739574432373,-0.06545162200927734,-0.20303896069526672,0.16469025611877441,-0.5101955038904714,-1.4569266709291508,2.2867600034467017,-0.8669978380203247,0.4883478581905365,-0.09915366768836975,0.4816047251224518,-0.26744720339775085,-1.290431022644043
2.7200748920440674,0.023672103881835938,-0.23036369681358337,0.2653707265853882,-0.4852706489814636,-1.4581492045833724,2.2935684305107262,-0.878942608833313,0.46644777059555054,-0.09943129122257233,0.3944861590862274,-0.21206100285053253,-1.1530145406723022
2.7404417991638184,0.07307416200637817,-0.067131906747818,0.2572178244590759,-0.4622827171162686,-1.4600803562243934,2.300061954900868,-0.8895567059516907,0.4459923803806305,-0.09889253973960876,0.4346807897090912,-0.3105994760990143,-1.0491410493850708
2.762241840362549,0.15984350442886353,-0.13195639848709106,0.21305584907531738,-0.4431481708027276,-1.4646643666495265,2.3050982883902953,-0.8983232378959656,0.42878565192222595,-0.09570039808750153,0.17730404436588287,-0.31801849603652954,-0.7927443981170654
2.782866954803467,0.20675545930862427,-0.23448190093040466,0.1705411672592163,-0.4309396680380923,-1.4694785892658586,2.3053237404182565,-0.9039143919944763,0.41772475838661194,-0.09189722687005997,0.017979659140110016,-0.13376423716545105,-0.42002660036087036
2.802663803100586,0.14665484428405762,-0.10804963111877441,0.07270639389753342,-0.42487096322421797,-1.469653511486062,2.3066583372281864,-0.9064359068870544,0.41220322251319885,-0.09199339151382446,0.1846921294927597,0.036216091364622116,-0.20481625199317932
2.822761058807373,-0.01839911937713623,-0.020386546850204468,0.09547633677721024,-0.4202517541942786,-1.4671213187663577,2.3097924049078364,-0.9080840945243835,0.40799030661582947,-0.09448438882827759,0.09091302752494812,0.06321752816438675,-0.2513010501861572
2.842538833618164,-0.16651159524917603,-0.092134028673172,0.1503918319940567,-0.4144938406821968,-1.466985395756311,2.3079065229679028,-0.910392701625824,0.4027266800403595,-0.09484968334436417,-0.20545154809951782,0.032564274966716766,-0.31024131178855896
2.8625049591064453,-0.1103135347366333,-0.11049771308898926,0.12280983477830887,-0.4100885186251222,-1.4682666838275082,2.300222969505804,-0.9122695326805115,0.39869052171707153,-0.09386380761861801,-0.4174443185329437,0.17087003588676453,-0.1822422295808792
2.8824379444122314,-0.07233428955078125,0.012447148561477661,0.04691968858242035,-0.40936803541120376,-1.4667025199971644,2.2916056327014527,-0.9124071598052979,0.3980296552181244,-0.09532047063112259,-0.3251115679740906,0.3091185390949249,0.017779838293790817
2.9023680686950684,-0.22550612688064575,0.05771058797836304,0.05933348834514618,-0.4112585786229246,-1.4629076253014108,2.2861477328702304,-0.9112891554832458,0.399763286113739,-0.09870105981826782,-0.20126508176326752,0.2612960934638977,0.10610835254192352
2.921395778656006,-0.4191012382507324,0.02488836646080017,0.1138123869895935,-0.4138741628676398,-1.4613530461355322,2.2823231593696613,-0.9100919961929321,0.4021593928337097,-0.10000304877758026,-0.2128741294145584,0.0329878069460392,0.11240662634372711
2.9421310424804688,-0.44461119174957275,0.007483005523681641,0.14047962427139282,-0.4168038992046687,-1.4654294403790835,2.2765457615474176,-0.9093165397644043,0.40484005212783813,-0.09616800397634506,-0.33329376578330994,-0.19503897428512573,0.1428927332162857
2.9621777534484863,-0.31787484884262085,-0.03409507870674133,0.0602918341755867,-0.42067633008725414,-1.4729124050792657,2.271033042357697,-0.9084435105323792,0.40837791562080383,-0.08920709788799286,-0.09942205250263214,-0.3048013150691986,0.1805415153503418
2.98223876953125,-0.33007651567459106,-0.04992985725402832,-0.03605729341506958,-0.4234320906845736,-1.4763948061942458,2.278243418138495,-0.9076250195503235,0.4108918607234955,-0.08593661338090897,0.7844697833061218,-0.324251264333725,0.15113574266433716
3.0011069774627686,-0.4063493609428406,-0.049496740102767944,0.00031751394271850586,-0.423241502103521,-1.4719328071646172,2.3049794951122617,-0.907310426235199,0.41071808338165283,-0.08999329060316086,1.570326805114746,-0.3301922678947449,0.0500354990363121
3.021955966949463,-0.46563929319381714,-0.07972210645675659,0.06190693378448486,-0.4191259093698587,-1.4642173043875455,2.3419024796414925,-0.9082621932029724,0.40696218609809875,-0.097169890999794,1.740561842918396,-0.4233388900756836,-0.11720291525125504
3.0410308837890625,-0.49051177501678467,-0.13685005903244019,0.06044621020555496,-0.41160354181825365,-1.4602462256865567,2.3769563437811447,-0.9108859896659851,0.4000794589519501,-0.1011107787489891,1.5417150259017944,-0.5943330526351929,-0.28503772616386414
3.0620079040527344,-0.5417391061782837,-0.12216523289680481,-0.03108280897140503,-0.40126446480787886,-1.4610800217591067,2.409024725401503,-0.9150328636169434,0.3905826807022095,-0.10079881548881531,1.546539545059204,-0.756653904914856,-0.40453070402145386
3.0808868408203125,-0.6004012823104858,-0.1188277006149292,-0.04522591829299927,-0.38929839539933153,-1.4628046165241217,2.442851415234913,-0.9197862148284912,0.3795394003391266,-0.09971722960472107,1.7305934429168701,-0.670245885848999,-0.4339245855808258
3.101813793182373,-0.6305397152900696,-0.13382083177566528,0.0526394248008728,-0.3771498896042968,-1.4590462281649923,2.481766724658585,-0.9239190220832825,0.36827215552330017,-0.10367999225854874,1.9279963970184326,-0.4314001798629761,-0.36335211992263794
3.1217727661132812,-0.5907213687896729,-0.04483601450920105,0.028653204441070557,-0.3656754843275547,-1.4528191547802065,2.5194766691386126,-0.9273909330368042,0.35758018493652344,-0.1099214181303978,1.7247081995010376,-0.31305748224258423,-0.42249584197998047
3.141903877258301,-0.5627895593643188,-0.0345740020275116,-0.031104378402233124,-0.3522375489544297,-1.4474590902516427,2.553132096160269,-0.9314731955528259,0.344998836517334,-0.11547144502401352,1.5157113075256348,-0.3487396538257599,-0.48757001757621765
3.1611580848693848,-0.5492715835571289,-0.11843651533126831,-0.025912567973136902,-0.33921427769308915,-1.4449695296338032,2.5791428369600915,-0.9355611801147461,0.3327462375164032,-0.11834388226270676,1.1084585189819336,-0.26266735792160034,-0.49804919958114624
3.181595802307129,-0.5238440036773682,-0.015258103609085083,-0.04032494127750397,-0.3266224989429296,-1.4436763413331986,2.599225545919594,-0.9394893646240234,0.32084593176841736,-0.12007535248994827,0.964898407459259,-0.25468623638153076,-0.516539454460144
3.200498104095459,-0.4838051199913025,-0.01057925820350647,-0.04347866773605347,-0.3181823635946669,-1.4405645130433746,2.6125926218703883,-0.9417626261711121,0.31284067034721375,-0.12334556877613068,0.03404049202799797,0.19714133441448212,-0.148964524269104
3.221611976623535,-0.4449702501296997,0.31968259811401367,-0.3251103162765503,-0.31174630530644293,-1.4406288607043791,2.6119491262394767,-0.9437475204467773,0.3067212402820587,-0.12354376912117004,-0.05574144795536995,-0.16081762313842773,-0.2531699240207672
3.2412939071655273,-0.39197051525115967,0.01786881685256958,-0.04033302515745163,-0.3082480557341711,-1.4468266663473521,2.599369284947458,-0.9455539584159851,0.3033897280693054,-0.11782421916723251,-0.7626566290855408,-0.108599953353405,-0.3079831302165985
3.2613589763641357,-0.466699481010437,0.2105608582496643,-0.023340687155723572,-0.3044508965176949,-1.4536203346325727,2.587094042199357,-0.9474698305130005,0.2997693717479706,-0.11153163760900497,-0.5097707509994507,-0.037393324077129364,-0.01735399290919304
3.2802720069885254,-0.5353325009346008,0.2940939962863922,-0.021044611930847168,-0.31012716265952855,-1.4563686227142132,2.5779325439617087,-0.9460671544075012,0.30517974495887756,-0.10873126983642578,-0.30424702167510986,0.030924035236239433,0.5729851722717285
3.3012728691101074,-0.4502255320549011,0.5295279026031494,-0.014619939029216766,-0.3301996120482413,-1.4583440541107642,2.572069328637587,-0.9400027990341187,0.3242318630218506,-0.10615328699350357,-0.6368765830993652,-0.0435689277946949,1.357724666595459
3.321115016937256,-0.43002772331237793,0.4597777724266052,0.12583965063095093,-0.36455865452875896,-1.4659313952119022,2.5587128547409455,-0.9291490316390991,0.35653698444366455,-0.09779387712478638,-0.8781893849372864,-0.2678554654121399,1.8876302242279053
3.3410048484802246,-0.42319750785827637,0.4417083263397217,0.17383801937103271,-0.4075545964720554,-1.4789135586947029,2.5443072973144396,-0.9142201542854309,0.3963654041290283,-0.08423826843500137,-0.8919649124145508,-0.47995245456695557,2.2649121284484863
3.3610730171203613,-0.4110126495361328,0.30712777376174927,0.19204950332641602,-0.45703051517132653,-1.496793095822006,2.5289229295228806,-0.8949108719825745,0.4412853419780731,-0.06634745746850967,-0.8723874092102051,-0.6531957983970642,2.537640333175659
3.381226062774658,-0.3570384383201599,0.2652893662452698,0.21105200052261353,-0.5096121663924823,-1.5164508687908944,2.51694951163396,-0.8716450929641724,0.4878387451171875,-0.04741664230823517,-0.519487738609314,-0.7382075190544128,2.639775276184082
3.4010090827941895,-0.2703397274017334,0.19665837287902832,0.18158960342407227,-0.5630461529141996,-1.5360786125153465,2.5094547998818424,-0.8451235890388489,0.5337646007537842,-0.029352553188800812,-0.3793463706970215,-0.8471263647079468,2.661618232727051
3.420897960662842,-0.1634489893913269,0.06450140476226807,0.1463800072669983,-0.6155658561397558,-1.5552621111508593,2.5066599278394586,-0.8163483738899231,0.5774205923080444,-0.012682352215051651,0.07889804244041443,-0.912572979927063,2.5995802879333496
3.440619945526123,-0.04678952693939209,0.028860509395599365,0.10589993000030518,-0.6665718762012973,-1.5683452388932884,2.5155852381376307,-0.7859436869621277,0.6182953119277954,-0.0019264209549874067,0.5305249691009521,-0.9329432845115662,2.515562057495117
3.460998058319092,0.08277702331542969,-0.12107998132705688,0.019236445426940918,-0.7149305717180543,-1.576864981395649,2.5320717640873913,-0.7551252245903015,0.6555649638175964,0.004582650493830442,0.7602726221084595,-0.9735609889030457,2.3054299354553223
3.480607032775879,0.18462973833084106,-0.25247323513031006,-0.005313515663146973,-0.75802170329795,-1.5804038646851857,2.555108658085081,-0.7261642813682556,0.6874861717224121,0.0069768656976521015,0.9707741141319275,-0.9226216673851013,1.9870325326919556
3.500537872314453,0.2606833577156067,-0.34962838888168335,0.030414700508117676,-0.7940304277966588,-1.5775824863607295,2.583843788604544,-0.7009604573249817,0.7131842970848083,0.004756902810186148,1.1230955123901367,-0.8175703287124634,1.5945682525634766
3.5213398933410645,0.30453193187713623,-0.43669211864471436,0.07027530670166016,-0.8203062098756223,-1.5657050522620122,2.6219510229692555,-0.6819887161254883,0.7313547134399414,-0.0034722217824310064,1.550623893737793,-0.7578281164169312,1.053297996520996
3.540531873703003,0.3647690415382385,-0.580477237701416,0.08375334739685059,-0.836673541615203,-1.5460618931562118,2.669473785362945,-0.6697311997413635,0.7424187064170837,-0.016568800434470177,1.5018413066864014,-0.7891058325767517,0.6564851403236389
3.560015916824341,0.40540754795074463,-0.7571999430656433,0.0813409686088562,-0.8448351043702469,-1.5320853226607358,2.7106744062488133,-0.6633574962615967,0.7478616833686829,-0.02569206990301609,1.3667911291122437,-0.8663477301597595,0.21733637154102325
3.5819830894470215,0.3967534899711609,-0.6199885606765747,0.034992754459381104,-0.8429917036354025,-1.5145173929841256,2.7577625347301016,-0.6641791462898254,0.7466366291046143,-0.03741880878806114,1.7445528507232666,-0.9183018207550049,-0.21771784126758575
3.60007381439209,0.418645977973938,-0.7109683156013489,0.014958206564188004,-0.8340777723694228,-1.5001899400666139,2.8027183132139237,-0.6701871752738953,0.7406772375106812,-0.04739828407764435,1.2783176898956299,-0.9361391663551331,-0.4568190276622772
3.6217849254608154,0.3571929931640625,-0.6675487160682678,0.033198244869709015,-0.8205392891968157,-1.4959198125586175,2.832095034979017,-0.6799163818359375,0.7315136194229126,-0.05100512504577637,0.9417070746421814,-0.7638276815414429,-0.7573736310005188
3.6401479244232178,0.29291003942489624,-0.4609376788139343,-0.09462381154298782,-0.8002052893453667,-1.4914634570835654,2.857919698630841,-0.6943688988685608,0.7174990773200989,-0.05520213395357132,1.0453016757965088,-0.6469079852104187,-1.1427544355392456
3.660132884979248,0.25340795516967773,-0.3618592619895935,-0.1694750189781189,-0.7728070598339778,-1.4838109069637537,2.886894785008152,-0.7132468819618225,0.698147714138031,-0.06219903379678726,1.202369213104248,-0.6675364971160889,-1.420162558555603
3.6803650856018066,0.2180095911026001,-0.2936250567436218,-0.12337755411863327,-0.7399768565784635,-1.479666809562398,2.9147643846964635,-0.7354198694229126,0.6742708086967468,-0.06720459461212158,1.0550261735916138,-0.857369065284729,-1.6501988172531128
3.70003080368042,0.10938817262649536,-0.23120427131652832,-0.10485982149839401,-0.7044123088430433,-1.4880011373220827,2.931926778325675,-0.7593820691108704,0.6475861072540283,-0.06301724165678024,0.5203951597213745,-1.119265079498291,-1.7923508882522583
3.720210075378418,-0.01666933298110962,-0.1433655023574829,-0.055225253105163574,-0.6673293972574874,-1.5111664863019305,2.9345480423028762,-0.7840814590454102,0.6188905239105225,-0.04681014642119408,0.02844376489520073,-1.3444949388504028,-1.8586628437042236
3.740196943283081,-0.26065707206726074,0.004509150981903076,-0.07940441370010376,-0.6313093106988891,-1.5390139246448222,2.933259403692894,-0.8068479299545288,0.5902022123336792,-0.0256522037088871,0.13423480093479156,-1.3479825258255005,-1.7181639671325684
3.7600698471069336,-0.5204607844352722,0.3348225951194763,-0.3172069787979126,-0.6007519184338069,-1.5597805822029047,2.940233702455691,-0.8248609900474548,0.5652629137039185,-0.009086825884878635,0.46046626567840576,-1.117780327796936,-1.2725657224655151
3.78004789352417,-0.6508802771568298,0.5348321199417114,-0.3865070343017578,-0.5816783361086021,-1.573209392668563,2.94967437557283,-0.8355396389961243,0.5494270324707031,0.0020162160508334637,0.25507840514183044,-0.7202689051628113,-0.6151829957962036
3.800014019012451,-0.6751888394355774,0.5076851844787598,-0.2224053144454956,-0.5752289682063785,-1.5817907505698667,2.9519357362748853,-0.8390172123908997,0.5440269112586975,0.00922488234937191,-0.027383921667933464,-0.2666870653629303,-0.05102934315800667
3.8199899196624756,-0.589847981929779,0.3498116135597229,-0.11232912540435791,-0.5782398351571538,-1.5865692522891661,2.948656226168782,-0.8373220562934875,0.5465507507324219,0.013208113610744476,-0.30112335085868835,-0.028350472450256348,0.40230703353881836
3.840017795562744,-0.5558086037635803,0.15656256675720215,-0.08591914176940918,-0.5882719279194853,-1.5941993212998258,2.934193505091861,-0.8316732048988342,0.5549242496490479,0.019467197358608246,-0.7498728632926941,0.08389093726873398,0.573424756526947
3.860015869140625,-0.6051557660102844,0.1993209719657898,-0.1157846450805664,-0.5991663380943983,-1.59899796178648,2.9215486278147265,-0.8254778385162354,0.56395423412323,0.02328599989414215,-0.20705504715442657,0.15292894840240479,0.5711356401443481
3.8800158500671387,-0.6337289810180664,0.3034909963607788,-0.03196072578430176,-0.6107629969938919,-1.593514492265114,2.9220136529228227,-0.8189993500709534,0.573492705821991,0.018609365448355675,0.2054058015346527,0.3949902355670929,0.5724931955337524
3.9000179767608643,-0.6257879137992859,0.3208507299423218,0.01702141761779785,-0.621050502858031,-1.5813126438152028,2.929590270164906,-0.8132228255271912,0.581889808177948,0.008552423678338528,0.14266663789749146,0.4249184727668762,0.6802328824996948
3.9200148582458496,-0.5773849487304688,0.13775569200515747,-0.005572558380663395,-0.6364329594160236,-1.5793384655498934,2.9179428791400723,-0.8041915893554688,0.5943305492401123,0.0068696835078299046,-1.0328537225723267,0.4334776997566223,0.8982905745506287
3.9400148391723633,-0.560135006904602,0.27760499715805054,0.028541920706629753,-0.6558087663041877,-1.59308285220262,2.879715808388192,-0.7923582792282104,0.6098004579544067,0.017661837860941887,-1.923064112663269,0.5365949273109436,1.0952160358428955
3.9600157737731934,-0.5252879858016968,0.31127381324768066,-0.05232346057891846,-0.6764880924701608,-1.6086908952016894,2.8340161216126902,-0.7792165279388428,0.6260583996772766,0.029542215168476105,-1.3938137292861938,0.7296320199966431,1.077928066253662
3.9800169467926025,-0.3872905969619751,0.43291646242141724,-0.1629706621170044,-0.6962938265477352,-1.608801133166752,2.8116421519296844,-0.7666706442832947,0.64137864112854,0.029151204973459244,-0.3249150812625885,0.6688209772109985,0.9719163179397583
4.0000159740448,-0.2678033113479614,0.19978481531143188,-0.16678965091705322,-0.7152297531679657,-1.5982824734262362,2.808360679470356,-0.7546578049659729,0.6557908654212952,0.02074786089360714,-0.01542092114686966,0.6325274109840393,0.9426214098930359
4.020125865936279,-0.21112960577011108,0.011216700077056885,-0.10609352588653564,-0.7335469445922471,-1.5865313569513744,2.80507294451856,-0.742712676525116,0.6695085167884827,0.011687571182847023,-0.15325872600078583,0.7886099219322205,0.8742288947105408
4.040150880813599,-0.170579195022583,0.027526259422302246,-0.0719141960144043,-0.7488362381347747,-1.5712541804406976,2.8016416964095594,-0.7324817776679993,0.6807867884635925,0.00033536949194967747,-0.04532656818628311,0.9453633427619934,0.6172556281089783
4.060110092163086,-0.13177800178527832,-0.05667024850845337,-0.0527416430413723,-0.7566956081019264,-1.5513726192752906,2.801976337354374,-0.7269713878631592,0.6865225434303284,-0.014122256077826023,0.01966222934424877,1.0258933305740356,0.15591664612293243
4.08002495765686,-0.11041754484176636,-0.22733056545257568,-0.0022715292870998383,-0.7549844665170385,-1.5324845515342613,2.7996549656910243,-0.7277477979660034,0.6852773427963257,-0.02789495885372162,-0.2084251195192337,1.0281338691711426,-0.3444310426712036
4.1000590324401855,-0.09837156534194946,-0.3279711604118347,0.06841760873794556,-0.74336889994763,-1.5188774973734085,2.7890458609298947,-0.7352009415626526,0.676771879196167,-0.0382051058113575,-0.5256931781768799,1.0496360063552856,-0.8357064723968506
4.120144844055176,-0.04491281509399414,-0.37305521965026855,0.11518007516860962,-0.7236006358397936,-1.5113197870189938,2.768153257142629,-0.7481018304824829,0.6620873808860779,-0.044547051191329956,-0.8892767429351807,1.1182187795639038,-1.2295314073562622
4.140069007873535,-0.05931013822555542,-0.3438154458999634,0.10536366701126099,-0.6957948215486635,-1.504425831571508,2.7434303073560575,-0.7658547163009644,0.6409956812858582,-0.05090492591261864,-0.6750997304916382,1.1831986904144287,-1.6789053678512573
4.1600189208984375,-0.030965745449066162,-0.29820549488067627,0.11044467240571976,-0.6587446157699569,-1.4879571748221547,2.732493668236673,-0.7880497574806213,0.6121246218681335,-0.06543111056089401,0.0662318766117096,1.1519540548324585,-2.039184808731079
4.180018901824951,0.09307116270065308,-0.34470856189727783,0.20899289846420288,-0.6165939400845322,-1.467098580402712,2.7302042163983593,-0.8114703297615051,0.5782597064971924,-0.08445056527853012,-0.02668529562652111,1.0521130561828613,-2.1732048988342285
4.200060844421387,0.21152544021606445,-0.3813679814338684,0.27134549617767334,-0.5732295934368836,-1.4562552039938703,2.714837572563463,-0.8346487283706665,0.5423482060432434,-0.09602189809083939,-0.8265092372894287,0.9093711972236633,-2.300478219985962
4.220015048980713,0.2757430672645569,-0.30138593912124634,0.31984955072402954,-0.5297877801492977,-1.4611081288203067,2.6751014744098276,-0.8577286601066589,0.5053502321243286,-0.0944618508219719,-2.094836711883545,0.6767498254776001,-2.414823055267334
4.240015029907227,0.37050455808639526,-0.30088725686073303,0.3759416341781616,-0.4857162789697474,-1.482499457208799,2.6101807064687668,-0.8808959126472473,0.4668419063091278,-0.07798311859369278,-3.016052722930908,0.32059445977211,-2.533522605895996
4.260103940963745,0.40595728158950806,-0.24348410964012146,0.35613834857940674,-0.43889752881001687,-1.5139785543844775,2.535110300638593,-0.9037601947784424,0.424941748380661,-0.05140497162938118,-3.2828614711761475,-0.05733756348490715,-2.6475253105163574
4.280023097991943,0.2590065002441406,-0.1352916657924652,0.23336869478225708,-0.3873857098412538,-1.5447872961408826,2.4633708399422165,-0.9255868196487427,0.3777691423892975,-0.02407904528081417,-3.0032336711883545,-0.14891435205936432,-2.790092706680298
4.300024032592773,0.22114980220794678,-0.00500217080116272,0.1275167465209961,-0.3311024724680774,-1.5689419423825872,2.4037328402285576,-0.945682942867279,0.3250858187675476,-0.0017536617815494537,-2.5238258838653564,-0.13609983026981354,-2.9243404865264893
4.320016860961914,0.1661502718925476,0.04775252938270569,0.04347550868988037,-0.2715199507814102,-1.584842789358662,2.3556325562002223,-0.9632695317268372,0.2681960165500641,0.013531419448554516,-2.1360251903533936,-0.026290161535143852,-3.008495807647705
4.3400208950042725,0.1304410696029663,0.12516362965106964,-0.03215503692626953,-0.21060302028681677,-1.5940995402822526,2.3156152066432956,-0.9776396155357361,0.20904962718486786,0.022786268964409828,-1.9312642812728882,0.0634167268872261,-3.0004148483276367
4.360054016113281,0.0832909345626831,0.17707717418670654,-0.02402484603226185,-0.15056317855962711,-1.5985877729582803,2.2772772553219487,-0.9883050322532654,0.14999496936798096,0.02747349999845028,-2.0242302417755127,0.18675677478313446,-2.9051947593688965
4.380014896392822,0.11879819631576538,0.1751781851053238,0.052373528480529785,-0.09335948950712955,-1.5985032161437973,2.2374001363331133,-0.9952631592750549,0.0932239294052124,0.02758270502090454,-2.071913242340088,0.3198223412036896,-2.697629451751709
4.400024890899658,0.13902175426483154,0.2580929398536682,0.06315779685974121,-0.04114353746068035,-1.5926350286659927,2.1994670557664415,-0.9989156723022461,0.04113193228840828,0.0218184906989336,-1.816167950630188,0.5200713276863098,-2.4262068271636963
4.4200499057769775,0.1806740164756775,0.36082085967063904,0.019336462020874023,0.0046807323653618735,-1.5813217935520534,2.1669661469096066,-0.999933660030365,-0.004680715501308441,0.010525157675147057,-1.5729953050613403,0.6726168394088745,-2.097172260284424
4.440022945404053,0.2403697371482849,0.37280306220054626,0.00485944701358676,0.04292122287465294,-1.5659477884072797,2.132739552786739,-0.999067485332489,-0.04290804639458656,-0.0048440550453960896,-1.9972565174102783,0.7857662439346313,-1.7296634912490845
4.460018873214722,0.2941010594367981,0.30577126145362854,0.06622058153152466,0.07313993127459824,-1.5463170427500033,2.0814765691578074,-0.9970279335975647,-0.07307473570108414,-0.024411406368017197,-3.1611781120300293,0.8654882311820984,-1.3873708248138428
4.480017900466919,0.37202125787734985,0.2737879157066345,0.12832778692245483,0.09617121843111975,-1.5227181567728276,2.0053213138854855,-0.9942290186882019,-0.09602303802967072,-0.047837574034929276,-4.256440162658691,0.8217491507530212,-1.212219476699829
4.500014781951904,0.3692898154258728,0.3743015229701996,0.15523314476013184,0.11398913633778136,-1.4974807912057273,1.9149978596111545,-0.9908413887023926,-0.11374244093894958,-0.0727745071053505,-4.502030372619629,0.7571499347686768,-1.11453115940094
4.520030975341797,0.3012128472328186,0.4835573434829712,0.15461289882659912,0.12847223481904985,-1.4718950325614262,1.8272887190901013,-0.9869123697280884,-0.1281191110610962,-0.09792640805244446,-3.9761393070220947,0.7114640474319458,-1.0719245672225952
4.540015935897827,0.2794799208641052,0.5720077157020569,0.0955311506986618,0.14257387974755206,-1.4494474645463673,1.7549744662956823,-0.9825747013092041,-0.14209134876728058,-0.11982305347919464,-2.976480484008789,0.5539126992225647,-1.0826162099838257
4.560015916824341,0.18605953454971313,0.6442117691040039,0.06437663733959198,0.15825346440320084,-1.4315428619970236,1.703449963659641,-0.9779451489448547,-0.1575937420129776,-0.13706938922405243,-1.8976373672485352,0.4564817249774933,-1.1329736709594727
4.579978942871094,0.19524133205413818,0.673802375793457,0.07777033746242523,0.17656472498134707,-1.4187043354195883,1.6717885245881787,-0.9730888605117798,-0.1756487488746643,-0.14915084838867188,-0.9710007309913635,0.2935415506362915,-1.1259737014770508
4.600052833557129,0.1953604817390442,0.6928259134292603,0.08510340750217438,0.1963744707850592,-1.4116484851048552,1.6560090294810192,-0.9683860540390015,-0.19511477649211884,-0.15543103218078613,-0.30167749524116516,0.13838738203048706,-1.0733016729354858
4.620014905929565,0.1230650544166565,0.7459716796875,0.07841821014881134,0.21593822811281652,-1.409219855278766,1.6513517014028776,-0.9640532732009888,-0.21426396071910858,-0.1571381837129593,0.14477933943271637,0.016085168346762657,-0.9219725728034973
4.6400227546691895,0.037020087242126465,0.8701903820037842,0.05451703071594238,0.2320231117641504,-1.410692619593043,1.655181247775125,-0.960756778717041,-0.22994689643383026,-0.15514864027500153,0.4434552490711212,-0.0892721489071846,-0.5728670358657837
4.66005277633667,-0.03892773389816284,0.9429934620857239,0.07843805849552155,0.23946500542430038,-1.4161181676067383,1.6626828829823108,-0.9598668813705444,-0.23718293011188507,-0.1496659517288208,0.3227035403251648,-0.3058036267757416,-0.03372955694794655
4.680023908615112,-0.22908097505569458,0.9654470682144165,0.060479164123535156,0.23404210305395842,-1.4256494881570094,1.666302348590311,-0.962508499622345,-0.2319113165140152,-0.1406944841146469,-0.06983516365289688,-0.5497323870658875,0.6431153416633606
4.700023889541626,-0.4849749803543091,1.0135486125946045,0.008970752358436584,0.21329765739504822,-1.436800252822645,1.664646584354816,-0.9685772657394409,-0.2116839736700058,-0.13056793808937073,-0.3241066634654999,-0.5660125017166138,1.393566370010376
4.720056056976318,-0.4520781636238098,0.9716486930847168,-0.011504948139190674,0.176652323546384,-1.4479131969777634,1.6628858745309245,-0.9770143628120422,-0.1757349818944931,-0.12066656351089478,-0.2883603274822235,-0.6254755854606628,2.2376627922058105
4.74001407623291,-0.18662488460540771,0.7899068593978882,-0.03717309236526489,0.12324169573220366,-1.4631325798079193,1.6645904161378045,-0.9866693615913391,-0.12292995303869247,-0.10664087533950806,-0.15114037692546844,-0.8966677188873291,3.0918591022491455
4.760014057159424,-0.08837747573852539,0.6923684477806091,-0.11573535203933716,0.05454757346825111,-1.4845143978521058,1.6714319898946144,-0.9947983026504517,-0.05452052876353264,-0.0860467478632927,0.24498209357261658,-1.1907997131347656,3.7800257205963135
4.780035972595215,-0.19985181093215942,0.6346673965454102,-0.21123695373535156,-0.024545268187957384,-1.5103261187024453,1.6900475284039544,-0.9978717565536499,0.024542802944779396,-0.06041516736149788,1.1075854301452637,-1.3524565696716309,4.224051475524902
4.800015926361084,-0.3866037130355835,0.5064324736595154,-0.21810275316238403,-0.11004624380055923,-1.5344446874399715,1.7288230101039714,-0.9932945966720581,0.10982426255941391,-0.03612380102276802,2.377500295639038,-1.3199162483215332,4.4852519035339355
4.82004189491272,-0.5493854880332947,0.39763307571411133,-0.17403638362884521,-0.19932635611393795,-1.5485283325239856,1.792387394993725,-0.9799574017524719,0.19800907373428345,-0.021825293079018593,3.628917694091797,-1.0735843181610107,4.579814910888672
4.8400139808654785,-0.6697666645050049,0.2843357026576996,-0.0943259596824646,-0.28973905871544725,-1.5448199683568522,1.878645277089877,-0.9579952359199524,0.2857021689414978,-0.024890827015042305,4.470043182373047,-0.6940006613731384,4.523322582244873
4.860013961791992,-0.7152469158172607,0.15401789546012878,6.591528654098511e-05,-0.37497134215040173,-1.5199349627660084,1.981360114606197,-0.9293150901794434,0.3662458658218384,-0.047307033091783524,4.8486199378967285,-0.19287079572677612,4.352034568786621
4.880023002624512,-0.6568314433097839,-0.013394832611083984,0.11412019282579422,-0.453017575478529,-1.4744072605211693,2.0918481127239525,-0.8949568867683411,0.437680721282959,-0.08653220534324646,4.616633415222168,0.3033024072647095,4.1663498878479
4.900014877319336,-0.6061635613441467,-0.18338462710380554,0.19053144752979279,-0.5226528096177819,-1.4121253017964503,2.201254296741906,-0.8556131720542908,0.49918055534362793,-0.13691194355487823,4.110177993774414,0.7344894409179688,3.964130401611328
4.920053958892822,-0.5362470746040344,-0.28341352939605713,0.23765701055526733,-0.5839727784444202,-1.3391177914896462,2.3064703564710634,-0.8119891285896301,0.5513426661491394,-0.19156010448932648,3.4632060527801514,1.0337369441986084,3.7957444190979004
4.9400529861450195,-0.48562508821487427,-0.3937065601348877,0.29064613580703735,-0.6391851586451687,-1.261808396963889,2.4013375159409143,-0.764573335647583,0.5965416431427002,-0.2440609484910965,2.5413668155670166,1.2230913639068604,3.6063218116760254
4.960015773773193,-0.41488343477249146,-0.4770657420158386,0.32236793637275696,-0.6910665720918053,-1.1880171573478138,2.481041733350043,-0.7148011326789856,0.6373593807220459,-0.2878067195415497,1.6763880252838135,1.2246073484420776,3.3980185985565186
4.980012893676758,-0.4203566312789917,-0.5194075107574463,0.3254318833351135,-0.7380957867054804,-1.1165719696821939,2.5524192514121733,-0.6647417545318604,0.6728804707527161,-0.32457733154296875,1.4726876020431519,1.259962797164917,3.0873165130615234
5.000016927719116,-0.40900373458862305,-0.4932880997657776,0.3389188349246979,-0.7741149466506144,-1.039221465171992,2.6282470359742924,-0.616371750831604,0.6990835070610046,-0.3624478578567505,1.713267207145691,1.257263422012329,2.695995569229126
5.020011901855469,-0.35069823265075684,-0.5234752893447876,0.37725943326950073,-0.7957567248819131,-0.9574868661392937,2.709198938633975,-0.5722144246101379,0.7143933176994324,-0.40275678038597107,1.9109282493591309,1.1906793117523193,2.22678279876709
5.040018081665039,-0.29509270191192627,-0.5684540271759033,0.42878276109695435,-0.8040505742106847,-0.8790480859275153,2.7868177515954056,-0.5343140959739685,0.7201722860336304,-0.44256138801574707,1.8419129848480225,1.0575438737869263,1.7294530868530273
5.060083866119385,-0.24723803997039795,-0.6197383999824524,0.469193696975708,-0.8041159342448797,-0.813193285599529,2.8513472177010692,-0.5039979815483093,0.7202175855636597,-0.47673144936561584,1.479149580001831,0.8893117308616638,1.2492530345916748
5.080014944076538,-0.22604909539222717,-0.6462402939796448,0.5045488476753235,-0.8007308993196646,-0.7640174243355807,2.8974871356770904,-0.4816383123397827,0.7178651094436646,-0.5026871562004089,1.0450751781463623,0.7091710567474365,0.7677094340324402
5.10001277923584,-0.2173612117767334,-0.6392653584480286,0.528989851474762,-0.7952426079757026,-0.7319133515338557,2.924721381147752,-0.467880517244339,0.7140334844589233,-0.5208109617233276,0.6456363797187805,0.535804808139801,0.24703162908554077
5.120048999786377,-0.20986202359199524,-0.6405314803123474,0.5356073379516602,-0.7869082542643284,-0.7170184685766541,2.9335376938514495,-0.46396616101264954,0.7081737518310547,-0.5321893692016602,0.4013204574584961,0.3146871328353882,-0.338369756937027
5.140038967132568,-0.23200219869613647,-0.6003541946411133,0.5331513285636902,-0.7741508651719303,-0.7190425015905257,2.9253520947600116,-0.4709550142288208,0.6991091966629028,-0.5380035638809204,0.16685616970062256,0.04938364773988724,-0.9483368396759033
5.160024881362915,-0.2900092899799347,-0.593679666519165,0.5348965525627136,-0.7572298722009514,-0.7376183320722555,2.9000180666227515,-0.4887535274028778,0.6869109272956848,-0.5378414392471313,-0.14064465463161469,-0.15437887609004974,-1.5444597005844116
5.180012941360474,-0.3094295263290405,-0.569167971611023,0.5108283758163452,-0.7372319321318731,-0.7726978450823645,2.8571316000360176,-0.5168034434318542,0.6722412109375,-0.5301001667976379,-0.582785964012146,-0.45656201243400574,-2.1436614990234375
5.200012922286987,-0.43205928802490234,-0.5321313142776489,0.4809117913246155,-0.7135503730987153,-0.8264040246207052,2.7939435461198228,-0.5560693740844727,0.6545221209526062,-0.5122379660606384,-1.1788526773452759,-0.7225133776664734,-2.8883090019226074
5.220024108886719,-0.5596335530281067,-0.46549147367477417,0.5242847204208374,-0.6836135011585381,-0.8984246870640719,2.708637530812885,-0.6065499186515808,0.6315986514091492,-0.48288753628730774,-1.8771711587905884,-0.9955897927284241,-3.620612621307373
5.240026950836182,-0.5578097701072693,-0.4118189215660095,0.5348740816116333,-0.6477301085062052,-0.9846843515580403,2.6039400172013534,-0.6643581986427307,0.6033778190612793,-0.44109347462654114,-2.698765277862549,-1.1274045705795288,-4.102534294128418
5.260044097900391,-0.4812101125717163,-0.3875187039375305,0.48311835527420044,-0.606485592843067,-1.0759841304920836,2.4861741693606403,-0.7231051921844482,0.5699833631515503,-0.3901769816875458,-3.3382885456085205,-1.0915731191635132,-4.316680431365967
5.280013084411621,-0.3926604986190796,-0.27767765522003174,0.36605894565582275,-0.5595870880583991,-1.164636360810183,2.363908787537305,-0.7785279750823975,0.530836284160614,-0.3348241448402405,-3.8306491374969482,-1.0390583276748657,-4.352353572845459
5.3000218868255615,-0.39179468154907227,-0.190839022397995,0.21755152940750122,-0.5066051852086348,-1.247809672373542,2.240932960169002,-0.8291832208633423,0.48521164059638977,-0.27753371000289917,-4.148438930511475,-1.0300266742706299,-4.3949503898620605
5.320015907287598,-0.48060715198516846,-0.0563373863697052,0.056227222084999084,-0.44489250566528843,-1.321784747092804,2.1232228952379475,-0.874815821647644,0.4303608536720276,-0.22245632112026215,-4.126960277557373,-0.9374083876609802,-4.498805999755859
5.3393988609313965,-0.5962567925453186,0.006321996450424194,0.011288806796073914,-0.37317468102621815,-1.3804023039659217,2.01771376112828,-0.914348304271698,0.3645734488964081,-0.17622093856334686,-3.712693691253662,-0.6901488304138184,-4.625912666320801
5.360013961791992,-0.7007007002830505,0.11355909705162048,0.02005721628665924,-0.2926384260806265,-1.4192771469452379,1.9314261609435492,-0.9465160965919495,0.2884794771671295,-0.144523024559021,-2.9372806549072266,-0.34260159730911255,-4.710801124572754
5.380011081695557,-0.747178852558136,0.2914992570877075,0.0376293808221817,-0.20601825114001796,-1.437949883938836,1.8667925420083518,-0.9702284336090088,0.20456399023532867,-0.12965501844882965,-2.069448232650757,0.06865588575601578,-4.751475811004639
5.4000139236450195,-0.6023521423339844,0.4595591425895691,0.04822647571563721,-0.116755770444859,-1.4419474760862716,1.8204275058327632,-0.9849587678909302,0.1164906844496727,-0.12761783599853516,-1.3748029470443726,0.2564857006072998,-4.666531085968018
5.420041084289551,-0.42665570974349976,0.5298725366592407,0.06574130058288574,-0.02898467502763319,-1.4396219421956298,1.7845013668827028,-0.9909927248954773,0.028980616480112076,-0.130743607878685,-1.153555989265442,0.2679148316383362,-4.378664016723633
5.440043926239014,-0.2869088649749756,0.5643539428710938,0.049538254737854004,0.05050519712508087,-1.4340188442858963,1.749138688070405,-0.989397406578064,-0.05048372969031334,-0.13617755472660065,-1.3425718545913696,0.23746468126773834,-3.9379472732543945
5.460016965866089,-0.16061294078826904,0.6160041689872742,0.006291404366493225,0.11890869713441601,-1.4264063671913756,1.709004750612948,-0.982606053352356,-0.11862868070602417,-0.14287272095680237,-1.674242377281189,0.1881362944841385,-3.3936045169830322
5.480020999908447,-0.08839762210845947,0.7063565850257874,0.005760028958320618,0.17480528954722124,-1.4159184491223276,1.6635079541015243,-0.9729732275009155,-0.17391639947891235,-0.15190859138965607,-1.9409315586090088,0.19381220638751984,-2.8128297328948975
5.500060081481934,-0.03622967004776001,0.7988419532775879,0.0197765976190567,0.21835869861201077,-1.40247998525022,1.6152888510228252,-0.9624581336975098,-0.2166275829076767,-0.16354478895664215,-1.9916880130767822,0.19817428290843964,-2.2604379653930664
5.520022869110107,0.00493234395980835,0.880640983581543,0.0038070082664489746,0.25136757808471416,-1.3884686947840281,1.5690918524026305,-0.9525185227394104,-0.24872879683971405,-0.17562085390090942,-1.8539481163024902,0.1274648755788803,-1.7889987230300903
5.540012836456299,0.01713007688522339,0.9193141460418701,-0.03820306062698364,0.27588911869886584,-1.3754754133999088,1.5271327216381307,-0.9438880085945129,-0.2724025249481201,-0.1867418885231018,-1.6871577501296997,0.07303722202777863,-1.4021598100662231
5.5600128173828125,0.04347306489944458,0.925732433795929,-0.06799177825450897,0.2944398908358124,-1.3640495697714732,1.4894664886294833,-0.9365853071212769,-0.29020389914512634,-0.19644291698932648,-1.4700489044189453,-0.00842292606830597,-1.1487550735473633
5.579610824584961,0.06992095708847046,0.9144457578659058,-0.05323716998100281,0.3098045585717101,-1.356423741473375,1.4606848353724826,-0.9305931925773621,-0.3048725128173828,-0.20260685682296753,-0.8005225658416748,-0.08916047215461731,-0.9296666979789734
5.600014925003052,0.02986133098602295,1.004804253578186,-0.05512171983718872,0.3237062619323233,-1.3554375901916538,1.4504951881800319,-0.9261627197265625,-0.3180825114250183,-0.20259909331798553,0.12494810670614243,-0.10698199272155762,-0.643843412399292
5.6200127601623535,-0.033793509006500244,1.1162053346633911,-0.05716709792613983,0.3352814395324655,-1.3587212431396662,1.4570739282675003,-0.923161506652832,-0.3290349543094635,-0.19876845180988312,0.649688720703125,-0.022219786420464516,-0.36766517162323
5.640013933181763,-0.04842573404312134,1.1270173788070679,-0.01653347909450531,0.3429764494834964,-1.363868288794117,1.4716968525924674,-0.9216670989990234,-0.33629167079925537,-0.19348835945129395,0.8353769779205322,-0.007411458063870668,-0.10109913349151611
5.660048961639404,-0.0975387692451477,1.1417397260665894,-0.05974167585372925,0.3449027315939644,-1.3705227281267627,1.4899437882881081,-0.9222977757453918,-0.33810514211654663,-0.1872217357158661,0.8839737772941589,-0.0885482132434845,0.28472229838371277
5.680023908615112,-0.19499993324279785,1.1703158617019653,-0.13025043904781342,0.3377092968064788,-1.3827730734030246,1.5126022491733613,-0.9268873333930969,-0.3313266336917877,-0.17635954916477203,1.119585394859314,-0.38021937012672424,0.8640409708023071
5.700012922286987,-0.5328829884529114,1.1865208148956299,-0.07985436916351318,0.3183350240833715,-1.3988042814382895,1.5443221173972805,-0.9357450604438782,-0.3129856586456299,-0.16254664957523346,1.4962643384933472,-0.04535360261797905,1.5980175733566284
5.7200469970703125,-0.5917537212371826,1.0428690910339355,-0.02988266944885254,0.2841500689779834,-1.4059121552449072,1.58425801851932,-0.9468816518783569,-0.2803417146205902,-0.1575562059879303,1.6675413846969604,0.4159257709980011,2.4044809341430664
5.740011930465698,-0.16834545135498047,0.8426476716995239,-0.05236548185348511,0.2346730291611323,-1.4091072225072738,1.6281383938000702,-0.9599047899246216,-0.23252499103546143,-0.15657298266887665,1.7274876832962036,0.3473939299583435,3.159898281097412
5.760013103485107,0.01930999755859375,0.6922773718833923,-0.09969450533390045,0.17178931119546587,-1.41303886139546,1.6750033875099477,-0.9730455875396729,-0.17094559967517853,-0.154791459441185,1.838638424873352,0.2176806777715683,3.757122755050659
5.780011892318726,-0.11779981851577759,0.5939322710037231,-0.13124758005142212,0.09929862630159744,-1.41604563305864,1.7265817141672062,-0.983182966709137,-0.09913552552461624,-0.15337452292442322,2.1173055171966553,0.20107942819595337,4.19270658493042
5.800013065338135,-0.37393730878829956,0.48432737588882446,-0.06537735462188721,0.02029373826003396,-1.4144824252493065,1.7852807209480368,-0.9876046180725098,-0.02029234543442726,-0.15564608573913574,2.470949411392212,0.2956962287425995,4.506218433380127
5.8200109004974365,-0.6234449148178101,0.36921221017837524,0.04736657440662384,-0.062132691895798356,-1.405679477261397,1.8515909820017453,-0.9844958782196045,0.062092721462249756,-0.16405043005943298,2.7622194290161133,0.4927930235862732,4.680349826812744
5.840014934539795,-0.8447028398513794,0.23430773615837097,0.20329785346984863,-0.14498387424462153,-1.3841852247406425,1.9242886557224577,-0.9723291397094727,0.14447647333145142,-0.18358339369297028,2.9161064624786377,0.8887197971343994,4.706764221191406
5.859900951385498,-0.8628225326538086,0.10712389647960663,0.2997441291809082,-0.22540752668480188,-1.3485512630284688,2.00217622150102,-0.9507304430007935,0.22350360453128815,-0.21484410762786865,2.9631717205047607,1.1104497909545898,4.6092529296875
5.880046844482422,-0.8021268248558044,-0.0001672506332397461,0.3387180268764496,-0.29959672551958455,-1.3042684691279496,2.0828028885454994,-0.9217196702957153,0.29513493180274963,-0.25165122747421265,2.773329734802246,1.2129650115966797,4.478558540344238
5.900012016296387,-0.7779889702796936,-0.12264993786811829,0.3897039294242859,-0.3692826066530065,-1.2526925845195538,2.1618143828166927,-0.885798990726471,0.36094650626182556,-0.2916814088821411,2.355863332748413,1.3466264009475708,4.3773088455200195
5.920013904571533,-0.6913368105888367,-0.2268383800983429,0.4395168125629425,-0.43677636366507344,-1.1962916408179156,2.2359425502763375,-0.8433159589767456,0.4230206608772278,-0.33146923780441284,1.7672849893569946,1.3797004222869873,4.300410747528076
5.940011978149414,-0.5850057601928711,-0.3098229765892029,0.4846554100513458,-0.5031660094529742,-1.1382201544595816,2.3041569097580354,-0.7953653335571289,0.48220157623291016,-0.36725419759750366,1.2669299840927124,1.3337125778198242,4.198167324066162
5.960058927536011,-0.5110131502151489,-0.34661686420440674,0.49539607763290405,-0.5666426402598026,-1.0790771322588788,2.3702654423851506,-0.7437476515769958,0.5368024706840515,-0.3983501195907593,1.0525108575820923,1.2130507230758667,4.031030654907227
5.980081081390381,-0.49670517444610596,-0.378623902797699,0.48105883598327637,-0.624672009738414,-1.0179543316032102,2.4385627437033692,-0.6903218626976013,0.5848312377929688,-0.4259440004825592,0.9733576774597168,1.0786805152893066,3.8245389461517334
6.000014781951904,-0.51524817943573,-0.4208375811576843,0.4915003180503845,-0.6756402025419204,-0.9540152286690672,2.5098072468809796,-0.6365310549736023,0.6253970265388489,-0.45133915543556213,0.950005292892456,0.9966226816177368,3.5660810470581055
6.020014762878418,-0.45987045764923096,-0.4907562732696533,0.5296384692192078,-0.7187782776761374,-0.8885948640506223,2.582870247294986,-0.5841664671897888,0.6584656834602356,-0.4745236337184906,0.9048182368278503,0.8479040265083313,3.263901948928833
6.040011882781982,-0.4116899371147156,-0.5427797436714172,0.5596210956573486,-0.7535037453483733,-0.8245273592775648,2.655382341489044,-0.5354688763618469,0.6841982007026672,-0.49512210488319397,0.8932247161865234,0.6938635110855103,2.880047082901001
6.06001091003418,-0.4024142026901245,-0.5555142164230347,0.564332127571106,-0.7786715282515784,-0.7634384787808548,2.7248915723092226,-0.49217814207077026,0.7023343443870544,-0.5142832398414612,0.9346504807472229,0.5950349569320679,2.4198567867279053
6.079507827758789,-0.3487964868545532,-0.5889729857444763,0.5551374554634094,-0.7932186784387075,-0.7077888595876065,2.7889797347046446,-0.45611995458602905,0.7126150131225586,-0.5330426692962646,1.0310401916503906,0.4314212203025818,1.9173166751861572
6.100030899047852,-0.30834564566612244,-0.616569995880127,0.5574897527694702,-0.797875471107818,-0.6610946484416351,2.844191446974724,-0.42869970202445984,0.7158743143081665,-0.5511267781257629,1.0344995260238647,0.28743448853492737,1.3631713390350342
6.120099067687988,-0.2913634777069092,-0.6387073397636414,0.5753247737884521,-0.7953827632149959,-0.6275372720385465,2.8856078628665673,-0.4110138714313507,0.7141315937042236,-0.5666425228118896,0.9168717861175537,0.09743604063987732,0.7845625281333923
6.140018939971924,-0.27959200739860535,-0.648834228515625,0.5825769901275635,-0.7875812485507576,-0.6106981419285805,2.91025536027259,-0.40459689497947693,0.7086487412452698,-0.5780298113822937,0.71489018201828,-0.1865101009607315,0.17098653316497803
6.1600728034973145,-0.30165690183639526,-0.6498565077781677,0.5502052903175354,-0.7763766249419745,-0.6138401783696024,2.91582433886377,-0.4109591245651245,0.7006989121437073,-0.5832099914550781,0.4224470853805542,-0.5100938677787781,-0.5135962963104248
6.180020809173584,-0.4226641356945038,-0.6251195669174194,0.5375738143920898,-0.7617421669769112,-0.6384186221105657,2.899119319808648,-0.4312329888343811,0.690183162689209,-0.5811070799827576,0.043791573494672775,-0.7884346842765808,-1.3331525325775146
6.200019836425781,-0.48283207416534424,-0.6007018089294434,0.5764252543449402,-0.7433828701636902,-0.6852102028547756,2.8581883333479507,-0.46588319540023804,0.6767821907997131,-0.5700165033340454,-0.4511640965938568,-1.119364619255066,-2.142270803451538
6.2190937995910645,-0.39450371265411377,-0.5947500467300415,0.5645520687103271,-0.7221353366303704,-0.7532900798861507,2.7953328356511515,-0.513302743434906,0.6609885096549988,-0.5473706126213074,-1.0452631711959839,-1.4866970777511597,-2.7481000423431396
6.2399818897247314,-0.3323795199394226,-0.573518693447113,0.40999817848205566,-0.6981396472802118,-0.8363589104662612,2.7166075805797654,-0.5685604810714722,0.6427937150001526,-0.5133764147758484,-1.5153559446334839,-1.6476080417633057,-3.1371965408325195
6.260013103485107,-0.35347896814346313,-0.5012329816818237,0.19958439469337463,-0.6683632865687364,-0.9234277060176563,2.6305114463606745,-0.6260437369346619,0.6197022795677185,-0.47332701086997986,-1.6970053911209106,-1.6293481588363647,-3.410999059677124
6.280040979385376,-0.35622280836105347,-0.3942866325378418,0.09317135810852051,-0.6297315190119519,-1.0080830189435999,2.545461009245989,-0.6835721731185913,0.5889278054237366,-0.43115344643592834,-1.6960315704345703,-1.7010518312454224,-3.634439468383789
6.300008773803711,-0.41312575340270996,-0.3498181104660034,0.07239913940429688,-0.5823073722258827,-1.089270007562135,2.463694154939008,-0.7402251362800598,0.549952507019043,-0.3868064284324646,-1.7885686159133911,-1.745632529258728,-3.839489698410034
6.320012092590332,-0.541818380355835,-0.30459272861480713,0.07325524091720581,-0.5272108825303102,-1.1651284185426576,2.385110967845282,-0.7940734624862671,0.5031248927116394,-0.34104692935943604,-1.898207187652588,-1.6853440999984741,-4.017848014831543
6.340063095092773,-0.6711565852165222,-0.20455437898635864,0.05833369493484497,-0.46498025810234656,-1.2329699006104884,2.3098686263266393,-0.8433088660240173,0.4484051465988159,-0.2962486743927002,-2.019399881362915,-1.5107567310333252,-4.211504936218262
6.3600099086761475,-0.7060725092887878,-0.11151769757270813,-0.003413289785385132,-0.3952585095230261,-1.2912352944495815,2.2383887580146853,-0.8870671987533569,0.3850467801094055,-0.25465846061706543,-2.0491747856140137,-1.3358525037765503,-4.425421237945557
6.380012035369873,-0.6548171639442444,-0.0052488744258880615,-0.06053805351257324,-0.31845013238807723,-1.339178452595811,2.1724745129211405,-0.9243608117103577,0.31309500336647034,-0.2180110365152359,-2.0069363117218018,-1.1545486450195312,-4.5709710121154785
6.400008916854858,-0.5581655502319336,0.10602551698684692,-0.053054168820381165,-0.23749416325578226,-1.377735576151782,2.111606817664034,-0.953873872756958,0.23526786267757416,-0.18647821247577667,-2.0155773162841797,-1.016627311706543,-4.578874111175537
6.4200439453125,-0.48419439792633057,0.20297367870807648,-0.053217530250549316,-0.15545505878607416,-1.4071631924452994,2.0558136412034944,-0.9747443199157715,0.15482968091964722,-0.16093946993350983,-1.9077285528182983,-0.8351595401763916,-4.4637370109558105
6.440013885498047,-0.41044002771377563,0.34059906005859375,-0.11669647693634033,-0.07504450114334885,-1.4278934167863,2.006437287779664,-0.9870210289955139,0.07497408241033554,-0.1420162171125412,-1.7272617816925049,-0.6741088628768921,-4.22323751449585
6.460012912750244,-0.33333057165145874,0.4723997712135315,-0.1539909690618515,0.0007505923980710437,-1.4416066768501674,1.9636306225847628,-0.9916664361953735,-0.0007505923276767135,-0.12883056700229645,-1.491053819656372,-0.5252768993377686,-3.8562374114990234
6.480010032653809,-0.2840176820755005,0.5879949927330017,-0.1649765968322754,0.06978688402138909,-1.4491826955573255,1.9278295280135898,-0.9901981353759766,-0.0697302520275116,-0.12101879715919495,-1.2151296138763428,-0.33761101961135864,-3.410517454147339
6.500011920928955,-0.2165871262550354,0.6787958741188049,-0.17576193809509277,0.1309828060217678,-1.4522688242901591,1.898204036993701,-0.9844779968261719,-0.13060858845710754,-0.11723724752664566,-1.0392731428146362,-0.23062936961650848,-2.9221692085266113
6.520044803619385,-0.15057069063186646,0.7176188230514526,-0.13965469598770142,0.18196986039010413,-1.451676730415155,1.8716438180217028,-0.9765198826789856,-0.18096725642681122,-0.11687597632408142,-0.9837155938148499,-0.114472396671772,-2.417015552520752
6.540034770965576,-0.08664298057556152,0.7585610151290894,-0.1237800270318985,0.22242673916214153,-1.4480736198136615,1.8469072136886853,-0.9680294990539551,-0.22059722244739532,-0.11939921975135803,-0.9376367330551147,-0.008550136350095272,-1.8853058815002441
6.560014963150024,-0.007647991180419922,0.7851888537406921,-0.12334511429071426,0.2525405460853208,-1.4420164491516894,1.8239345429778868,-0.9602627158164978,-0.24986472725868225,-0.12435069680213928,-0.923068642616272,0.06360217928886414,-1.3748095035552979
6.57929801940918,0.05865657329559326,0.8442045450210571,-0.1492668241262436,0.27310886687863734,-1.4347720752673037,1.8014727139910367,-0.954042375087738,-0.26972636580467224,-0.13057924807071686,-0.9580883383750916,0.07029736042022705,-0.9651402831077576
6.600010871887207,0.05614978075027466,0.8584266901016235,-0.15766654908657074,0.286429986206621,-1.4272992552139916,1.7792670433935174,-0.9493993520736694,-0.28252947330474854,-0.13717889785766602,-0.953582227230072,0.06724537909030914,-0.6721265912055969
6.620009899139404,-0.010195791721343994,0.8749954700469971,-0.17021994292736053,0.2952037959068361,-1.4202395035992483,1.7605757632642929,-0.9459199905395508,-0.29093483090400696,-0.14350061118602753,-0.6428040266036987,0.09341298043727875,-0.4800812900066376
6.640018939971924,-0.061787307262420654,0.9287644624710083,-0.1542242020368576,0.3019539037413724,-1.4154721589815835,1.751242273360855,-0.9432633519172668,-0.2973862886428833,-0.14770130813121796,-0.13184405863285065,0.10746079683303833,-0.32754790782928467
6.660050868988037,-0.10399967432022095,0.96816486120224,-0.1354091614484787,0.30725060540066745,-1.4149994900905032,1.7538623249189667,-0.941624104976654,-0.3024391531944275,-0.14790064096450806,0.5050508379936218,-0.02432146482169628,-0.16410870850086212
6.680018901824951,-0.3143823742866516,1.0669095516204834,-0.15912681818008423,0.31145306839724113,-1.422643329431543,1.7723340430387404,-0.9414618611335754,-0.30644211173057556,-0.1405099332332611,1.3034344911575317,-0.10885179042816162,0.016137661412358284
6.700009822845459,-0.5765385031700134,1.1335680484771729,-0.12632699310779572,0.312920570309659,-1.430860654917034,1.8071875329422695,-0.9421384930610657,-0.30783867835998535,-0.13270613551139832,1.955662727355957,0.41085919737815857,0.3614919185638428
6.720080852508545,-0.30618202686309814,1.0512769222259521,-0.0937408059835434,0.3052955637502511,-1.4334716429441432,1.8524917737806095,-0.9447792768478394,-0.3005750775337219,-0.13056327402591705,2.1446826457977295,0.6287181973457336,1.040305495262146
6.740009784698486,0.07801783084869385,0.8815808892250061,-0.038244783878326416,0.28212886591552955,-1.434581132320238,1.8994556861565277,-0.9515684247016907,-0.2784009873867035,-0.13042573630809784,1.983378291130066,0.603596031665802,1.8503403663635254
6.760008811950684,0.13322341442108154,0.7701478600502014,-0.041843414306640625,0.24328972396529208,-1.4352887629397344,1.9445935851438652,-0.9616537094116211,-0.24089676141738892,-0.13111485540866852,1.8567756414413452,0.5271023511886597,2.5573997497558594
6.780008792877197,-0.06017988920211792,0.7221505045890808,-0.04278169572353363,0.19262351583173312,-1.4345744935781626,1.9911073940662638,-0.9724128842353821,-0.19143454730510712,-0.13328933715820312,2.0151479244232178,0.5590132474899292,3.05094313621521
6.8000288009643555,-0.24212229251861572,0.6212154626846313,-0.03918635845184326,0.13537678250187954,-1.4317068405916404,2.0443096313821245,-0.9812817573547363,-0.13496366143226624,-0.13737298548221588,2.4619762897491455,0.5922473669052124,3.3192079067230225
6.820008754730225,-0.42047208547592163,0.5689637064933777,0.03954349458217621,0.07597956519771652,-1.4256667730509693,2.107882755512741,-0.9866326451301575,-0.07590648531913757,-0.14420340955257416,2.942641019821167,0.6973934173583984,3.452378034591675
6.840044021606445,-0.6063666939735413,0.47178274393081665,0.17840790748596191,0.01652227777439774,-1.412535464370705,2.178549980918665,-0.9873681664466858,-0.016521526500582695,-0.15757954120635986,3.116483688354492,0.9461188912391663,3.479473352432251
6.860011100769043,-0.7035883069038391,0.3701872229576111,0.35466277599334717,-0.04150681759074355,-1.3900295061037864,2.2509668425847678,-0.9828588962554932,0.04149490222334862,-0.1796291172504425,3.0309109687805176,1.2093045711517334,3.444831371307373
6.880052089691162,-0.6964659094810486,0.26535648107528687,0.47321635484695435,-0.0978366298963793,-1.3585790786980918,2.32271259777384,-0.9728914499282837,0.09768062084913254,-0.2096206694841385,2.927539110183716,1.396400809288025,3.3754029273986816
6.90001106262207,-0.5927252769470215,0.2092125415802002,0.6134368181228638,-0.15087149354104457,-1.320660896320088,2.394657183960957,-0.9578728675842285,0.1502997875213623,-0.24472329020500183,2.833648920059204,1.46614408493042,3.4266481399536133
6.920011043548584,-0.4944789409637451,0.10339733958244324,0.7213492393493652,-0.2030799124457104,-1.2790517026088672,2.466962197451127,-0.9380620121955872,0.20168690383434296,-0.28171291947364807,2.619015693664551,1.432462215423584,3.5307602882385254
6.940010070800781,-0.4629207253456116,0.007934778928756714,0.7103211879730225,-0.25597514471361926,-1.2350208259339894,2.5376231164342715,-0.913391649723053,0.2531889081001282,-0.3187653124332428,2.2777578830718994,1.350212574005127,3.6402909755706787
6.960036754608154,-0.40581995248794556,-0.07256773114204407,0.6881328225135803,-0.31101724689479426,-1.1910192617114117,2.6037666210425976,-0.884188711643219,0.30602723360061646,-0.35292768478393555,1.7098580598831177,1.194711446762085,3.762864112854004
6.980012893676758,-0.3547513484954834,-0.14229267835617065,0.6626368165016174,-0.3707442177706929,-1.1500937025539029,2.6624782171316315,-0.8507846593856812,0.36230918765068054,-0.38065430521965027,1.092589020729065,0.95686936378479,3.8927431106567383
6.999383926391602,-0.3822150230407715,-0.170902281999588,0.6643648743629456,-0.4335653022815091,-1.112273699621634,2.7156429493373815,-0.8137384653091431,0.4201088845729828,-0.4016695022583008,0.705689013004303,0.7701277136802673,3.869152545928955
7.0200090408325195,-0.45392000675201416,-0.22468170523643494,0.6937859654426575,-0.49508792024402715,-1.0741136659584942,2.76764080054016,-0.7736038565635681,0.4751090109348297,-0.4192955195903778,0.6470450758934021,0.7136774659156799,3.742987871170044
7.040011882781982,-0.4155806303024292,-0.27115577459335327,0.726433277130127,-0.5519455989900309,-1.0329150133716194,2.823256415909547,-0.7312700152397156,0.5243449211120605,-0.4362415671348572,0.7481609582901001,0.6267573833465576,3.583775043487549
7.060096979141235,-0.36595356464385986,-0.3349442481994629,0.6951262950897217,-0.6019703443806321,-0.9882793628671469,2.8838830832528517,-0.6882914900779724,0.5662675499916077,-0.4534270167350769,0.9089191555976868,0.504641592502594,3.3532073497772217
7.079195022583008,-0.3413836359977722,-0.36672550439834595,0.6724602580070496,-0.6435797930496203,-0.9419521461928133,2.948870412222532,-0.6469281911849976,0.6000629663467407,-0.4705406129360199,1.0669387578964233,0.3579667806625366,3.0811071395874023
7.100008010864258,-0.33355069160461426,-0.42643970251083374,0.6538467407226562,-0.6770712240389917,-0.8951174682209698,3.0157348923685943,-0.6081608533859253,0.6265130043029785,-0.4874648153781891,1.0897141695022583,0.20860010385513306,2.7897183895111084
7.120032787322998,-0.29178279638290405,-0.49121004343032837,0.6288271546363831,-0.7039866385217513,-0.8518450914154322,3.0807868109622523,-0.5736042261123657,0.6472617387771606,-0.5020264983177185,1.0434106588363647,-0.011711664497852325,2.488116502761841
7.14005184173584,-0.257538378238678,-0.5524122714996338,0.5657111406326294,-0.7253598624641096,-0.8147249335434771,3.1414177586564564,-0.5443873405456543,0.6634047627449036,-0.5133581757545471,0.9767290353775024,-0.25279656052589417,2.1148343086242676
7.16001296043396,-0.23874765634536743,-0.5538560748100281,0.48890310525894165,-0.7397187127896999,-0.786810476223861,-3.0883160563211502,-0.5230474472045898,0.6740801334381104,-0.5215721130371094,0.9146608710289001,-0.5295144319534302,1.6546123027801514
7.180010795593262,-0.2965660095214844,-0.5386540293693542,0.3924088478088379,-0.7448271267968388,-0.7710060421844228,-3.043718252075332,-0.5123329162597656,0.6778447031974792,-0.5272964239120483,1.039066195487976,-0.8878142237663269,1.0064841508865356
7.200037002563477,-0.5235370397567749,-0.49371057748794556,0.4346775412559509,-0.7377848284338921,-0.767133452616707,-3.010886188435618,-0.5135876536369324,0.6726503968238831,-0.5326998829841614,1.1456917524337769,-0.9828581809997559,0.23237299919128418
7.220049858093262,-0.4680127501487732,-0.4988850951194763,0.4762386679649353,-0.7199087301812518,-0.7773123016841181,-2.9918489446228147,-0.5273333191871643,0.6593160629272461,-0.5359309315681458,1.1010078191757202,-1.3337293863296509,-0.4515496790409088
7.240071773529053,-0.34104466438293457,-0.5203297734260559,0.3358337879180908,-0.6951795764181968,-0.8041575748591855,-2.9868007699635366,-0.5531051754951477,0.640523374080658,-0.532733142375946,0.9363905191421509,-1.6606111526489258,-1.0115865468978882
7.2600109577178955,-0.2711079716682434,-0.5267240405082703,0.12164348363876343,-0.6642208120790837,-0.8402597250292744,-2.9894989996952006,-0.5864666104316711,0.616445779800415,-0.5254062414169312,1.0926451683044434,-1.78680419921875,-1.3867621421813965
7.280009984970093,-0.20671314001083374,-0.44380104541778564,0.004039943218231201,-0.6240598353117461,-0.8766543930044214,-2.9893572877259444,-0.623731255531311,0.5843345522880554,-0.5191460847854614,1.5668936967849731,-1.8572313785552979,-1.6391668319702148
7.300062894821167,-0.19951319694519043,-0.40839678049087524,0.017614126205444336,-0.5760174524121711,-0.9106161068304289,-2.9832570054284253,-0.6624253392219543,0.54468834400177,-0.5143029093742371,1.7550992965698242,-1.8807291984558105,-1.7860667705535889
7.320059776306152,-0.24969768524169922,-0.45758211612701416,0.07667624950408936,-0.5275695717067315,-0.9455186824554631,-2.9790359226851058,-0.7005587220191956,0.5034348368644714,-0.5057380199432373,1.3914992809295654,-1.824196219444275,-1.8879685401916504
7.340221881866455,-0.3104284405708313,-0.4477222263813019,0.10542857646942139,-0.48325005459172016,-0.9845259422824563,-2.9842801488077275,-0.7376216053962708,0.46465951204299927,-0.4899042546749115,0.7433585524559021,-1.853497862815857,-2.025935649871826
7.360073089599609,-0.3543747067451477,-0.4039781987667084,0.12963995337486267,-0.4431687399811623,-1.0296808294942152,-3.0013512926716364,-0.7743332386016846,0.4288042485713959,-0.4653331935405731,0.15198424458503723,-1.8988571166992188,-2.200415849685669
7.380014896392822,-0.3985753655433655,-0.33803948760032654,0.15943866968154907,-0.4039600739435544,-1.0777936579420286,-3.0274805068228714,-0.8100124001502991,0.3930627405643463,-0.4351802170276642,-0.26897022128105164,-1.851553201675415,-2.395869255065918
7.400122880935669,-0.34013521671295166,-0.2502800524234772,0.1335037350654602,-0.3631601118106343,-1.1270668716245875,-3.0598679048160635,-0.8442521095275879,0.3552300035953522,-0.40131068229675293,-0.5172795653343201,-1.8726979494094849,-2.6212732791900635
7.420105934143066,-0.27751439809799194,-0.13190510869026184,0.04759061336517334,-0.31699713406075275,-1.1755943153003872,-3.092578592213933,-0.8769351840019226,0.31171470880508423,-0.36581259965896606,-0.37933269143104553,-1.8943413496017456,-2.845158100128174
7.44010591506958,-0.2288246750831604,-0.03233832120895386,-0.001979738473892212,-0.2648709961227118,-1.2216244695229885,-3.1198067191314967,-0.9068871736526489,0.26178476214408875,-0.3301888108253479,-0.17317618429660797,-1.939430594444275,-2.9561915397644043
7.460042953491211,-0.18742388486862183,0.04769967496395111,-0.034680336713790894,-0.20949026202061452,-1.2662308120434411,-3.1415784849759323,-0.933120608329773,0.2079613357782364,-0.29332247376441956,-0.06317414343357086,-2.0089454650878906,-2.972724437713623
7.47999906539917,-0.18385618925094604,0.12741829454898834,-0.05591464042663574,-0.15303988597885557,-1.30987831684453,3.1239320907732036,-0.954861581325531,0.15244318544864655,-0.2549525797367096,-0.046782586723566055,-2.036726474761963,-2.950923442840576
7.511510848999023,-0.2086251974105835,0.29236701130867004,-0.19795916974544525,-0.03797963955747687,-1.3918963579799002,3.101856964346255,-0.983330488204956,0.03797050938010216,-0.1778188943862915,0.38928723335266113,-1.8723819255828857,-2.909604072570801
7.519891977310181,-0.2086251974105835,0.29236701130867004,-0.19795916974544525,-0.03797963955747687,-1.3918963579799002,3.101856964346255,-0.983330488204956,0.03797050938010216,-0.1778188943862915,0.38928723335266113,-1.8723819255828857,-2.909604072570801
7.548194885253906,-0.14277559518814087,0.4860478341579437,-0.3267591595649719,0.07601052766838678,-1.4594437112289278,3.11908070254811,-0.9909371733665466,-0.07593735307455063,-0.11080178618431091,1.1961504220962524,-1.4351969957351685,-2.5613813400268555
7.565470933914185,-0.07922101020812988,0.5844970345497131,-0.36856400966644287,0.12535239638993023,-1.48709926297004,3.13852925268152,-0.9886805415153503,-0.12502437829971313,-0.08294343203306198,1.1551828384399414,-1.123858094215393,-2.1443238258361816
7.578979015350342,-0.07922101020812988,0.5844970345497131,-0.36856400966644287,0.12535239638993023,-1.48709926297004,3.13852925268152,-0.9886805415153503,-0.12502437829971313,-0.08294343203306198,1.1551828384399414,-1.123858094215393,-2.1443238258361816
7.602849960327148,0.11381202936172485,0.7518728971481323,-0.5693821907043457,0.18910951846016644,-1.5273141556457346,-3.112341613101022,-0.9812439680099487,-0.18798436224460602,-0.04269352927803993,0.7206395864486694,-0.6387808918952942,-0.9282172322273254
7.622368812561035,0.011833727359771729,0.8501372337341309,-0.6206745505332947,0.20245438117239792,-1.5392405724734943,-3.098227242577612,-0.9790886044502258,-0.20107418298721313,-0.030906137079000473,0.761241614818573,-0.2528952658176422,-0.37489861249923706
7.6423468589782715,-0.07063412666320801,0.9471282958984375,-0.5994511246681213,0.20517180445276856,-1.543715059812795,-3.080682474328537,-0.9786670804023743,-0.2037353664636612,-0.026510026305913925,0.9483219385147095,0.14816944301128387,0.15530118346214294
7.6628639698028564,-0.03579115867614746,0.9276483058929443,-0.5224431753158569,0.1972351698885336,-1.5412714033272006,-3.061382342823863,-0.9801849126815796,-0.19595885276794434,-0.02894829586148262,0.8748072385787964,0.4813668131828308,0.6877821683883667
7.686946868896484,-0.007689058780670166,0.8717889785766602,-0.4895828366279602,0.17903354688051068,-1.5316523186721716,-3.0461083123229367,-0.9832625389099121,-0.17807865142822266,-0.03850850835442543,0.5508719682693481,0.743258535861969,1.171533226966858
7.706140041351318,-0.057635486125946045,0.822756290435791,-0.47338443994522095,0.15161404830066408,-1.5188426125034848,-3.03597442347461,-0.9871950149536133,-0.15103386342525482,-0.05133464187383652,0.3871862292289734,0.6660029292106628,1.5969128608703613
7.724145889282227,-0.48326975107192993,0.8457934856414795,-0.3612825870513916,0.11753299787751666,-1.5065122280592658,-3.0242224983325765,-0.9910497069358826,-0.1172625869512558,-0.06379663944244385,0.6175009608268738,0.8415932655334473,1.8450703620910645
7.745556831359863,-0.7903920412063599,0.7319056987762451,-0.2179626226425171,0.0796920642316735,-1.4852064353647736,-3.0066170465269244,-0.9931775331497192,-0.07960774004459381,-0.08521413803100586,0.8279332518577576,1.4231575727462769,2.10005784034729
7.7647857666015625,-0.35596805810928345,0.5714857578277588,-0.11316752433776855,0.03525340576830241,-1.457485661157483,-2.9839266117174263,-0.9929699897766113,-0.0352461040019989,-0.1129981130361557,1.004528522491455,1.4395840167999268,2.5484273433685303
7.786683082580566,-0.12155050039291382,0.5534148812294006,-0.027110978960990906,-0.016974740650345443,-1.4292323955128365,-2.954817871361778,-0.9898539185523987,0.01697392575442791,-0.14107124507427216,1.2630887031555176,1.4074783325195312,2.92801570892334
7.807549953460693,-0.1833518147468567,0.5193796753883362,0.07655394077301025,-0.07419424150271267,-1.3992902506013085,-2.9159568701806333,-0.9826182126998901,0.07412619143724442,-0.1701970100402832,1.7578781843185425,1.366932988166809,3.1745903491973877
7.827264785766602,-0.2909128665924072,0.40804487466812134,0.14723742008209229,-0.1310260511287943,-1.3669323735470857,-2.862591663264829,-0.9708975553512573,0.13065147399902344,-0.20071941614151,2.4099056720733643,1.297288417816162,3.294339179992676
7.847142934799194,-0.41636186838150024,0.3344067633152008,0.2099737524986267,-0.1843511557079672,-1.3306889778678461,-2.7965514623378835,-0.9548540711402893,0.18330872058868408,-0.23377737402915955,2.736266851425171,1.2843291759490967,3.3234808444976807
7.867456912994385,-0.47419166564941406,0.3033851683139801,0.29127267003059387,-0.23380391645019652,-1.2896803825255645,-2.7235519597692095,-0.9346067905426025,0.23167960345745087,-0.2698797881603241,2.883580446243286,1.3154919147491455,3.297377347946167
7.886562824249268,-0.4738801121711731,0.2773675322532654,0.38661015033721924,-0.27898719572505065,-1.242968175665357,-2.6464207095812187,-0.910137951374054,0.2753821313381195,-0.3095379173755646,2.9144327640533447,1.3895701169967651,3.245476722717285
7.907254934310913,-0.5051752328872681,0.30135220289230347,0.4154110252857208,-0.31839532767285494,-1.1902685667348694,-2.564837758983714,-0.881803035736084,0.31304293870925903,-0.35274308919906616,3.0942883491516113,1.5156455039978027,3.1448402404785156
7.9262590408325195,-0.5590254068374634,0.29820725321769714,0.47033578157424927,-0.34903432725044464,-1.128898614304035,-2.4760901131586777,-0.8494371771812439,0.34199053049087524,-0.4018695056438446,3.356096029281616,1.6714481115341187,3.048689603805542
7.946969032287598,-0.4580717086791992,0.24997150897979736,0.4919711947441101,-0.37245679195984555,-1.0623496164175696,-2.3826300853791644,-0.8136110901832581,0.3639048635959625,-0.4534427225589752,3.3110058307647705,1.695330262184143,3.05924916267395
7.967228889465332,-0.4021790027618408,0.17373666167259216,0.536798894405365,-0.39255798113497553,-0.9940053412207165,-2.2900596574968595,-0.7744568586349487,0.3825530707836151,-0.5038551092147827,3.0266330242156982,1.6796022653579712,3.1187214851379395
7.985987901687622,-0.363807737827301,0.14104899764060974,0.5298117399215698,-0.4099326737155113,-0.9250676886617396,-2.1988544994851043,-0.732490599155426,0.39854758977890015,-0.5519216656684875,2.894244432449341,1.6659562587738037,3.122518301010132
8.00706696510315,-0.36972182989120483,0.11109748482704163,0.5062564015388489,-0.420620638481385,-0.8545865794146992,-2.106628199057188,-0.688551664352417,0.4083270728588104,-0.5993044376373291,3.0171093940734863,1.6647917032241821,3.019219398498535
8.02506685256958,-0.37838923931121826,0.10850334167480469,0.5483027696609497,-0.4224602379091632,-0.7836038065528657,-2.0145616503094406,-0.643781840801239,0.4100056290626526,-0.6460963487625122,2.968310594558716,1.6645833253860474,2.8590481281280518
8.046690940856934,-0.3674388527870178,0.059580713510513306,0.5829704999923706,-0.4185521242402431,-0.7150648257334743,-1.9278932509527062,-0.5990682244300842,0.4064379930496216,-0.6898735761642456,2.710481882095337,1.6498034000396729,2.676220655441284
8.065930843353271,-0.3328777551651001,0.04501807689666748,0.5838332772254944,-0.41138858874580286,-0.6510486908463518,-1.848584144605891,-0.5554584264755249,0.399882435798645,-0.7290816307067871,2.4819862842559814,1.5545741319656372,2.50868558883667
8.085755825042725,-0.332350492477417,0.06082478165626526,0.5416131019592285,-0.3996996534407207,-0.5919027852038287,-1.7748732743195053,-0.5139630436897278,0.38914167881011963,-0.7644676566123962,2.442248821258545,1.4480066299438477,2.3339548110961914
8.104743957519531,-0.32692769169807434,0.08899146318435669,0.537057638168335,-0.3836538738448357,-0.5373647647356534,-1.7058901797367936,-0.47466233372688293,0.3743112087249756,-0.7966095805168152,2.3300585746765137,1.3822405338287354,2.205002784729004
8.125717878341675,-0.2891222834587097,0.05643370747566223,0.5362273454666138,-0.3662994870076896,-0.4874325285588149,-1.642309063473786,-0.4372876286506653,0.35816287994384766,-0.824923574924469,2.073005199432373,1.2797526121139526,2.1125118732452393
8.146496772766113,-0.24053791165351868,0.0337395966053009,0.534075915813446,-0.3510510470538984,-0.4430948246730571,-1.5847851273488303,-0.4025895595550537,0.3438849449157715,-0.8483306169509888,1.7581614255905151,1.127013921737671,2.0133004188537598
8.166616916656494,-0.20833095908164978,0.05093178153038025,0.48564356565475464,-0.3352410716756725,-0.405490888379473,-1.53271228168255,-0.37251016497612,0.32899683713912964,-0.8677541613578796,1.794058084487915,0.8789758086204529,1.7960635423660278
8.18640398979187,-0.19912466406822205,0.0672476589679718,0.372284471988678,-0.3127657276754124,-0.37558013203581586,-1.4849703453194556,-0.34901684522628784,0.307691365480423,-0.885162889957428,2.024531364440918,0.5847625136375427,1.5433214902877808
8.205588817596436,-0.18406155705451965,0.07130053639411926,0.24295437335968018,-0.2837173525313753,-0.353243734077363,-1.4414251155038262,-0.33211278915405273,0.2799263000488281,-0.9007454514503479,2.1661152839660645,0.3884156048297882,1.3285493850708008
8.22646689414978,-0.2068362534046173,0.0571630597114563,0.18591207265853882,-0.2532123749975233,-0.33587827612574134,-1.4024274610363272,-0.31908848881721497,0.2505151927471161,-0.9140157103538513,1.9383327960968018,0.3057989180088043,1.180212140083313
8.246218919754028,-0.21882903575897217,0.07176631689071655,0.23995733261108398,-0.22952971699527522,-0.32380015044434746,-1.3699311720047342,-0.3098269999027252,0.22751960158348083,-0.9231696128845215,1.3315900564193726,0.13499192893505096,1.03057861328125
8.265198945999146,-0.2738683819770813,0.06821294128894806,0.26657432317733765,-0.21715054773333978,-0.315796660695193,-1.344558520156816,-0.3032801151275635,0.21544796228408813,-0.9282259345054626,0.7034783959388733,0.10544043034315109,0.9349095821380615
8.286265850067139,-0.22381260991096497,0.044954389333724976,0.22720760107040405,-0.21356230131681578,-0.3100504924179875,-1.3231493016371239,-0.2981753349304199,0.2119426131248474,-0.9306834936141968,0.41313397884368896,-0.007732457481324673,0.938302218914032
8.305109977722168,-0.16479313373565674,0.03934277594089508,0.1346282958984375,-0.21226284785240912,-0.3067807891918285,-1.3016039055431445,-0.29521360993385315,0.2106724977493286,-0.931915283203125,0.5231775045394897,-0.12377703934907913,1.0087069272994995
8.325905799865723,-0.10791683197021484,0.014515683054924011,0.08869844675064087,-0.20689745415582136,-0.3049062547891229,-1.2766982197666745,-0.29380130767822266,0.20542451739311218,-0.9335317611694336,0.8494622707366943,-0.2148456871509552,1.1203974485397339
8.345830917358398,-0.06689149141311646,-0.01046191155910492,0.14026540517807007,-0.19655480969300843,-0.3039745627467551,-1.2484242882463452,-0.29355165362358093,0.1952916383743286,-0.9357823729515076,1.048828125,-0.25815507769584656,1.1710216999053955
8.365931034088135,-0.08340901136398315,-0.047153592109680176,0.19414561986923218,-0.18299997211975805,-0.3039639961575241,-1.219188253385246,-0.29430708289146423,0.18198026716709137,-0.9382252097129822,1.1431565284729004,-0.29745951294898987,1.140088677406311
8.385852813720703,-0.10729315876960754,-0.04161645472049713,0.24356085062026978,-0.16942475371017576,-0.30511693476928337,-1.191284503692662,-0.29610350728034973,0.16861537098884583,-0.9401550889015198,0.949400782585144,-0.3060721158981323,1.0782185792922974
8.405810832977295,-0.09486764669418335,-0.07491566240787506,0.2523595094680786,-0.1607047775822829,-0.30742088205387846,-1.166558382874368,-0.2987023591995239,0.16001394391059875,-0.9408360719680786,0.6254693865776062,-0.3362850546836853,0.9921255111694336
