timestamp,acceleration_x,acceleration_y,acceleration_z,attitude_pitch,attitude_roll,attitude_yaw,gravity_x,gravity_y,gravity_z,rotation_x,rotation_y,rotation_z
0.0,-0.06913959980010986,0.2945299744606018,-0.0954497754573822,-0.27730895357173463,-1.3413883055291091,2.207997217687215,-0.9365978240966797,0.2737683951854706,-0.2187134027481079,-1.305338740348816,0.19782474637031555,-0.5345816016197205
0.020064115524291992,-0.03574097156524658,0.2410764992237091,-0.056104809045791626,-0.27406018367523555,-1.3439375874278991,2.180393968647953,-0.938014030456543,0.27064231038093567,-0.2165239453315735,-1.23837411403656,0.30791059136390686,-0.3890654444694519
0.03998994827270508,-0.004535496234893799,0.18741092085838318,-0.01575291156768799,-0.27287202709069885,-1.344331582132519,2.153733567128038,-0.9384118914604187,0.2694983184337616,-0.21622639894485474,-1.2474724054336548,0.38707831501960754,-0.30854174494743347
0.05934619903564453,0.00939851999282837,0.12703299522399902,0.01093563437461853,-0.2726014730688133,-1.3432422642244497,2.126830537124966,-0.9382466673851013,0.269237756729126,-0.21726490557193756,-1.287271499633789,0.46323513984680176,-0.2985202670097351
0.08002805709838867,0.010473430156707764,0.08340492844581604,0.04678632318973541,-0.2726998347751589,-1.341015213142295,2.098261950363009,-0.9377347826957703,0.26933249831199646,-0.21934787929058075,-1.4023122787475586,0.5500416159629822,-0.3170774579048157
0.1000521183013916,0.002250075340270996,0.054578572511672974,0.07883095741271973,-0.2729560276757273,-1.3375947296215218,2.067453034585824,-0.936911940574646,0.2695792019367218,-0.22253815829753876,-1.5055748224258423,0.6364215016365051,-0.3298020362854004
0.12009716033935547,-0.01707303524017334,0.05152180790901184,0.11580473184585571,-0.27383279531302346,-1.3328238843176388,2.034212459660043,-0.9356095194816589,0.27042341232299805,-0.22694966197013855,-1.6419137716293335,0.7517002820968628,-0.3208152651786804
0.1400001049041748,-0.039132893085479736,0.03747361898422241,0.14878001809120178,-0.2762056401056976,-1.3264046749644376,1.9983279327981334,-0.9335082173347473,0.2727070748806,-0.23279491066932678,-1.7810750007629395,0.8828949928283691,-0.2535189688205719
0.16012001037597656,-0.05035942792892456,0.03477132320404053,0.16929610073566437,-0.28134953497252785,-1.3184740398407626,1.9598263226112973,-0.9302619099617004,0.277652382850647,-0.2398374080657959,-1.9372819662094116,0.9871242642402649,-0.16039904952049255
0.180009126663208,-0.050353944301605225,0.04135781526565552,0.17514246702194214,-0.28914673592303575,-1.3094863592348753,1.9198191735114096,-0.925949215888977,0.285134494304657,-0.24762168526649475,-1.9680956602096558,1.0469536781311035,-0.04675491154193878
0.20001602172851562,-0.032262563705444336,0.035297691822052,0.16343119740486145,-0.2994014468927027,-1.300187151164164,1.8806660523342065,-0.92074054479599,0.2949483394622803,-0.2554263770580292,-1.9195353984832764,1.033984899520874,0.03832016512751579
0.22006893157958984,-0.016688048839569092,0.008978396654129028,0.14010581374168396,-0.3100363698545536,-1.2908259368835362,1.844735668145532,-0.915242612361908,0.30509325861930847,-0.2631526291370392,-1.6415026187896729,0.9921533465385437,0.06253072619438171
0.23950409889221191,0.02661031484603882,-0.025383442640304565,0.11015042662620544,-0.3196961333729555,-1.2807091881279362,1.8160616063309845,-0.909666895866394,0.31427809596061707,-0.2715425491333008,-1.255697250366211,0.8914226293563843,0.11159513890743256
0.2597012519836426,0.06860816478729248,-0.04017725586891174,0.044196248054504395,-0.3278326397132227,-1.273027881932404,1.7950195219974223,-0.9050797820091248,0.32199186086654663,-0.2777625024318695,-0.8477510213851929,0.5592875480651855,0.07822094112634659
0.28000712394714355,0.04709172248840332,-0.036173462867736816,-0.04501610994338989,-0.33201977528570287,-1.2674607421767876,1.7845486207739039,-0.9022248387336731,0.3259531557559967,-0.2823916971683502,-0.225961372256279,0.3643339276313782,0.03437107428908348
0.30022311210632324,-0.0010144710540771484,-0.02511131763458252,-0.04281336069107056,-0.3321332218918935,-1.2602292242604303,1.7856581826024496,-0.9001238942146301,0.32606041431427,-0.2888973653316498,0.3211389482021332,0.33232495188713074,0.020501982420682907
0.319378137588501,-0.02323371171951294,-0.05239775776863098,-0.028636008501052856,-0.3299589434746336,-1.2498794055782267,1.7960213227899189,-0.8977562785148621,0.3240041732788086,-0.2984207570552826,0.5978968143463135,0.37694719433784485,0.08631310611963272
0.34003114700317383,-0.012656927108764648,-0.07382255792617798,-0.044754862785339355,-0.3278000564297859,-1.2387131613557147,1.8083269334509555,-0.8950274586677551,0.32196101546287537,-0.30865389108657837,0.5281785130500793,0.3581579625606537,0.09155035763978958
0.3599872589111328,0.00867241621017456,-0.10433366894721985,-0.03679126501083374,-0.3272291801620716,-1.2290839140600032,1.8158478147542108,-0.8921868801116943,0.32142046093940735,-0.317319393157959,0.12974153459072113,0.3682767450809479,0.08431039750576019
0.37998199462890625,0.03537851572036743,-0.13490426540374756,-0.02057701349258423,-0.3292678406204597,-1.2225890457524586,1.8141491828113374,-0.8894892930984497,0.32335028052330017,-0.3228830397129059,-0.3420625925064087,0.32847297191619873,0.0558718666434288
0.40000295639038086,0.07225441932678223,-0.13661745190620422,-0.033522993326187134,-0.3333063133840163,-1.2199776304127665,1.8042750908981475,-0.8874094486236572,0.32716915011405945,-0.3247533142566681,-0.653266429901123,0.2511066794395447,0.00759928859770298
0.42003297805786133,0.08731311559677124,-0.10827997326850891,-0.06680852174758911,-0.3375380872614443,-1.220477477954033,1.7898632530628444,-0.886263370513916,0.3311651051044464,-0.3238316476345062,-0.7438808083534241,0.19465717673301697,-0.08491247147321701
0.44008493423461914,0.08335041999816895,-0.07680976390838623,-0.06962695717811584,-0.3399092907714481,-1.2216487414284543,1.7745535096259293,-0.885901689529419,0.33340156078338623,-0.322523832321167,-0.694962739944458,0.2139863222837448,-0.16648396849632263
0.45999908447265625,0.10125017166137695,-0.05972740054130554,-0.056608498096466064,-0.34127706605419617,-1.2220378067895008,1.7599274997246046,-0.8855977654457092,0.33469077944755554,-0.32202303409576416,-0.6634091138839722,0.22568131983280182,-0.1710575968027115
0.48006296157836914,0.1158401370048523,-0.04441291093826294,-0.06590491533279419,-0.34267562608544366,-1.2230847667394296,1.7448938460128276,-0.8854935169219971,0.33600834012031555,-0.3209358751773834,-0.7213550806045532,0.17779120802879333,-0.18064792454242706
0.5000052452087402,0.10472226142883301,-0.02806881070137024,-0.06414949893951416,-0.3446507662861564,-1.2251549566892685,1.7288132958295073,-0.8855298161506653,0.33786800503730774,-0.3188765347003937,-0.7737600207328796,0.1610465943813324,-0.14263823628425598
0.5200021266937256,0.08411961793899536,-0.0085621178150177,-0.05769956111907959,-0.34767776782180143,-1.227611849374043,1.7122318420517375,-0.8853433728218079,0.3407154381275177,-0.31635433435440063,-0.795605480670929,0.15060770511627197,-0.10073599964380264
0.5397851467132568,0.07185173034667969,0.013583391904830933,-0.061562806367874146,-0.3514728879759079,-1.2304842634370465,1.6962619990161023,-0.885023295879364,0.34428101778030396,-0.31337615847587585,-0.7345051169395447,0.11979741603136063,-0.04043641686439514
0.5593209266662598,0.055029869079589844,0.035367101430892944,-0.0613437294960022,-0.3557568375237851,-1.2329903995312192,1.6826833284281044,-0.8844061493873596,0.34829992055892944,-0.310665488243103,-0.6147544384002686,0.09326185286045074,0.026970641687512398
0.579340934753418,0.05169975757598877,0.04216092824935913,-0.06652581691741943,-0.36060818413818196,-1.2354553631033551,1.6725990256526557,-0.8835631608963013,0.35284337401390076,-0.3079248070716858,-0.4275720715522766,0.026205409318208694,0.12779316306114197
0.6000430583953857,0.047000885009765625,0.049253225326538086,-0.06209844350814819,-0.3661782287938386,-1.2373263878214749,1.6673968188723316,-0.8822669982910156,0.3580496609210968,-0.30562305450439453,-0.21299605071544647,-0.03486655652523041,0.23479343950748444
0.6200041770935059,0.03545641899108887,0.04992818832397461,-0.06465652585029602,-0.3723754871182567,-1.2383258811359918,1.668271945188933,-0.8804576396942139,0.3638291358947754,-0.3040110170841217,0.07970474660396576,-0.09094136208295822,0.3921579122543335
0.6400010585784912,0.018706917762756348,0.04122176766395569,-0.06005650758743286,-0.3791268277737357,-1.2387175474771717,1.6743308032489745,-0.8782345652580261,0.3701094388961792,-0.30285847187042236,0.21980825066566467,-0.1578795611858368,0.43788883090019226
0.6600131988525391,-0.002821207046508789,0.012449145317077637,-0.0448589026927948,-0.38705037692115135,-1.2387999655308133,1.6832050438811983,-0.8754593729972839,0.3774586319923401,-0.3018207252025604,0.2939405143260956,-0.18291185796260834,0.572196900844574
0.6800200939178467,-0.02672344446182251,-0.014766931533813477,-0.03687170147895813,-0.39655411497338144,-1.2383631545044056,1.694055599598668,-0.8718971610069275,0.38624218106269836,-0.3010188043117523,0.34091123938560486,-0.18714521825313568,0.6506266593933105
0.699998140335083,-0.03797924518585205,-0.03078317642211914,-0.02277010679244995,-0.40730869491912747,-1.2369889838237815,1.7062108042399966,-0.867507815361023,0.39613962173461914,-0.30083826184272766,0.36114630103111267,-0.1441834568977356,0.735032320022583
0.7200002670288086,-0.03242605924606323,-0.06436017155647278,0.00018972158432006836,-0.4195642131271279,-1.234540091620504,1.7190089624513587,-0.862120509147644,0.4073624908924103,-0.3013371527194977,0.3438694179058075,-0.13360972702503204,0.8086442947387695
0.7400181293487549,-0.03969252109527588,-0.08877649903297424,0.012854844331741333,-0.4327046469211608,-1.2321448382227238,1.7321758903140196,-0.8562732338905334,0.4193277060985565,-0.30159685015678406,0.37248894572257996,-0.16929830610752106,0.8245306015014648
0.7600641250610352,-0.07394856214523315,-0.09416335821151733,0.013627439737319946,-0.4447396896581638,-1.2297614721616135,1.7467449511675994,-0.8507339954376221,0.43022289872169495,-0.3019268810749054,0.48255622386932373,-0.20750348269939423,0.7489200830459595
0.7800002098083496,-0.08469688892364502,-0.10369226336479187,0.01441451907157898,-0.454286239879166,-1.2276252571033628,1.7628955876975037,-0.8461807370185852,0.43882104754447937,-0.3023478090763092,0.5649348497390747,-0.27716103196144104,0.6354888081550598
0.7995309829711914,-0.05901002883911133,-0.12129130959510803,0.029257476329803467,-0.4613179122374367,-1.2266247701094957,1.7794334030213514,-0.842952311038971,0.4451286494731903,-0.3021456003189087,0.5909199714660645,-0.3580247461795807,0.5356153249740601
0.8200349807739258,-0.031039953231811523,-0.13885796070098877,0.05049869418144226,-0.4664235298704205,-1.227231317495422,1.7957510974539264,-0.840984582901001,0.4496947228908539,-0.3008647859096527,0.6174780130386353,-0.4397161304950714,0.4338935315608978
0.8408079147338867,-0.03597092628479004,-0.138688325881958,0.054820507764816284,-0.46866071635755735,-1.2297823300776616,1.8117721288786568,-0.8407990336418152,0.45169180631637573,-0.2983812093734741,0.6674484014511108,-0.5499745607376099,0.2373650074005127
0.8600869178771973,-0.06276631355285645,-0.129337877035141,0.050342679023742676,-0.4659639563676169,-1.2348177049499742,1.82755039023355,-0.843437910079956,0.4492841958999634,-0.2945443093776703,0.748363196849823,-0.6710917353630066,-0.029885096475481987
0.8800220489501953,-0.08913719654083252,-0.11486950516700745,0.050195127725601196,-0.4574558229045685,-1.242815317608545,1.8425146463305133,-0.84935462474823,0.44166696071624756,-0.2890103757381439,0.7814680933952332,-0.8079344630241394,-0.337932825088501
0.9000492095947266,-0.12365633249282837,-0.09164595603942871,0.05550524592399597,-0.4433544458443398,-1.2552010129133042,1.8546147857007609,-0.8587044477462769,0.4289720058441162,-0.2803739607334137,0.6899145841598511,-0.9608333706855774,-0.6556082963943481
0.9200010299682617,-0.19656360149383545,-0.0605507493019104,0.04930165410041809,-0.42380102537496817,-1.2724397588988952,1.8616011359313112,-0.8712616562843323,0.4112281799316406,-0.26794472336769104,0.4881569743156433,-1.0394760370254517,-1.0249383449554443
0.9400451183319092,-0.2460782527923584,-0.01700010895729065,0.045533448457717896,-0.3990592824555544,-1.2930892481918113,1.861341138075396,-0.8861240148544312,0.3885517120361328,-0.2526104152202606,0.16553890705108643,-1.0081087350845337,-1.3306565284729004
0.9599919319152832,-0.183887779712677,0.021862566471099854,0.045677319169044495,-0.3720529437923226,-1.3155193350715653,1.8529713196725581,-0.9013935327529907,0.36352869868278503,-0.2352372109889984,-0.20512795448303223,-0.9117109179496765,-1.4459617137908936
0.9800031185150146,-0.07920628786087036,0.06453880667686462,0.03827303647994995,-0.3460107970285401,-1.3375297415135536,1.8387154476720884,-0.9152548313140869,0.33914774656295776,-0.21745692193508148,-0.42775121331214905,-0.7867588400840759,-1.3826791048049927
1.0000081062316895,-0.0037213563919067383,0.11322492361068726,0.012445524334907532,-0.32223936233085737,-1.3563666957834808,1.8241091035248918,-0.9268053770065308,0.31669145822525024,-0.20183755457401276,-0.3164829611778259,-0.5965732932090759,-1.2297946214675903
1.020005226135254,0.027379095554351807,0.1759454309940338,-0.014170095324516296,-0.30068729835989155,-1.3676409027141463,1.81710357804026,-0.935490608215332,0.2961767315864563,-0.19270847737789154,0.13943400979042053,-0.3467063903808594,-1.0319170951843262
1.0400221347808838,0.056124091148376465,0.25579655170440674,-0.07393567264080048,-0.27995035133893037,-1.3715182394408652,1.822135270889683,-0.9420493245124817,0.27630794048309326,-0.19025494158267975,0.7439765334129333,-0.1813117414712906,-0.8820263147354126
1.05914306640625,0.09314459562301636,0.29775699973106384,-0.11276331543922424,-0.2606816215271485,-1.3701383751657734,1.8381212106349027,-0.9468280076980591,0.25773921608924866,-0.1925801932811737,1.0589267015457153,-0.11034844070672989,-0.7080461978912354
1.0800120830535889,0.09713292121887207,0.2818821668624878,-0.11402164399623871,-0.24398407359262528,-1.368227127870782,1.8549496286242697,-0.9505416750907898,0.2415706068277359,-0.19522814452648163,0.811255156993866,-0.11913980543613434,-0.5952454209327698
1.1000010967254639,0.09588783979415894,0.23873183131217957,-0.10577212274074554,-0.23157896514948278,-1.3683693092976457,1.8646463231829231,-0.9534317851066589,0.22951462864875793,-0.19568045437335968,0.3793889284133911,-0.11246734112501144,-0.42109474539756775
1.1201341152191162,0.08896404504776001,0.248291015625,-0.08656971156597137,-0.224225248031765,-1.3693508687473734,1.8672037276251674,-0.9552512764930725,0.22235107421875,-0.19507695734500885,0.030399909242987633,-0.0348462238907814,-0.2638099491596222
1.1400022506713867,0.06780272722244263,0.28896647691726685,-0.07695111632347107,-0.22008442236105832,-1.3696317279262535,1.8648372783368063,-0.9562000632286072,0.21831201016902924,-0.19499097764492035,-0.1593300849199295,0.06525827199220657,-0.18103836476802826
1.1600189208984375,0.06583946943283081,0.2975701093673706,-0.07134132087230682,-0.21828896839774273,-1.36879370587741,1.8598126463954598,-0.9564186334609985,0.2165595144033432,-0.1958705186843872,-0.2807481586933136,0.1240452453494072,-0.09028036892414093
1.1800460815429688,0.0691450834274292,0.29491734504699707,-0.06256699562072754,-0.21831790422162412,-1.3677866191636496,1.8525290311920615,-0.9562147855758667,0.21658776700496674,-0.19683235883712769,-0.42843401432037354,0.12915095686912537,-0.04952631890773773
1.2000079154968262,0.08173549175262451,0.2859542965888977,-0.035417601466178894,-0.2199656427384392,-1.3681059733256025,1.841682884290303,-0.9559267163276672,0.2181960940361023,-0.19645486772060394,-0.6452087163925171,0.06957356631755829,0.0054436069913208485
1.2200050354003906,0.08500319719314575,0.27205926179885864,0.0010962188243865967,-0.22355744698024807,-1.3700482913247796,1.827329002805601,-0.9555324912071228,0.22169993817806244,-0.19444029033184052,-0.7777984738349915,0.07672397792339325,0.06528432667255402
1.2400269508361816,0.08252167701721191,0.276530921459198,0.027915731072425842,-0.2287235232941221,-1.372161734094145,1.8116895956061931,-0.9548055529594421,0.2267344743013382,-0.19219177961349487,-0.7851642966270447,0.05992848426103592,0.14097794890403748
1.2600500583648682,0.08834761381149292,0.262020468711853,0.03906428813934326,-0.2354178310559045,-1.3741374503534214,1.7977490443486268,-0.9536736011505127,0.23324930667877197,-0.1900041699409485,-0.6805054545402527,0.06554793566465378,0.23942680656909943
1.2800090312957764,0.0737231969833374,0.23846298456192017,0.07588443160057068,-0.24323754631072075,-1.375487291792907,1.786452481617624,-0.9521108269691467,0.24084612727165222,-0.18835695087909698,-0.5420175790786743,0.06345441937446594,0.2937972843647003
1.30003023147583,0.05725222826004028,0.18785099685192108,0.0965992659330368,-0.2509313972561486,-1.3765069000151549,1.7778841537475714,-0.9504561424255371,0.2483062893152237,-0.18702279031276703,-0.41799384355545044,0.03384388983249664,0.288967490196228
1.320065975189209,0.05793642997741699,0.12654855847358704,0.10782003402709961,-0.25746637023376717,-1.3782730178979659,1.7723816608697511,-0.949171781539917,0.25463125109672546,-0.18502941727638245,-0.20402921736240387,-0.07336325198411942,0.2439524382352829
1.3400912284851074,0.04608893394470215,0.08898034691810608,0.10434223711490631,-0.26174597401901634,-1.380367166539112,1.7725674767574784,-0.9484784603118896,0.2587674558162689,-0.18283335864543915,0.14204907417297363,-0.13445572555065155,0.17337259650230408
1.3600571155548096,0.02327066659927368,0.07382938265800476,0.12162160873413086,-0.263483009788398,-1.3815900254867701,1.7792386202820527,-0.9482585191726685,0.2604449391365051,-0.1815885752439499,0.45108741521835327,-0.13895753026008606,0.120646633207798
1.3800029754638672,-0.007409572601318359,0.0467570424079895,0.1461322158575058,-0.26350218926343966,-1.3795558576826097,1.7915594984653338,-0.947882354259491,0.2604634463787079,-0.18351617455482483,0.6989457607269287,0.04559854790568352,0.12071207165718079
1.400050163269043,-0.0008530020713806152,0.019236624240875244,0.18042749166488647,-0.2640487140801285,-1.371719475783331,1.8072605937935926,-0.9462753534317017,0.26099106669425964,-0.1909102350473404,0.7788837552070618,0.3563579320907593,0.2298521250486374
1.420032024383545,-0.03067481517791748,0.00019109249114990234,0.20891249179840088,-0.2662174792546444,-1.354470417686828,1.8260999373474287,-0.9422866702079773,0.2630840539932251,-0.2070813924074173,0.9736891388893127,0.9178797006607056,0.3822062015533447
1.4401490688323975,-0.09477680921554565,0.029190093278884888,0.17440897226333618,-0.2704351948068275,-1.3252472106709132,1.8504609130981051,-0.9347490072250366,0.2671508491039276,-0.2342538833618164,1.2688677310943604,1.284540057182312,0.5027008652687073
1.460212230682373,-0.13358718156814575,0.09783357381820679,0.026478588581085205,-0.27302314515240844,-1.2921993177170006,1.878763151453482,-0.9258305430412292,0.2696438431739807,-0.26482081413269043,1.2686666250228882,1.1391494274139404,0.4128809869289398
1.4800710678100586,-0.027508199214935303,0.06421387195587158,-0.02114906907081604,-0.2737093551889519,-1.2644743474904026,1.9053539176757994,-0.9179568886756897,0.2703045606613159,-0.2903285026550293,1.0955395698547363,0.9351881742477417,0.4388894736766815
1.5001001358032227,0.08143216371536255,-0.07686004042625427,0.07479113340377808,-0.27777564895548973,-1.2425390030856451,1.92609351813435,-0.9103201031684875,0.27421724796295166,-0.3100358247756958,0.712673544883728,0.6854580044746399,0.5561421513557434
1.5202181339263916,0.15364378690719604,-0.07435953617095947,0.037465035915374756,-0.2846866459492243,-1.2274117240472089,1.944221418585835,-0.9037201404571533,0.280856728553772,-0.3231247365474701,0.7802827954292297,0.35547083616256714,0.6607270836830139
1.5400540828704834,0.1261560320854187,-0.03338924050331116,-0.0575728714466095,-0.2921508884882272,-1.2169436682609185,1.9675237775785275,-0.8982965350151062,0.28801262378692627,-0.33183133602142334,1.1017522811889648,0.006733262911438942,0.8361325263977051
1.5591890811920166,0.01241225004196167,-0.01966455578804016,-0.1816374957561493,-0.30130235205267614,-1.2087879537125659,2.002105150103273,-0.8930579423904419,0.2967641353607178,-0.33819884061813354,1.4613779783248901,-0.19753998517990112,1.0049891471862793
1.579988956451416,-0.2019626498222351,-0.03063201904296875,-0.12394708395004272,-0.3103714216540609,-1.2016642141871052,2.0401417215697575,-0.8880795240402222,0.30541232228279114,-0.3435669243335724,1.6206704378128052,-0.23053725063800812,1.2296556234359741
1.6065340042114258,-0.21531552076339722,-0.02328696846961975,-0.1666322946548462,-0.33535416492940595,-1.1922561428636227,2.1073687550250764,-0.8774426579475403,0.32910361886024475,-0.34897738695144653,0.7874469757080078,-0.3721102774143219,1.1541460752487183
1.628270149230957,-0.12136155366897583,-0.07682698965072632,-0.12720909714698792,-0.3523202759656344,-1.1938275050750928,2.126813473945569,-0.8726722002029419,0.34507647156715393,-0.3454928696155548,0.3230259418487549,-0.4180224537849426,1.1029820442199707
1.6472859382629395,-0.04097026586532593,-0.1278458535671234,-0.0858754813671112,-0.371025969459149,-1.1972149129422625,2.140029623578479,-0.8676753640174866,0.3625717759132385,-0.34011930227279663,0.18647214770317078,-0.38062864542007446,1.101213812828064
1.6682162284851074,0.03268134593963623,-0.16136857867240906,-0.07924461364746094,-0.3889348636795926,-1.199668043244583,2.1530794407641602,-0.8623170256614685,0.37920305132865906,-0.3355807960033417,0.32988104224205017,-0.3620385527610779,1.0096139907836914
1.6880581378936768,0.1041749119758606,-0.17724889516830444,-0.09047442674636841,-0.40361867527710565,-1.2011142343692658,2.1692722532661737,-0.8575165867805481,0.39274880290031433,-0.3322855234146118,0.517560601234436,-0.4263823926448822,0.8925185203552246
1.7079849243164062,0.1522655487060547,-0.1955322027206421,-0.07668271660804749,-0.4145489463306177,-1.2038159433127549,2.1864544890239306,-0.8543530702590942,0.40277713537216187,-0.3284076154232025,0.5143879055976868,-0.5344908237457275,0.6887749433517456
1.7280380725860596,0.183732271194458,-0.21942436695098877,-0.028120696544647217,-0.42242795448082743,-1.2112103576790403,2.1988775389587603,-0.8537609577178955,0.40997618436813354,-0.3209545612335205,0.2377174198627472,-0.7333258986473083,0.447238028049469
1.7470171451568604,0.21611624956130981,-0.2264847457408905,-0.02900606393814087,-0.42749781063906955,-1.2262126784595389,2.202578059804707,-0.8565123677253723,0.4145950973033905,-0.30740442872047424,-0.058460548520088196,-0.8984354138374329,0.14120951294898987
1.767902135848999,0.20680588483810425,-0.20806288719177246,0.020705044269561768,-0.42849920767675487,-1.2448467465676898,2.200718152542375,-0.8616978526115417,0.41550615429878235,-0.2912586033344269,-0.09550777077674866,-0.8759796619415283,-0.07088711112737656
1.785912036895752,0.2420656681060791,-0.20575517416000366,0.02026146650314331,-0.42593007193694343,-1.2632278990067303,2.1990206090639206,-0.8679201602935791,0.41316792368888855,-0.2756935656070709,0.02413928508758545,-0.9284342527389526,-0.22888080775737762
1.8077802658081055,0.3269416093826294,-0.18211472034454346,-0.06143942475318909,-0.4191326298805053,-1.2832457025348307,2.1995057847449115,-0.8759377598762512,0.4069683253765106,-0.2590561807155609,0.2489187866449356,-1.106035828590393,-0.39370492100715637
1.8275961875915527,0.3821539282798767,-0.15092670917510986,-0.08029881119728088,-0.4083514070158357,-1.3052903430963165,2.203904820737147,-0.8856178522109985,0.3970968425273895,-0.24082240462303162,0.411163866519928,-1.2969602346420288,-0.5524590611457825
1.8477301597595215,0.4171503782272339,-0.13977569341659546,-0.09065783023834229,-0.3932904412897863,-1.3314102121192537,2.209260897155363,-0.8973139524459839,0.38322970271110535,-0.21900396049022675,0.45668813586235046,-1.5400054454803467,-0.7852454781532288
1.8680529594421387,0.42896759510040283,-0.1081540584564209,-0.1301167905330658,-0.37399911233526995,-1.3610575656590944,2.216793824577483,-0.9104740619659424,0.3653410077095032,-0.1938120275735855,0.6621437668800354,-1.6852771043777466,-0.9275324940681458
1.8876051902770996,0.4164222478866577,-0.06957298517227173,-0.12287867069244385,-0.35200496892527733,-1.3907045161556753,2.22897591731154,-0.9235023260116577,0.3447805345058441,-0.16813687980175018,0.8575254082679749,-1.7218587398529053,-1.0208046436309814
1.9073410034179688,0.43026435375213623,-0.06340491771697998,-0.13016629219055176,-0.3282234909938907,-1.420899781614534,2.242933314770394,-0.936001718044281,0.32236185669898987,-0.14136378467082977,0.7913089990615845,-1.7793223857879639,-1.1153146028518677
1.927544116973877,0.43541693687438965,-0.07155454158782959,-0.15245114266872406,-0.30399849342785873,-1.4533855193828558,2.2538398857133255,-0.9475780725479126,0.2993377447128296,-0.11176997423171997,0.5752330422401428,-1.8120272159576416,-1.1673685312271118
1.9454660415649414,0.4025726914405823,-0.06990477442741394,-0.11202293634414673,-0.2800323447611366,-1.4860299182668615,2.260440130501202,-0.9575958847999573,0.27638673782348633,-0.08136694133281708,0.29402321577072144,-1.6200824975967407,-1.1660326719284058
1.9655871391296387,0.40029579401016235,-0.04508852958679199,-0.10562796145677567,-0.25668402315221395,-1.5148810060078937,2.2635915716828556,-0.9657256603240967,0.25387462973594666,-0.05405520647764206,0.17993557453155518,-1.3585246801376343,-1.1328927278518677
1.9862470626831055,0.4283302426338196,0.004118204116821289,-0.15575140714645386,-0.23460012913368586,-1.5392308399844412,2.2661590602223414,-0.9721229672431946,0.2324540913105011,-0.030695730820298195,0.18137714266777039,-1.133655071258545,-1.0279109477996826
2.0071239471435547,0.4556310176849365,0.03705182671546936,-0.17951476573944092,-0.2166845431011598,-1.5592761451208843,2.2674793452734234,-0.9765507578849792,0.21499288082122803,-0.011250539682805538,-0.02623247727751732,-0.9349189400672913,-0.7631883025169373
2.0273070335388184,0.4929109811782837,0.009704619646072388,-0.20789647102355957,-0.20415882114007236,-1.5776948060581384,2.2661022681898504,-0.9792085886001587,0.2027435153722763,0.006755157373845577,-0.10299421101808548,-0.8762674927711487,-0.4906885623931885
2.0469322204589844,0.5198742151260376,0.09048281610012054,-0.18453192710876465,-0.19743373528267275,-1.5947080214351879,2.265400567409748,-0.9802930355072021,0.19615356624126434,0.02344493754208088,0.15796004235744476,-0.7916074991226196,-0.16943535208702087
2.0662131309509277,0.4624992609024048,0.1075197160243988,-0.1766974925994873,-0.1982814089835073,-1.606336532989109,2.274983907750764,-0.9797874689102173,0.19698470830917358,0.03483651578426361,0.7544373869895935,-0.54143226146698,0.22923505306243896
2.0870330333709717,0.3853098154067993,0.10040450096130371,-0.12795186042785645,-0.20548177058096137,-1.610138760599837,2.2939407504011333,-0.9782050848007202,0.2040388137102127,0.038504838943481445,1.067526936531067,-0.2115003615617752,0.37677162885665894
2.106048107147217,0.34258103370666504,0.006125450134277344,-0.016929034143686295,-0.21405712857891648,-1.607398147250874,2.3138716954961533,-0.9765226244926453,0.21242617070674896,0.035758476704359055,0.8523317575454712,0.03228664770722389,0.3824974000453949
2.126901149749756,0.29586541652679443,-0.09617485105991364,0.0540386438369751,-0.22089164307554113,-1.6042621409723568,2.326767671849983,-0.9751561284065247,0.21909968554973602,0.032646581530570984,0.44943416118621826,-0.05699466913938522,0.23439142107963562
2.1467819213867188,0.1437426209449768,-0.05920630693435669,0.010269518941640854,-0.22361722948672552,-1.6052606657479986,2.3356215687172446,-0.974522590637207,0.22175823152065277,0.03359958156943321,0.48371458053588867,-0.2222958356142044,-0.004262816626578569
2.1668901443481445,-0.08177399635314941,0.08958958089351654,-0.009026885032653809,-0.21982431083329038,-1.6061950564506486,2.348860320253421,-0.9753243923187256,0.21805816888809204,0.03453967347741127,0.8274974822998047,-0.135361909866333,-0.4397905766963959
2.1868200302124023,-0.22011393308639526,0.1666048914194107,0.03685104846954346,-0.20795278672988712,-1.6026140216373985,2.3692770162635752,-0.9779604077339172,0.2064572274684906,0.031126949936151505,1.0518866777420044,0.07676685601472855,-0.7843467593193054
2.2064931392669678,-0.18432354927062988,0.13926127552986145,0.07939541339874268,-0.1915900952545303,-1.596767915122275,2.388423703690151,-0.9813716411590576,0.19042013585567474,0.02549351193010807,0.7316918969154358,0.09983666241168976,-0.8658306002616882
2.226527214050293,-0.11609870195388794,0.08173300325870514,0.09958457946777344,-0.17686281698039247,-1.5939659988157626,2.399813808080537,-0.9841362833976746,0.17594219744205475,0.0228061955422163,0.3873981237411499,-0.036046337336301804,-0.6109904050827026
2.2466721534729004,-0.22144240140914917,0.14512847363948822,0.03866863250732422,-0.16522309686166176,-1.5937056977543882,2.4069257156276627,-0.9861230254173279,0.16447240114212036,0.02259541116654873,0.3774058222770691,-0.05940128117799759,-0.6426337361335754
2.2685000896453857,-0.34944087266921997,0.2551652789115906,0.043749332427978516,-0.15127963312146575,-1.592651712296913,2.418795360222703,-0.9883429408073425,0.1507032811641693,0.021604055538773537,0.7683306932449341,0.0017928327433764935,-0.7032133936882019
2.286813259124756,-0.3200579881668091,0.18528372049331665,0.17594492435455322,-0.14217541026240504,-1.588420031700707,2.43639489142,-0.9897564649581909,0.14169691503047943,0.01744498312473297,0.8871240019798279,0.1603146642446518,-0.22927197813987732
2.3063530921936035,-0.44291865825653076,0.13196101784706116,0.20998477935791016,-0.14010333974022063,-1.5803573694644044,2.455566420371243,-0.9901562333106995,0.13964544236660004,0.009467214345932007,1.035953402519226,0.34714481234550476,-0.09095817804336548
2.3244340419769287,-0.5688628554344177,0.13263334333896637,0.20855289697647095,-0.13754482544221364,-1.5695374644450253,2.4786780761880616,-0.9905547499656677,0.13711154460906982,-0.0012469727080315351,1.2297930717468262,0.4013385474681854,-0.14385494589805603
2.34653902053833,-0.4886646270751953,0.03595931828022003,0.2617040276527405,-0.13512106494203327,-1.5586763988796253,2.502541030905146,-0.9908123016357422,0.13471026718616486,-0.01200916152447462,1.1056456565856934,0.3608505129814148,-0.09771586209535599
2.365394115447998,-0.45866304636001587,-0.021466508507728577,0.2816849946975708,-0.13280320261840656,-1.5501278798554656,2.522412416768837,-0.9909828901290894,0.13241317868232727,-0.02048499509692192,0.8807988166809082,0.2259971648454666,-0.09899938106536865
2.386115074157715,-0.5363434553146362,-0.026819035410881042,0.22592461109161377,-0.13138371525087794,-1.5447788827144637,2.5386729862680797,-0.9910460114479065,0.13100606203079224,-0.025790303945541382,0.7157531380653381,0.11313489824533463,0.011066338047385216
2.404233932495117,-0.6132078766822815,2.1889805793762207e-05,0.2346029281616211,-0.13312243399049362,-1.5412500210860434,2.5484608614704296,-0.990719735622406,0.13272958993911743,-0.029280629009008408,0.2222655713558197,0.10678981989622116,0.17596080899238586
2.425995111465454,-0.6344472169876099,-0.01062077283859253,0.2604382038116455,-0.13774972204960836,-1.539718884661822,2.549358418808417,-0.9900491833686829,0.13731449842453003,-0.030778106302022934,-0.10793479532003403,0.051100194454193115,0.3587559163570404
2.4459540843963623,-0.5880852341651917,-0.049734726548194885,0.2849501371383667,-0.14695810032115925,-1.5401961096212091,2.5464936513272494,-0.9887580275535583,0.14642970263957977,-0.030265657231211662,-0.13196055591106415,-0.04777480661869049,0.5066054463386536
2.4659829139709473,-0.5609089732170105,-0.037941545248031616,0.2732750177383423,-0.1568239144492099,-1.5444330063337637,2.5472803614487347,-0.9873849749565125,0.15618188679218292,-0.026036778464913368,0.2531322240829468,-0.4281482398509979,0.478417307138443
2.4843311309814453,-0.5608687400817871,-0.0400099903345108,0.25267988443374634,-0.16525765463704004,-1.5548368479765933,2.5577761666635883,-0.9862504601478577,0.1645064800977707,-0.0157413799315691,0.7230849266052246,-0.7080276012420654,0.38725268840789795
2.5036370754241943,-0.6028573513031006,-0.09686543047428131,0.2517629861831665,-0.17183708348303786,-1.5662348575835388,2.575664123756556,-0.9852621555328369,0.1709926575422287,-0.0044942740350961685,1.0088704824447632,-0.7135950922966003,0.30436769127845764
2.525562047958374,-0.639883279800415,-0.14435772597789764,0.21605348587036133,-0.17635262415274536,-1.5785416875627436,2.596266659162887,-0.9844607710838318,0.17543993890285492,0.007625156082212925,0.9789884090423584,-0.8114458322525024,0.11648812144994736
2.5454580783843994,-0.6328964233398438,-0.18388892710208893,0.1667100191116333,-0.1791697526693643,-1.5911816309639033,2.6135559134221227,-0.9837874174118042,0.17821267247200012,0.02005758509039879,0.6559866070747375,-0.7554653882980347,0.2057768851518631
2.5670299530029297,-0.613406240940094,-0.20143912732601166,0.12326526641845703,-0.18390410208202795,-1.60736602175903,2.619276321611042,-0.9824800491333008,0.18286922574043274,0.035945020616054535,-0.060159046202898026,-0.8858084678649902,0.2268136590719223
2.588099956512451,-0.6655791997909546,-0.20644435286521912,0.07424139976501465,-0.19073786914690735,-1.6242428958639552,2.6122994665597745,-0.9804626703262329,0.1895834356546402,0.052452318370342255,-0.5273604393005371,-0.6835985779762268,0.5116183161735535
2.604893207550049,-0.648567795753479,-0.16085408627986908,0.021667949855327606,-0.20178675117370373,-1.6409243720327518,2.597747320014054,-0.9773019552230835,0.20042014122009277,0.06864885240793228,-0.7794336676597595,-0.6105417013168335,0.6939238905906677
2.6230931282043457,-0.6161046624183655,-0.14861738681793213,0.03364682197570801,-0.21698168129913484,-1.6541738629552558,2.5793832755498483,-0.9731592535972595,0.21528306603431702,0.08132816851139069,-0.853959321975708,-0.30372631549835205,0.9709733724594116
2.641921043395996,-0.676358699798584,-0.11608758568763733,-0.029363036155700684,-0.23754759504753695,-1.6610874951312935,2.5623690084427833,-0.967958927154541,0.23531979322433472,0.08763642609119415,-0.594249963760376,-0.04321432113647461,1.1897003650665283
2.6612019538879395,-0.7513173222541809,-0.022712022066116333,-0.10731066763401031,-0.26138060610082087,-1.6630724350380766,2.5511324525817236,-0.961924135684967,0.25841450691223145,0.0890154093503952,-0.31906285881996155,0.13853150606155396,1.302017092704773
2.6797690391540527,-0.7467211484909058,-0.09375894069671631,-0.12589097023010254,-0.28857390803909017,-1.6606152238397818,2.5422585487925753,-0.9547864198684692,0.2845853865146637,0.08598922938108444,-0.332377165555954,0.30936121940612793,1.4879640340805054
2.700054168701172,-0.7348938584327698,-0.09420102834701538,-0.1347123384475708,-0.3173348149061552,-1.6573028691943923,2.5314706466444252,-0.9465178847312927,0.31203556060791016,0.08208484947681427,-0.39113685488700867,0.40558648109436035,1.4609211683273315
2.720047950744629,-0.7493067979812622,-0.05903071165084839,-0.15614545345306396,-0.34607977038062077,-1.6509490386531938,2.521549522494888,-0.9376896619796753,0.3392126262187958,0.07531973719596863,-0.3139055371284485,0.5451968312263489,1.4741642475128174
2.739969253540039,-0.6852096915245056,-0.0464155375957489,-0.09168267250061035,-0.3737188905644775,-1.6407821419909612,2.511440489235948,-0.9286972284317017,0.3650801479816437,0.06510195881128311,-0.4149070680141449,0.8346762657165527,1.3759502172470093
2.759341239929199,-0.5975692868232727,-0.012736320495605469,-0.08275150507688522,-0.4003441630256493,-1.6260687096750357,2.502087724518208,-0.9195206761360168,0.38973531126976013,0.05087592080235481,-0.30556684732437134,0.9840579628944397,1.349585771560669
2.7799530029296875,-0.46504443883895874,0.0416790246963501,-0.059276457875967026,-0.4266700346288242,-1.60997363832363,2.4924416075571827,-0.9096505045890808,0.4138416647911072,0.035655904561281204,-0.43755412101745605,1.0213478803634644,1.3313065767288208
2.800387144088745,-0.346645712852478,0.03906965255737305,-0.05712389945983887,-0.45302927874025767,-1.5939918792946328,2.481869757361483,-0.8988834619522095,0.43769124150276184,0.020853839814662933,-0.3997412323951721,1.0134440660476685,1.3290306329727173
2.820096969604492,-0.21343117952346802,0.0844731330871582,-0.02183973789215088,-0.4789476382669292,-1.5775928484682726,2.473324650136341,-0.887459933757782,0.4608454704284668,0.006031733471900225,-0.3677749037742615,1.0279287099838257,1.2888739109039307
2.8422341346740723,-0.09594178199768066,0.07790964841842651,0.03237634897232056,-0.5045521666789645,-1.5618923144277472,2.4628113819886663,-0.8753564357757568,0.4834154546260834,-0.007794390432536602,-0.5811994075775146,1.0428518056869507,1.2668668031692505
2.8602561950683594,9.274482727050781e-05,0.07504606246948242,0.06138652563095093,-0.5289242280837934,-1.5481889984168937,2.4485268848640565,-0.8631298542022705,0.5046048760414124,-0.019516386091709137,-0.6584833860397339,1.016239881515503,1.165088176727295
2.8815250396728516,0.11773407459259033,0.13892072439193726,0.16245800256729126,-0.5521287284680322,-1.5368307791677973,2.434006141724464,-0.8509187698364258,0.524500846862793,-0.028913041576743126,-0.6192631721496582,0.8669019937515259,1.1158649921417236
2.9015512466430664,0.24385124444961548,0.19309115409851074,0.3108746409416199,-0.5745058930757062,-1.5277860450064626,2.424634569351245,-0.8386845588684082,0.5434200763702393,-0.03609431907534599,-0.22013892233371735,0.5357542037963867,1.1018556356430054
2.924647092819214,0.36847925186157227,0.27202653884887695,0.3763657212257385,-0.5957549916042896,-1.5164335630434251,2.4298389156616826,-0.82650226354599,0.561133861541748,-0.04497526213526726,0.6102915406227112,0.3267483711242676,1.063448190689087
2.9435391426086426,0.44143372774124146,0.2686140537261963,0.3236325979232788,-0.6151038513392509,-1.497594176738464,2.455984071540791,-0.814526379108429,0.577043354511261,-0.05973181128501892,1.3509498834609985,0.13199691474437714,1.0168944597244263
2.9643049240112305,0.49179667234420776,0.12442535161972046,0.2678341269493103,-0.6332229213367229,-1.4717748928988479,2.4953443228037537,-0.8021756410598755,0.591745913028717,-0.07969322800636292,1.5320422649383545,0.18618522584438324,1.0555005073547363
2.984194040298462,0.5069528222084045,-0.05507469177246094,0.24658901989459991,-0.6496335501661307,-1.4445969970184414,2.53033697113616,-0.789972722530365,0.6048946380615234,-0.10022667050361633,1.1011645793914795,0.44135788083076477,0.8864403963088989
3.004120111465454,0.5693602561950684,-0.21746885776519775,0.1870180368423462,-0.6641365121132223,-1.417435206579181,2.5564501284473726,-0.7782073020935059,0.6163793802261353,-0.12029130011796951,0.7399199604988098,0.6354780793190002,0.8572013974189758
3.023313045501709,0.6794971823692322,-0.2301986813545227,0.15949605405330658,-0.6785433115448258,-1.3930904941655773,2.5768430169427003,-0.7662282586097717,0.6276596784591675,-0.1376148909330368,0.7440155148506165,0.570281982421875,0.8660681247711182
3.0430102348327637,0.6966261267662048,-0.19621282815933228,0.06342722475528717,-0.6934851522338938,-1.3651833013560783,2.602907568900253,-0.7528242468833923,0.63922119140625,-0.1570093333721161,0.9272748231887817,0.5661431550979614,0.9129534959793091
3.0638670921325684,0.6366527676582336,-0.21705842018127441,0.0519636869430542,-0.7048116081274651,-1.3322779829154971,2.6336371799157847,-0.7401683926582336,0.6478903293609619,-0.1799696385860443,1.0932081937789917,0.8174759149551392,0.7488105893135071
3.082087993621826,0.6449437737464905,-0.32168257236480713,0.08071368932723999,-0.7124818247509582,-1.2925978213149265,2.6656332910482834,-0.7276464104652405,0.6537138819694519,-0.2078193724155426,1.0918532609939575,0.9903392195701599,0.589146077632904
3.1029131412506104,0.6604769825935364,-0.32026946544647217,0.048698484897613525,-0.7152150610902231,-1.2497776689879792,2.7016180537444865,-0.7163851261138916,0.6557797789573669,-0.23821261525154114,1.4963394403457642,0.9370173811912537,0.5737357139587402
3.122854232788086,0.618747889995575,-0.21085000038146973,-0.02517065405845642,-0.7149539918748309,-1.1996501458886246,2.750421139799288,-0.7037087678909302,0.6555826663970947,-0.2738710343837738,1.930010199546814,0.8991900682449341,0.5715404748916626
3.1428170204162598,0.47407686710357666,-0.20530951023101807,-0.046642839908599854,-0.7083631291135561,-1.1453979621252763,2.803348893468917,-0.6917434930801392,0.6505915522575378,-0.31340351700782776,1.939077615737915,1.1083347797393799,0.4132784307003021
3.1638360023498535,0.43989771604537964,-0.3047372102737427,0.02983987331390381,-0.7003753079136414,-1.093171691166434,2.8477813212208076,-0.6790334582328796,0.6445046663284302,-0.35146456956863403,1.4622607231140137,1.1665148735046387,0.34560146927833557
3.1817359924316406,0.4587465524673462,-0.30346304178237915,0.03374290466308594,-0.6918543442319397,-1.048457749614742,2.883480177658682,-0.6673800349235535,0.6379662156105042,-0.38419148325920105,1.478732705116272,0.9941157102584839,0.23842065036296844
3.2034010887145996,0.41168391704559326,-0.17677927017211914,-0.014115005731582642,-0.6769977985346454,-1.0049714008879027,2.9232756880274002,-0.657975971698761,0.6264557838439941,-0.4178765118122101,1.9587703943252563,0.8441407084465027,0.04021679610013962
3.2237091064453125,0.3433685302734375,-0.1872919201850891,0.032026588916778564,-0.6516085647693796,-0.9613172030732107,2.9670866605270882,-0.6519469618797302,0.6064661741256714,-0.4551527500152588,2.2954955101013184,0.8820392489433289,-0.20159558951854706
3.243472099304199,0.36238569021224976,-0.15357500314712524,0.05440247058868408,-0.6186315512248584,-0.9178950209050214,3.01187432901005,-0.647114634513855,0.5799208879470825,-0.4949084520339966,2.5687971115112305,0.7241947650909424,-0.3397335112094879
3.2635791301727295,0.4548165202140808,-0.027100801467895508,0.0516742467880249,-0.5810727427977749,-0.8834419383624763,3.0544052496422025,-0.646070122718811,0.5489209294319153,-0.5303577184677124,2.4805359840393066,0.28059670329093933,-0.36779722571372986
3.2837891578674316,0.5836687088012695,-0.15030962228775024,0.30130743980407715,-0.546939864538302,-0.8560826160631652,3.0952650536576,-0.6451005935668945,0.5200759172439575,-0.5597913265228271,2.369661569595337,0.24518781900405884,-0.07959233969449997
3.303455114364624,0.5640418529510498,-0.0254439115524292,0.21412169933319092,-0.5085549007257459,-0.8341541291446838,3.1394194882960282,-0.6469886898994446,0.4869155287742615,-0.5867870450019836,3.1863574981689453,-0.17358937859535217,-0.2661345601081848
3.3224191665649414,0.4687783718109131,0.11363154649734497,0.20900750160217285,-0.4539036604830452,-0.8116847697538143,-3.0900152714787033,-0.6519906520843506,0.4384772479534149,-0.6185838580131531,3.905630588531494,-0.1407836675643921,-0.5152168869972229
3.3432490825653076,0.47571855783462524,-0.04259103536605835,0.19616007804870605,-0.39449516267490553,-0.7989341867236176,-3.039008552610702,-0.6615706086158752,0.38434216380119324,-0.6438986659049988,3.5661990642547607,-0.7384283542633057,-0.5022175312042236
3.363006114959717,0.4329882860183716,-0.10406148433685303,0.15579164028167725,-0.34249957401171033,-0.803616646781747,-2.9984215708117854,-0.6780596971511841,0.3358425199985504,-0.653792679309845,2.781149387359619,-1.1537145376205444,-0.6710657477378845
3.383197069168091,0.32892435789108276,-0.10996544361114502,0.21897780895233154,-0.2955226329678873,-0.8179024895117711,-2.9664742543727938,-0.6980802416801453,0.291239857673645,-0.6541126370429993,2.4638102054595947,-1.3113452196121216,-0.6083998084068298
3.403186082839966,0.38826942443847656,-0.13449916243553162,0.40398138761520386,-0.2593765090335795,-0.8394343513121599,-2.9409107891625226,-0.7193698287010193,0.256477952003479,-0.6455432772636414,1.793119192123413,-1.6462019681930542,-0.44169944524765015
3.423333168029785,0.23814749717712402,-0.033958181738853455,0.25961703062057495,-0.2304976019313745,-0.871239080635337,-2.9192834895414292,-0.744891881942749,0.22846199572086334,-0.6268501877784729,1.7590874433517456,-2.002903461456299,-0.284135639667511
3.443157196044922,0.09876638650894165,0.016918152570724487,0.23776239156723022,-0.20804438521951082,-0.9099628581349696,-2.8969023529436444,-0.7724571824073792,0.2065468579530716,-0.6005401015281677,1.3278483152389526,-2.420438051223755,-0.11854275315999985
3.46281099319458,0.029953420162200928,-0.044002026319503784,0.25055062770843506,-0.1960271989372347,-0.9597203437414763,-2.8778847387886257,-0.8033451437950134,0.19477416574954987,-0.5627606511116028,0.9763324856758118,-2.916750431060791,0.33785420656204224
3.4827451705932617,-0.08291882276535034,-0.027578622102737427,0.26388388872146606,-0.1930361345816722,-1.0165725834482693,-2.8609915664672547,-0.8345158100128174,0.19183951616287231,-0.5165083408355713,0.688372790813446,-3.2242348194122314,0.1378590315580368
3.5027360916137695,-0.4864726662635803,0.045266732573509216,0.1728576421737671,-0.18807896188615597,-1.0768071239986268,-2.853514600579819,-0.8649219870567322,0.18697208166122437,-0.4657805860042572,-0.0024632983841001987,-2.7846267223358154,-0.1555197387933731
3.5226049423217773,-0.690441370010376,0.00687098503112793,0.2638881206512451,-0.18109854725101926,-1.1168743410414,-2.8553514022807387,-0.8840367794036865,0.18011026084423065,-0.43132278323173523,0.19963927567005157,-1.5120090246200562,-0.5848236680030823
3.542447090148926,-0.9458455443382263,0.08751654624938965,-0.15446311235427856,-0.16973656283075123,-1.1466700630299846,-2.8566438885648395,-0.8983012437820435,0.16892270743846893,-0.40561071038246155,-0.10696463286876678,-1.3565576076507568,-0.29559600353240967
3.5628230571746826,-0.9168781042098999,-0.21389248967170715,-0.11121326684951782,-0.17736058799950868,-1.1677318849068998,-2.8696243554847567,-0.905433177947998,0.17643217742443085,-0.3860858976840973,-1.3404792547225952,-0.6266143918037415,0.49517786502838135
3.5828521251678467,-0.817734956741333,-0.07176175713539124,-0.08958971500396729,-0.20172828930506134,-1.178355573397257,-2.894458411589296,-0.9052417278289795,0.20036287605762482,-0.3746894598007202,-1.4767661094665527,0.04557005316019058,0.6341031789779663
3.602339029312134,-0.648922324180603,0.23791301250457764,-0.13056695461273193,-0.21848733467338474,-1.1776598515686252,-2.9045378178350494,-0.9017521142959595,0.21675316989421844,-0.3739801347255707,-0.026546994224190712,0.18544593453407288,0.6557857394218445
3.622251033782959,-0.47262436151504517,0.05043970048427582,-0.12229481339454651,-0.23005721567120258,-1.1661849274479945,-2.8899202847541496,-0.8950361013412476,0.22803322970867157,-0.3832898736000061,0.6651044487953186,0.6448578834533691,1.0034087896347046
3.6422650814056396,-0.42762356996536255,-0.31138408184051514,0.005469828844070435,-0.2514334066262646,-1.1449096063924589,-2.8784032462082756,-0.8820382356643677,0.24879254400730133,-0.40013834834098816,-0.8123274445533752,1.1855576038360596,1.4120445251464844
3.6622140407562256,-0.3724534511566162,-0.4851677715778351,0.10644832253456116,-0.29353362283287693,-1.1222375340000337,-2.893483341725434,-0.8625319004058838,0.28933650255203247,-0.4151183068752289,-1.89884352684021,1.5403108596801758,1.7558038234710693
3.682384967803955,-0.2920604348182678,-0.18424618244171143,0.013170003890991211,-0.34023227021448615,-1.09539474523874,-2.908008586290805,-0.8381428122520447,0.3337060511112213,-0.4314591586589813,-1.2842543125152588,1.515497088432312,1.7520867586135864
3.7012040615081787,-0.28541553020477295,0.12298759818077087,-0.03931647539138794,-0.3746696354139741,-1.0657758451208812,-2.9033284989210983,-0.8144532442092896,0.3659650981426239,-0.4502617418766022,0.09902255982160568,1.113343596458435,1.3767859935760498
3.7219021320343018,-0.24559950828552246,0.06661763787269592,0.16976869106292725,-0.3885506264733009,-1.0349021188465468,-2.8821557727067693,-0.7957212924957275,0.37884747982025146,-0.47254881262779236,0.7344167828559875,1.3329105377197266,1.0074466466903687
3.7418761253356934,-0.17101317644119263,-0.22911572456359863,0.20939484238624573,-0.40173031907281553,-1.0004387564278157,-2.86036527468403,-0.7746960520744324,0.39101147651672363,-0.49694669246673584,0.18598780035972595,1.2599687576293945,1.126894235610962
3.761867046356201,-0.11609739065170288,-0.3314780294895172,0.24191522598266602,-0.422320039257835,-0.9721752319617333,-2.8510138858464584,-0.7535315155982971,0.409877747297287,-0.5139946937561035,-0.5281310081481934,1.17948317527771,1.0568181276321411
3.7817039489746094,-0.09766960144042969,-0.21686005592346191,0.22163116931915283,-0.4441322012376518,-0.948544931874591,-2.8504499894951847,-0.7337360382080078,0.4296744465827942,-0.5263186097145081,-0.5192201733589172,1.1540801525115967,0.6998836994171143
3.8016982078552246,-0.11122733354568481,-0.10467684268951416,0.15914297103881836,-0.45517837298887326,-0.9258799010242924,-2.849266623306201,-0.7177826166152954,0.43962252140045166,-0.5399259924888611,-0.05555642396211624,1.1276055574417114,0.2949294447898865
3.821682929992676,-0.0866621732711792,-0.1354028284549713,0.13561362028121948,-0.45949224657758314,-0.9032958842226989,-2.8474811316833266,-0.7039109468460083,0.4434930682182312,-0.5548182129859924,-0.25565266609191895,1.0359631776809692,0.16169755160808563
3.840604066848755,-0.07569783926010132,-0.23126637935638428,0.14395451545715332,-0.46851023817508136,-0.8880622618040205,-2.855709999482135,-0.6922465562820435,0.45155754685401917,-0.5629302859306335,-0.9006538987159729,0.9169227480888367,0.10229619592428207
3.859976053237915,-0.10511147975921631,-0.22810718417167664,0.14117509126663208,-0.48439300893911574,-0.8768986395186001,-2.8748153054161736,-0.6803193688392639,0.46567127108573914,-0.5659644603729248,-1.2984890937805176,1.0691672563552856,0.02899095043540001
3.8817429542541504,-0.09520184993743896,-0.15227371454238892,0.09855055809020996,-0.5005526776539426,-0.8661540765892326,-2.897586433719142,-0.668378472328186,0.4799104928970337,-0.5682923197746277,-1.3454406261444092,1.17017662525177,-0.10097569227218628
3.9015111923217773,-0.042567670345306396,-0.10593801736831665,0.1390770673751831,-0.5153154936176638,-0.8529883737428866,-2.9230818360823676,-0.6554303765296936,0.49280938506126404,-0.5723198652267456,-1.1572556495666504,1.2349205017089844,-0.26383405923843384
3.9216089248657227,-0.029185116291046143,-0.04497361183166504,0.04644590616226196,-0.5216686763216389,-0.8416220702799934,-2.9465066133995523,-0.6465350985527039,0.4983275532722473,-0.577634871006012,-0.8780785799026489,1.1531890630722046,-0.5926912426948547
3.941230058670044,-0.019083380699157715,-0.12259334325790405,0.08542418479919434,-0.5239032894371516,-0.8319814415338489,-2.973003695699945,-0.6401115655899048,0.5002636909484863,-0.5830895900726318,-1.0364166498184204,1.1289016008377075,-0.7732524275779724
3.9612889289855957,0.009764432907104492,-0.18250608444213867,0.13939154148101807,-0.5272978954600964,-0.8259466691654817,-3.0070652871391146,-0.635329008102417,0.503200113773346,-0.5857874155044556,-1.354766845703125,1.1783816814422607,-0.9766257405281067
3.9813079833984375,0.061713576316833496,-0.1748204231262207,0.15733975172042847,-0.5312986094493284,-0.8234402405288519,-3.04720160926827,-0.632377028465271,0.506653368473053,-0.5860048532485962,-1.4580756425857544,1.0986664295196533,-1.0642329454421997
4.000209093093872,0.10196191072463989,-0.14815294742584229,0.16499614715576172,-0.5352379349669542,-0.824431942965723,-3.090205027317084,-0.6314876675605774,0.5100457072257996,-0.5840177536010742,-1.531685709953308,0.9747593998908997,-1.177530288696289
4.020003080368042,0.09605032205581665,-0.08034497499465942,0.16325438022613525,-0.5370685348113294,-0.8289830442259131,-3.1356846008732426,-0.6334496140480042,0.5116194486618042,-0.5805059671401978,-1.4434919357299805,0.9451864957809448,-1.3269513845443726
4.040885925292969,0.0743790864944458,-0.05784100294113159,0.16870397329330444,-0.5354209133531712,-0.8325898772695173,3.1017635857489743,-0.6361618638038635,0.5102030634880066,-0.5787839293479919,-1.411737084388733,1.020329475402832,-1.4583017826080322
4.060943126678467,0.0992479920387268,-0.0678979754447937,0.1844601035118103,-0.5315415726344249,-0.8376853453459494,3.0529197724797665,-0.640568733215332,0.5068628191947937,-0.5768550038337708,-1.42287015914917,0.9348897933959961,-1.646288514137268
4.081257104873657,0.15952259302139282,-0.0858801007270813,0.19678950309753418,-0.5253835195278551,-0.8465306898936487,3.002213850642056,-0.6479716897010803,0.5015448331832886,-0.5732238292694092,-1.4696649312973022,0.7172126770019531,-1.7255637645721436
4.100896120071411,0.17755132913589478,-0.09554550051689148,0.21817141771316528,-0.5191937366417861,-0.8612140707093159,2.948777093901569,-0.6586609482765198,0.49618029594421387,-0.5656597018241882,-1.6550241708755493,0.5006153583526611,-1.7971954345703125
4.12076997756958,0.1497260332107544,-0.07712677121162415,0.23139113187789917,-0.5130867312806408,-0.8808648557467084,2.89072760096778,-0.6719733476638794,0.49086883664131165,-0.5545264482498169,-1.761001467704773,0.45077136158943176,-1.9529461860656738
4.140664100646973,0.1299780011177063,-0.043875157833099365,0.27363574504852295,-0.5022578035326909,-0.8995028227845779,2.831507644343172,-0.6863134503364563,0.48140573501586914,-0.545181155204773,-1.5999809503555298,0.5564272999763489,-2.1382367610931396
4.160619258880615,0.19147539138793945,-0.05675101280212402,0.31405872106552124,-0.4879137781460445,-0.9173277064601647,2.7722105106489203,-0.7013325691223145,0.4687841236591339,-0.5370047688484192,-1.6862928867340088,0.4345178008079529,-2.2004079818725586
4.180000066757202,0.2645164132118225,-0.1153886616230011,0.3083235025405884,-0.47479382153760763,-0.9419024104704684,2.7090380094121893,-0.7192283272743225,0.4571550786495209,-0.5231825113296509,-2.0357460975646973,0.0010392469121143222,-2.208160877227783
4.200721263885498,0.26735347509384155,-0.10550305247306824,0.2779756784439087,-0.4636759342260104,-0.9769611761822133,2.6418527958103244,-0.7412914633750916,0.4472389221191406,-0.5004640221595764,-2.2158279418945312,-0.442181795835495,-2.1718382835388184
4.220516204833984,0.16559827327728271,0.005732744932174683,0.23203927278518677,-0.45017624380220356,-1.0175949832779227,2.572717923919769,-0.7660773992538452,0.4351242184638977,-0.4730670750141144,-2.2469863891601562,-0.5033688545227051,-2.374864339828491
4.240424156188965,0.08195871114730835,0.03861677646636963,0.23529863357543945,-0.4308592189260514,-1.056320854956272,2.502488974021607,-0.7909889817237854,0.4176516532897949,-0.44710594415664673,-2.295240640640259,-0.3881729543209076,-2.492100477218628
4.26200008392334,0.09957289695739746,0.02109736204147339,0.22693714499473572,-0.41136638542263704,-1.0956497357565027,2.4281721264439464,-0.81504225730896,0.3998621106147766,-0.41930457949638367,-2.8311493396759033,-0.5845667719841003,-2.4667229652404785
4.281808137893677,0.10538452863693237,0.02553689479827881,0.2391163408756256,-0.39390293501620566,-1.1431601491274213,2.3434488317156354,-0.8402630686759949,0.3837953805923462,-0.38296088576316833,-3.443267822265625,-0.7586088180541992,-2.4823153018951416
4.300411224365234,-0.007367908954620361,0.04773792624473572,0.19646844267845154,-0.3771558255072578,-1.1963991094697815,2.247735653226855,-0.8653127551078796,0.3682776987552643,-0.34000781178474426,-4.098322868347168,-0.9523062109947205,-2.578387975692749
4.320003986358643,-0.14715439081192017,0.08560290932655334,0.19520127773284912,-0.35835843356993774,-1.253234718486864,2.140103350788462,-0.8896498680114746,0.35073742270469666,-0.29241493344306946,-4.7818217277526855,-0.8601055145263672,-2.57846736907959
4.340144157409668,-0.3239358067512512,0.1982116997241974,0.08992218971252441,-0.3387473359176673,-1.3088111510248224,2.0199504803186334,-0.9109885692596436,0.3323058784008026,-0.24428007006645203,-5.414403438568115,-0.2693306505680084,-2.5256500244140625
4.360095024108887,-0.5802348256111145,0.477321982383728,-0.08161920309066772,-0.3128517888842306,-1.3456937829759859,1.8975179695866484,-0.9274556040763855,0.307773232460022,-0.2123718410730362,-5.005458831787109,0.5010745525360107,-2.8373491764068604
4.380059242248535,-0.6467477679252625,0.825052797794342,-0.31839168071746826,-0.27573316932375563,-1.359558943517516,1.7979152395958349,-0.9408377408981323,0.27225247025489807,-0.20174984633922577,-3.4515488147735596,0.9778399467468262,-2.7250075340270996
4.400125980377197,-0.37322086095809937,1.070531964302063,-0.38088157773017883,-0.23839077560371344,-1.3539793540306093,1.7372203585766777,-0.9489685893058777,0.2361392229795456,-0.20903842151165009,-1.526034951210022,0.9881964921951294,-2.183962821960449
4.420062065124512,-0.11837399005889893,0.8760995864868164,-0.2373141050338745,-0.2072285254623858,-1.343913109263691,1.7100714343485297,-0.9535254836082458,0.20574851334095,-0.2201290726661682,-0.7613678574562073,0.6324214935302734,-1.3222754001617432
4.440065145492554,0.060977935791015625,0.5060908198356628,-0.012690708041191101,-0.1993747682701702,-1.341075653025358,1.680105791912211,-0.9544410705566406,0.19805651903152466,-0.22319483757019043,-1.8598235845565796,0.26918894052505493,-0.13660843670368195
4.459986209869385,0.09261965751647949,0.3713073134422302,-0.12025755643844604,-0.21411091380182481,-1.3451367900287645,1.6491742878719002,-0.9523914456367493,0.21247872710227966,-0.21864007413387299,-1.1079089641571045,-0.05581844225525856,0.8132514953613281
4.480129241943359,0.02457517385482788,0.6155992150306702,-0.3064349889755249,-0.23270191399669837,-1.3477252315126709,1.6541318936176324,-0.9489373564720154,0.23060745000839233,-0.21526293456554413,1.2380348443984985,-0.24881869554519653,1.0284467935562134
4.500093936920166,-0.039497435092926025,0.540924608707428,-0.3211701512336731,-0.24413175148052674,-1.3427648950644555,1.7005250679055095,-0.9452285170555115,0.24171391129493713,-0.21935713291168213,2.7055044174194336,-0.3345363438129425,1.057120680809021
4.520002126693726,-0.029674053192138672,0.13410566747188568,-0.1304623931646347,-0.24983281009877142,-1.3323917390802427,1.7639597770345303,-0.9415478706359863,0.24724195897579193,-0.22882099449634552,2.9775490760803223,-0.2424372285604477,0.9225140810012817
4.540004253387451,-0.01501762866973877,-0.18328863382339478,0.03834649920463562,-0.25277487088817446,-1.3211793701627457,1.821336379118019,-0.9382140636444092,0.2500916123390198,-0.23918262124061584,2.2771599292755127,-0.07759519666433334,0.6881345510482788
4.560005187988281,0.017370522022247314,-0.42272859811782837,0.036095619201660156,-0.2539875686167263,-1.3135026091920978,1.860520388347074,-0.9360564351081848,0.25126558542251587,-0.2463006228208542,1.3514344692230225,-0.18000732362270355,0.3651563823223114
4.579474925994873,0.08728736639022827,-0.3235570192337036,0.010969758033752441,-0.2524853666354476,-1.3155051325354474,1.8790194911725875,-0.9369120001792908,0.2498112916946411,-0.24452070891857147,0.4403918981552124,-0.49225232005119324,-0.08463846892118454
4.600003242492676,0.07276171445846558,-0.17153453826904297,0.04730457067489624,-0.2462980657707961,-1.3267904116856366,1.8777916735885618,-0.9410936832427979,0.24381542205810547,-0.23430098593235016,-0.40041428804397583,-0.5494416952133179,-0.501427173614502
4.620012044906616,-0.0031281709671020508,-0.12300710380077362,0.11486668884754181,-0.23920382609916244,-1.339399619253827,1.8604731238615528,-0.945632815361023,0.23692919313907623,-0.22280728816986084,-0.9920449256896973,-0.28359168767929077,-0.5252273678779602
4.640014171600342,-0.038448214530944824,-0.007425561547279358,0.14526453614234924,-0.23500066572465844,-1.346787130568614,1.838341011040791,-0.9482155442237854,0.23284363746643066,-0.2160346955060959,-0.9177718162536621,0.04231398180127144,-0.3595864474773407
4.66000509262085,-0.05194586515426636,0.1104973703622818,0.12334448099136353,-0.23286427857031888,-1.347265791340255,1.8236007553577094,-0.9488018751144409,0.2307654321193695,-0.21569059789180756,-0.40731823444366455,0.20898249745368958,-0.15808215737342834
4.680002212524414,-0.03465002775192261,0.13627518713474274,0.06534883379936218,-0.2323252345522217,-1.3444927938619748,1.8204171450508198,-0.9483211040496826,0.23024091124534607,-0.2183486521244049,0.10426684468984604,0.10418099164962769,0.014848347753286362
4.700037002563477,-0.027405738830566406,0.11888287961483002,0.013809144496917725,-0.2319618528223661,-1.3421582788672324,1.8275435873605843,-0.9478903412818909,0.22988727688789368,-0.22058090567588806,0.5786564946174622,-0.024915656074881554,0.08448649942874908
4.720039129257202,-0.03261822462081909,0.030848875641822815,-0.0061945319175720215,-0.2302124055433361,-1.3398068648617423,1.842212142802486,-0.9477589726448059,0.22818432748317719,-0.2229008823633194,0.7955504059791565,-0.0639599934220314,0.07671946287155151
4.7402801513671875,-0.04433882236480713,-0.1026570051908493,-0.03817951679229736,-0.22833907860511357,-1.3369986754210643,1.8574899013486434,-0.9475435614585876,0.226360023021698,-0.22566014528274536,0.6300154328346252,0.0012949991505593061,0.0563233308494091
4.760016918182373,-0.050531983375549316,-0.16499623656272888,-0.06826387345790863,-0.22665479305779612,-1.33504038991465,1.865048099557787,-0.9474690556526184,0.22471913695335388,-0.2276039719581604,0.0959952175617218,0.02085414156317711,-0.040083251893520355
4.780010223388672,-0.031918466091156006,-0.17050404846668243,-0.06173710525035858,-0.22635665130775443,-1.3350128167631734,1.8612239640283295,-0.9475279450416565,0.22442860901355743,-0.22764573991298676,-0.42155614495277405,0.074785016477108,-0.07596739381551743
4.80002498626709,-0.02227330207824707,-0.11754903197288513,-0.019425198435783386,-0.2275396454231917,-1.335688855613633,1.8491607341739578,-0.9474226832389832,0.22558127343654633,-0.22694310545921326,-0.732979953289032,0.13190095126628876,-0.07612268626689911
4.8201751708984375,-0.024375557899475098,-0.017531976103782654,0.021264389157295227,-0.2295806857814214,-1.3366121512508138,1.8321077705803193,-0.9471819996833801,0.22756923735141754,-0.22596095502376556,-0.9108735918998718,0.1559109389781952,-0.12447629123926163
4.84000825881958,-0.013702094554901123,0.03374575078487396,0.04802495241165161,-0.23206449697733164,-1.336863304667648,1.8144008571151435,-0.9466861486434937,0.22998717427253723,-0.22559137642383575,-0.8040490746498108,0.21626217663288116,-0.014004983007907867
4.8599982261657715,0.0013952255249023438,0.048432767391204834,0.059347331523895264,-0.2360719896005492,-1.3358282475768555,1.7994632301527969,-0.9455481171607971,0.23388537764549255,-0.226354718208313,-0.7181997895240784,0.22305038571357727,0.05905024707317352
4.879719257354736,0.0018292665481567383,0.04117736220359802,0.07104623317718506,-0.24119914699112213,-1.334192926490152,1.7863289091357535,-0.9439985156059265,0.23886723816394806,-0.22761660814285278,-0.6403301358222961,0.26250484585762024,0.135870561003685
4.899997234344482,0.0076950788497924805,0.039179593324661255,0.06110161542892456,-0.24729944776215199,-1.3310846556882479,1.776182291762698,-0.941853404045105,0.24478645622730255,-0.23019945621490479,-0.43697589635849,0.30402106046676636,0.22791533172130585
4.919991970062256,0.026963531970977783,0.025392502546310425,0.03169536590576172,-0.2540811432960654,-1.3267328423715965,1.7695651269074555,-0.9392102360725403,0.2513561546802521,-0.23388950526714325,-0.3712271451950073,0.29577332735061646,0.2609233558177948
4.940070152282715,0.013808846473693848,-0.018845945596694946,0.022214889526367188,-0.261058963591417,-1.3223872928562634,1.7627385398568627,-0.9364620447158813,0.25810378789901733,-0.2375316470861435,-0.4911656677722931,0.3061525523662567,0.24593229591846466
4.960082054138184,-0.027303457260131836,-0.04973718523979187,0.004770427942276001,-0.26889288174744436,-1.31861658847838,1.7510795967547264,-0.9335729479789734,0.265664279460907,-0.24054914712905884,-0.7860315442085266,0.4104557931423187,0.24925236403942108
4.980011940002441,-0.046402156352996826,-0.026281118392944336,-0.052646368741989136,-0.27746244299168293,-1.3148966858287514,1.733284240159485,-0.9304351806640625,0.2739160358905792,-0.24343512952327728,-1.0931191444396973,0.4377257525920868,0.14144067466259003
5.000013113021851,-0.01842886209487915,0.008573532104492188,-0.10187840461730957,-0.2854482848047456,-1.3123262508421762,1.7106690075508169,-0.9276618957519531,0.2815876305103302,-0.24525897204875946,-1.165562629699707,0.43526649475097656,0.08964572101831436
5.020007133483887,0.0344235897064209,0.0477851927280426,-0.13597314059734344,-0.29279075196332394,-1.310485539275087,1.6890366047345613,-0.9251859188079834,0.2886253297328949,-0.24642729759216309,-1.0137832164764404,0.3591603934764862,0.08351559937000275
5.040003061294556,0.07458406686782837,0.06615182757377625,-0.14011280238628387,-0.2990651582360484,-1.3094845623425062,1.6715230719169476,-0.9231710433959961,0.29462698101997375,-0.24688051640987396,-0.7677901983261108,0.25056350231170654,0.08402254432439804
5.060002088546753,0.1032986044883728,0.0701514184474945,-0.11329585313796997,-0.30372918790288556,-1.3094528518595012,1.6586517115244495,-0.9218258857727051,0.2990807592868805,-0.24655210971832275,-0.5452772974967957,0.12783251702785492,0.040222957730293274
5.080007076263428,0.11956608295440674,0.07076656818389893,-0.08708642423152924,-0.30639570817766065,-1.3108073801914704,1.6494007364973644,-0.921384871006012,0.3016241788864136,-0.2450973242521286,-0.39670225977897644,0.0030948519706726074,0.0025951548013836145
5.100009918212891,0.13491666316986084,0.06732916831970215,-0.06345599889755249,-0.30828914407042024,-1.3141482858099123,1.6421904402393892,-0.9216446280479431,0.30342888832092285,-0.24187231063842773,-0.32932350039482117,-0.1142154335975647,0.00469276774674654
5.120039939880371,0.13235700130462646,0.06983789801597595,-0.047996193170547485,-0.3101086895013531,-1.319141498743967,1.6362831949642678,-0.922304630279541,0.30516213178634644,-0.23712949454784393,-0.25542160868644714,-0.1800529509782791,0.03505363687872887
5.140002250671387,0.11539328098297119,0.08305114507675171,-0.03381834924221039,-0.3121291266447504,-1.3240510350149994,1.6318733657178415,-0.9228578209877014,0.3070855736732483,-0.23244747519493103,-0.19681605696678162,-0.1866898089647293,0.04478207603096962
5.160011053085327,0.099587082862854,0.10031870007514954,-0.048287272453308105,-0.31354604884174686,-1.3290147439944475,1.6288035980745676,-0.9235770106315613,0.30843374133110046,-0.227759450674057,-0.12292131781578064,-0.22524093091487885,0.02745608240365982
5.180037975311279,0.10425305366516113,0.11390680074691772,-0.06263285875320435,-0.3145646874176141,-1.334765588859394,1.6269290315065246,-0.9245655536651611,0.30940255522727966,-0.22237077355384827,-0.08721286058425903,-0.2870217561721802,0.038007527589797974
5.200048923492432,0.09065967798233032,0.10980042815208435,-0.07787206768989563,-0.31556152739607246,-1.3410835536890031,1.6254022721258878,-0.9256512522697449,0.31035032868385315,-0.2164546698331833,-0.06276583671569824,-0.2961023151874542,0.024234458804130554
5.220083236694336,0.08215516805648804,0.11282145977020264,-0.10184255242347717,-0.3161878801374704,-1.3470155125938417,1.6250475822437953,-0.9267292618751526,0.31094568967819214,-0.21091680228710175,0.01730693131685257,-0.2956046760082245,0.025572843849658966
5.240013122558594,0.08559924364089966,0.11973971128463745,-0.1210436075925827,-0.3161653712269867,-1.3524532181671565,1.626849057032626,-0.9278691411018372,0.3109242916107178,-0.20587588846683502,0.16080687940120697,-0.30585038661956787,0.015739290043711662
5.259960174560547,0.08299833536148071,0.10577300190925598,-0.13919267058372498,-0.3155284353078466,-1.357238960632961,1.6315310010084365,-0.9290370941162109,0.31031885743141174,-0.20147493481636047,0.277055561542511,-0.32327279448509216,0.003811977803707123
5.280013084411621,0.07394683361053467,0.06770077347755432,-0.15510669350624084,-0.3139575164306003,-1.3616477089795733,1.638175106228998,-0.9303920269012451,0.3088251054286957,-0.19747807085514069,0.37139737606048584,-0.3261275291442871,-0.02262507937848568
5.300014019012451,0.07005268335342407,0.05171242356300354,-0.15915632247924805,-0.31167724306477196,-1.3655292662695866,1.6464954721383238,-0.9318386316299438,0.30665549635887146,-0.19400827586650848,0.44000768661499023,-0.323609858751297,-0.03485514968633652
5.320003986358643,0.07102423906326294,0.03918781876564026,-0.16593728959560394,-0.30938258261612056,-1.3689113289473833,1.6557110791691987,-0.9331763386726379,0.30447059869766235,-0.1909962296485901,0.44823700189590454,-0.3164920210838318,-0.01295587420463562
5.3400421142578125,0.06742888689041138,0.025396794080734253,-0.15891814231872559,-0.30800219925691974,-1.3716809468031548,1.6646447220134015,-0.9341128468513489,0.30315545201301575,-0.18849392235279083,0.42045333981513977,-0.24115625023841858,0.03655494377017021
5.36000394821167,0.05824589729309082,0.030726909637451172,-0.1729264259338379,-0.3067324333295412,-1.3732650610319581,1.6734636475596034,-0.9347870945930481,0.30194520950317383,-0.18708935379981995,0.4455365240573883,-0.21007202565670013,0.020276766270399094
5.380062103271484,0.052420735359191895,0.056574612855911255,-0.18334133923053741,-0.3053729916653036,-1.3744856471977622,1.6830444425271003,-0.9354164600372314,0.30064892768859863,-0.1860281229019165,0.47403913736343384,-0.21738211810588837,0.03315199539065361
5.400005102157593,-3.1113624572753906e-05,0.05230399966239929,-0.20495723187923431,-0.3056109989698046,-1.3772207793040023,1.6920696281636864,-0.9358514547348022,0.3008759319782257,-0.18345513939857483,0.3288818895816803,-0.37421923875808716,0.19613945484161377
5.420001029968262,-0.0934339165687561,0.036608338356018066,-0.20420318841934204,-0.3100082327001645,-1.3830918667997032,1.6984490963224066,-0.9356035590171814,0.30506646633148193,-0.1777089536190033,0.2411818504333496,-0.372758150100708,0.28719085454940796
5.440029144287109,-0.16977477073669434,0.10110694169998169,-0.18730294704437256,-0.31319869495708963,-1.3873424347089995,1.7062822285753354,-0.9353888630867004,0.3081032931804657,-0.17355209589004517,0.4824565052986145,-0.3213537037372589,0.17897439002990723
5.459061145782471,-0.11955034732818604,0.22715172171592712,-0.12524139881134033,-0.3130788758513715,-1.3889436209588548,1.7233673872544806,-0.9357017874717712,0.30798929929733276,-0.1720608025789261,1.2159239053726196,-0.3427892327308655,0.09511489421129227
5.4801249504089355,-0.10223269462585449,0.23400810360908508,-0.12684810161590576,-0.30860193628340105,-1.3858411189220778,1.7563028630984243,-0.9365094304084778,0.3037269115447998,-0.17521481215953827,1.8446993827819824,-0.3817574083805084,0.03832494094967842
5.5000081062316895,-0.11670023202896118,0.0964961051940918,-0.0872272253036499,-0.30325706516785617,-1.3826651773450096,1.7941507716388159,-0.9375295042991638,0.2986302375793457,-0.17848926782608032,1.7093993425369263,-0.45936065912246704,0.1389608085155487
5.520004034042358,-0.08819359540939331,-0.02956894040107727,-0.004935517907142639,-0.3027743125852258,-1.3830019455405809,1.8258556004749682,-0.9377312064170837,0.29816946387290955,-0.17820043861865997,1.2820571660995483,-0.510466456413269,0.361698716878891
5.540004253387451,-0.05457353591918945,0.01805412769317627,0.021102428436279297,-0.30638869243199907,-1.3860362745546506,1.8498964908666249,-0.9372020363807678,0.30161747336387634,-0.17515508830547333,0.9462490081787109,-0.5105618238449097,0.3704273998737335
5.5600361824035645,0.022841572761535645,0.09267303347587585,0.020697906613349915,-0.3095875313322905,-1.3895527362657147,1.8716207562642828,-0.9368582963943481,0.30466580390930176,-0.17168357968330383,1.1111031770706177,-0.5122369527816772,0.35693901777267456
5.580003261566162,0.1436251997947693,0.10336160659790039,0.00348818302154541,-0.3135393007070692,-1.3920399482836512,1.899613145870251,-0.9360904693603516,0.3084273040294647,-0.16913752257823944,1.4755536317825317,-0.6288752555847168,0.5130450129508972
5.600005149841309,0.21376341581344604,0.08411586284637451,0.015800058841705322,-0.3188902170373815,-1.394761977562274,1.9364096759355363,-0.9349090456962585,0.313512921333313,-0.16629742085933685,1.8541704416275024,-0.7925196886062622,0.6202265620231628
5.620004177093506,0.19136947393417358,0.05930608510971069,0.04564940929412842,-0.32393906264066347,-1.397662860996683,1.9792880958637127,-0.9338164329528809,0.3183031976222992,-0.16330988705158234,2.0534932613372803,-0.8468828201293945,0.5529745817184448
5.640013217926025,0.11964219808578491,0.010179966688156128,0.07717180252075195,-0.3266045941328752,-1.4000425815462245,2.023813631171785,-0.9333629608154297,0.32082897424697876,-0.1609424501657486,2.0205132961273193,-0.8534609079360962,0.42173582315444946
5.660010099411011,0.036742329597473145,-0.004698067903518677,0.10525001585483551,-0.32671809929924617,-1.4035313679629977,2.0647493062133053,-0.9338828325271606,0.3209364712238312,-0.15767911076545715,1.7769745588302612,-0.8124729990959167,0.23241198062896729
5.680016994476318,-0.07500433921813965,0.010586768388748169,0.1430569291114807,-0.32382428157530113,-1.4070295882039925,2.0979882472565508,-0.9353411197662354,0.3181943893432617,-0.15456201136112213,1.350200891494751,-0.5688296556472778,0.0035064886324107647
5.700005054473877,-0.14123660326004028,0.01136365532875061,0.20030711591243744,-0.31882419370146303,-1.4072563661153437,2.1200918877849926,-0.9369342923164368,0.3134502172470093,-0.15460699796676636,0.7910022139549255,-0.15982429683208466,-0.1353556364774704
5.7200469970703125,-0.11275696754455566,0.010107874870300293,0.24474038183689117,-0.31462187102621103,-1.403823586235567,2.1294368603685196,-0.9376885294914246,0.3094569146633148,-0.1580398678779602,0.14063704013824463,0.18395501375198364,-0.1232435405254364
5.740005016326904,-0.028651952743530273,-0.0020313262939453125,0.2545727491378784,-0.31373233828120645,-1.3986092535677812,2.126397777675298,-0.9371224641799927,0.3086109459400177,-0.16297420859336853,-0.379402756690979,0.39293965697288513,0.004143095575273037
5.760004997253418,0.060421764850616455,-0.002585500478744507,0.2329578548669815,-0.3177023224894277,-1.393629803286417,2.115393989727341,-0.9350860118865967,0.312384694814682,-0.16742128133773804,-0.6914765238761902,0.40489768981933594,0.1939004808664322
5.780035018920898,0.11645001173019409,0.019368678331375122,0.22192122042179108,-0.3252162721451429,-1.3912716085206673,2.1012702441177127,-0.9323527216911316,0.319513738155365,-0.1692020297050476,-0.7052792310714722,0.25570571422576904,0.28752565383911133
5.800007104873657,0.11460423469543457,0.05281919240951538,0.18802548944950104,-0.3328878345106556,-1.3912614394927139,2.0911636347236926,-0.9299118518829346,0.32677367329597473,-0.16876882314682007,-0.32819274067878723,0.06348531693220139,0.2916323244571686
5.820003032684326,0.09975636005401611,0.07331576943397522,0.16061216592788696,-0.33852381152587435,-1.3922285664253389,2.090981294908981,-0.9282475709915161,0.33209505677223206,-0.16753964126110077,0.1985314041376114,-0.1612032800912857,0.255143940448761
5.840011119842529,0.08576947450637817,0.04589095711708069,0.17167431116104126,-0.3418146924509572,-1.3948159191763005,2.0998107495284124,-0.927596926689148,0.3351973593235016,-0.16494514048099518,0.511133074760437,-0.38528838753700256,0.21367265284061432
5.860040187835693,0.04647660255432129,-0.00519147515296936,0.1954563856124878,-0.3434952769424781,-1.4000138504267898,2.1111315699316098,-0.9278852939605713,0.33678025007247925,-0.16002538800239563,0.4778706133365631,-0.4886588156223297,0.12523232400417328
5.880005121231079,-0.011987090110778809,-0.0385441780090332,0.19818295538425446,-0.34334621433944146,-1.406454124916872,2.120088385737054,-0.9289460778236389,0.3366398811340332,-0.1540544629096985,0.3628860116004944,-0.44689157605171204,0.012398394756019115
5.900015115737915,-0.026742935180664062,-0.035173624753952026,0.16088174283504486,-0.34200336068174947,-1.412483337808215,2.1270797038830116,-0.930303692817688,0.3353751003742218,-0.1485220491886139,0.3175661563873291,-0.41607916355133057,-0.03334791585803032
5.920038223266602,-0.003464341163635254,-0.014638125896453857,0.1336086392402649,-0.34019285470664845,-1.4189157816769182,2.132936434900974,-0.9318383932113647,0.33366888761520386,-0.14262650907039642,0.24863342940807343,-0.41355234384536743,-0.059252481907606125
5.940008163452148,-0.006834685802459717,-0.013077229261398315,0.12078787386417389,-0.33853753742412196,-1.4255189324759294,2.136547654277912,-0.933305025100708,0.3321079909801483,-0.13655012845993042,0.10614684224128723,-0.3638278543949127,-0.04391637071967125
5.960003137588501,-0.025735855102539062,-0.026197224855422974,0.10001981258392334,-0.3380333919633304,-1.4319668812463258,2.1371488978101065,-0.9343318939208984,0.3316324055194855,-0.13055260479450226,-0.02878439798951149,-0.3085596263408661,0.001763917156495154
5.980024099349976,-0.04679328203201294,-0.014649122953414917,0.06528055667877197,-0.3386834084187253,-1.4379383529112373,2.1364086137132143,-0.9348809123039246,0.3322455883026123,-0.12494237720966339,-0.030136246234178543,-0.2568548917770386,0.043350860476493835
6.000028133392334,-0.06540203094482422,0.008587121963500977,0.016544640064239502,-0.33944692840070184,-1.4419005009406856,2.136843655470267,-0.9351167678833008,0.3329656422138214,-0.12120462954044342,0.06798854470252991,-0.15152427554130554,0.04006342962384224
6.020018100738525,-0.038918256759643555,9.182095527648926e-05,-0.018970146775245667,-0.34075390591782184,-1.4443134231805532,2.139137546753253,-0.9349740743637085,0.3341977596282959,-0.11889293044805527,0.11792319267988205,-0.20645633339881897,0.1325821429491043
6.040004253387451,-0.056860148906707764,-0.01606890559196472,-0.027092091739177704,-0.34444931033227894,-1.4494105598617106,2.141837949200643,-0.934335470199585,0.33767837285995483,-0.11397536844015121,0.08411364257335663,-0.3858684301376343,0.25487983226776123
6.060003042221069,-0.26125508546829224,-0.020661264657974243,-0.006301462650299072,-0.34936504950385977,-1.455955405062899,2.1428258288435833,-0.933401346206665,0.34230127930641174,-0.10766640305519104,-0.08085818588733673,-0.20330491662025452,0.19712576270103455
6.080018043518066,-0.4900391101837158,-0.03507280349731445,0.04806023836135864,-0.3517285515583849,-1.4559923678805413,2.1375568701989747,-0.9325988292694092,0.34452104568481445,-0.10753890872001648,-0.4820709824562073,0.3979937732219696,-0.009839378297328949
6.100004196166992,-0.39600419998168945,-0.09363225102424622,0.06028646230697632,-0.3531877800508086,-1.449834171753649,2.1217651163935343,-0.9314188957214355,0.3458905816078186,-0.11321917176246643,-1.0023219585418701,0.6798463463783264,0.0265743900090456
6.1200151443481445,-0.12508124113082886,-0.1117684543132782,-0.013770803809165955,-0.35848765265980637,-1.445890717488489,2.0981096400556045,-0.9291331171989441,0.3508584201335907,-0.11666126549243927,-1.169268012046814,0.5067552328109741,0.2243451029062271
6.140003204345703,0.008545458316802979,-0.06344202160835266,-0.1103581115603447,-0.36599183143129027,-1.444362748252872,2.0782449816125212,-0.9263157844543457,0.35787561535835266,-0.11774549633264542,-0.6835505366325378,0.38673830032348633,0.25344783067703247
6.1600141525268555,0.07584983110427856,-0.033539921045303345,-0.17416757345199585,-0.37113350637417203,-1.4383113896540394,2.072474602046147,-0.9237502217292786,0.36267200112342834,-0.12310408800840378,0.05011209473013878,0.440993994474411,0.19887885451316833
6.180004119873047,0.17814433574676514,-0.08904147148132324,-0.1551508903503418,-0.37441608601077936,-1.426730653561066,2.0783421893459404,-0.9210795164108276,0.36572912335395813,-0.13362166285514832,0.37059614062309265,0.5133495926856995,0.21898771822452545
6.20003604888916,0.23345160484313965,-0.1736186146736145,-0.09625959396362305,-0.37879469066695703,-1.4123498157041616,2.085433427936389,-0.9174726605415344,0.369800865650177,-0.1465992033481598,0.12682045996189117,0.6789668202400208,0.3167383372783661
6.220041036605835,0.1752941608428955,-0.22282376885414124,-0.0678834319114685,-0.3857629875134525,-1.3987162818209145,2.0822767269289386,-0.9128277897834778,0.37626615166664124,-0.15864849090576172,-0.5788866281509399,0.7901604175567627,0.29324471950531006
6.240004062652588,0.05304330587387085,-0.2315712571144104,-0.01887679100036621,-0.394082097389106,-1.3900851512765509,2.061932042098336,-0.9083137512207031,0.3839608132839203,-0.1659528762102127,-1.41110098361969,0.8457208275794983,0.19726741313934326
6.259984970092773,-0.07739895582199097,-0.186689555644989,0.028197288513183594,-0.4030662775032659,-1.3861696100574419,2.0262467022234087,-0.904229462146759,0.3922407329082489,-0.1688680201768875,-1.9404047727584839,0.9543657302856445,0.07630263268947601
6.279685974121094,-0.18585842847824097,-0.09030434489250183,0.08860129117965698,-0.41039810032577595,-1.3826553013204361,1.9814362006476967,-0.9007810354232788,0.39897438883781433,-0.1715022176504135,-2.2109122276306152,1.1801488399505615,-0.13408158719539642
6.300018072128296,-0.20616275072097778,-0.03134080767631531,0.12498371303081512,-0.4137914778446423,-1.3769347525602609,1.9336094740916567,-0.8984516263008118,0.40208369493484497,-0.17639052867889404,-2.1454150676727295,1.2781132459640503,-0.33764147758483887
6.320109128952026,-0.10680490732192993,0.02157968282699585,0.1199483871459961,-0.4139714475143374,-1.3706478323504294,1.889164149526202,-0.8972539305686951,0.40224847197532654,-0.1820210963487625,-1.8100239038467407,1.1224867105484009,-0.43564528226852417
6.340013027191162,0.013277649879455566,0.05235409736633301,0.09423708915710449,-0.41157549385201175,-1.3654387961533951,1.8537412906197395,-0.8972345590591431,0.4000537395477295,-0.1868884265422821,-1.3162062168121338,0.80088210105896,-0.4405309557914734
6.360014915466309,0.08864474296569824,0.07484757900238037,0.04818184673786163,-0.4076474037937081,-1.362435943675506,1.8301368569688425,-0.8981997966766357,0.39645060896873474,-0.18990541994571686,-0.7224103212356567,0.455723375082016,-0.38667061924934387
6.380013942718506,0.12453681230545044,0.08157685399055481,0.019188836216926575,-0.40306443725798424,-1.360309124677587,1.819430249745,-0.8995611667633057,0.3922390341758728,-0.1921928972005844,-0.17636999487876892,0.1912556141614914,-0.26070594787597656
6.400012016296387,0.12621545791625977,0.0826297402381897,-0.005572855472564697,-0.39908663444642734,-1.3585314852986554,1.8183693707004551,-0.9007363319396973,0.3885769248008728,-0.19411888718605042,0.09399621188640594,0.04065927118062973,-0.16379736363887787
6.420014142990112,0.09804975986480713,0.06151589751243591,-0.011454761028289795,-0.39661576971415424,-1.3573416120726223,1.8195325380804144,-0.9014402627944946,0.3862990438938141,-0.19539329409599304,0.039087701588869095,0.07020881772041321,-0.03226707875728607
6.43998908996582,0.06906312704086304,0.04488089680671692,-0.010278984904289246,-0.3969332545975912,-1.3564991262323558,1.8180973229778654,-0.9011553525924683,0.3865918517112732,-0.1961265653371811,-0.16039417684078217,0.058328814804553986,0.011128362268209457
6.459952116012573,0.04047441482543945,0.03337261080741882,-0.0395665168762207,-0.3983435102705183,-1.3561395344244092,1.8149479542673979,-0.9005513191223145,0.38789206743240356,-0.19633430242538452,-0.13734151422977448,0.08406125009059906,0.06388670951128006
6.479978084564209,0.01797407865524292,0.06636175513267517,-0.056787192821502686,-0.399072361374362,-1.3547091954419177,1.8143820505746557,-0.8999931812286377,0.38856375217437744,-0.19756150245666504,0.05966749042272568,0.06464067846536636,-0.014311873354017735
6.500017166137695,0.00955045223236084,0.030673235654830933,-0.05202353000640869,-0.39774603870674197,-1.3538625260927761,1.8157623788299138,-0.9003280997276306,0.38734132051467896,-0.19843418896198273,0.04900696501135826,-0.03383573517203331,-0.05650412291288376
6.520005226135254,0.02935999631881714,-0.028151363134384155,-0.02795557677745819,-0.3974336490446091,-1.3559868852657295,1.8146766971860966,-0.9008657336235046,0.38705331087112427,-0.19654689729213715,-0.1367059350013733,-0.13517576456069946,-0.009172230958938599
6.540035247802734,0.030276477336883545,-0.02999114990234375,-0.04209202527999878,-0.39873433855741086,-1.3605671643592099,1.8114881035400676,-0.9012634754180908,0.38825228810310364,-0.19231343269348145,-0.13973620533943176,-0.2079717516899109,0.06442996114492416
6.560005187988281,0.03117448091506958,0.0055069029331207275,-0.07164561748504639,-0.4010137665218294,-1.364796640069096,1.8111477498016615,-0.9012001752853394,0.39035189151763916,-0.18831832706928253,0.09226037561893463,-0.22332674264907837,0.11561504006385803
6.5800042152404785,0.03517121076583862,0.01861804723739624,-0.10551775991916656,-0.4029661619195138,-1.3665011683519488,1.8165949841242808,-0.9007719159126282,0.3921486437320709,-0.18662698566913605,0.3338639736175537,-0.19685448706150055,0.1563921719789505
6.600006103515625,0.051487743854522705,-0.010445326566696167,-0.11743617057800293,-0.4050685836971647,-1.3663671597085028,1.8249680718981733,-0.8999375104904175,0.39408180117607117,-0.1865798830986023,0.3092575669288635,-0.15947505831718445,0.21406126022338867
6.620013236999512,0.0557674765586853,-0.05469229817390442,-0.12555301189422607,-0.40877002954013,-1.3668164166938945,1.8309715872619687,-0.8985866904258728,0.3974809944629669,-0.18587881326675415,0.11878655105829239,-0.1330621838569641,0.2737106382846832
6.640055179595947,0.02054661512374878,-0.05253550410270691,-0.17016206681728363,-0.4138582690308825,-1.3674203965531055,1.8337157727093747,-0.8967062830924988,0.4021448493003845,-0.1849251389503479,0.026868104934692383,-0.08556816726922989,0.278054416179657
6.660006999969482,-0.014990925788879395,-0.019663065671920776,-0.2132030725479126,-0.41877457580402805,-1.3678026968832564,1.836732200458584,-0.8948296904563904,0.4066412150859833,-0.18418152630329132,0.19646808505058289,-0.10904615372419357,0.2551969289779663
6.680002212524414,-0.04037833213806152,0.011113286018371582,-0.22626809775829315,-0.42134882958127395,-1.3681843898943722,1.8456624678394429,-0.8938714861869812,0.4089916944503784,-0.18362869322299957,0.5705458521842957,-0.2956494987010956,0.16156595945358276
6.70001220703125,-0.1156163215637207,0.011616945266723633,-0.2059759944677353,-0.4200615428354707,-1.3683050478017427,1.8619865585119186,-0.8944087028503418,0.40781664848327637,-0.18362657725811005,0.8352028131484985,-0.34359219670295715,-0.021365538239479065
6.720011234283447,-0.21393781900405884,-0.005670040845870972,-0.21022196114063263,-0.41526916225221355,-1.3653910852866462,1.8805096178831413,-0.8957730531692505,0.40343624353408813,-0.18662859499454498,0.8028296232223511,-0.08439132571220398,-0.12063845247030258
6.740015983581543,-0.14434021711349487,-0.059437841176986694,-0.1383359730243683,-0.4091358947078897,-1.3601170276973218,1.8912291315340497,-0.8971788287162781,0.3978166878223419,-0.19186411798000336,0.29373010993003845,0.12829281389713287,-0.2305077612400055
6.760000228881836,0.014701783657073975,-0.12947118282318115,-0.07020196318626404,-0.4064051528392531,-1.358343342860246,1.8924749766282005,-0.897895872592926,0.39530983567237854,-0.19368351995944977,-0.13256224989891052,-0.040586937218904495,0.009145872667431831
6.779848098754883,0.09748369455337524,-0.09370684623718262,-0.010427400469779968,-0.4092665707724163,-1.3634439013364765,1.888015573533091,-0.897761344909668,0.3979365825653076,-0.18886758387088776,-0.2537127137184143,-0.30110207200050354,0.13167598843574524
6.8000030517578125,0.04462301731109619,0.005344808101654053,-0.020965933799743652,-0.411072746152639,-1.3715156818602183,1.88777025280787,-0.8985506296157837,0.39959293603897095,-0.18147239089012146,0.30117201805114746,-0.4516026973724365,0.03652326017618179
6.820003986358643,-0.002946794033050537,0.08905917406082153,-0.04065263271331787,-0.40817318521467655,-1.3748417109922864,1.9027351790634157,-0.9002819657325745,0.39693325757980347,-0.17870764434337616,1.0764447450637817,-0.4896039664745331,-0.05517153814435005
6.840004920959473,0.0032531023025512695,0.09619289636611938,0.00919903814792633,-0.40057960614664617,-1.3738455938316254,1.93048694234446,-0.9030333757400513,0.3899521231651306,-0.18018895387649536,1.4928996562957764,-0.49264246225357056,-0.19035440683364868
6.860013961791992,0.02552199363708496,0.053825825452804565,0.07155579328536987,-0.3902218158892038,-1.3714988365218268,1.9603037998447372,-0.9065186977386475,0.3803935647010803,-0.18309752643108368,1.3410731554031372,-0.418612539768219,-0.2674916088581085
6.88004207611084,0.06979161500930786,-0.016200095415115356,0.10320013761520386,-0.3807567199033195,-1.3700622330707561,1.9836397120815559,-0.9097421765327454,0.37162309885025024,-0.18510925769805908,0.970207691192627,-0.34123972058296204,-0.21051937341690063
6.899989128112793,0.12537002563476562,-0.018683582544326782,0.09345026314258575,-0.3740393887566415,-1.3709205226242889,2.001102167309281,-0.9123266935348511,0.3653784990310669,-0.18481981754302979,0.8188804388046265,-0.41175577044487,-0.13109399378299713
6.920012950897217,0.1391923427581787,0.04547417163848877,0.05791735649108887,-0.36818361519249204,-1.3736951462781273,2.0193323523151707,-0.9149186611175537,0.3599213659763336,-0.1827036440372467,0.9948433041572571,-0.5313794016838074,-0.12369067221879959
6.940011978149414,0.09758639335632324,0.08482179045677185,0.046452537178993225,-0.36064367152686566,-1.3767681180562583,2.0423797762858737,-0.9181123971939087,0.35287657380104065,-0.18040937185287476,1.270370364189148,-0.5987910032272339,-0.2054731696844101
6.960006237030029,0.05397796630859375,0.08987587690353394,0.06341661512851715,-0.3505157005191001,-1.379512517896386,2.0698623852744134,-0.9220656752586365,0.34338220953941345,-0.17855936288833618,1.444695234298706,-0.639000654220581,-0.2974183261394501
6.980013132095337,0.008197426795959473,0.09957298636436462,0.0938161164522171,-0.3382682801073406,-1.3823992597106507,2.098763039568269,-0.926639199256897,0.3318540155887604,-0.17667129635810852,1.4329631328582764,-0.6147117018699646,-0.3969835340976715
7.000013113021851,-0.050034940242767334,0.1040002703666687,0.1229473352432251,-0.3244528720124362,-1.3846771398954925,2.1247223227325596,-0.9314561486244202,0.3187902569770813,-0.1753917634487152,1.209473967552185,-0.44718050956726074,-0.49876484274864197
7.020004034042358,-0.05892425775527954,0.10508143901824951,0.1478995829820633,-0.31049770778366925,-1.3860559061973594,2.1438384488964854,-0.9359792470932007,0.3055325746536255,-0.17490755021572113,0.8295741677284241,-0.2985472083091736,-0.5291014313697815
7.040000915527344,-0.019564032554626465,0.1166953444480896,0.16129948198795319,-0.2984198106773913,-1.3874753562773727,2.1549762754093997,-0.9397865533828735,0.2940102219581604,-0.17423881590366364,0.43577662110328674,-0.1820589303970337,-0.45424169301986694
7.060051918029785,0.017667055130004883,0.13600817322731018,0.16398490965366364,-0.2897197964280065,-1.3890965991897277,2.158567070990731,-0.9425479769706726,0.2856837213039398,-0.17317065596580505,0.07540799677371979,-0.09072209894657135,-0.33544108271598816
7.080016136169434,0.04307138919830322,0.14799481630325317,0.16947942972183228,-0.28500126645301105,-1.390838247652847,2.1564661996486105,-0.944163978099823,0.2811586558818817,-0.1717681735754013,-0.17688758671283722,-0.019435668364167213,-0.1626569777727127
7.1000120639801025,0.05774885416030884,0.15944108366966248,0.17799945175647736,-0.2844901754177716,-1.3922328291568797,2.151151496575904,-0.9445438981056213,0.280668169260025,-0.17047680914402008,-0.2748052477836609,0.025200508534908295,0.026482755318284035
7.120013236999512,0.06437450647354126,0.1679515242576599,0.17678333818912506,-0.2880095313397079,-1.3929787836315028,2.1463578797533738,-0.943692684173584,0.2840442955493927,-0.16959638893604279,-0.23208826780319214,0.013827568851411343,0.22403617203235626
7.140013217926025,0.05820506811141968,0.17371022701263428,0.16843481361865997,-0.2942473195807989,-1.394442594149816,2.1439981483131767,-0.9421771764755249,0.29001960158348083,-0.1679006963968277,-0.07943613827228546,-0.0926564410328865,0.3393300473690033
7.159256935119629,0.02185302972793579,0.1735183298587799,0.16132491827011108,-0.3014232848841276,-1.3968725742198378,2.145905944301435,-0.9405084252357483,0.2968796193599701,-0.16524632275104523,0.12660036981105804,-0.1973852515220642,0.3911234438419342
7.180100917816162,-0.022010385990142822,0.1548309028148651,0.16874051094055176,-0.30853715094112566,-1.3996001938419724,2.151646658701843,-0.9388508200645447,0.3036651909351349,-0.1623164713382721,0.2829476296901703,-0.24041394889354706,0.4025205373764038
7.2000322341918945,-0.043678998947143555,0.12524601817131042,0.17412270605564117,-0.31539713319744195,-1.402153095156,2.159804045900563,-0.9371864199638367,0.3101940453052521,-0.159565731883049,0.3524886965751648,-0.2631720006465912,0.40803587436676025
7.219988107681274,-0.031557440757751465,0.09239354729652405,0.1722172647714615,-0.32245177849118967,-1.4052781612810183,2.1682463060127,-0.9354987144470215,0.31689292192459106,-0.15627174079418182,0.3189398944377899,-0.3200375735759735,0.42130428552627563
7.239964008331299,-0.017480313777923584,0.059884339570999146,0.159438356757164,-0.32983774403479477,-1.4094941737868638,2.1761789185141303,-0.9338138103485107,0.32388952374458313,-0.1519462615251541,0.3112521171569824,-0.3480508327484131,0.4340081810951233
7.260012149810791,-0.015219569206237793,0.04664430022239685,0.13380849361419678,-0.337374531092326,-1.4138620326739295,2.1845313293722093,-0.9320307970046997,0.33101075887680054,-0.1474803239107132,0.3562774360179901,-0.3605746030807495,0.4294165372848511
7.280005931854248,-0.0040610432624816895,0.03668573498725891,0.11160410940647125,-0.3444602088554695,-1.4182414500336777,2.1937732880912493,-0.9303261637687683,0.3376886546611786,-0.14303715527057648,0.3932974338531494,-0.38630181550979614,0.4046359360218048
7.300041198730469,0.013473331928253174,0.017331063747406006,0.09696727991104126,-0.35107294648820303,-1.4229221045365514,2.2035532826188207,-0.928756594657898,0.343905508518219,-0.1383490413427353,0.4201822876930237,-0.41614830493927,0.3915529251098633
7.319076061248779,0.016645371913909912,-0.006291836500167847,0.08224664628505707,-0.3574366299140254,-1.4277523029866612,2.213806799925623,-0.9272289872169495,0.34987401962280273,-0.13354668021202087,0.43536606431007385,-0.413085401058197,0.36980366706848145
7.34000825881958,0.0036284327507019043,-0.013423413038253784,0.06852872669696808,-0.36303548715697787,-1.432163623096585,2.224136404236745,-0.9258543252944946,0.35511350631713867,-0.1291823387145996,0.4478244483470917,-0.3971576690673828,0.31675294041633606
7.360020160675049,0.0020287632942199707,-0.021295905113220215,0.04713529348373413,-0.3676413956131477,-1.4362426768764986,2.2344357956647096,-0.9247429966926575,0.3594154417514801,-0.12518392503261566,0.43608734011650085,-0.38313204050064087,0.27743563055992126
7.380009174346924,0.011495053768157959,-0.027527421712875366,0.034629881381988525,-0.3716078687358497,-1.4403887822719037,2.244238781829612,-0.9238333106040955,0.36311402916908264,-0.12116244435310364,0.4272420108318329,-0.37734684348106384,0.2380450963973999
7.400022029876709,0.011677026748657227,-0.03830462694168091,0.026967346668243408,-0.37498846279620063,-1.4441035501533792,2.2536972085641467,-0.9230539202690125,0.3662617802619934,-0.11757400631904602,0.3987443149089813,-0.3335268497467041,0.20892560482025146
7.420048236846924,0.00620800256729126,-0.043391913175582886,0.015422001481056213,-0.37771858021173144,-1.447236052473971,2.2619785545295024,-0.9224218726158142,0.3688008189201355,-0.11455828696489334,0.33924219012260437,-0.2890241742134094,0.15807011723518372
7.440027236938477,0.010778427124023438,-0.04459977149963379,-0.002709627151489258,-0.3795768915620436,-1.4500949318423975,2.268969911672978,-0.9220637679100037,0.3705275058746338,-0.11183802783489227,0.2869137227535248,-0.26326945424079895,0.10752182453870773
7.460006237030029,0.013324916362762451,-0.036436110734939575,-0.014777019619941711,-0.38077628432402494,-1.4533945438013096,2.275045077641461,-0.921985924243927,0.37164127826690674,-0.108742855489254,0.2651119530200958,-0.28729134798049927,0.07470142096281052
7.480010986328125,-0.03281378746032715,-0.018341243267059326,-0.019791364669799805,-0.3809756709836952,-1.456390673741488,2.2804075559273205,-0.9222338199615479,0.3718263506889343,-0.10597150772809982,0.21980834007263184,-0.1874765157699585,-0.003933264873921871
7.500011920928955,-0.07116460800170898,-0.015300273895263672,-0.007087409496307373,-0.3795412246013838,-1.4571085359641451,2.283627423858864,-0.9228386878967285,0.37049439549446106,-0.10536985099315643,0.07151982188224792,-0.013303473591804504,-0.08538428694009781
7.520014047622681,-0.029169082641601562,-0.020180940628051758,0.00606924295425415,-0.3780937084412591,-1.4574513702432788,2.2828327957188304,-0.9234066009521484,0.36914947628974915,-0.10511400550603867,-0.11610869318246841,-0.019012315198779106,-0.0551602728664875
7.540035247802734,-0.03549903631210327,-0.004304736852645874,-0.003825657069683075,-0.37757716921727924,-1.4594648471142637,2.2788606680551795,-0.9238057136535645,0.36866939067840576,-0.10327570140361786,-0.23569533228874207,-0.0052708471193909645,-0.05699631944298744
7.56001091003418,-0.11152803897857666,0.02347603440284729,0.0025003552436828613,-0.3763194336448499,-1.4602372279825833,2.2726578836344222,-0.9243454337120056,0.3674999475479126,-0.10261322557926178,-0.3284112513065338,0.16754184663295746,-0.13387328386306763
7.580015182495117,-0.09374642372131348,0.023606449365615845,0.010269686579704285,-0.3743587865204449,-1.4589839777849267,2.2641344388422238,-0.9249304533004761,0.36567580699920654,-0.1038517951965332,-0.4356503486633301,0.2350478321313858,-0.13002070784568787
7.600136041641235,0.007198691368103027,0.027520954608917236,0.004315122961997986,-0.3739565418542454,-1.4582468075849213,2.2547317909040303,-0.9249997138977051,0.36530137062072754,-0.10455010086297989,-0.4070618450641632,0.17112895846366882,-0.005868428852409124
7.620063066482544,0.052488625049591064,0.03973263502120972,-0.013713240623474121,-0.37554199307559577,-1.458234213031486,2.2478752312097035,-0.9244216084480286,0.36677679419517517,-0.1044965609908104,-0.23115383088588715,0.10160749405622482,0.07670103013515472
7.640149116516113,0.05468177795410156,0.03331226110458374,-0.025080129504203796,-0.3777369269992469,-1.4572594130342038,2.245370946770839,-0.9235171675682068,0.36881789565086365,-0.10530616343021393,-0.02027798257768154,0.09242455661296844,0.1114296242594719
7.65998911857605,0.06988286972045898,0.015535682439804077,-0.0350789874792099,-0.38011849438571965,-1.455187694849127,2.2470184877338006,-0.9224218726158142,0.3710305094718933,-0.10711757838726044,0.12547503411769867,0.04470532387495041,0.13929323852062225
7.680045127868652,0.07889556884765625,-0.016692668199539185,-0.030733518302440643,-0.38288244887532413,-1.4534393304603614,2.2506600298736195,-0.9212111830711365,0.3735957443714142,-0.1086096540093422,0.16467267274856567,0.006040663458406925,0.17167839407920837
7.699955940246582,0.044805705547332764,-0.04567965865135193,-0.007750801742076874,-0.3862024808588916,-1.4520334781538433,2.2537727339703126,-0.9198209643363953,0.37667331099510193,-0.10975707322359085,0.06381728500127792,0.03505447134375572,0.17994502186775208
7.719944000244141,-0.019260287284851074,-0.059232622385025024,0.009025461971759796,-0.3894035682316739,-1.4508067116676922,2.2535080684175957,-0.9184837937355042,0.3796367049217224,-0.11074049025774002,-0.134830042719841,0.11109837889671326,0.12647567689418793
7.7400031089782715,-0.0709415078163147,-0.0658201277256012,0.021285608410835266,-0.39255119972352975,-1.4494443653352795,2.2487067543386656,-0.917141318321228,0.3825468122959137,-0.11184646189212799,-0.3459920883178711,0.2176666259765625,0.14593273401260376
7.759274959564209,-0.09277617931365967,-0.06692880392074585,0.04250175505876541,-0.3968432686831675,-1.447735542854668,2.2392323104758183,-0.9153109192848206,0.38650885224342346,-0.11321094632148743,-0.5722872614860535,0.3081970512866974,0.16983060538768768
7.779990196228027,-0.10709846019744873,-0.06709420680999756,0.05759042501449585,-0.4022900513738959,-1.4461498009537952,2.225445989282327,-0.9130278825759888,0.39152660965919495,-0.11439882963895798,-0.7404893040657043,0.3913832902908325,0.21483536064624786
7.7999560832977295,-0.11799907684326172,-0.06700405478477478,0.058260902762413025,-0.4088177220672005,-1.4440391445450798,2.2091065925227156,-0.9102298021316528,0.39752474427223206,-0.11600010842084885,-0.8307812213897705,0.45499274134635925,0.2407844215631485
7.819953918457031,-0.09831243753433228,-0.06965091824531555,0.06117183715105057,-0.4158036048999569,-1.442358085142467,2.191321120994115,-0.9072570204734802,0.40392518043518066,-0.117171511054039,-0.8611474633216858,0.4183177947998047,0.24568882584571838
7.8399739265441895,-0.08339035511016846,-0.07424047589302063,0.05343574285507202,-0.4228499986235965,-1.4420191073916684,2.173854082973746,-0.9043720960617065,0.41036108136177063,-0.11711061000823975,-0.8050603866577148,0.3429694175720215,0.23786653578281403
7.860090255737305,-0.09350478649139404,-0.08106845617294312,0.0456998348236084,-0.429242346269522,-1.4419979131663307,2.1578329290062754,-0.9017497301101685,0.4161820113658905,-0.11679046601057053,-0.7135848999023438,0.3349763751029968,0.19264532625675201
7.879979133605957,-0.09636074304580688,-0.08499488234519958,0.025024637579917908,-0.4342711702638011,-1.4402550937961591,2.1441497051411385,-0.8994584679603577,0.42074933648109436,-0.11808796226978302,-0.5958040952682495,0.4464048445224762,0.16048692166805267
7.900003910064697,-0.0716429352760315,-0.07303696870803833,-0.02866905927658081,-0.43917688036368596,-1.4342704392902743,2.1326748317728548,-0.8966798186302185,0.4251945912837982,-0.12318632751703262,-0.5293340682983398,0.6411067247390747,0.17638610303401947
7.920067071914673,-0.03152322769165039,-0.061323970556259155,-0.11609260737895966,-0.4432331219358564,-1.426985478640737,2.120979454905259,-0.8940443396568298,0.42886239290237427,-0.12946702539920807,-0.5710993409156799,0.5777621269226074,0.09577010571956635
7.940036058425903,0.05462926626205444,-0.056007206439971924,-0.1478370726108551,-0.4476557590287329,-1.4211595267917612,2.109789428167905,-0.8913906216621399,0.43285349011421204,-0.13438938558101654,-0.4795753061771393,0.46300315856933594,0.18343187868595123
7.960005044937134,0.08623945713043213,-0.04361248016357422,-0.15536044538021088,-0.45202238939222933,-1.4178564940532736,2.100845131126871,-0.8890653252601624,0.4367856979370117,-0.13704368472099304,-0.37827667593955994,0.24740703403949738,0.10697274655103683
7.980003118515015,0.07189452648162842,-0.030489027500152588,-0.15512430667877197,-0.4538711299874329,-1.4175550022668817,2.094879997859271,-0.8882244825363159,0.4384480118751526,-0.13718824088573456,-0.1718405932188034,0.06242537498474121,-0.016350990161299706
8.000041961669922,0.03899341821670532,-0.015009135007858276,-0.1465008705854416,-0.452335398747466,-1.4184746552124654,2.0935129460725714,-0.889014720916748,0.4370672404766083,-0.13647332787513733,0.062225401401519775,-0.07575096189975739,-0.13108310103416443
8.020112991333008,0.03433114290237427,-0.030487358570098877,-0.11557285487651825,-0.44908713744406487,-1.4197970501628672,2.0957278877097756,-0.8905933499336243,0.4341433644294739,-0.1355104297399521,0.16893348097801208,-0.14311757683753967,-0.15718211233615875
8.040009021759033,0.022711634635925293,-0.049934715032577515,-0.08665533363819122,-0.4453726227319576,-1.4213138678644586,2.0997795009633724,-0.8923864364624023,0.4307941794395447,-0.1343986690044403,0.25132879614830017,-0.1804724931716919,-0.15212729573249817
8.060081958770752,0.02172189950942993,-0.04435208439826965,-0.06823879480361938,-0.4413039664764282,-1.4231411775552634,2.105815995117186,-0.8943567872047424,0.42711886763572693,-0.13302452862262726,0.36409905552864075,-0.2923286259174347,-0.16382500529289246
8.080259084701538,-0.010049521923065186,-0.025103211402893066,-0.062460482120513916,-0.4369966976938051,-1.428161608775708,2.1151439280727238,-0.8968260884284973,0.42322030663490295,-0.1287931352853775,0.579808235168457,-0.5643706321716309,-0.14781500399112701
