timestamp,acceleration_x,acceleration_y,acceleration_z,attitude_pitch,attitude_roll,attitude_yaw,gravity_x,gravity_y,gravity_z,rotation_x,rotation_y,rotation_z
0.0,0.08487647771835327,0.24438698589801788,0.009045541286468506,-0.19548480161455298,-1.5520388645852106,-0.39180655213471943,-0.980781078338623,0.19424211978912354,-0.01839912310242653,-1.7209094762802124,0.2387639880180359,-0.6608903408050537
0.020874977111816406,0.050385355949401855,0.19846656918525696,0.0726083517074585,-0.18532868041188658,-1.5525778195814575,-0.43175337030358396,-0.9827127456665039,0.18426959216594696,-0.017905540764331818,-2.1853039264678955,0.4859582185745239,-0.40482860803604126
0.04087400436401367,0.06412279605865479,0.1608329862356186,0.09972739219665527,-0.18156301955587814,-1.5503985121523476,-0.48055824493037597,-0.9833581447601318,0.18056711554527283,-0.02006113901734352,-2.5939207077026367,0.5732032656669617,-0.078892283141613
0.060941219329833984,0.050910234451293945,0.22083009779453278,0.0351373553276062,-0.1827892081846422,-1.5494001337768073,-0.533952960614914,-0.9831156134605408,0.18177302181720734,-0.02103814296424389,-2.5847208499908447,0.4789317548274994,0.06220513582229614
0.08088016510009766,0.028179049491882324,0.2747451663017273,-0.09081375598907471,-0.18540638324370473,-1.5506525734220045,-0.581389818942534,-0.9826621413230896,0.18434596061706543,-0.019797181710600853,-2.075110912322998,0.2757490873336792,0.08170869201421738
0.10018515586853027,0.08598744869232178,0.28539514541625977,-0.12337398529052734,-0.18792266272490188,-1.5532353262542709,-0.6180197174369353,-0.9822430610656738,0.18681854009628296,-0.017250943928956985,-1.5564137697219849,0.15855489671230316,0.11032713949680328
0.1208791732788086,0.14400196075439453,0.19451750814914703,-0.15640169382095337,-0.19051346344860817,-1.5560941710791882,-0.644876701832794,-0.9818012714385986,0.18936309218406677,-0.014435634948313236,-1.1548372507095337,0.09556270390748978,0.09839630126953125
0.1400289535522461,0.15309900045394897,0.13981443643569946,-0.1673538088798523,-0.19192806350913102,-1.5581384004034484,-0.6676338780913694,-0.9815598130226135,0.19075191020965576,-0.012425174936652184,-1.1353307962417603,0.14210312068462372,-0.0016185883432626724
0.16077709197998047,0.13843238353729248,0.148771271109581,-0.19444704055786133,-0.19113542948369783,-1.5593306585507742,-0.6917266236446543,-0.9817246198654175,0.18997377157211304,-0.011256622150540352,-1.2299363613128662,0.20944081246852875,-0.09117193520069122
0.180955171585083,0.156829833984375,0.17375440895557404,-0.22701430320739746,-0.18929727461796633,-1.5592155295962342,-0.7170845309457871,-0.982071042060852,0.18816876411437988,-0.011373673565685749,-1.235494613647461,0.29428166151046753,-0.10830485820770264
0.20038127899169922,0.1980348825454712,0.24140144884586334,-0.27706652879714966,-0.18767681798251346,-1.5585857514486834,-0.7407069356282275,-0.9823672771453857,0.18657700717449188,-0.01199586596339941,-1.0741325616836548,0.14831095933914185,-0.07520581781864166
0.22006607055664062,0.20023709535598755,0.3255811035633087,-0.3491685390472412,-0.1876954821538035,-1.5624420304021245,-0.7592317731848839,-0.9824026226997375,0.1865953505039215,-0.008207473903894424,-0.7050961256027222,-0.14795398712158203,0.0531274750828743
0.24111008644104004,0.14087873697280884,0.3715091645717621,-0.363309383392334,-0.19013542931706065,-1.5676084930567713,-0.7695092600853387,-0.9819738268852234,0.18899188935756683,-0.0031303800642490387,-0.3203001022338867,-0.1393333375453949,0.17556719481945038
0.26221513748168945,0.09845250844955444,0.3832489848136902,-0.35416799783706665,-0.1939534568263314,-1.5701705878363093,-0.7727464021189351,-0.9812497496604919,0.19273972511291504,-0.0006140062469057739,-0.00964801199734211,-0.07646480202674866,0.219550222158432
0.28088808059692383,0.1118849515914917,0.3384472727775574,-0.3487563729286194,-0.200241673649285,-1.5704554061706688,-0.7713969773146053,-0.9800186157226562,0.19890618324279785,-0.0003341085684951395,0.09006763249635696,0.028908399865031242,0.40769249200820923
0.3008880615234375,0.11048591136932373,0.28663337230682373,-0.3450412154197693,-0.20921316480751231,-1.5685598407229273,-0.7698897180862267,-0.9781922698020935,0.2076902836561203,-0.002187717007473111,0.011381398886442184,0.13957686722278595,0.47987091541290283
0.32087111473083496,0.1063280701637268,0.2681449055671692,-0.3334122896194458,-0.21951461285235235,-1.5651135502346354,-0.770926517686238,-0.9759876132011414,0.21775591373443604,-0.005546379368752241,-0.0675538182258606,0.23112720251083374,0.5539960265159607
0.34101009368896484,0.1210278868675232,0.26533186435699463,-0.32514238357543945,-0.2309478233867818,-1.5605844803713893,-0.7723322161553977,-0.9733992218971252,0.22890028357505798,-0.009940548799932003,-0.05498622730374336,0.2329564243555069,0.586958110332489
0.361417293548584,0.14700812101364136,0.29740214347839355,-0.30816781520843506,-0.24319600725133997,-1.5557832448000395,-0.7704521163919347,-0.9704639911651611,0.24080580472946167,-0.014570750296115875,0.247344508767128,0.20883013308048248,0.6581151485443115
0.3809232711791992,0.14415723085403442,0.3057063817977905,-0.30952227115631104,-0.2568938021727904,-1.5498728655308336,-0.7616026746022534,-0.9669722318649292,0.2540775239467621,-0.02023535966873169,0.5352796912193298,0.1324623078107834,0.7179888486862183
0.4009222984313965,0.09688633680343628,0.27596524357795715,-0.3067414164543152,-0.2718026081652552,-1.545918326656686,-0.7502496198651831,-0.9629905819892883,0.26846829056739807,-0.023962223902344704,0.5267733931541443,-0.009306453168392181,0.8033600449562073
0.4207930564880371,0.004042565822601318,0.24109238386154175,-0.30102455615997314,-0.28865637236488056,-1.5427774078633676,-0.7393619613332141,-0.9582511782646179,0.28466445207595825,-0.026856189593672752,0.48713061213493347,0.03934435173869133,0.8988261222839355
0.44091320037841797,-0.09115779399871826,0.2589778006076813,-0.2771012783050537,-0.3067700213106018,-1.5370830137661309,-0.7287717714685366,-0.9527723789215088,0.30198103189468384,-0.03213328868150711,0.47218501567840576,0.2198934406042099,0.9514755606651306
0.46233510971069336,-0.1240953803062439,0.26879996061325073,-0.2448972463607788,-0.3261547506114536,-1.5284130494053914,-0.7178832984357735,-0.9464308023452759,0.3204028606414795,-0.040136873722076416,0.4889478087425232,0.2506081163883209,1.0287832021713257
0.4809231758117676,-0.2052067518234253,0.2870606482028961,-0.2517387866973877,-0.3463644537888434,-1.5213140529964946,-0.7058053201488633,-0.9394618272781372,0.3394804298877716,-0.04652468487620354,0.5838153958320618,0.10891491174697876,1.0096790790557861
0.5009222030639648,-0.40377455949783325,0.3555445969104767,-0.2810646891593933,-0.36423234408916505,-1.5096488050098673,-0.6889372529850706,-0.9326512813568115,0.3562321066856384,-0.05710050091147423,0.8753258585929871,0.5463538765907288,0.8720255494117737
0.5209240913391113,-0.38281965255737305,0.29396530985832214,-0.22980111837387085,-0.38067446962679125,-1.4867004278269058,-0.6688576761974776,-0.9251333475112915,0.37154674530029297,-0.07798384130001068,0.7741655707359314,0.9473504424095154,0.950356662273407
0.5409212112426758,-0.15806007385253906,0.12473073601722717,-0.13789741694927216,-0.402149971053999,-1.4618926488634467,-0.6547582504349215,-0.9147700667381287,0.3913976848125458,-0.10001754015684128,0.32264482975006104,0.9447904229164124,1.2888354063034058
0.5609250068664551,-0.13265866041183472,0.0782322883605957,-0.08266372978687286,-0.4302673566249941,-1.439252169148568,-0.6463778714320673,-0.9010024666786194,0.4171138107776642,-0.11921000480651855,0.1306641399860382,0.9780794978141785,1.4752116203308105
0.5809230804443359,-0.2313615083694458,0.12595915794372559,-0.07620376348495483,-0.45954974711470803,-1.4131573244909392,-0.6358158719415239,-0.8851394653320312,0.4435446262359619,-0.14069990813732147,0.4678100347518921,1.1146509647369385,1.5355149507522583
0.6009330749511719,-0.19959264993667603,0.12492400407791138,-0.10799999535083771,-0.48789215481685977,-1.3819718348214935,-0.613318926478093,-0.8676225543022156,0.4687650203704834,-0.16580364108085632,1.0187406539916992,0.9585264921188354,1.6097838878631592
0.6209311485290527,-0.13351279497146606,0.06293094158172607,-0.08481602370738983,-0.5156837654123034,-1.3483068573258417,-0.5790929830884819,-0.8485124111175537,0.49312981963157654,-0.1919630765914917,1.2765122652053833,0.7883776426315308,1.7122505903244019
0.6410131454467773,-0.173845112323761,-0.0421985387802124,0.012240767478942871,-0.5438668749999865,-1.3132108032374759,-0.5433246593473441,-0.8274824619293213,0.5174487829208374,-0.2179902046918869,1.065536618232727,0.9675055146217346,1.7542023658752441
0.6610159873962402,-0.236419677734375,-0.1326170563697815,0.09864038228988647,-0.573862823261876,-1.2740334458251712,-0.5117772014496585,-0.8031006455421448,0.542880117893219,-0.2455824911594391,0.6270437240600586,1.2528151273727417,1.8802075386047363
0.6810851097106934,-0.24467343091964722,-0.17899352312088013,0.14413350820541382,-0.6087732567518476,-1.2354715671667142,-0.4896238969725202,-0.7746595740318298,0.5718615055084229,-0.26995745301246643,0.05988401919603348,1.3441519737243652,2.003692865371704
0.7010471820831299,-0.25250178575515747,-0.2321907877922058,0.14759135246276855,-0.6474983403449395,-1.1994321210949215,-0.474348404357329,-0.7432258129119873,0.6031929850578308,-0.2894369959831238,-0.19586217403411865,1.3702195882797241,2.0559465885162354
0.7209751605987549,-0.2430129051208496,-0.24618732929229736,0.16760611534118652,-0.6873721060186494,-1.1626438405615838,-0.4594008824171606,-0.7094255685806274,0.6345082521438599,-0.30678147077560425,-0.21325741708278656,1.375400185585022,2.06001877784729
0.7411081790924072,-0.24591821432113647,-0.2757183313369751,0.19472792744636536,-0.725432869797951,-1.123439551722228,-0.44085136813264764,-0.6745834946632385,0.6634593605995178,-0.3236646354198456,-0.07592003047466278,1.3481379747390747,2.007566213607788
0.7611091136932373,-0.2239893078804016,-0.32316499948501587,0.2353881597518921,-0.7607746945249396,-1.0804910879133878,-0.4168634780242275,-0.6389715671539307,0.6894827485084534,-0.3410704433917999,0.03079531155526638,1.296264410018921,1.9258787631988525
0.7809391021728516,-0.21313691139221191,-0.37977540493011475,0.2791838049888611,-0.7926321335248918,-1.0381295442549017,-0.3919395044987863,-0.6047190427780151,0.7122034430503845,-0.3564848303794861,-0.05631342530250549,1.2041329145431519,1.7071770429611206
0.8009121417999268,-0.2055872082710266,-0.4532342553138733,0.30203142762184143,-0.8207336935786488,-0.9996279536831777,-0.3716492752142352,-0.5734809041023254,0.7316461801528931,-0.3685292601585388,-0.23969997465610504,1.1823152303695679,1.4136582612991333
0.8209753036499023,-0.16701668500900269,-0.4922807216644287,0.331256628036499,-0.8449327616115794,-0.9662106035876701,-0.35842232358959175,-0.5461181998252869,0.7479264736175537,-0.37730762362480164,-0.29496538639068604,1.148722529411316,1.1010549068450928
0.8409032821655273,-0.10764306783676147,-0.531725287437439,0.3070824444293976,-0.8631202974621601,-0.93536386206921,-0.3458058297800181,-0.5231857895851135,0.7598746418952942,-0.3858329653739929,-0.10933893173933029,0.9565554857254028,0.844448983669281
0.8609311580657959,-0.04830753803253174,-0.532602071762085,0.32086992263793945,-0.8743306701087971,-0.9103792334100201,-0.334568184968771,-0.506624162197113,0.7671142816543579,-0.3935322165489197,0.031879737973213196,0.6843729615211487,0.4726197123527527
0.8809220790863037,-0.020097076892852783,-0.5682554841041565,0.31798189878463745,-0.877848643962374,-0.8925801418561877,-0.3261763534176844,-0.4974353611469269,0.7693663835525513,-0.4007912874221802,0.13164591789245605,0.43933427333831787,0.13510748744010925
0.9009711742401123,-0.011448681354522705,-0.5696089863777161,0.32997721433639526,-0.875075550500856,-0.8849899812575367,-0.3237180491277845,-0.49602827429771423,0.7675919532775879,-0.40590494871139526,0.16823828220367432,0.128816619515419,-0.2600531578063965
0.9209251403808594,-0.03036785125732422,-0.5723321437835693,0.32917600870132446,-0.8663942619544113,-0.8912784757681402,-0.3299837682253646,-0.5037356615066528,0.7619988918304443,-0.4069500267505646,0.04668182507157326,-0.2911261320114136,-0.6764003038406372
0.9456071853637695,-0.1155124306678772,-0.550011157989502,0.31891191005706787,-0.8532804066655273,-0.9140693964692914,-0.34853853661445117,-0.5207486748695374,0.7534413933753967,-0.4014313817024231,-0.20725998282432556,-0.5271811485290527,-1.131584882736206
0.9609191417694092,-0.23355066776275635,-0.48012399673461914,0.30208319425582886,-0.8352455785986781,-0.9498275261276791,-0.38134262091674936,-0.5457310080528259,0.7414613366127014,-0.3904010057449341,-0.4497649073600769,-0.5981805920600891,-1.5924543142318726
0.9809103012084961,-0.29573512077331543,-0.4014701843261719,0.29171526432037354,-0.8129671994664573,-0.9930877150407773,-0.4236013191181364,-0.5758013129234314,0.7263298630714417,-0.37536394596099854,-0.6986150145530701,-0.6450155973434448,-1.866249680519104
1.000901222229004,-0.32738733291625977,-0.3835424780845642,0.3098613917827606,-0.7879020244774434,-1.0438548938741357,-0.475597738010819,-0.60965496301651,0.7088750600814819,-0.35470688343048096,-1.0934460163116455,-0.6770071983337402,-2.1850364208221436
1.0208940505981445,-0.3785519599914551,-0.3284450173377991,0.2872637212276459,-0.7580401274788908,-1.1014635510562374,-0.5368589680911792,-0.6476626992225647,0.6874995231628418,-0.3284471035003662,-1.27496337890625,-0.8609153032302856,-2.5399646759033203
1.0408992767333984,-0.4888046979904175,-0.19865238666534424,0.2557467520236969,-0.7198873991746192,-1.1652164795415458,-0.6000787642635033,-0.6908829212188721,0.6593000292778015,-0.296655535697937,-1.3659948110580444,-1.2224067449569702,-2.9314451217651367
1.061021089553833,-0.7297744750976562,-0.07107037305831909,0.29417356848716736,-0.6722353903913346,-1.2294805882373643,-0.6656403098035989,-0.7372971177101135,0.6227365732192993,-0.2619011700153351,-1.655935525894165,-0.8461682796478271,-3.3299806118011475
1.0808720588684082,-0.7612848281860352,-0.04590493440628052,0.3273339569568634,-0.6197695570889395,-1.2822352135468866,-0.7389011842181177,-0.7803565859794617,0.5808476209640503,-0.2316460758447647,-2.3309178352355957,-0.11563457548618317,-3.4169721603393555
1.1009249687194824,-0.3643220067024231,-0.01644676923751831,0.22169455885887146,-0.56921223637012,-1.330289919860499,-0.8192468928616768,-0.8180815577507019,0.5389686822891235,-0.20063737034797668,-2.648282766342163,-0.3329879343509674,-3.1945674419403076
1.1209571361541748,-0.20026665925979614,0.14328178763389587,0.0467960387468338,-0.5207446992825182,-1.3782277076103218,-0.8892136069947233,-0.8514149188995361,0.49752625823020935,-0.1660129427909851,-2.0798182487487793,-0.7969446778297424,-2.843926191329956
1.1409261226654053,-0.32367169857025146,0.23276379704475403,-0.02529922127723694,-0.47344697764956567,-1.4184779120556168,-0.9387684702198148,-0.8796973824501038,0.4559568166732788,-0.1350400745868683,-1.5055735111236572,-0.7826113700866699,-2.5932819843292236
1.1609201431274414,-0.44359129667282104,0.21080487966537476,0.016331195831298828,-0.42933943807385305,-1.4501393809270748,-0.9813298766698008,-0.9026306867599487,0.41627028584480286,-0.10944025963544846,-1.8060944080352783,-0.4836001694202423,-2.26893949508667
1.1810040473937988,-0.3912461996078491,0.18182721734046936,0.09084320068359375,-0.3934296595351216,-1.4751343558756929,-1.030581439557058,-0.9193770885467529,0.38335829973220825,-0.08821868896484375,-2.2876274585723877,-0.08220045268535614,-1.795267939567566
1.200930118560791,-0.28981906175613403,0.23848101496696472,0.06763964891433716,-0.3649163363242186,-1.4955411208318816,-1.0861579706015503,-0.931509792804718,0.3568711280822754,-0.07023359835147858,-2.5296897888183594,0.0977991372346878,-1.5452992916107178
1.2209362983703613,-0.1883752942085266,0.26486238837242126,-0.007277257740497589,-0.3393294961605653,-1.5112930348691662,-1.140479567283932,-0.94130939245224,0.33285489678382874,-0.05607720836997032,-2.411074161529541,0.178096204996109,-1.3618121147155762
1.2409210205078125,-0.05291903018951416,0.3171137571334839,-0.03572338446974754,-0.3155215608002064,-1.5241053336631523,-1.1930526325654172,-0.9495987296104431,0.31031233072280884,-0.044369954615831375,-2.5108916759490967,0.1647561639547348,-1.3292036056518555
1.2609741687774658,0.0288771390914917,0.37826648354530334,-0.06094551458954811,-0.2889931800844198,-1.5379835901398469,-1.2430694193466185,-0.9580155611038208,0.28498730063438416,-0.03144639730453491,-2.03242826461792,-0.03515207767486572,-1.528916835784912
1.2809200286865234,0.10355579853057861,0.40671199560165405,-0.07456398010253906,-0.2592530389037684,-1.5495720104044126,-1.2806378543463446,-0.9663640260696411,0.25635862350463867,-0.020513497292995453,-1.5626723766326904,-0.12382504343986511,-1.5290440320968628
1.3009309768676758,0.162503182888031,0.35615769028663635,-0.04720044136047363,-0.22904586210079053,-1.5601470921550222,-1.3101311695189304,-0.9738282561302185,0.22704841196537018,-0.010370917618274689,-1.347858190536499,-0.2285028100013733,-1.5511341094970703
1.3209290504455566,0.18005597591400146,0.3800894320011139,-0.060805678367614746,-0.19826377983616922,-1.5712471673215165,-1.3403030601943113,-0.9804100394248962,0.19696742296218872,0.0004420086042955518,-1.5979987382888794,-0.21980616450309753,-1.5536699295043945
1.3409552574157715,0.16230612993240356,0.4339521527290344,-0.14771175384521484,-0.16645530421214746,-1.5823150226657454,-1.3741718466368484,-0.9861130118370056,0.165687695145607,0.01135923806577921,-1.7968344688415527,-0.25688597559928894,-1.641984462738037
1.3604393005371094,0.1493484377861023,0.6060593128204346,-0.20975995063781738,-0.13205607803084754,-1.5920682485822446,-1.4087505840005088,-0.9910691380500793,0.13167259097099304,0.02108512632548809,-1.5695006847381592,-0.21635392308235168,-1.7009307146072388
1.3809552192687988,0.19940829277038574,0.6548996567726135,-0.265033483505249,-0.09992041338326095,-1.5988672595781277,-1.4358796470093647,-0.9946202039718628,0.0997542291879654,0.027927251532673836,-1.2903465032577515,-0.16786742210388184,-1.451655626296997
1.400921106338501,0.2541968822479248,0.6318608522415161,-0.22948110103607178,-0.07368056012525129,-1.6031203770116156,-1.4618161583726703,-0.9967658519744873,0.07361391186714172,0.03223073482513428,-1.4463093280792236,0.024617867544293404,-1.0606558322906494
1.4209191799163818,0.2438485026359558,0.6077972054481506,-0.2590944766998291,-0.05624914788832783,-1.6018259210827268,-1.491853201184556,-0.9979379177093506,0.056219492107629776,0.030975550413131714,-1.5787593126296997,0.30526506900787354,-0.6096732020378113
1.4409210681915283,0.28377795219421387,0.6707009077072144,-0.24285638332366943,-0.04767037468651362,-1.5941684936484921,-1.526170746849142,-0.9985912442207336,0.04765232279896736,0.023343492299318314,-1.9147993326187134,0.5668805241584778,-0.1644061654806137
1.4609200954437256,0.36535096168518066,0.677672803401947,-0.26054835319519043,-0.04724398526406494,-1.586657913414351,-1.5639572082332303,-0.9987586736679077,0.04722641408443451,0.01584322564303875,-1.7254917621612549,0.3175385296344757,0.17763786017894745
1.480968952178955,0.35969871282577515,0.7212758660316467,-0.34523117542266846,-0.0537133318174633,-1.584642354667828,-1.5903941412193316,-0.9984623193740845,0.05368750914931297,0.013825620524585247,-0.8413903713226318,0.016173960641026497,0.4948883652687073
1.500920295715332,0.2718607187271118,0.833474338054657,-0.4216127395629883,-0.06534532661178452,-1.5878135933227997,-1.595998066396462,-0.9977213740348816,0.06529883295297623,0.016980130225419998,0.3025399148464203,-0.3099168837070465,0.6734617352485657
1.5209202766418457,0.15711575746536255,0.8105402588844299,-0.39026546478271484,-0.08164023726768146,-1.595530832535357,-1.5825589510348954,-0.9963644742965698,0.08154957741498947,0.02464960888028145,0.9403442144393921,-0.5016223788261414,0.9388611316680908
1.5409290790557861,0.008745551109313965,0.6867752075195312,-0.2393723726272583,-0.10314139926620738,-1.601919275535926,-1.5645771948961824,-0.9942039251327515,0.10295862704515457,0.03095255233347416,0.8229472041130066,-0.2612392008304596,1.1516720056533813
1.5609722137451172,-0.17858296632766724,0.5584189891815186,-0.17207884788513184,-0.12871895535978947,-1.6023947935461882,-1.5521358229314055,-0.9912320375442505,0.12836380302906036,0.03133184090256691,0.48239627480506897,0.06063046306371689,1.3485888242721558
1.5809202194213867,-0.34867042303085327,0.5854204893112183,-0.21631741523742676,-0.15610316260025847,-1.596016827083936,-1.544470219209025,-0.987526535987854,0.15546993911266327,0.024911195039749146,0.47937315702438354,0.45005732774734497,1.3403726816177368
1.6009202003479004,-0.2906121015548706,0.6437056660652161,-0.23866701126098633,-0.1837424941093291,-1.5848623807332465,-1.5299340491263662,-0.9830695986747742,0.18271033465862274,0.013828822411596775,1.0710861682891846,0.34732571244239807,1.4604742527008057
1.6209182739257812,-0.15489059686660767,0.6127140522003174,-0.13969552516937256,-0.21703448927363017,-1.5745790032465,-1.501792562882032,-0.9765334129333496,0.21533463895320892,0.0036939275451004505,1.6713001728057861,0.12029574811458588,1.8308312892913818
1.6409292221069336,-0.2613599896430969,0.5416155457496643,-0.04773759841918945,-0.25474026270712,-1.5637723596555901,-1.4653476054811265,-0.9677050709724426,0.2519940733909607,-0.0067972405813634396,1.800073504447937,0.17486871778964996,1.9053997993469238
1.6609539985656738,-0.4152020812034607,0.4187488257884979,0.003864167258143425,-0.29276727290037297,-1.5468051764317434,-1.4291548487690642,-0.9571736454963684,0.2886028587818146,-0.022968104109168053,1.6296019554138184,0.532759428024292,1.9516266584396362
1.6808810234069824,-0.39917904138565063,0.3022153079509735,0.01279861107468605,-0.33284864941415465,-1.524043556397654,-1.3932668463424145,-0.9440827369689941,0.3267366588115692,-0.044170670211315155,1.7146092653274536,0.5698399543762207,2.135343551635742
1.7008981704711914,-0.28381800651550293,0.323717325925827,0.04244328290224075,-0.37565311529513884,-1.4996219286332115,-1.3516745332443711,-0.9279129505157471,0.3668801784515381,-0.06615538895130157,1.954343557357788,0.44975364208221436,2.361341714859009
1.7208962440490723,-0.22448909282684326,0.2532367706298828,0.11444587260484695,-0.42136876938205636,-1.4719906654254606,-1.3037731740430205,-0.9080792665481567,0.4090098738670349,-0.09001649171113968,2.0187644958496094,0.4598289132118225,2.550351619720459
1.7409939765930176,-0.2423466444015503,0.153583824634552,0.15524715185165405,-0.46856929037951883,-1.4389285360527053,-1.2509721275865238,-0.8844692707061768,0.4516102373600006,-0.11731379479169846,2.2436635494232178,0.5638607740402222,2.6932108402252197
1.7609200477600098,-0.22175365686416626,0.09921509027481079,0.1915014237165451,-0.5162466584089055,-1.3979713220885364,-1.1896745209490933,-0.8567225337028503,0.4936194121837616,-0.149555042386055,2.3129348754882812,0.6351553797721863,2.863569736480713
1.7809181213378906,-0.17340576648712158,-0.006475985050201416,0.2519823908805847,-0.5645194847314664,-1.3525723012868753,-1.1257120673942322,-0.8248090744018555,0.5350099205970764,-0.18290585279464722,2.1564509868621826,0.6111793518066406,2.926182746887207
1.8009190559387207,-0.1866135597229004,-0.11875301599502563,0.27644819021224976,-0.6124063912445723,-1.3043822355515777,-1.0607391255599572,-0.7893996834754944,0.5748382210731506,-0.21542826294898987,1.9392390251159668,0.6113920211791992,3.0324208736419678
1.820967197418213,-0.2401803731918335,-0.14376682043075562,0.29957306385040283,-0.6597040146537313,-1.253418597451591,-0.995893994212364,-0.7507101893424988,0.6128829717636108,-0.24659454822540283,1.705155849456787,0.6445626020431519,2.975738286972046
1.840325117111206,-0.29385513067245483,-0.1747375726699829,0.34432804584503174,-0.7036595698757153,-1.1987346911951868,-0.9315095102983665,-0.7103106379508972,0.6470123529434204,-0.27718937397003174,1.5029354095458984,0.7665756940841675,2.864699602127075
1.8609280586242676,-0.33638274669647217,-0.24990534782409668,0.38187193870544434,-0.7439260120671954,-1.1383803057079476,-0.8657290307441685,-0.6680881977081299,0.6771819591522217,-0.30835506319999695,1.445501446723938,0.9425731897354126,2.779472589492798
1.880918025970459,-0.33609187602996826,-0.28967785835266113,0.4364330768585205,-0.7800259481489864,-1.0724096634808644,-0.7991788405326462,-0.6244184374809265,0.7032978534698486,-0.3398144245147705,1.2615382671356201,1.044168472290039,2.619093894958496
1.9009170532226562,-0.30526643991470337,-0.3596940040588379,0.464765340089798,-0.8118612044858908,-1.0053136761096182,-0.7345523312092689,-0.5810251235961914,0.7255691885948181,-0.3687264621257782,1.0035672187805176,1.0183554887771606,2.407017230987549
1.920973300933838,-0.274263858795166,-0.40112578868865967,0.501232385635376,-0.8393886239377236,-0.9429060133818632,-0.6756622830059367,-0.5405250191688538,0.7442349195480347,-0.3923608958721161,0.7753627300262451,0.8998648524284363,2.1127655506134033
1.9410021305084229,-0.2673669457435608,-0.4583391547203064,0.4937381148338318,-0.8610471147862322,-0.8856265892461623,-0.6220071752978461,-0.504575252532959,0.7585253119468689,-0.4123630225658417,0.7213029265403748,0.8084370493888855,1.764914870262146
1.9609522819519043,-0.2440527081489563,-0.5243936777114868,0.5031788945198059,-0.8764041029734042,-0.833561901401943,-0.5743610742376127,-0.4737513065338135,0.7684427499771118,-0.4301808774471283,0.6278643012046814,0.7346977591514587,1.3910490274429321
1.9809191226959229,-0.2223525047302246,-0.6066848039627075,0.5329514741897583,-0.8868187690841366,-0.7895715344102081,-0.5352462933703614,-0.44866806268692017,0.775065541267395,-0.44493868947029114,0.3812401592731476,0.6048467755317688,1.0401510000228882
2.0009500980377197,-0.21635982394218445,-0.5936072468757629,0.5008596777915955,-0.8938996730850991,-0.7635771875208978,-0.5121058521207661,-0.4331458508968353,0.7795203328132629,-0.4524739980697632,0.22030213475227356,0.16884580254554749,0.48454076051712036
2.020918130874634,-0.2543848752975464,-0.5948525071144104,0.4457167387008667,-0.8942800255859081,-0.7559270543156462,-0.5015955486512155,-0.4294683337211609,0.7797585129737854,-0.4555586278438568,0.15237993001937866,-0.19322630763053894,0.01756683737039566
2.0404319763183594,-0.3318428099155426,-0.6008251905441284,0.4660429060459137,-0.8896486665130902,-0.7664590126631183,-0.5065974818108112,-0.4367424547672272,0.7768505811691284,-0.4536069333553314,-0.036177635192871094,-0.4519287049770355,-0.5494391322135925
2.060918092727661,-0.41319870948791504,-0.5854296088218689,0.4916546940803528,-0.8817638507719535,-0.7927724370425463,-0.5290393117661543,-0.45287495851516724,0.7718614935874939,-0.4462445080280304,-0.412068635225296,-0.39248180389404297,-1.025743842124939
2.081005096435547,-0.42440199851989746,-0.5636419653892517,0.4533628225326538,-0.8711550720935058,-0.8305831782923537,-0.5688014571255194,-0.4754393696784973,0.7650732398033142,-0.4343045949935913,-0.6585054397583008,-0.43377411365509033,-1.4946699142456055
2.100917100906372,-0.37794798612594604,-0.4785940647125244,0.36606574058532715,-0.8531784995880174,-0.880185137959594,-0.6165342833493344,-0.5069093108177185,0.7533743381500244,-0.41889166831970215,-0.42450881004333496,-0.9135900139808655,-1.8964585065841675
2.120922088623047,-0.4816305637359619,-0.35922372341156006,0.3056715726852417,-0.824500131852831,-0.9362522286070679,-0.6629066786727039,-0.5467661619186401,0.7342085242271423,-0.4024733006954193,-0.31038665771484375,-1.2080234289169312,-2.284209966659546
2.1410040855407715,-0.6835381388664246,-0.37529075145721436,0.3304598927497864,-0.7900290891173252,-0.9994817498871208,-0.7180505739162307,-0.5920509099960327,0.7103737592697144,-0.3805849850177765,-1.040618658065796,-0.9958525896072388,-2.749852418899536
2.1609549522399902,-0.7472735047340393,-0.3413708209991455,0.40950703620910645,-0.7556497505317747,-1.068180509508707,-0.7976285028201086,-0.6378126740455627,0.6857616901397705,-0.35060808062553406,-2.0384607315063477,-0.35247063636779785,-3.0450799465179443
2.1809182167053223,-0.4573858976364136,-0.31166207790374756,0.352108895778656,-0.7233874338155923,-1.1374887222190735,-0.8914918806018466,-0.6802942156791687,0.6619275808334351,-0.31472480297088623,-2.6390674114227295,-0.4288792312145233,-2.9809420108795166
2.200918197631836,-0.2602311968803406,-0.1322450041770935,0.23710593581199646,-0.6880568236820493,-1.2131809852543132,-0.9850763399534209,-0.7236098051071167,0.6350373029708862,-0.2704005241394043,-2.453089475631714,-1.0399694442749023,-3.049806833267212
2.220916271209717,-0.3398658037185669,0.04163616895675659,0.09710629284381866,-0.6430764093908762,-1.2838781997311566,-1.0617133745025367,-0.7675408720970154,0.5996601581573486,-0.22647026181221008,-1.860349416732788,-1.2186986207962036,-3.1669936180114746
2.240936279296875,-0.46174997091293335,0.14001047611236572,0.03887456655502319,-0.588450916621147,-1.3418709839469403,-1.121590396077837,-0.8101007342338562,0.5550731420516968,-0.1887616366147995,-1.5478469133377075,-1.1076704263687134,-3.351421594619751
2.260946273803711,-0.43956708908081055,0.19592386484146118,-0.012690648436546326,-0.5292979556997527,-1.3892521384750498,-1.169535264440889,-0.8489766716957092,0.5049275159835815,-0.15584266185760498,-1.1954443454742432,-1.1133984327316284,-3.2445623874664307
2.2810072898864746,-0.3753211498260498,0.2336360216140747,-0.02336035668849945,-0.47142222583375476,-1.4272415305014505,-1.2035270202192205,-0.8817589282989502,0.454153835773468,-0.12745748460292816,-0.8648692965507507,-0.9950094223022461,-2.9290452003479004
2.30092716217041,-0.34808701276779175,0.20081362128257751,-0.0029482394456863403,-0.42019204464815046,-1.457547348693219,-1.2336970948537278,-0.9071622490882874,0.4079357981681824,-0.10317666828632355,-1.3517310619354248,-0.7272045612335205,-2.5432286262512207
2.3209640979766846,-0.28845322132110596,0.22901976108551025,0.015888571739196777,-0.37509713777095316,-1.4853476774892005,-1.2770133339561611,-0.9270772933959961,0.36636292934417725,-0.07941087335348129,-2.115403890609741,-0.3940713405609131,-2.3640835285186768
2.3409180641174316,-0.13396304845809937,0.33321720361709595,-0.06337254494428635,-0.3329981527005389,-1.5092452435744699,-1.327424092850637,-0.9432769417762756,0.3268779516220093,-0.05813314765691757,-2.1957130432128906,-0.2727876305580139,-2.177417755126953
2.360917091369629,0.053974807262420654,0.4284333288669586,-0.13532161712646484,-0.2937605571963016,-1.5291994177638886,-1.3714350983434782,-0.9563339352607727,0.2895537316799164,-0.03980349376797676,-1.757408857345581,-0.39633336663246155,-1.9680813550949097
2.3809452056884766,0.19845962524414062,0.4511811435222626,-0.1475846767425537,-0.2571015264593513,-1.5478715615100278,-1.4047704891771726,-0.9668771028518677,0.25427842140197754,-0.022169314324855804,-1.3884602785110474,-0.5822833180427551,-1.788793683052063
2.4009151458740234,0.2412276268005371,0.4470809996128082,-0.18595898151397705,-0.22405462192839323,-1.5657571849863459,-1.4289793785723417,-0.9749923348426819,0.22218471765518188,-0.004913166165351868,-0.9176174998283386,-0.6109544634819031,-1.6186341047286987
2.4207911491394043,0.22500091791152954,0.4760412573814392,-0.2103649377822876,-0.19140017680411664,-1.5813418084899415,-1.4439972621946837,-0.9816842079162598,0.19023369252681732,0.010352716781198978,-0.5879331827163696,-0.6183642745018005,-1.604985237121582
2.440916061401367,0.2553848624229431,0.4729059338569641,-0.24162065982818604,-0.16073510187282952,-1.595869608499122,-1.45377426489874,-0.9867997765541077,0.1600438803434372,0.024747494608163834,-0.5001222491264343,-0.6761388182640076,-1.4527310132980347
2.460958957672119,0.2795904278755188,0.4556816816329956,-0.2727315425872803,-0.13233541735376075,-1.6122276611307063,-1.465063061552478,-0.9904059171676636,0.1319494992494583,0.04105733335018158,-0.671704113483429,-0.7633603811264038,-1.3563799858093262
2.4809181690216064,0.2747578024864197,0.48530906438827515,-0.2831302881240845,-0.10619901552741393,-1.6268238837813254,-1.4757623164036786,-0.9928061366081238,0.10599950700998306,0.05568277835845947,-0.5047745108604431,-0.537211000919342,-1.216509461402893
2.5009169578552246,0.2706912159919739,0.5830984711647034,-0.32063281536102295,-0.08284397833541654,-1.6353935483458255,-1.4811798055889505,-0.9944919943809509,0.08274924755096436,0.06433092057704926,-0.16532203555107117,-0.30664387345314026,-1.0947284698486328
2.5209412574768066,0.30918532609939575,0.6114951968193054,-0.37933099269866943,-0.06275554907787001,-1.641242067461487,-1.4784428840782853,-0.9955562353134155,0.06271436810493469,0.07024893909692764,0.28783467411994934,-0.3248070776462555,-0.9129490256309509
2.5402750968933105,0.3353617787361145,0.5869543552398682,-0.3902064561843872,-0.047340636874176896,-1.648653335797322,-1.4690051439006648,-0.9958537220954895,0.04732295498251915,0.07769124209880829,0.4960898756980896,-0.4714990258216858,-0.7078661322593689
2.5609171390533447,0.27147066593170166,0.5622363686561584,-0.381289005279541,-0.03509135559241326,-1.6586426853479725,-1.4576106708095002,-0.9955307245254517,0.03508415445685387,0.0876794084906578,0.577627956867218,-0.5368133187294006,-0.6132144331932068
2.580954074859619,0.17730724811553955,0.5666722655296326,-0.358176589012146,-0.025401972646195262,-1.6682484933862953,-1.4425558209867053,-0.9949343204498291,0.025399241596460342,0.09726661443710327,0.8080210089683533,-0.43491625785827637,-0.4702996015548706
2.600917100906372,0.10778886079788208,0.5869489312171936,-0.31140005588531494,-0.019375467111354235,-1.674592655790412,-1.4259949116513018,-0.9944315552711487,0.01937425509095192,0.10359062999486923,0.7520240545272827,-0.2400602251291275,-0.3110196888446808
2.620915174484253,0.04864257574081421,0.5307542085647583,-0.2836005687713623,-0.016289349443592567,-1.6771823707035545,-1.4111895600885567,-0.9942145347595215,0.016288628801703453,0.10617140680551529,0.6653023958206177,-0.060546472668647766,-0.14157935976982117
2.6409151554107666,0.03655517101287842,0.44935595989227295,-0.23075827956199646,-0.016404006971979933,-1.6770433858725886,-1.4005580227124028,-0.9942276477813721,0.01640327088534832,0.10603304207324982,0.3826983869075775,0.04697617143392563,0.018955588340759277
2.6609861850738525,0.00865185260772705,0.37851589918136597,-0.18956828117370605,-0.01729788800730673,-1.6755498431537061,-1.3955938493556945,-0.9943696856498718,0.01729702576994896,0.10454640537500381,0.1577969491481781,0.09532248228788376,0.015566838905215263
2.6808862686157227,-0.0010094642639160156,0.3510154187679291,-0.13861548900604248,-0.019011314007705258,-1.6746900335015187,-1.3901579980291163,-0.994428277015686,0.019010169431567192,0.10368817299604416,0.4966997802257538,-0.046426039189100266,0.10108267515897751
2.7009150981903076,-0.1453755497932434,0.46807825565338135,-0.18418334424495697,-0.021257399123918608,-1.6773395312571138,-1.3738644702219027,-0.9941052794456482,0.021255798637866974,0.10631775110960007,1.1886301040649414,-0.11257327347993851,-0.09038492292165756
2.7209181785583496,-0.2853679060935974,0.5660996437072754,-0.14849092066287994,-0.021868936985837955,-1.6715385483882923,-1.3430626583955914,-0.9946918487548828,0.021867193281650543,0.10054785013198853,1.8133286237716675,0.6547856330871582,-0.08708963543176651
2.740976095199585,0.004928648471832275,0.29739534854888916,0.025985606014728546,-0.028276712403549478,-1.6529222601439406,-1.3079895321513737,-0.9962313175201416,0.028272943571209908,0.08200086653232574,1.7743422985076904,0.9599208831787109,0.4313579201698303
2.760916233062744,0.30445605516433716,0.07263267040252686,0.16391491889953613,-0.04539435496132525,-1.6358914627406955,-1.2769402024939216,-0.9968540668487549,0.04537876695394516,0.06498216092586517,1.461643099784851,0.4454730451107025,1.000336766242981
2.780916213989258,0.276528537273407,0.014075517654418945,0.13600337505340576,-0.0697364486063176,-1.6374425836385238,-1.2448832446391813,-0.9953548908233643,0.06967993825674057,0.0664350688457489,1.918210506439209,-0.5136755108833313,1.1820589303970337
2.800917148590088,-0.03870886564254761,0.09867343306541443,0.23043286800384521,-0.09608488226028887,-1.6441732364977417,-1.2063493171606703,-0.9927090406417847,0.0959371030330658,0.07297293096780777,2.122130870819092,-0.4379635453224182,1.1259108781814575
2.8209381103515625,-0.262997031211853,-0.009306930005550385,0.4668385982513428,-0.12069896549311931,-1.6415951269439704,-1.1670508595870575,-0.9902378916740417,0.12040611356496811,0.07022503018379211,1.9181751012802124,0.33739715814590454,1.0928184986114502
2.8409242630004883,-0.11233633756637573,-0.3250150680541992,0.5241702795028687,-0.14562805268383566,-1.6253245002406986,-1.1334315079681805,-0.987944483757019,0.14511385560035706,0.05392426252365112,1.5566140413284302,0.7054529190063477,1.172419548034668
2.860936164855957,0.24185234308242798,-0.4447154998779297,0.43461084365844727,-0.16946337510416198,-1.6086142024557746,-1.1040490487382233,-0.98497074842453,0.1686534285545349,0.03726726770401001,1.5882703065872192,0.41700342297554016,1.0182605981826782
2.8809800148010254,0.4672399163246155,-0.36780834197998047,0.255659818649292,-0.1885959609103656,-1.5997108397965751,-1.0676582640589611,-0.9818580746650696,0.18747994303703308,0.02839786186814308,2.097470998764038,-0.1883835345506668,0.8635653853416443
2.90096116065979,0.49165797233581543,-0.3020995557308197,0.16779613494873047,-0.20768787962253665,-1.599466751303979,-1.0225855061396023,-0.9781082272529602,0.20619802176952362,0.028050463646650314,2.231454372406006,-0.5521470904350281,0.8703370094299316
2.9209611415863037,0.2735061049461365,-0.35694369673728943,0.2668488025665283,-0.22331224460014887,-1.5977410925585687,-0.9847046845130454,-0.9748153686523438,0.22146083414554596,0.026272529736161232,1.3965175151824951,-0.00454285740852356,0.5716151595115662
2.940915107727051,0.07568979263305664,-0.45196306705474854,0.3130464553833008,-0.23359204840466832,-1.5873318061280672,-0.9679946374266223,-0.9727083444595337,0.23147350549697876,0.016085663810372353,0.30800777673721313,0.5598083138465881,0.4886733889579773
2.9609150886535645,0.11595004796981812,-0.3728804588317871,0.387798547744751,-0.24493584088123915,-1.5765095104739435,-0.9711731935043921,-0.9701372981071472,0.24249407649040222,0.005542632658034563,-0.5673618912696838,0.6464674472808838,0.6641491055488586
2.9809141159057617,0.15073764324188232,-0.31784334778785706,0.4072902202606201,-0.2586920466936231,-1.5665477648720025,-0.9849919855548439,-0.9667168855667114,0.25581634044647217,-0.00410718098282814,-0.622292160987854,0.6623105406761169,0.665232241153717
3.0009422302246094,0.15030229091644287,-0.23280733823776245,0.2898048758506775,-0.2703601877633487,-1.5568042072716681,-0.9918908902480946,-0.9635805487632751,0.26707854866981506,-0.013483414426445961,0.03804575651884079,0.43921151757240295,0.4996239244937897
3.0209150314331055,0.14247733354568481,-0.10978186130523682,0.20229953527450562,-0.2786731761992453,-1.5487512272527684,-0.9810384463199193,-0.9611876606941223,0.27508026361465454,-0.02119291201233864,0.9564847946166992,0.12045536190271378,0.3606773912906647
3.04013729095459,0.06765460968017578,-0.07598146796226501,0.20303958654403687,-0.28380106209614636,-1.5401085885677317,-0.9553249856360786,-0.9595460891723633,0.28000667691230774,-0.02945554628968239,1.3587415218353271,0.100869320333004,0.2393149733543396
3.0609540939331055,0.0016499757766723633,-0.2007370889186859,0.27822327613830566,-0.2884770188560229,-1.5275276061308904,-0.9290466290754114,-0.9577809572219849,0.28449249267578125,-0.04146783798933029,1.089792251586914,0.41085630655288696,0.3388011157512665
3.0809130668640137,0.008818268775939941,-0.28847330808639526,0.28460633754730225,-0.29593236524317845,-1.5139445255790818,-0.9104758037046367,-0.9549852013587952,0.291631817817688,-0.05435119941830635,0.7451650500297546,0.30568504333496094,0.47560492157936096
3.1009130477905273,-0.03326624631881714,-0.20071694254875183,0.22673410177230835,-0.30453880291289587,-1.5064169429770304,-0.8942931658679839,-0.9520090222358704,0.29985323548316956,-0.06137457117438316,0.7602341771125793,-0.021116508170962334,0.43620309233665466
3.120911121368408,-0.19392025470733643,-0.13555574417114258,0.26840150356292725,-0.31039184330584957,-1.502366943641742,-0.8783459092833732,-0.9499854445457458,0.3054317831993103,-0.06510857492685318,0.6592196822166443,0.03271991387009621,0.25383323431015015
3.1400070190429688,-0.2962351441383362,-0.25133946537971497,0.39283615350723267,-0.3138230286763165,-1.493461102743256,-0.8682521796700835,-0.9483175277709961,0.3086971938610077,-0.07348490506410599,0.18211181461811066,0.5699775815010071,0.20213855803012848
3.160950183868408,-0.20418357849121094,-0.39407968521118164,0.4576287865638733,-0.3179265642185156,-1.4822145689452146,-0.872186510226698,-0.9461613297462463,0.31259772181510925,-0.08403254300355911,-0.4716220498085022,0.5803467035293579,0.16889354586601257
3.180912971496582,-0.0862533450126648,-0.36885252594947815,0.3694964647293091,-0.32166712078125476,-1.4787266257851568,-0.8809945051121756,-0.9446915984153748,0.3161486089229584,-0.0872240737080574,-0.2748096287250519,-0.03866354376077652,0.10906847566366196
3.2009129524230957,-0.17597240209579468,-0.14318513870239258,0.2242787480354309,-0.32105058925896884,-1.4842184711793616,-0.8789759675799929,-0.9453503489494324,0.3155636489391327,-0.08205151557922363,0.48376789689064026,-0.45829489827156067,-0.17324471473693848
3.220950126647949,-0.3418092131614685,-0.03916981816291809,0.21810048818588257,-0.31350621748668756,-1.4884077705704415,-0.8649060630329067,-0.9480316042900085,0.3083958327770233,-0.07828416675329208,0.80846107006073,-0.3101504445075989,-0.4379133880138397
3.2409510612487793,-0.32271087169647217,-0.18587815761566162,0.33021414279937744,-0.30366766862568767,-1.4869578371811778,-0.8536360135576267,-0.9508946537971497,0.2990220785140991,-0.07990888506174088,0.22909048199653625,0.015024452470242977,-0.4173142611980438
3.2609591484069824,-0.17928773164749146,-0.29400262236595154,0.3130686283111572,-0.2969433831597109,-1.4880076790711592,-0.8546668936132659,-0.952960193157196,0.2925987243652344,-0.07907503098249435,-0.1677868813276291,-0.11131848394870758,-0.2730168402194977
3.2809109687805176,-0.1592615246772766,-0.17773589491844177,0.1933087706565857,-0.2916554114231085,-1.4930246817319386,-0.8568420474557541,-0.9548742771148682,0.2875381112098694,-0.07441222667694092,0.11624439060688019,-0.2817903459072113,-0.30539020895957947
3.3009371757507324,-0.1881200075149536,-0.03359740972518921,0.1417243480682373,-0.28396507502283963,-1.4966075208539378,-0.8488967725210005,-0.9573115706443787,0.28016412258148193,-0.07115238904953003,0.6788968443870544,-0.359561949968338,-0.40553370118141174
3.32089900970459,-0.17189890146255493,-0.050672322511672974,0.1428205370903015,-0.2742669798073505,-1.5006623635896077,-0.8327017443798359,-0.9602576494216919,0.2708413898944855,-0.06745731085538864,0.852573573589325,-0.4512281119823456,-0.4417372941970825
3.3409132957458496,-0.18232882022857666,-0.08142772316932678,0.21853023767471313,-0.26387700129773395,-1.5053037434765824,-0.8173436205212555,-0.9633165001869202,0.2608253061771393,-0.06318044662475586,0.6968855261802673,-0.38025185465812683,-0.47467178106307983
3.3602991104125977,-0.20647460222244263,-0.08674439787864685,0.20978885889053345,-0.25401808914913776,-1.5101800399937444,-0.8063295495354511,-0.9661329388618469,0.2512951195240021,-0.058635223656892776,0.4839446544647217,-0.46980082988739014,-0.4737624526023865
3.3809499740600586,-0.2694416642189026,-0.01863415539264679,0.13018465042114258,-0.24353804780735364,-1.5184191135749807,-0.7963795562540255,-0.9691601395606995,0.2411377727985382,-0.0508083775639534,0.5192672610282898,-0.5941839218139648,-0.5164495706558228
3.4009170532226562,-0.3247131109237671,0.06019735336303711,0.11941450834274292,-0.23216582261263483,-1.5273828186570177,-0.7852615913477301,-0.9722534418106079,0.23008577525615692,-0.042235471308231354,0.6577123403549194,-0.524817705154419,-0.5617589950561523
3.4209179878234863,-0.3291293978691101,0.06978446245193481,0.08710688352584839,-0.22076164260540526,-1.5339811727411097,-0.7703037185313958,-0.9750699996948242,0.218972846865654,-0.035913579165935516,0.8489718437194824,-0.5141103267669678,-0.5084356069564819
3.4409210681915283,-0.2765609622001648,0.08751183748245239,0.09902095794677734,-0.21087673487398306,-1.5407464892967508,-0.7514812393390362,-0.9774062633514404,0.20931729674339294,-0.029379742220044136,0.9775558114051819,-0.5731916427612305,-0.41680923104286194
3.4609222412109375,-0.3027237057685852,0.06188036501407623,0.09497100114822388,-0.2026102562427951,-1.547957594759898,-0.7331702314902447,-0.9792892932891846,0.2012268751859665,-0.022369615733623505,0.8135311603546143,-0.5157209038734436,-0.3539654016494751
3.480931282043457,-0.2948775291442871,0.006257280707359314,0.07209587097167969,-0.1962170145081827,-1.555489305675786,-0.7185295852140485,-0.980696439743042,0.1949603408575058,-0.015012713149189949,0.6916549801826477,-0.5258491635322571,-0.26506102085113525
3.5009491443634033,-0.2589191198348999,0.037716060876846313,0.019731998443603516,-0.19124601234745706,-1.5635668457419927,-0.7049087858944704,-0.9817425608634949,0.1900823414325714,-0.00709761306643486,0.6053671836853027,-0.46223974227905273,-0.21798160672187805
3.520928144454956,-0.2907019853591919,0.011959165334701538,0.011529207229614258,-0.18712902894750172,-1.5675261289169038,-0.6944899698701943,-0.9825372099876404,0.1860388219356537,-0.003213102463632822,0.4278963804244995,0.02602863311767578,-0.15790437161922455
3.539926052093506,-0.3999687433242798,-0.10896630585193634,-0.038643598556518555,-0.1827509559348435,-1.565187647379757,-0.6909089896856905,-0.9833319783210754,0.18173539638519287,-0.005515251774340868,0.053312577307224274,0.17499077320098877,-0.2642976641654968
3.5609490871429443,-0.3417026996612549,-0.16858884692192078,0.014174998737871647,-0.18033736228978273,-1.5571008316863395,-0.698648912969276,-0.9836909770965576,0.1793614774942398,-0.01347297802567482,-0.689183235168457,0.5928738117218018,-0.15330955386161804
3.5809130668640137,-0.29741889238357544,-0.19076751172542572,-0.11808979511260986,-0.17662393686916536,-1.548476699853523,-0.7108443947744555,-0.9841974973678589,0.17570704221725464,-0.021970568224787712,-0.3886628746986389,0.5704542994499207,-0.12837766110897064
3.6009130477905273,-0.1242680549621582,0.07475803792476654,-0.20990794897079468,-0.17697296981510868,-1.5405887592312237,-0.7167842992256425,-0.9839321970939636,0.17605063319206238,-0.02973124384880066,-0.24039402604103088,0.21024242043495178,0.06372594088315964
3.620948076248169,-0.10665637254714966,0.1780814379453659,-0.3331402540206909,-0.1781139019755485,-1.5440747801193733,-0.7186194028543262,-0.9838282465934753,0.17717362940311432,-0.026295671239495277,0.10699702054262161,-0.42516279220581055,0.12751752138137817
3.6409101486206055,-0.22497165203094482,0.14309662580490112,-0.23729759454727173,-0.1805294145976726,-1.5553397697246119,-0.7118448677344227,-0.9836313128471375,0.1795504093170166,-0.015204764902591705,0.5378337502479553,-0.7584594488143921,0.09154277294874191
3.6601991653442383,-0.3994717001914978,0.09094114601612091,-0.033376455307006836,-0.18104226836279738,-1.5661637942474778,-0.6962348195183059,-0.9836461544036865,0.1800549030303955,-0.004556805361062288,0.9647676348686218,-0.7090173363685608,-0.07407201826572418
3.680881977081299,-0.4505771994590759,0.04847009479999542,0.15133768320083618,-0.1815445867840737,-1.5702989289414884,-0.6796829750206032,-0.9835658669471741,0.1805489957332611,-0.0004892235738225281,0.4540702700614929,-0.03685436770319939,0.2494455873966217
3.7009739875793457,-0.47355926036834717,-0.08182714879512787,0.17268037796020508,-0.18713496823812192,-1.570458133532506,-0.6802408161517165,-0.9825413823127747,0.18604464828968048,-0.00033228888059966266,-0.4883727729320526,0.09343013167381287,0.3223585784435272
3.7209200859069824,-0.37352991104125977,-0.02695298194885254,0.16624104976654053,-0.19543093221498073,-1.5726975841484416,-0.6955744452703769,-0.9809624552726746,0.19418928027153015,0.0018650643760338426,-0.8168282508850098,-0.104700967669487,0.4223976731300354
3.7409110069274902,-0.2781916856765747,0.0807284265756607,0.042185187339782715,-0.20351031196580688,-1.580648756537847,-0.7066864764028186,-0.9793156981468201,0.2021084427833557,0.009648951701819897,-0.22655019164085388,-0.3611081540584564,0.43731701374053955
3.760996103286743,-0.2759469151496887,0.1462513506412506,0.05813872814178467,-0.2147552634266101,-1.5855838694299436,-0.7049151901641318,-0.976921796798706,0.21310831606388092,0.01444732490926981,0.3311693072319031,-0.24481235444545746,0.6488044261932373
3.7809550762176514,-0.33926504850387573,0.04642975330352783,0.02469050884246826,-0.22889439348997215,-1.5882803840547073,-0.6993976166110936,-0.9737691283226013,0.2269008904695511,0.017027171328663826,0.09046914428472519,-0.15794794261455536,0.806328296661377
3.8009121417999268,-0.2792127728462219,0.029515400528907776,0.07156503200531006,-0.24632931314327253,-1.5926824159080286,-0.7078849000487345,-0.9695817828178406,0.24384573101997375,0.02122374251484871,-0.8627835512161255,-0.08110323548316956,0.909825325012207
3.8209731578826904,-0.2946423888206482,-0.02186405658721924,0.03117477521300316,-0.2645319045933262,-1.5983533405918895,-0.7252835572342835,-0.9648485779762268,0.2614574730396271,0.02659507654607296,-0.7177916169166565,0.025218943133950233,1.0314236879348755
3.8409500122070312,-0.2685476541519165,0.14622414112091064,0.03823423758149147,-0.28469981444898174,-1.600345146805584,-0.7365015869258748,-0.9593273401260376,0.28086936473846436,0.028355244547128677,-0.3059055507183075,0.03498803824186325,1.0301681756973267
3.8609142303466797,-0.27561211585998535,0.09778621792793274,0.0006172657012939453,-0.3055354007330445,-1.6003450092521714,-0.7363006671632448,-0.9532698392868042,0.3008038103580475,0.028176069259643555,0.24149326980113983,-0.1938788741827011,1.6442171335220337
3.880911111831665,-0.11389440298080444,0.1081576943397522,0.09862661361694336,-0.33147280853862027,-1.6128044094012974,-0.745299623829691,-0.9447299242019653,0.3254360258579254,0.039709653705358505,-0.6873376369476318,-0.7331322431564331,0.906457245349884
3.9009389877319336,-0.19410496950149536,-0.12765952944755554,0.04976987838745117,-0.35652379800493056,-1.6297459745179996,-0.7565704159009407,-0.9354880452156067,0.34901875257492065,0.0552106574177742,-0.2984037697315216,-0.5141551494598389,1.652856469154358
3.9209179878234863,-0.19124382734298706,-0.027663707733154297,0.07059396058320999,-0.38479136514603995,-1.6404161573492626,-0.762486608394367,-0.924631655216217,0.3753657639026642,0.06447689980268478,-0.02864314243197441,-0.192819744348526,1.154249906539917
3.941418170928955,-0.25034862756729126,0.12392938137054443,-0.023673541843891144,-0.405327813592782,-1.6427124318467052,-0.767509935206062,-0.9165977835655212,0.3943200409412384,0.06603202223777771,-0.3706779479980469,0.07787585258483887,0.9766169190406799
3.9610352516174316,-0.1544184684753418,-0.18535709381103516,-0.03871464729309082,-0.425279819601823,-1.651694313016472,-0.791320160502673,-0.9079442620277405,0.41257569193840027,0.07361152023077011,-1.8351376056671143,-0.060730937868356705,1.151352047920227
3.9810221195220947,-0.15345847606658936,-0.22863003611564636,0.05020856857299805,-0.4416555820532523,-1.6775950219615454,-0.8471694896978247,-0.8988944888114929,0.4274367690086365,0.09636742621660233,-2.8476614952087402,-0.10113447159528732,0.9791171550750732
4.001211166381836,-0.13870060443878174,-0.014630109071731567,0.09153318405151367,-0.4555129866037951,-1.7028673269317773,-0.9116085534804101,-0.8902148604393005,0.4399230480194092,0.1182599663734436,-2.478471279144287,0.3201470971107483,1.053109884262085
4.021078109741211,-0.0758553147315979,0.0910223126411438,-0.004117369651794434,-0.4715992113994016,-1.7124223690497102,-0.950744933752959,-0.8819237351417542,0.4543115198612213,0.12574522197246552,-0.8042930960655212,0.36534926295280457,1.0555055141448975
4.04083514213562,-0.006098687648773193,0.21704089641571045,-0.0860433578491211,-0.49020870263777927,-1.714601909334935,-0.9602941399245342,-0.8731281161308289,0.47081002593040466,0.12643344700336456,0.05804155021905899,-0.14876820147037506,0.8743456602096558
4.060987949371338,0.010531127452850342,0.034469425678253174,0.022775039076805115,-0.5072366211185755,-1.7177241612926568,-0.9601451746599197,-0.8646723628044128,0.48576366901397705,0.12796661257743835,0.11977576464414597,-0.0863761156797409,0.8578664660453796
4.080902099609375,0.015441715717315674,-0.1044003963470459,0.06088840961456299,-0.5244620098594304,-1.7184854666677756,-0.9621324694008964,-0.8561705946922302,0.5007473826408386,0.1273745447397232,-0.0679854080080986,0.10042715072631836,0.8684061765670776
4.100955963134766,0.07926851511001587,-0.062267184257507324,0.02389560639858246,-0.5403081587429928,-1.7202473349303764,-0.9681410038393156,-0.8479911088943481,0.5144003033638,0.12768518924713135,-0.16890287399291992,-0.03514426574110985,0.7722271680831909
4.120899200439453,0.11318743228912354,-0.06626766920089722,-0.05928909778594971,-0.555254286089593,-1.7253074070347683,-0.973376365299785,-0.8396432399749756,0.5271593928337097,0.1307765543460846,-0.06295990198850632,-0.1511385142803192,0.8302677273750305
4.1496901512146,0.1808793544769287,-0.07565665245056152,-0.09250223636627197,-0.585902505959402,-1.7403865491645862,-0.9844966116470271,-0.8212603330612183,0.5529515743255615,0.14062850177288055,0.17148326337337494,-0.31109967827796936,0.6607145667076111
4.168267250061035,0.22687774896621704,0.03325462341308594,-0.09037528932094574,-0.5995419016940847,-1.7433478018568693,-0.9754349770471715,-0.8133343458175659,0.5642643570899963,0.14175167679786682,0.7701981067657471,-0.4284428060054779,0.5611496567726135
4.189097166061401,0.24873614311218262,-0.030552923679351807,-0.009839773178100586,-0.6130726322365097,-1.7388005213123625,-0.9567041187598635,-0.8063687086105347,0.5753832459449768,0.13676247000694275,0.947205126285553,-0.17261211574077606,0.5146497488021851
4.209402084350586,0.25563597679138184,-0.14290904998779297,-0.03931976854801178,-0.6252587344461406,-1.7270061754215318,-0.9339151509434284,-0.8009393215179443,0.5853070616722107,0.12614230811595917,1.0968925952911377,0.002194052329286933,0.35846012830734253
4.229347229003906,0.28636473417282104,-0.0649455189704895,-0.11983693391084671,-0.6335940540794162,-1.7087231458174825,-0.9033355516292179,-0.7982513308525085,0.5920450687408447,0.11080379784107208,1.4836522340774536,0.018629752099514008,0.12811508774757385
4.2412309646606445,0.28636473417282104,-0.0649455189704895,-0.11983693391084671,-0.6335940540794162,-1.7087231458174825,-0.9033355516292179,-0.7982513308525085,0.5920450687408447,0.11080379784107208,1.4836522340774536,0.018629752099514008,0.12811508774757385
4.267413139343262,0.23696225881576538,-0.24067038297653198,-0.14538192749023438,-0.6428141604383064,-1.6671358665850244,-0.8378395483781403,-0.7967005372047424,0.5994502902030945,0.07699210941791534,0.8904321193695068,0.10104233771562576,0.04755625128746033
4.289029121398926,0.1514338254928589,-0.20981448888778687,-0.09052956849336624,-0.6442222243297635,-1.6518568009018015,-0.8196251608058548,-0.7969416975975037,0.6005767583847046,0.06474233418703079,0.733957052230835,0.35615700483322144,-0.007851137779653072
4.309121131896973,0.09792304039001465,-0.07674437761306763,-0.11201060563325882,-0.6454464122422282,-1.6296766615729759,-0.7963323488812151,-0.7974469661712646,0.6015551090240479,0.04700827971100807,1.1357446908950806,0.3901495933532715,-0.04080056771636009
4.328721046447754,0.06943249702453613,0.040861666202545166,-0.0621800422668457,-0.6444643568841278,-1.604396989915697,-0.7624847770315907,-0.7989705204963684,0.6007702946662903,0.02685604803264141,1.5693910121917725,0.12547560036182404,-0.10282231122255325
4.348896026611328,-0.011904716491699219,-0.05279964208602905,0.06747698783874512,-0.6455755382555792,-1.5778613569873725,-0.7253032435111951,-0.7987337708473206,0.6016582250595093,0.005643172189593315,0.9598366618156433,0.6955459117889404,0.2564176619052887
4.368751049041748,-0.23038583993911743,-0.18882614374160767,-0.04703545570373535,-0.6536355069801937,-1.5530648110528544,-0.7137653229143054,-0.7937536239624023,0.6080765724182129,-0.0140759302303195,0.13622501492500305,0.8636079430580139,0.23633277416229248
4.389472961425781,-0.2160739302635193,-0.0006039142608642578,-0.04423284903168678,-0.6558414943737358,-1.5314491380504789,-0.7060409074480295,-0.7919219136238098,0.609826385974884,-0.031175991520285606,0.6265919208526611,1.1170436143875122,0.1813778132200241
4.409095287322998,-0.00790858268737793,0.11731326580047607,0.10618448257446289,-0.6571546841940249,-1.494906844708795,-0.6784890146439109,-0.7894547581672668,0.6108666062355042,-0.06002659350633621,-0.5609504580497742,1.1255463361740112,0.24264870584011078
4.428434133529663,-0.14733761548995972,-0.42995530366897583,-0.17955869436264038,-0.6613397419846738,-1.4635814045537474,-0.6505603135131056,-0.7846389412879944,0.6141746640205383,-0.08444882929325104,2.493159532546997,0.3797191381454468,0.9678488969802856
4.448704242706299,0.10998207330703735,0.17205554246902466,0.2131158709526062,-0.6802667025391339,-1.4376056458188835,-0.6250612903941309,-0.7705199122428894,0.6290003657341003,-0.10323726385831833,-0.07944407314062119,0.46508046984672546,0.42281365394592285
4.468621253967285,-0.09793049097061157,-0.03434908390045166,-0.04443346709012985,-0.6847879791756417,-1.4254696427549962,-0.6153267301438226,-0.7663883566856384,0.6325088143348694,-0.11216744780540466,0.3882788121700287,0.38606929779052734,0.6144042611122131
4.488386154174805,0.1208752989768982,-0.04656553268432617,0.10805905610322952,-0.7018221508430209,-1.412086527781338,-0.6087062899300207,-0.7540693283081055,0.6456102728843689,-0.12069326639175415,0.05271202325820923,0.3427845537662506,0.8411600589752197
4.508605003356934,0.083138108253479,0.013361454010009766,0.019749104976654053,-0.7142687509693029,-1.4021313644996256,-0.6014948230257029,-0.7448508739471436,0.6550650596618652,-0.12683527171611786,0.29108914732933044,0.35113587975502014,0.6478894352912903
4.528136253356934,0.07182848453521729,-0.03549295663833618,-0.08000658452510834,-0.7268529566018775,-1.3828194364201971,-0.5855823592307998,-0.7341057062149048,0.6645212173461914,-0.1396435797214508,0.726533055305481,0.44742825627326965,0.6861779689788818
4.548357009887695,0.0795750617980957,-0.14286941289901733,-0.02567809820175171,-0.7351129601036003,-1.3567230322133015,-0.561343388789554,-0.724823534488678,0.6706709265708923,-0.1575799137353897,0.8097928762435913,0.6066799759864807,0.5645804405212402
4.568233013153076,0.11321377754211426,-0.17882895469665527,0.0008453279733657837,-0.7426604010112011,-1.3300827442932943,-0.5398966496303144,-0.7154324054718018,0.676250159740448,-0.1756194531917572,0.5291513800621033,0.6038748621940613,0.5189675688743591
4.588016033172607,0.1306350827217102,-0.2603132128715515,0.005805864930152893,-0.7518577409538583,-1.3113079445725588,-0.5279472979319754,-0.7059677243232727,0.6829968690872192,-0.1874159276485443,0.0527217835187912,0.4477773606777191,0.6099494695663452
4.6079840660095215,0.10917967557907104,-0.197340190410614,0.022006720304489136,-0.7638538951241787,-1.3011420908391942,-0.5256979798945682,-0.6960785984992981,0.6917097568511963,-0.19238632917404175,-0.06143120676279068,0.46445372700691223,0.5696618556976318
4.62788200378418,0.045828163623809814,-0.08111369609832764,-0.0412747859954834,-0.7728509691376104,-1.2838533637113927,-0.5152591739747889,-0.6866516470909119,0.6981791257858276,-0.2026216685771942,0.5679718255996704,0.5218308568000793,0.504999577999115
4.6469831466674805,0.06977111101150513,0.006108999252319336,-0.04122248291969299,-0.776882360646928,-1.2569099352877364,-0.49088975572058713,-0.6782612204551697,0.7010596394538879,-0.2201758325099945,0.869505763053894,0.46210217475891113,0.40031328797340393
4.668138027191162,0.10115242004394531,-0.11022835969924927,0.019686535000801086,-0.7792447891215102,-1.2312453558445806,-0.4668884593335944,-0.6708241105079651,0.702742338180542,-0.23695635795593262,0.633270800113678,0.4479832351207733,0.3883477449417114
4.689493179321289,0.08713817596435547,-0.19996023178100586,0.03941163420677185,-0.783364065295653,-1.209162503074873,-0.4495764027822179,-0.6627150177955627,0.7056670188903809,-0.2506847679615021,0.388267457485199,0.5417932868003845,0.44612881541252136
4.707942962646484,0.07672882080078125,-0.15445250272750854,-0.004146158695220947,-0.7895987549139662,-1.1912904892382052,-0.4385361451541177,-0.6540299654006958,0.710070788860321,-0.26085320115089417,0.13648903369903564,0.4623714089393616,0.37198081612586975
4.7278032302856445,0.07013219594955444,-0.11228471994400024,0.02000311017036438,-0.7940400611013804,-1.1785703836356534,-0.43342118120932865,-0.6477383971214294,0.713191032409668,-0.26794305443763733,0.059489913284778595,0.4971618950366974,0.20623961091041565
4.747714996337891,0.053960442543029785,-0.10200488567352295,0.047757506370544434,-0.7965095908445157,-1.1654725518613316,-0.4314375806473044,-0.6425530910491943,0.714919924736023,-0.27570852637290955,-0.00046772370114922523,0.6828082799911499,0.08971843868494034
4.767420291900635,0.033710360527038574,-0.147250235080719,0.05816131830215454,-0.7963611596636859,-1.149100578853937,-0.4296290236179902,-0.6380500793457031,0.714816153049469,-0.28623437881469727,0.18419410288333893,0.8574294447898865,0.0010644086869433522
4.787374019622803,0.06044703722000122,-0.13667654991149902,-0.002379685640335083,-0.7931815570853682,-1.126324577231481,-0.4213294963419671,-0.6334145665168762,0.7125890254974365,-0.30166682600975037,0.43210649490356445,0.7736604809761047,-0.09052055329084396
4.807384014129639,0.09169352054595947,-0.08734709024429321,0.022127985954284668,-0.7843721211032831,-1.105470090725495,-0.4107430972512406,-0.6325719356536865,0.7063809037208557,-0.3176144063472748,0.5574148297309875,0.6043521761894226,-0.35133031010627747
4.82742714881897,0.09910410642623901,-0.15436840057373047,0.10314720869064331,-0.7727192285942275,-1.0900521136132872,-0.4058802607940219,-0.6348555684089661,0.698084831237793,-0.33111345767974854,0.2929190695285797,0.6249533295631409,-0.5300614833831787
4.8474321365356445,0.06860405206680298,-0.24813306331634521,0.14627474546432495,-0.7601367166883457,-1.0809373628540793,-0.411495459072399,-0.6395117044448853,0.6890205144882202,-0.34099212288856506,-0.11660227179527283,0.7095434069633484,-0.7681384086608887
4.867217063903809,0.06449276208877563,-0.23586052656173706,0.1905483603477478,-0.7469487113806269,-1.0778411326219504,-0.4289912679082905,-0.6464020609855652,0.6794030070304871,-0.34724077582359314,-0.3055945932865143,0.7843341827392578,-0.9825693368911743
4.886408090591431,0.07469600439071655,-0.24794477224349976,0.18870407342910767,-0.7316463468362817,-1.0792052590891474,-0.45375719042181417,-0.6559644341468811,0.6680955290794373,-0.3512254059314728,-0.6019965410232544,0.7860076427459717,-1.267895221710205
4.906483173370361,0.08357769250869751,-0.2474537491798401,0.1588638424873352,-0.7117629194941162,-1.0891217263306254,-0.4886754538641084,-0.6710564494132996,0.6531696915626526,-0.35078883171081543,-0.7824978232383728,0.49399396777153015,-1.7140083312988281
4.927191257476807,0.06923866271972656,-0.20576775074005127,0.18486052751541138,-0.6872548837801613,-1.1079485260365391,-0.5299943441340046,-0.6916600465774536,0.6344176530838013,-0.3451387882232666,-0.9508700370788574,0.32027578353881836,-1.8817371129989624
4.948678970336914,0.038497865200042725,-0.1939549446105957,0.21775197982788086,-0.6610396995907472,-1.1305771304473875,-0.5765534333002638,-0.7140961289405823,0.6139378547668457,-0.33637377619743347,-1.1436173915863037,0.29803359508514404,-2.100209951400757
4.9706501960754395,0.00031769275665283203,-0.18414074182510376,0.2520056664943695,-0.6312215745295959,-1.153324968286047,-0.6255132733887068,-0.7379735112190247,0.590131402015686,-0.3273230195045471,-1.209415078163147,0.39197927713394165,-2.1898674964904785
4.988438129425049,-0.016800761222839355,-0.13552606105804443,0.25466763973236084,-0.6011730921716699,-1.174399682691544,-0.6765546922483006,-0.7607261538505554,0.5656102895736694,-0.31840360164642334,-1.4279615879058838,0.4565082788467407,-2.259359836578369
5.00624418258667,-0.038633763790130615,-0.1032598614692688,0.21754509210586548,-0.5703427874078548,-1.1958849728347232,-0.7312558923318292,-0.7832504510879517,0.5399206280708313,-0.3082280158996582,-1.6255027055740356,0.3817083537578583,-2.2896931171417236
5.023289203643799,-0.036549150943756104,-0.07347923517227173,0.154435396194458,-0.540002097918329,-1.219858006940565,-0.7872453036115429,-0.8054308891296387,0.5141378045082092,-0.29486197233200073,-1.7211368083953857,0.1410006731748581,-2.2765352725982666
5.042877197265625,-0.0782923698425293,-0.023884862661361694,0.1744546890258789,-0.5086041689467783,-1.2455645859348403,-0.841606161673388,-0.8276373147964478,0.4869585633277893,-0.27908411622047424,-1.7052499055862427,0.049534667283296585,-2.2271294593811035
5.061438083648682,-0.15611034631729126,0.043890178203582764,0.182419091463089,-0.4783226001626487,-1.2699790976190986,-0.8954365011408045,-0.8479027152061462,0.46029067039489746,-0.2630464732646942,-1.8964073657989502,0.07560710608959198,-2.137314796447754
5.081007957458496,-0.2480573058128357,0.034261554479599,0.10423651337623596,-0.4493855694963689,-1.2938765007428956,-0.9511417651878515,-0.8663990497589111,0.4344121813774109,-0.2462500035762787,-2.0841126441955566,0.009348013438284397,-2.0750348567962646
5.100846290588379,-0.3051183223724365,0.09078297019004822,0.06880336999893188,-0.42087676423240455,-1.319084484274364,-1.0091564401381332,-0.883968710899353,0.4085608720779419,-0.22732684016227722,-2.263676404953003,-0.04249654337763786,-2.075089931488037
5.121113300323486,-0.31990623474121094,0.16524860262870789,0.11393281817436218,-0.39279370455026846,-1.3426144331277619,-1.0711739510272695,-0.8998968005180359,0.382770836353302,-0.2089797854423523,-2.668959856033325,0.09814721345901489,-1.97388756275177
5.14312219619751,-0.2631676197052002,0.1409648358821869,0.0707557201385498,-0.37106234436353097,-1.364842759595766,-1.1449333307389182,-0.9122474789619446,0.3626056909561157,-0.19058291614055634,-3.5467591285705566,0.8179247975349426,-1.4883333444595337
5.170499086380005,-0.239851176738739,0.245804101228714,-0.16482621431350708,-0.3533780118846502,-1.3818449508427626,-1.2219268456057892,-0.9215105772018433,0.3460690677165985,-0.17622290551662445,-3.2678287029266357,0.25801268219947815,-1.7875401973724365
5.184727191925049,-0.09855270385742188,0.35248225927352905,-0.06784898042678833,-0.33319913241101845,-1.3966873851040766,-1.285112415995226,-0.9307137131690979,0.32706788182258606,-0.1637030988931656,-2.280019998550415,0.3580985367298126,-1.2571730613708496
5.203861236572266,0.026408076286315918,0.2801086902618408,-0.05477528274059296,-0.3184951245388351,-1.4080571228282333,-1.3362031806807042,-0.9371594190597534,0.3131377100944519,-0.15387336909770966,-2.4246323108673096,0.1267174333333969,-1.0438026189804077
5.223440170288086,0.08271896839141846,0.21751916408538818,-0.009558543562889099,-0.30654645746788073,-1.4218555648654096,-1.3874554767950458,-0.9428264498710632,0.30176788568496704,-0.1414729505777359,-2.1748580932617188,0.10516420006752014,-0.903471052646637
5.241960048675537,0.08408099412918091,0.37692275643348694,-0.014678195118904114,-0.29332694883287813,-1.43233237422372,-1.428970202671785,-0.9481253623962402,0.28913867473602295,-0.13212665915489197,-1.4271305799484253,0.07048824429512024,-0.9960485696792603
5.26726508140564,0.11227250099182129,0.4387548267841339,-0.054677605628967285,-0.27738948093145227,-1.4365758262274422,-1.4519702415701539,-0.9531233906745911,0.2738458514213562,-0.12870249152183533,-0.6768008470535278,0.08320741355419159,-0.8664092421531677
5.282849073410034,0.15431636571884155,0.32771050930023193,-0.11123549193143845,-0.2623554242915502,-1.4420060538703607,-1.4675188627153055,-0.9577831625938416,0.2593560814857483,-0.12403973191976547,-0.7387570142745972,-0.2149926871061325,-0.8618158102035522
5.305325984954834,0.14715123176574707,0.2296304702758789,-0.07494199275970459,-0.24793861351647475,-1.4528721291388789,-1.4883431514265737,-0.9626877903938293,0.2454061359167099,-0.11405335366725922,-1.1059495210647583,-0.3111496567726135,-0.7962743043899536
5.321393013000488,0.11204248666763306,0.2462243288755417,-0.07749824225902557,-0.23560944433681777,-1.4645150177491604,-1.5139153802927625,-0.9668855667114258,0.23343563079833984,-0.10315053910017014,-1.1549469232559204,-0.2739025950431824,-0.7445895075798035
5.347259044647217,0.11728554964065552,0.3886232376098633,-0.11995135992765427,-0.22238175070372004,-1.475711663554579,-1.5359825529113953,-0.970969021320343,0.22055335342884064,-0.09260351210832596,-0.827975332736969,-0.36996787786483765,-0.7813440561294556
5.3658671379089355,0.13739943504333496,0.45858263969421387,-0.18924129009246826,-0.20829502311453027,-1.487591713426842,-1.5500578052554652,-0.9750002026557922,0.20679207146167755,-0.08131224662065506,-0.47005003690719604,-0.49207550287246704,-0.7512106895446777
5.384653091430664,0.1196863055229187,0.42132583260536194,-0.18581736087799072,-0.19452260681747524,-1.498442801722689,-1.5593096768637478,-0.9785731434822083,0.19329816102981567,-0.07092702388763428,-0.3717077970504761,-0.3471181392669678,-0.7231088280677795
5.40582799911499,0.04538041353225708,0.39267581701278687,-0.23417216539382935,-0.18095721619779812,-1.504910928596024,-1.568309570078922,-0.9815376400947571,0.17997124791145325,-0.06476273387670517,-0.4352823495864868,-0.19411322474479675,-0.6517944931983948
5.425511121749878,0.07113027572631836,0.4346044063568115,-0.2206619381904602,-0.16989514084213428,-1.5093619913531302,-1.5800832246887153,-0.9837431311607361,0.1690790057182312,-0.0605117529630661,-0.6519021391868591,-0.06070883572101593,-0.5165637731552124
5.444680213928223,0.14943927526474,0.4637511372566223,-0.22569996118545532,-0.16224968658075714,-1.513098902117358,-1.594572587450998,-0.9852242469787598,0.1615387499332428,-0.05690806359052658,-0.6466429233551025,-0.11184072494506836,-0.353814035654068
5.465517044067383,0.15604889392852783,0.4978477656841278,-0.27519047260284424,-0.1574497654839021,-1.5179003398010709,-1.6050685621008407,-0.9862491488456726,0.1568000316619873,-0.052217334508895874,-0.35430023074150085,-0.20277640223503113,-0.1759221851825714
5.485241174697876,0.16830235719680786,0.555864691734314,-0.29310280084609985,-0.15588643097797372,-1.5238042013233752,-1.608430427097975,-0.9867838025093079,0.15525583922863007,-0.046405233442783356,0.017240872606635094,-0.3334345519542694,0.0025742161087691784
5.504360198974609,0.18700414896011353,0.5201274752616882,-0.28802210092544556,-0.15744786061809105,-1.5315406897504247,-1.6046720198219433,-0.9868699312210083,0.15679815411567688,-0.038760121911764145,0.3672216534614563,-0.4911639988422394,0.1521289199590683
5.525310039520264,0.14438080787658691,0.5478127002716064,-0.2956268787384033,-0.16135211303556496,-1.5400300277353949,-1.5920541787612088,-0.9865440726280212,0.16065290570259094,-0.03036189079284668,0.8808230757713318,-0.5661031603813171,0.2721816599369049
5.545467138290405,0.029145240783691406,0.5920301675796509,-0.31325763463974,-0.16693802683570347,-1.5479495114765003,-1.5690168300055525,-0.9858408570289612,0.16616372764110565,-0.022527243942022324,1.3574047088623047,-0.5552239418029785,0.33708178997039795
5.565277099609375,-0.08043742179870605,0.5754809379577637,-0.2874048948287964,-0.17385232342288431,-1.5518073324030661,-1.539007283104664,-0.9847482442855835,0.17297787964344025,-0.018701625987887383,1.5251860618591309,-0.32103219628334045,0.42896726727485657
5.585031986236572,-0.10324949026107788,0.49230754375457764,-0.20594245195388794,-0.1834945680716519,-1.5504436007537288,-1.5100602854131742,-0.9830083847045898,0.18246658146381378,-0.020009662955999374,1.2676595449447632,-0.07469256222248077,0.6051819324493408
5.604994297027588,-0.09081864356994629,0.43326425552368164,-0.14452046155929565,-0.19767450952480398,-1.546070576577485,-1.4872090161016551,-0.9802263379096985,0.19638966023921967,-0.024241771548986435,0.990311861038208,0.07205098867416382,0.8577550053596497
5.62485408782959,-0.10596644878387451,0.4142724871635437,-0.13160723447799683,-0.21644178882652676,-1.5389195514377614,-1.46639920324806,-0.9761716723442078,0.2147558033466339,-0.031127749010920525,1.046492576599121,0.20505590736865997,1.0654714107513428
5.6431450843811035,-0.09528577327728271,0.40583181381225586,-0.12968969345092773,-0.23846589668418475,-1.5284534177225426,-1.4407093359697036,-0.9708306193351746,0.23621220886707306,-0.041132379323244095,1.457236409187317,0.25404733419418335,1.2209463119506836
5.666023254394531,-0.01879429817199707,0.3708847761154175,-0.10362499952316284,-0.2630748955573228,-1.5137527567809272,-1.402010908834829,-0.9640243649482727,0.260050892829895,-0.05505111813545227,2.158565044403076,0.17810702323913574,1.3573440313339233
5.686548233032227,0.01173466444015503,0.3304181694984436,-0.05510079115629196,-0.2880824767370723,-1.496950420629094,-1.348311288554645,-0.9561774134635925,0.2841142416000366,-0.07073841989040375,2.771174430847168,-0.00833226926624775,1.406206488609314
5.704998016357422,-0.06131166219711304,0.286160945892334,-0.00179261714220047,-0.3112954417204081,-1.4787144940495711,-1.2835570102841511,-0.9479048252105713,0.3062920868396759,-0.08753235638141632,2.99395489692688,-0.027056775987148285,1.3896234035491943
5.724853038787842,-0.15730202198028564,0.23053249716758728,0.08922941982746124,-0.3314573798120709,-1.458004993542939,-1.2167939690566387,-0.9395607113838196,0.32542142271995544,-0.10642600059509277,3.085524559020996,0.04600278288125992,1.277021884918213
5.744798183441162,-0.2025642991065979,0.20803287625312805,0.1570197492837906,-0.34896389607656814,-1.4325909850257281,-1.1507900578632828,-0.9307669997215271,0.3419243395328522,-0.12946230173110962,2.877307176589966,0.28814032673835754,1.233319878578186
5.764589071273804,-0.18654072284698486,0.1400263011455536,0.2187434583902359,-0.3651666764213877,-1.4027833040752855,-1.0900601118546223,-0.9209116101264954,0.35710498690605164,-0.156197652220726,2.477715015411377,0.551780104637146,1.2510223388671875
5.7845139503479,-0.12687265872955322,0.07010629773139954,0.27513617277145386,-0.38251302679493193,-1.3707578950680106,-1.0381040395428567,-0.9092296957969666,0.3732530474662781,-0.18434636294841766,1.9318649768829346,0.7523059844970703,1.3425639867782593
5.804398059844971,-0.0944780707359314,0.017386436462402344,0.3021714687347412,-0.40267935286977485,-1.338983250727282,-0.9969613946042845,-0.8954054117202759,0.39188480377197266,-0.2113664150238037,1.3969957828521729,0.8661450147628784,1.4555875062942505
5.8243491649627686,-0.08481842279434204,-0.01256948709487915,0.32595014572143555,-0.42608720894056407,-1.3068266085624456,-0.9632830014975103,-0.8790488243103027,0.41331103444099426,-0.23758642375469208,1.026424765586853,0.9887675046920776,1.5601664781570435
5.844438076019287,-0.08582055568695068,-0.032461315393447876,0.353474497795105,-0.45177127329782035,-1.275070318737453,-0.9358839155366128,-0.8606212139129639,0.436559796333313,-0.2621963620185852,0.7536643147468567,1.0112385749816895,1.5936018228530884
5.8644232749938965,-0.10628616809844971,-0.06707495450973511,0.35621345043182373,-0.4774670561572267,-1.2431132111511043,-0.9100840755381561,-0.8409032821655273,0.4595309793949127,-0.28585514426231384,0.6452301144599915,0.9932738542556763,1.541412353515625
5.884596109390259,-0.11315286159515381,-0.08868387341499329,0.37769222259521484,-0.5012410671562044,-1.2130494804259406,-0.8853640310142621,-0.8214632868766785,0.4805143177509308,-0.30708980560302734,0.6224223375320435,0.8425543308258057,1.4235426187515259
5.904366970062256,-0.09205657243728638,-0.16720962524414062,0.43735265731811523,-0.5221765629381636,-1.1854034601072583,-0.8604863880742964,-0.8031614422798157,0.49876782298088074,-0.32582610845565796,0.628053605556488,0.7058970928192139,1.3113937377929688
5.923277139663696,-0.0875123143196106,-0.22391492128372192,0.49336522817611694,-0.5400901722688424,-1.1600155092978368,-0.8365929123947379,-0.7863128185272217,0.5142133235931396,-0.34248629212379456,0.5597294569015503,0.6234654784202576,1.136021375656128
5.945382118225098,-0.09579521417617798,-0.2718207836151123,0.5020738840103149,-0.5547897083330707,-1.1374844844123888,-0.8156846326671173,-0.771453320980072,0.5267645716667175,-0.35690176486968994,0.4681474566459656,0.5430180430412292,0.9346195459365845
5.964014053344727,-0.08507680892944336,-0.300534725189209,0.483365923166275,-0.5663705390182632,-1.118645549306106,-0.7981854967922891,-0.7590546607971191,0.5365728735923767,-0.36868080496788025,0.4137195646762848,0.3950453996658325,0.7259459495544434
5.984053134918213,-0.057310640811920166,-0.32469868659973145,0.4621901512145996,-0.5739402259668661,-1.1034750315468957,-0.7828298859024074,-0.7497267723083496,0.542945146560669,-0.3783125877380371,0.42099159955978394,0.28438669443130493,0.5265366435050964
6.002885103225708,-0.022020697593688965,-0.3567984700202942,0.4526880383491516,-0.5780101537683646,-1.091937844809691,-0.7691178576520794,-0.7433450222015381,0.5463584065437317,-0.385915607213974,0.42199936509132385,0.1042066141963005,0.34822478890419006
6.024842262268066,-0.03557842969894409,-0.3715779185295105,0.4239729940891266,-0.5781664917414161,-1.086331148258217,-0.7575136892968638,-0.7410939931869507,0.5464893579483032,-0.3900374174118042,0.4315012991428375,-0.1674976795911789,0.11499622464179993
6.043362140655518,-0.11224204301834106,-0.35640090703964233,0.4224739074707031,-0.5742425525018093,-1.0859716612367638,-0.7487666365721932,-0.742845356464386,0.5431990027427673,-0.391300231218338,0.36253827810287476,-0.24426214396953583,-0.11822208762168884
6.0636210441589355,-0.21144789457321167,-0.36819982528686523,0.45320388674736023,-0.5683518295311331,-1.089352705000993,-0.7470965925741996,-0.7469872236251831,0.5382437109947205,-0.39026132225990295,-0.010089804418385029,-0.15817546844482422,-0.3270737826824188
6.0834221839904785,-0.2558622360229492,-0.404577374458313,0.48548489809036255,-0.564230046620438,-1.0968872093697302,-0.7583101742695615,-0.7518740892410278,0.534765362739563,-0.3856313228607178,-0.672212541103363,-0.02713968977332115,-0.47422611713409424
6.102481126785278,-0.25429123640060425,-0.4131931662559509,0.48968300223350525,-0.5633570245036335,-1.113928934563432,-0.785448327776785,-0.7587550282478333,0.5340274572372437,-0.372968465089798,-1.3068681955337524,-0.2663450837135315,-0.6517291069030762
6.123362064361572,-0.35459649562835693,-0.3201473355293274,0.4677092730998993,-0.5622412514911144,-1.1420197036808155,-0.8253399922497975,-0.7694728970527649,0.5330837965011597,-0.3517577350139618,-1.6618471145629883,-0.3510444462299347,-0.9204580187797546
6.1434550285339355,-0.49783170223236084,-0.21531468629837036,0.4480348229408264,-0.5566365044647603,-1.1719043355401906,-0.8740084807903039,-0.7823808193206787,0.5283334851264954,-0.32976391911506653,-1.904708981513977,0.008276357315480709,-1.249478816986084
6.162390232086182,-0.36338692903518677,-0.22287213802337646,0.42330822348594666,-0.5467335943713322,-1.1982327645597088,-0.9299299339590371,-0.7956251502037048,0.5198997259140015,-0.31094250082969666,-2.153442621231079,0.17511771619319916,-1.4332462549209595
6.183268070220947,-0.0572667121887207,-0.19417566061019897,0.3345918655395508,-0.5339991143632634,-1.2311320588936099,-0.9889455033895935,-0.8115993738174438,0.5089797377586365,-0.2867860794067383,-2.0341298580169678,-0.5318483710289001,-1.5393791198730469
6.203207969665527,-0.016825199127197266,-0.05211195349693298,0.148483544588089,-0.5145345204568346,-1.2734110827564231,-1.0360398262729833,-0.8323113322257996,0.49212968349456787,-0.255081444978714,-1.1604987382888794,-1.2585867643356323,-1.5976043939590454
6.223006248474121,-0.21364128589630127,0.0984264612197876,0.018259167671203613,-0.48620932231090425,-1.312151510804924,-1.0612775244699135,-0.854702889919281,0.4672778844833374,-0.22612959146499634,-0.24170531332492828,-1.319270372390747,-1.7568814754486084
6.2431981563568115,-0.29279232025146484,0.09009748697280884,0.0029419660568237305,-0.4523308131401609,-1.3417433314272835,-1.0712459143708566,-0.8759394884109497,0.4370631277561188,-0.20422060787677765,0.05696024373173714,-1.203845739364624,-1.688914179801941
6.263093948364258,-0.1885477900505066,0.0011614561080932617,0.055504634976387024,-0.42359395811847816,-1.3694077671281661,-1.0821279584052514,-0.8931936025619507,0.41103941202163696,-0.18235088884830475,-0.5300565958023071,-1.1083362102508545,-1.3285518884658813
6.283092975616455,-0.18297594785690308,-0.0841333270072937,0.09398062527179718,-0.4039434452241749,-1.3991979500050993,-1.109156637725335,-0.9060133695602417,0.3930474519729614,-0.1570146083831787,-1.5560864210128784,-0.7194739580154419,-1.0915226936340332
6.303027153015137,-0.21230322122573853,-0.09466791152954102,0.07259368896484375,-0.38962265981192495,-1.4257337525925493,-1.1553049621866416,-0.9153366088867188,0.37983939051628113,-0.13372036814689636,-2.357759475708008,-0.19356994330883026,-1.0259058475494385
6.322851181030273,-0.12015604972839355,0.018863320350646973,-0.012083649635314941,-0.3755532839711271,-1.4490876382796576,-1.2123101950054154,-0.9234231114387512,0.366787314414978,-0.11294686049222946,-2.6148951053619385,-0.09952370077371597,-1.0976710319519043
6.343033075332642,0.007020175457000732,0.13605937361717224,-0.08454488962888718,-0.35872151249529327,-1.472482356269954,-1.2698895040318987,-0.9318249225616455,0.3510774075984955,-0.09190770983695984,-2.59114146232605,-0.1744607836008072,-1.1500778198242188
6.361890077590942,0.05610454082489014,0.1721569001674652,-0.13379108905792236,-0.3397428755605429,-1.4974522608724818,-1.3290715259746761,-0.9403056502342224,0.3332446813583374,-0.06908977031707764,-2.5885720252990723,-0.2872367799282074,-1.340167760848999
6.381799221038818,0.060176193714141846,0.19327294826507568,-0.09272217750549316,-0.31451103436861627,-1.5183768201322305,-1.3798530865438219,-0.9496415257453918,0.30935153365135193,-0.049825385212898254,-2.17840576171875,-0.20160843431949615,-1.4229918718338013
6.40277624130249,0.07801592350006104,0.3378097414970398,-0.1374707818031311,-0.28607125244538656,-1.5361365924265422,-1.4215775182312673,-0.958783745765686,0.28218531608581543,-0.033244505524635315,-1.6540837287902832,-0.37292489409446716,-1.6395182609558105
6.422624111175537,0.10726797580718994,0.3937539756298065,-0.21689051389694214,-0.25308901568927783,-1.5545798295706468,-1.4519061491714471,-0.9680162072181702,0.2503957450389862,-0.01569920778274536,-1.2021034955978394,-0.6605415940284729,-1.6991194486618042
6.443071126937866,0.1306937336921692,0.459926962852478,-0.2918992042541504,-0.2197706087377805,-1.5749381425692592,-1.4715080784621197,-0.9759392142295837,0.21800576150417328,0.004042183514684439,-0.6888077855110168,-0.8720939755439758,-1.6516865491867065
6.462450981140137,0.11277854442596436,0.4891892969608307,-0.32616114616394043,-0.18804920728845329,-1.5941797354472358,-1.4816793533881025,-0.9821022748947144,0.18694284558296204,0.022969085723161697,-0.42621931433677673,-0.8271211385726929,-1.4937198162078857
6.480900287628174,0.10767608880996704,0.5204822421073914,-0.33389782905578613,-0.16002467416119298,-1.610116843320848,-1.4893733761638288,-0.9864604473114014,0.15934257209300995,0.03880813717842102,-0.4498756527900696,-0.611078679561615,-1.28106689453125
6.502166271209717,0.1180429458618164,0.5555958151817322,-0.3711545467376709,-0.13667802876657134,-1.621291312279086,-1.4982276788338769,-0.9894113540649414,0.13625288009643555,0.0500028170645237,-0.5209492444992065,-0.3692399561405182,-1.0058822631835938
6.522470951080322,0.15531641244888306,0.5852219462394714,-0.3893023729324341,-0.11949950138036333,-1.6270177848150362,-1.5088687873620232,-0.9912996888160706,0.11921529471874237,0.055791109800338745,-0.638587236404419,-0.08678970485925674,-0.6408719420433044
6.54237699508667,0.21627277135849,0.5836681127548218,-0.4002317190170288,-0.10980490114984613,-1.628296775065109,-1.522579900972097,-0.9923348426818848,0.10958437621593475,0.057122666388750076,-0.7512282729148865,0.08771871775388718,-0.25796011090278625
6.562135219573975,0.25946980714797974,0.5894842147827148,-0.4267430305480957,-0.10730050437388504,-1.6277037297963055,-1.53608117777142,-0.9926393032073975,0.10709472745656967,0.05654958263039589,-0.5490849018096924,0.09938877820968628,0.06582386046648026
6.582005977630615,0.246837317943573,0.6682261228561401,-0.47162342071533203,-0.11054803717539956,-1.6273746132392966,-1.54042697746866,-0.9923055171966553,0.11032301187515259,0.056202925741672516,0.19077414274215698,-0.03598484769463539,0.2639000713825226
6.602051258087158,0.16987895965576172,0.7352522015571594,-0.49536287784576416,-0.11804911783836172,-1.628866946917555,-1.5260119531116685,-0.9913666248321533,0.11777512729167938,0.05763407424092293,1.28303062915802,-0.26509615778923035,0.4066792130470276
6.622169017791748,0.03830486536026001,0.7294016480445862,-0.4281700849533081,-0.12935722969075863,-1.6308361669043765,-1.493900434686281,-0.9898583292961121,0.12899677455425262,0.05950244888663292,1.8597705364227295,-0.25930413603782654,0.5326552987098694
6.642115116119385,-0.09611612558364868,0.5778093934059143,-0.2896249294281006,-0.1432920215881322,-1.6280835059421173,-1.4591157948157547,-0.9881278276443481,0.1428021639585495,0.05666906386613846,1.5093284845352173,0.0749361664056778,0.6724143624305725
6.662103176116943,-0.17684024572372437,0.43997758626937866,-0.1638246774673462,-0.16031761570199948,-1.6202234377558056,-1.438185765625539,-0.9859710335731506,0.15963175892829895,0.048773422837257385,0.6854328513145447,0.3886314034461975,0.9173123240470886
6.683595180511475,-0.27950698137283325,0.4228070378303528,-0.17710983753204346,-0.18100870542006098,-1.6086097075365122,-1.4287441801553205,-0.9829596281051636,0.18002189695835114,0.037186749279499054,0.4601939022541046,0.5968645215034485,1.0890661478042603
6.701158046722412,-0.3396291136741638,0.558403491973877,-0.22455322742462158,-0.20369863928300805,-1.593115140082317,-1.4159230639122655,-0.9790813326835632,0.20229287445545197,0.021855562925338745,0.9534651041030884,0.6797430515289307,1.1335742473602295
6.7216572761535645,-0.2819499373435974,0.6098846197128296,-0.17622387409210205,-0.22749114072816617,-1.5741326307317536,-1.3898429767289082,-0.9742299914360046,0.22553402185440063,0.0032503395341336727,1.5935766696929932,0.648169994354248,1.2404756546020508
6.741741180419922,-0.2158033847808838,0.4884085953235626,-0.04681187868118286,-0.25429829805173776,-1.5519529833148893,-1.3529664353047983,-0.967668354511261,0.2515663206577301,-0.01823626458644867,1.901945948600769,0.7044692039489746,1.4262101650238037
6.761685132980347,-0.24521660804748535,0.36768022179603577,0.04228949919342995,-0.28335900971074035,-1.5256703118923645,-1.3126183442763846,-0.9591443538665771,0.27958229184150696,-0.043311767280101776,1.8814462423324585,0.8257604837417603,1.567548155784607
6.781450271606445,-0.2725045084953308,0.30153563618659973,0.07146841287612915,-0.3137232200100388,-1.4971180296069002,-1.2718737609686617,-0.9486106634140015,0.3086022734642029,-0.07001876831054688,1.82931387424469,0.819359540939331,1.693818211555481
6.8034491539001465,-0.2900747060775757,0.27124541997909546,0.10771585255861282,-0.34512319904317185,-1.4671554130449107,-1.229992457740638,-0.9359843134880066,0.33831262588500977,-0.09735509753227234,1.8843860626220703,0.8511001467704773,1.7790197134017944
6.821714162826538,-0.30072587728500366,0.22687378525733948,0.1767708659172058,-0.376600359828429,-1.4324094913841214,-1.1844958149619993,-0.9210302233695984,0.36776119470596313,-0.12827838957309723,1.971418857574463,1.021843671798706,1.8640046119689941
6.841531276702881,-0.265292763710022,0.1696227490901947,0.22604487836360931,-0.4074117018172311,-1.3911757892589767,-1.13410739833835,-0.9033780694007874,0.3962342143058777,-0.16403315961360931,2.1521754264831543,1.1672371625900269,1.9413870573043823
6.8611900806427,-0.18515801429748535,0.12034580111503601,0.2456148862838745,-0.4377016255834827,-1.3454072897877156,-1.0787339467057862,-0.8828200101852417,0.4238588809967041,-0.20241722464561462,2.1864607334136963,1.1218838691711426,2.042884111404419
6.881266117095947,-0.1346508264541626,0.04702174663543701,0.28292641043663025,-0.46786222478599,-1.2978344604815542,-1.0203919722119907,-0.8594897389411926,0.4509792923927307,-0.24061372876167297,2.12095308303833,1.084740161895752,2.2019753456115723
6.90121603012085,-0.14105826616287231,-0.02808821201324463,0.3175247609615326,-0.49965505621006867,-1.2492365979483933,-0.9623353425761617,-0.832757830619812,0.4791227877140045,-0.2774093747138977,1.8558921813964844,1.0997816324234009,2.3429200649261475
6.9211859703063965,-0.1679999828338623,-0.11151182651519775,0.36264756321907043,-0.5334769141106591,-1.1994896810791558,-0.9076246036041076,-0.8023674488067627,0.5085301995277405,-0.3124155104160309,1.466389775276184,1.1848591566085815,2.4594199657440186
6.940899133682251,-0.17167705297470093,-0.19998914003372192,0.4252605140209198,-0.569404864358137,-1.1487680024944598,-0.8568754847757892,-0.7683254480361938,0.5391309261322021,-0.34498393535614014,1.1751960515975952,1.2446706295013428,2.5286340713500977
6.96098518371582,-0.19406390190124512,-0.2626856565475464,0.4736517667770386,-0.6054448721198333,-1.0956986057381823,-0.8074012932338146,-0.7311833500862122,0.5691279172897339,-0.3761175572872162,1.009889006614685,1.321692705154419,2.480419635772705
6.980953216552734,-0.23957550525665283,-0.30225807428359985,0.4807385206222534,-0.63758584752516,-1.0405090256994527,-0.7583039975695021,-0.6931790709495544,0.5952573418617249,-0.4064129889011383,0.9549441933631897,1.2948031425476074,2.2486727237701416
7.000959157943726,-0.25195980072021484,-0.3407849669456482,0.48544842004776,-0.6626577998923432,-0.9872713019187508,-0.7099797893082129,-0.6579066514968872,0.6152143478393555,-0.43436199426651,0.9718036651611328,1.1037222146987915,1.9084763526916504
7.020901203155518,-0.2437654733657837,-0.37247997522354126,0.5332052707672119,-0.6801818153570889,-0.9403754732922935,-0.666373270146432,-0.6280149221420288,0.628934383392334,-0.4582998752593994,0.8199148178100586,0.8885048031806946,1.4689462184906006
7.04146409034729,-0.22099924087524414,-0.40446335077285767,0.5821382403373718,-0.6911640476397385,-0.9025172839773987,-0.6321432610108575,-0.6047607064247131,0.6374345421791077,-0.4774324595928192,0.611432671546936,0.7571172714233398,1.0376331806182861
7.060906171798706,-0.1673339605331421,-0.4480940103530884,0.5988369584083557,-0.6986807777202261,-0.8724547357804665,-0.6074940662810714,-0.5864503383636475,0.6432081460952759,-0.4923000633716583,0.42702293395996094,0.6673961281776428,0.7587083578109741
7.080904006958008,-0.11424422264099121,-0.5095279216766357,0.5524716973304749,-0.7031957948030733,-0.8490532065481086,-0.5890241635054609,-0.5725844502449036,0.6466586589813232,-0.5039640069007874,0.3883708715438843,0.4497459828853607,0.4809660315513611
7.1008970737457275,-0.09435814619064331,-0.4744924306869507,0.5185328125953674,-0.7023540890985496,-0.83400760357546,-0.574407945441629,-0.5653403997421265,0.6460164189338684,-0.5128870606422424,0.5216683149337769,0.09305942058563232,0.19949187338352203
7.120896100997925,-0.16289955377578735,-0.42995715141296387,0.48580634593963623,-0.695245787085171,-0.8274987129942356,-0.5623029316213812,-0.5653567314147949,0.6405742168426514,-0.5196503400802612,0.6077468395233154,-0.20562413334846497,-0.09466417878866196
7.14089822769165,-0.26422083377838135,-0.43336987495422363,0.5094071626663208,-0.6853245269168724,-0.8292767645993504,-0.5572101711891596,-0.5709385871887207,0.6329243183135986,-0.5229111313819885,0.28002017736434937,-0.26740148663520813,-0.3686620891094208
7.160896301269531,-0.32406097650527954,-0.4901212453842163,0.591521143913269,-0.6792939062597875,-0.8403352953094843,-0.5673441832261372,-0.5795187950134277,0.6282438039779663,-0.5191028714179993,-0.5095310807228088,-0.15668578445911407,-0.594793438911438
7.1817381381988525,-0.3269997239112854,-0.5463796854019165,0.6118970513343811,-0.6799011693433561,-0.8607749405885156,-0.5964226216714482,-0.5897179245948792,0.6287161707878113,-0.5069013833999634,-1.1694200038909912,-0.0856737494468689,-0.8502243757247925
7.200894117355347,-0.34300297498703003,-0.463495671749115,0.5271017551422119,-0.6807865924285921,-0.8918852245393855,-0.6378681297791879,-0.604766309261322,0.6294044852256775,-0.487962931394577,-1.2710224390029907,-0.49113914370536804,-1.1913955211639404
7.220895290374756,-0.5278390049934387,-0.2588440179824829,0.37992584705352783,-0.6716492489573772,-0.9347546449420583,-0.6837140409810478,-0.6297233700752258,0.6222778558731079,-0.46499356627464294,-0.9721629023551941,-0.9028599262237549,-1.7497862577438354
7.240917205810547,-0.7175562977790833,-0.16293686628341675,0.3801751136779785,-0.6494008449131909,-0.983091313293002,-0.7319172101101262,-0.6628149151802063,0.6047093272209167,-0.441591739654541,-1.0008951425552368,-0.8669324517250061,-2.221107244491577
7.2608962059021,-0.6106773614883423,-0.23258638381958008,0.4472521245479584,-0.6245643522627594,-1.030739404956217,-0.7897712512437656,-0.6957648992538452,0.5847439169883728,-0.4171159565448761,-1.6707704067230225,-0.5239536166191101,-2.3150734901428223
7.280959129333496,-0.2606159448623657,-0.2794419527053833,0.349269300699234,-0.6045198357088485,-1.082835989979818,-0.8582352107300012,-0.7267497777938843,0.568367063999176,-0.38573774695396423,-2.1075525283813477,-0.8467355370521545,-2.174213409423828
7.301191091537476,-0.13146322965621948,-0.17719298601150513,0.19048237800598145,-0.5850655473806737,-1.1412516179832577,-0.9237151963998873,-0.7579411268234253,0.5522540211677551,-0.34719014167785645,-1.8119111061096191,-1.2779121398925781,-1.993919849395752
7.320977210998535,-0.24865728616714478,-0.05198913812637329,0.11404544115066528,-0.5600601809435407,-1.1958872476194766,-0.9745907287983666,-0.7883758544921875,0.5312371850013733,-0.3102429211139679,-1.178520917892456,-1.319415807723999,-2.005277633666992
7.340950965881348,-0.3823000192642212,-0.0032255053520202637,0.1419406235218048,-0.5300487305468069,-1.2410814124098382,-1.0146541793262391,-0.8163085579872131,0.5055753588676453,-0.2793459892272949,-1.0910420417785645,-1.1570848226547241,-2.018381357192993
7.360212087631226,-0.45407193899154663,0.002930194139480591,0.10839188098907471,-0.4982678892950617,-1.2825726096336714,-1.0539781186513346,-0.8421775102615356,0.477904736995697,-0.2496882528066635,-1.2468748092651367,-1.0542492866516113,-2.0466361045837402
7.380901098251343,-0.41164493560791016,0.027127861976623535,0.09651997685432434,-0.46647390990546267,-1.3228770395681915,-1.0976157347363706,-0.8658514022827148,0.4497397243976593,-0.21917012333869934,-1.6875773668289185,-0.949489951133728,-2.052462339401245
7.401010036468506,-0.27958136796951294,0.03538075089454651,0.08582524955272675,-0.43551723967802,-1.363835995937033,-1.1503925771560308,-0.8873041868209839,0.4218794107437134,-0.18630436062812805,-2.2662160396575928,-0.8657107353210449,-2.031665563583374
7.4208221435546875,-0.14941537380218506,0.05732563138008118,0.04155707359313965,-0.40487868152766066,-1.4054539878588892,-1.211212684828737,-0.9066149592399597,0.39390724897384644,-0.15128295123577118,-2.5599753856658936,-0.7818616032600403,-2.0068373680114746
7.440906047821045,-0.06011611223220825,0.13737469911575317,-0.02608666568994522,-0.37254095957735467,-1.4425402515110952,-1.2711227894128327,-0.9237552881240845,0.36398327350616455,-0.1191311702132225,-2.4049549102783203,-0.6651421785354614,-2.028005599975586
7.460943222045898,0.014624357223510742,0.25595876574516296,-0.08709841221570969,-0.33650731633993236,-1.4739446067191733,-1.323152206615282,-0.9394901394844055,0.33019232749938965,-0.09127680957317352,-2.0583512783050537,-0.6963818669319153,-2.103208541870117
7.480924129486084,0.0757254958152771,0.314106822013855,-0.10123182088136673,-0.2976446947847827,-1.5028370873175427,-1.3675212476344611,-0.9538232684135437,0.2932692766189575,-0.06492108106613159,-1.8456344604492188,-0.7927401065826416,-2.1175243854522705
7.500945091247559,0.05243217945098877,0.34091028571128845,-0.14279663562774658,-0.2565921237035085,-1.5302163197179468,-1.4062784022085966,-0.9664642810821533,0.25378572940826416,-0.03924066945910454,-1.6719541549682617,-0.8746655583381653,-2.2102699279785156
7.520897150039673,-0.010792315006256104,0.4559060335159302,-0.20821595191955566,-0.21235818704958973,-1.5558832368777435,-1.439827230007412,-0.977428138256073,0.21076570451259613,-0.014577553607523441,-1.4311457872390747,-0.9255025386810303,-2.298309326171875
7.5408971309661865,-0.031934142112731934,0.5823560357093811,-0.2806985378265381,-0.1668762405861013,-1.579490481214851,-1.4657190538825782,-0.9860712885856628,0.166102796792984,0.00857327226549387,-1.1277486085891724,-0.9378894567489624,-2.2355542182922363
7.560928106307983,-0.01655954122543335,0.6529722809791565,-0.3391082286834717,-0.12378710264687744,-1.6010586945602057,-1.4867091333176135,-0.991894006729126,0.1234712079167366,0.030026227235794067,-1.1010218858718872,-0.9057492017745972,-2.0144991874694824
7.580897092819214,0.018918871879577637,0.6816145181655884,-0.32618093490600586,-0.08631488968582493,-1.6190996318277635,-1.5087981800043186,-0.9951152205467224,0.08620775490999222,0.048104774206876755,-1.2398533821105957,-0.6049533486366272,-1.6111910343170166
7.600895166397095,0.07041299343109131,0.7013501524925232,-0.3015958070755005,-0.058158269662202555,-1.628426590358969,-1.5342258786680725,-0.9966521263122559,0.058125488460063934,0.05750099569559097,-1.451346755027771,-0.16337352991104126,-1.0768455266952515
7.620941162109375,0.1533740758895874,0.7460149526596069,-0.35867273807525635,-0.03973152534641376,-1.6310300583316297,-1.5631890390394483,-0.9973987936973572,0.03972107172012329,0.06014981120824814,-1.5151214599609375,-0.014196550473570824,-0.5990351438522339
7.640906095504761,0.27004992961883545,0.7573788166046143,-0.41575121879577637,-0.030620328314958235,-1.633392040060547,-1.5917733933841,-0.9975737929344177,0.030615543946623802,0.06252552568912506,-1.3370684385299683,-0.15659302473068237,-0.14633148908615112
7.66090202331543,0.31637752056121826,0.7721670269966125,-0.44876694679260254,-0.029946209333461916,-1.6399344264067854,-1.611451098134623,-0.997163712978363,0.029941733926534653,0.0690520629286766,-0.5544368028640747,-0.43141233921051025,0.1927018016576767
7.680852174758911,0.20722216367721558,0.8769821524620056,-0.5139021873474121,-0.03615738994333776,-1.6500645667280482,-1.6125462904277377,-0.9962086081504822,0.036149512976408005,0.0791335180401802,0.4917219579219818,-0.548621654510498,0.409055233001709
7.700896263122559,0.04073047637939453,0.8810790181159973,-0.524624228477478,-0.04693194047710927,-1.6602132285891138,-1.5953563332523324,-0.9949085116386414,0.0469147153198719,0.0891994908452034,1.187922477722168,-0.5085145235061646,0.5344946384429932
7.72089409828186,-0.05887728929519653,0.7560151815414429,-0.3998461961746216,-0.06239992276169176,-1.6664545667817348,-1.5733244918141411,-0.9934910535812378,0.062359437346458435,0.09532654285430908,1.0375936031341553,-0.2197255641222,0.829584538936615
7.740926265716553,-0.13912111520767212,0.6020958423614502,-0.2915087938308716,-0.08354819092793285,-1.6668184296801363,-1.560934848887366,-0.9919215440750122,0.08345102518796921,0.09554021060466766,0.37602099776268005,0.10276087373495102,1.1385397911071777
7.7608962059021,-0.23500919342041016,0.552033543586731,-0.26501262187957764,-0.10859538048048421,-1.6611089752474937,-1.5607492030517462,-0.9900580644607544,0.10838206112384796,0.08965866267681122,-0.03484128788113594,0.43079105019569397,1.353222370147705
7.780893087387085,-0.24049675464630127,0.5904656052589417,-0.27369558811187744,-0.137506351948875,-1.6528836210973183,-1.562309171713833,-0.987225353717804,0.13707342743873596,0.08122117072343826,0.24799270927906036,0.3386129140853882,1.5190701484680176
7.8008952140808105,-0.31550318002700806,0.6724496483802795,-0.31490325927734375,-0.16849540273397634,-1.6460206783450806,-1.551363214934458,-0.9830502271652222,0.16769924759864807,0.07408911734819412,1.1186103820800781,0.22991101443767548,1.4632773399353027
7.820895195007324,-0.3768199682235718,0.6484317779541016,-0.23247146606445312,-0.1992587171108123,-1.6335756424187118,-1.5226874630360874,-0.9782828092575073,0.19794276356697083,0.061496734619140625,1.8348344564437866,0.523502767086029,1.4370864629745483
7.840895175933838,-0.24706041812896729,0.4559885859489441,-0.10350549221038818,-0.23225094212282762,-1.6122394976283876,-1.48424464586743,-0.9723151922225952,0.23016861081123352,0.04031891003251076,2.0226454734802246,0.7240554690361023,1.6551055908203125
7.860915184020996,-0.1350528597831726,0.3344554901123047,-0.08001828193664551,-0.2693605861169765,-1.5873719704878635,-1.4430979364283238,-0.9638088941574097,0.26611512899398804,0.01597721502184868,2.095628499984741,0.7097010612487793,1.9148120880126953
7.880924224853516,-0.14616316556930542,0.29128018021583557,-0.1059185266494751,-0.30954079258465167,-1.5605829305442023,-1.396473854759898,-0.9524239897727966,0.30462127923965454,-0.009727821685373783,2.4270944595336914,0.66163170337677,2.078603744506836
7.900906085968018,-0.21376127004623413,0.25896403193473816,-0.06500446796417236,-0.35093224665962086,-1.5297579894984685,-1.3420959331103863,-0.9382621049880981,0.34377339482307434,-0.038526348769664764,2.6976704597473145,0.6965064406394958,2.198641061782837
7.920896053314209,-0.2956780791282654,0.18583321571350098,0.00946885347366333,-0.3920829698441044,-1.491695954501454,-1.2795904886265932,-0.9212257266044617,0.38211414217948914,-0.07302165776491165,2.835312843322754,0.8831630945205688,2.2536919116973877
7.940942287445068,-0.3622788190841675,0.0786791741847992,0.13516156375408173,-0.43211012167550533,-1.445639135676585,-1.2165611848558429,-0.9009813070297241,0.4187878966331482,-0.11335679143667221,2.5592472553253174,1.1989185810089111,2.303593635559082
7.960896015167236,-0.37380731105804443,-0.04262953996658325,0.21346808969974518,-0.4713252554162456,-1.3930200275510498,-1.1572960945738935,-0.8769251108169556,0.4540674388408661,-0.15755987167358398,2.1013519763946533,1.43759286403656,2.37443208694458
7.980894088745117,-0.36093902587890625,-0.1074032187461853,0.28165459632873535,-0.5105349635080606,-1.3384431776656762,-1.105256719204566,-0.8490372896194458,0.4886440634727478,-0.20090505480766296,1.594394326210022,1.5814882516860962,2.409111738204956
8.000895977020264,-0.34547024965286255,-0.1491938829421997,0.31328025460243225,-0.550281673350748,-1.283085094155627,-1.0598851868473171,-0.8173409700393677,0.5229273438453674,-0.24186909198760986,1.2220127582550049,1.6635452508926392,2.434701681137085
8.020904064178467,-0.33772891759872437,-0.18016129732131958,0.3215119242668152,-0.5891807233151831,-1.2262743232830469,-1.0167243760357367,-0.7825409173965454,0.5556800365447998,-0.2808014154434204,1.037906289100647,1.6878442764282227,2.3973987102508545
8.040940284729004,-0.3286643624305725,-0.20462924242019653,0.361824095249176,-0.6254261923396094,-1.168233732070148,-0.9734072863219682,-0.7459053993225098,0.585442841053009,-0.31761932373046875,0.9656380414962769,1.6742782592773438,2.2796342372894287
8.060894012451172,-0.3130680322647095,-0.2649717926979065,0.4382596015930176,-0.6580885323024238,-1.1074525174494598,-0.9304152756017066,-0.7077450752258301,0.611605703830719,-0.3536038100719452,0.8071616888046265,1.8326178789138794,2.1283276081085205
8.080896139144897,-0.26883023977279663,-0.3441530466079712,0.4565237760543823,-0.6866868986539639,-1.044197072258079,-0.8893183269931828,-0.6685782670974731,0.6339784860610962,-0.3886832296848297,0.6553459763526917,1.8846389055252075,1.9335788488388062
8.100918292999268,-0.19687849283218384,-0.3937501311302185,0.4734392762184143,-0.7122603331966106,-0.9853032447128831,-0.8516765853716057,-0.6308193802833557,0.6535462737083435,-0.41826343536376953,0.4309268891811371,1.5724765062332153,1.7660415172576904
8.120898246765137,-0.1841300129890442,-0.4240764379501343,0.5097382068634033,-0.735342987097777,-0.9347262107031288,-0.8187189813192547,-0.5965707302093506,0.6708415746688843,-0.4405395984649658,0.2877386808395386,1.3611963987350464,1.537814736366272
8.14089298248291,-0.22009825706481934,-0.45520293712615967,0.5005680322647095,-0.7538921807919218,-0.8885353586621756,-0.789625235466934,-0.5658361911773682,0.6844814419746399,-0.4596896767616272,0.27791833877563477,1.3028619289398193,1.234886884689331
8.160929203033447,-0.1736404299736023,-0.468048632144928,0.49446606636047363,-0.766183727041082,-0.8459591756520215,-0.7641082353756734,-0.53941810131073,0.693390429019928,-0.47774243354797363,0.3566606640815735,1.1719648838043213,0.9146815538406372
8.180891990661621,-0.08110189437866211,-0.4793426990509033,0.46276888251304626,-0.7714948623619609,-0.8098568199266108,-0.7404670360154596,-0.5191484093666077,0.6972076296806335,-0.4943545162677765,0.5521126985549927,0.7549632787704468,0.6322169899940491
8.200896263122559,-0.06430459022521973,-0.46154314279556274,0.46024811267852783,-0.7698251222442208,-0.7841797451308387,-0.7177904054017139,-0.507106602191925,0.6960096955299377,-0.5083438158035278,0.7183523774147034,0.23858243227005005,0.38411298394203186
8.220904111862183,-0.17882323265075684,-0.4550742506980896,0.48539865016937256,-0.7630904912679024,-0.7701329987964827,-0.6994374673124651,-0.5031684041023254,0.6911582350730896,-0.5187696814537048,0.6391831040382385,-0.05797172710299492,0.07098463922739029
8.240928173065186,-0.31239432096481323,-0.4981521964073181,0.5690127015113831,-0.7556670192709836,-0.7661711271291067,-0.6934567916620119,-0.5046529173851013,0.6857742667198181,-0.5244417786598206,0.12767943739891052,0.0751320868730545,-0.2542441189289093
