timestamp,acceleration_x,acceleration_y,acceleration_z,attitude_pitch,attitude_roll,attitude_yaw,gravity_x,gravity_y,gravity_z,rotation_x,rotation_y,rotation_z
0.0,-0.25035154819488525,0.2137751281261444,-0.03663301467895508,0.00360057484271789,-1.5797349409729826,-2.9938567592352943,-0.9999538660049438,-0.003600567113608122,0.0089384401217103,2.7206432819366455,1.2999887466430664,1.9260283708572388
0.01998281478881836,-0.30090367794036865,0.17710083723068237,0.06044149398803711,-0.03309501459129254,-1.5507631860374147,-2.9419425609216927,-0.9992520809173584,0.03308897465467453,-0.02002083510160446,2.4491329193115234,1.5030784606933594,1.7369108200073242
0.03997087478637695,-0.2761346697807312,0.11649590730667114,0.13666659593582153,-0.06408993479910796,-1.516266375440308,-2.8945451007365146,-0.9964637160301208,0.06404606997966766,-0.0543910376727581,2.174619674682617,1.6658761501312256,1.5327457189559937
0.060074806213378906,-0.2626699209213257,0.08199284970760345,0.16690725088119507,-0.09098419926829508,-1.4800961556662944,-2.8521111573351443,-0.9917704463005066,0.09085872024297714,-0.090201236307621,1.8861891031265259,1.6181397438049316,1.4400959014892578
0.08001995086669922,-0.27439743280410767,0.0939938873052597,0.214063361287117,-0.11372486240002944,-1.4428092470338492,-2.8134729898565825,-0.9854139685630798,0.11347988247871399,-0.12681344151496887,1.663703441619873,1.6901562213897705,1.2444920539855957
0.10001468658447266,-0.21347784996032715,0.07068251073360443,0.3062797784805298,-0.1331099078836968,-1.4049046941707277,-2.7805790744455905,-0.9775469303131104,0.13271717727184296,-0.16367103159427643,1.2788885831832886,1.7162861824035645,1.1811637878417969
0.12002992630004883,-0.17545127868652344,0.011805340647697449,0.3897968530654907,-0.1531758662272428,-1.3664910380933932,-2.7545924379310014,-0.9677372574806213,0.15257757902145386,-0.20051147043704987,0.9002768993377686,1.7599033117294312,1.2757643461227417
0.1400609016418457,-0.13164281845092773,-0.012239664793014526,0.40488356351852417,-0.17519814741117878,-1.3275272863552083,-2.7332951271928345,-0.955698549747467,0.17430324852466583,-0.237189382314682,0.7141608595848083,1.7665842771530151,1.3333791494369507
0.1592559814453125,-0.04741406440734863,-0.010691046714782715,0.3824038505554199,-0.19737975246209502,-1.2899442553868414,-2.711228396438977,-0.9421642422676086,0.1961006373167038,-0.27179279923439026,0.8610199689865112,1.5407564640045166,1.386412501335144
0.18001389503479004,-0.05765843391418457,-0.04227140545845032,0.3685125410556793,-0.21816169049185713,-1.2560927898477798,-2.682870180946943,-0.9283493161201477,0.2164352536201477,-0.3021976947784424,1.160575270652771,1.3003411293029785,1.406696081161499
0.20001482963562012,-0.12686151266098022,-0.10502520203590393,0.4233905076980591,-0.23558585818188027,-1.2240036135286745,-2.6505796181861636,-0.9144899249076843,0.2334126979112625,-0.3304949104785919,1.19697904586792,1.2209781408309937,1.2305094003677368
0.2200908660888672,-0.11812132596969604,-0.21261237561702728,0.4849674105644226,-0.24845541634935747,-1.1919723113068335,-2.62079325277627,-0.9005707502365112,0.24590709805488586,-0.35847198963165283,1.0244282484054565,1.257236361503601,1.0407260656356812
0.24001383781433105,-0.046015381813049316,-0.29295215010643005,0.5058630108833313,-0.2604876775893263,-1.1620485618246263,-2.5962057043259184,-0.886663019657135,0.25755181908607483,-0.3840520977973938,0.7385350465774536,1.09946870803833,0.9702450037002563
0.260098934173584,-0.027637243270874023,-0.28639185428619385,0.4805874824523926,-0.27048242738596384,-1.1366981662983073,-2.575902516725656,-0.874264121055603,0.2671963572502136,-0.4053005576133728,0.6909165978431702,0.9009112119674683,0.738631546497345
0.280012845993042,-0.030481457710266113,-0.23128482699394226,0.4654959440231323,-0.2756562180887716,-1.1163885701640104,-2.5571691520456334,-0.8645991683006287,0.27217844128608704,-0.42235925793647766,0.7341163754463196,0.6078538298606873,0.49106666445732117
0.30001282691955566,-0.06759905815124512,-0.2140110731124878,0.45464837551116943,-0.27506868433851545,-1.1013073174065522,-2.5396032240848423,-0.8582738637924194,0.2716130316257477,-0.43542224168777466,0.7831303477287292,0.423352986574173,0.19597820937633514
0.32007384300231934,-0.05246657133102417,-0.26314428448677063,0.4791836738586426,-0.2703470055851166,-1.0905852412828527,-2.5248136117864073,-0.8546839356422424,0.2670658528804779,-0.4451870620250702,0.706516444683075,0.2370019406080246,0.05946650356054306
0.34009885787963867,-0.026599586009979248,-0.33026596903800964,0.4764781594276428,-0.2655506999046641,-1.0835609017235959,-2.512687444452043,-0.8526577353477478,0.2624407112598419,-0.45177412033081055,0.5368205904960632,0.13338430225849152,0.06022278219461441
0.3600339889526367,0.018824458122253418,-0.32501429319381714,0.4261147677898407,-0.2613598207550832,-1.0802886879503062,-2.5036065845917492,-0.8521375060081482,0.25839442014694214,-0.45507586002349854,0.5059559941291809,-0.04402528703212738,-0.026595361530780792
0.3800818920135498,0.056396484375,-0.2728075087070465,0.3399987816810608,-0.2544254521533121,-1.0815983309650896,-2.4925860633799353,-0.854293942451477,0.2516894042491913,-0.4547905921936035,0.7928088903427124,-0.405703067779541,-0.08419464528560638
0.4000098705291748,-0.009168088436126709,-0.2724224925041199,0.31262338161468506,-0.24300786005913308,-1.0891989202659464,-2.476868792330151,-0.8602167963981628,0.24062319099903107,-0.4495862126350403,1.0731028318405151,-0.7063111662864685,-0.24059121310710907
0.4200108051300049,-0.12361150979995728,-0.3182668387889862,0.3273734450340271,-0.22688569966274505,-1.1000928636897365,-2.4600091499450443,-0.8684083819389343,0.2249441295862198,-0.4418906271457672,1.0788336992263794,-0.7664003968238831,-0.44728508591651917
0.4397568702697754,-0.1463741660118103,-0.3234744966030121,0.2830999493598938,-0.20782560024820845,-1.1135492798427238,-2.4471086147813255,-0.8779637217521667,0.20633277297019958,-0.43197986483573914,0.9131888151168823,-0.9014016389846802,-0.7100712060928345
0.460007905960083,-0.1361491084098816,-0.24176576733589172,0.196621835231781,-0.18550055340916385,-1.133602946171267,-2.438289568627232,-0.8904013633728027,0.1844385266304016,-0.416134774684906,0.8254330158233643,-1.3110227584838867,-0.9170393943786621
0.48005080223083496,-0.31738507747650146,-0.15000523626804352,0.232295423746109,-0.16203537328739168,-1.1616789377764192,-2.434221142892273,-0.9054543375968933,0.16132725775241852,-0.39258894324302673,0.42085352540016174,-1.4607218503952026,-1.0698314905166626
0.5000088214874268,-0.524562656879425,-0.1664472371339798,0.3576524257659912,-0.14020324687258537,-1.1883727678940965,-2.441641868153424,-0.9186594486236572,0.139744371175766,-0.36950838565826416,-0.2842913269996643,-1.0528583526611328,-1.2128275632858276
0.5201249122619629,-0.32038605213165283,-0.22770200669765472,0.35532012581825256,-0.12224761197575316,-1.2083163892213569,-2.4610584659794252,-0.9280423521995544,0.12194335460662842,-0.3519478142261505,-0.7734723687171936,-0.7968645095825195,-1.0962084531784058
0.540031909942627,-0.01484990119934082,-0.15300390124320984,0.21645236015319824,-0.10979787321970037,-1.2305421113852382,-2.4829199814879517,-0.936993420124054,0.10957739502191544,-0.3317171633243561,-0.7594106793403625,-1.238106369972229,-0.8509870171546936
0.5599880218505859,-0.002828061580657959,-0.008336298167705536,0.10808539390563965,-0.09724988402633993,-1.2623797279959919,-2.497420996798789,-0.9483133554458618,0.09709666669368744,-0.3021160662174225,-0.12153325229883194,-1.7690625190734863,-0.862656831741333
0.5799837112426758,-0.21301597356796265,0.08336286246776581,0.08611178398132324,-0.07654768162471287,-1.2995402568474956,-2.497297850000072,-0.9606139063835144,0.0764729455113411,-0.2671571969985962,0.6758823394775391,-1.8631130456924438,-1.1430847644805908
0.600132942199707,-0.28815770149230957,0.10149972140789032,0.12149810791015625,-0.04736749087300841,-1.3330621588355498,-2.486074631388862,-0.970784068107605,0.047349780797958374,-0.2352370023727417,1.0818015336990356,-1.5873889923095703,-1.3584084510803223
0.6200158596038818,-0.10581612586975098,0.06079314649105072,0.14028646051883698,-0.01814156619962775,-1.3644551805120082,-2.471894475989142,-0.9786260724067688,0.01814057119190693,-0.2048463374376297,0.822100043296814,-1.6545937061309814,-1.1367900371551514
0.6435508728027344,-0.09880030155181885,-0.025257783010601997,0.15754176676273346,0.0028489142089964427,-1.3983781542720917,-2.466530009121746,-0.9851688742637634,-0.0028489104006439447,-0.1715644896030426,0.12109142541885376,-1.6829802989959717,-0.8355452418327332
0.6599969863891602,-0.16800695657730103,-0.028089724481105804,0.07895912230014801,0.01666506466286182,-1.4292422135260343,-2.4709382517766505,-0.989860475063324,-0.0166642926633358,-0.14106227457523346,-0.29721057415008545,-1.4408137798309326,-0.6166488528251648
0.6799538135528564,-0.05942195653915405,0.08432304114103317,-0.025485873222351074,0.027090631678706484,-1.4577403682864036,-2.480431960316033,-0.9932515621185303,-0.027087317779660225,-0.11277389526367188,-0.4777911305427551,-1.4602621793746948,-0.5634281039237976
0.6991977691650391,0.014876902103424072,0.14411653578281403,-0.09740763902664185,0.037328952354620845,-1.4868949780349474,-2.4907661826591,-0.9957882761955261,-0.03732028231024742,-0.083744578063488,-0.4187209904193878,-1.446302890777588,-0.5513173341751099
0.720085859298706,0.04853862524032593,0.14457708597183228,-0.13543164730072021,0.04681585239079005,-1.5135682764416,-2.49878501164175,-0.9972692131996155,-0.04679875448346138,-0.05713415890932083,-0.3769751787185669,-1.2501417398452759,-0.4289935231208801
0.7400858402252197,0.09193575382232666,0.06591879576444626,-0.11424136161804199,0.05294303352115764,-1.5362398552214627,-2.509833963600752,-0.9980027675628662,-0.05291830375790596,-0.03450118750333786,-0.7451946139335632,-1.0755870342254639,-0.22448892891407013
0.7600228786468506,0.0915030837059021,0.007945045828819275,-0.1350940465927124,0.054801704452340595,-1.5543300156452944,-2.529152677547668,-0.9983635544776917,-0.05477427691221237,-0.016440851613879204,-1.1698272228240967,-0.842598557472229,-0.04019076004624367
0.7800617218017578,0.07304942607879639,0.017565134912729263,-0.17637932300567627,0.054839324973803436,-1.5689350420101686,-2.556009881731341,-0.9984950423240662,-0.05481184273958206,-0.0018584858626127243,-1.4873625040054321,-0.7708220481872559,0.05029642954468727
0.8000268936157227,0.05233168601989746,0.057195164263248444,-0.22100937366485596,0.053008575927905206,-1.5808979944263353,-2.586442566583243,-0.9985446929931641,-0.05298375338315964,0.010087309405207634,-1.5345689058303833,-0.5923020839691162,0.10828901827335358
0.8191318511962891,0.08431375026702881,0.09370826184749603,-0.252902626991272,0.05238089835055965,-1.5895645064119595,-2.6177548517006013,-0.9984526634216309,-0.05235694721341133,0.018741339445114136,-1.617404818534851,-0.463737428188324,-0.01761813834309578
0.8399999141693115,0.13745737075805664,0.07066357135772705,-0.28361594676971436,0.05421062825528026,-1.5969158974404665,-2.649900459495996,-0.9981904029846191,-0.05418407917022705,0.0260782353579998,-1.5677051544189453,-0.4421304166316986,-0.04960501194000244
0.8600749969482422,0.11180615425109863,0.07472313940525055,-0.3165760040283203,0.05494488462044805,-1.6029262683568466,-2.681357506925522,-0.997975766658783,-0.054917242377996445,0.03207594156265259,-1.6266999244689941,-0.3058410882949829,0.04452553763985634
0.8800020217895508,0.05839627981185913,0.08501440286636353,-0.3944261074066162,0.05597564398298104,-1.6045641198177854,-2.714422304470475,-0.9978647828102112,-0.05594641715288162,0.03370850533246994,-1.6849374771118164,-0.04247523844242096,-0.03050173632800579
0.9000098705291748,0.09094905853271484,0.12259191274642944,-0.49226248264312744,0.05713227307607213,-1.601397942940865,-2.7492063022644064,-0.9979011416435242,-0.05710119754076004,0.030546922236680984,-1.8255090713500977,0.14690285921096802,0.034870754927396774
0.9200010299682617,0.1443617343902588,0.12696851789951324,-0.47515666484832764,0.05746585685748042,-1.5948538270940076,-2.789347488467682,-0.9980607032775879,-0.05743423476815224,0.024015478789806366,-2.243725538253784,0.29045459628105164,0.03349413350224495
0.9400229454040527,0.13152194023132324,0.16318321228027344,-0.45034050941467285,0.05699763237140052,-1.584514154044225,-2.837985841958716,-0.9982823133468628,-0.05696677416563034,0.013695123605430126,-2.547442674636841,0.451333224773407,0.13770337402820587
0.9600276947021484,0.04855358600616455,0.3218737840652466,-0.48523128032684326,0.052106714329695304,-1.5720053500389841,-2.887570783467849,-0.9986422061920166,-0.05208313837647438,0.0012073821853846312,-2.352445363998413,0.5235297083854675,0.39266517758369446
0.9799966812133789,-0.07709634304046631,0.48504236340522766,-0.4965324401855469,0.04270304812792033,-1.5586352594351172,-2.928886207642535,-0.9990145564079285,-0.04269007220864296,-0.012149682268500328,-1.7677514553070068,0.6287946105003357,0.5038179755210876
0.9999988079071045,-0.14830267429351807,0.47681066393852234,-0.398501992225647,0.03150337482020479,-1.5433628275036868,-2.9599830851848457,-0.9991278052330017,-0.03149816393852234,-0.027416450902819633,-1.449027180671692,0.7865968942642212,0.5987428426742554
1.0200557708740234,-0.15238970518112183,0.3295237421989441,-0.29795199632644653,0.01453707427590442,-1.5265663224266848,-2.9894538552254417,-0.998916506767273,-0.014536562375724316,-0.04421091452240944,-1.5966761112213135,0.7795059680938721,1.0559117794036865
1.0400047302246094,-0.28480541706085205,0.30286115407943726,-0.2897900938987732,-0.013270807814685339,-1.5112266817982498,-3.020112318162315,-0.9981386065483093,0.013270418159663677,-0.05952919274568558,-1.5310388803482056,0.7922461628913879,1.4947367906570435
1.0599617958068848,-0.40288448333740234,0.37710413336753845,-0.28511494398117065,-0.04512187870367513,-1.49464588537744,-3.0439511910994828,-0.9960871934890747,0.045106567442417145,-0.0759994387626648,-1.063476324081421,0.9309371709823608,1.4866807460784912
1.080000877380371,-0.3792627453804016,0.37450897693634033,-0.2664215564727783,-0.07511608955716058,-1.4761381974410788,-3.057628598952308,-0.9927160739898682,0.07504546642303467,-0.09425031393766403,-0.540772557258606,1.0084525346755981,1.4066338539123535
1.0999979972839355,-0.30041003227233887,0.2859787046909332,-0.19797205924987793,-0.10477690049000106,-1.454763041133594,-3.0612581155056455,-0.9878286123275757,0.10458529740571976,-0.11513819545507431,-0.19142261147499084,1.1483383178710938,1.5193290710449219
1.1199970245361328,-0.24959903955459595,0.19336473941802979,-0.08903849124908447,-0.13708129316121814,-1.4304936370335657,-3.060626509678379,-0.9808850884437561,0.1366523802280426,-0.13853099942207336,-0.17809000611305237,1.2497581243515015,1.6923562288284302
1.1400856971740723,-0.2778875231742859,0.14876000583171844,-0.058770641684532166,-0.17170835403238952,-1.4050543577040029,-3.057976602622311,-0.9717920422554016,0.17086583375930786,-0.16255797445774078,-0.0457725003361702,1.2530192136764526,1.7570242881774902
1.1599969863891602,-0.26844608783721924,0.16749079525470734,-0.05312240123748779,-0.20497426618059206,-1.378802549521397,-3.048284621048594,-0.9610767960548401,0.20354196429252625,-0.18682193756103516,0.4254220128059387,1.1830204725265503,1.6763309240341187
1.1799938678741455,-0.19438433647155762,0.14316366612911224,-0.025359809398651123,-0.23354158060556504,-1.3521402375262088,-3.027990274373283,-0.9496892690658569,0.23142440617084503,-0.21102924644947052,0.9129274487495422,1.0356541872024536,1.5362752676010132
1.199995994567871,-0.13839459419250488,0.07343462109565735,0.017585650086402893,-0.2573066375259137,-1.3258185742157524,-2.99975213305422,-0.9382045865058899,0.25447678565979004,-0.23455023765563965,1.1698436737060547,0.9339236617088318,1.4138703346252441
1.220052719116211,-0.08750152587890625,0.019260704517364502,0.05559331178665161,-0.27716693146177224,-1.2983923499648324,-2.9673326448388933,-0.9263688325881958,0.2736318111419678,-0.25877925753593445,1.348616123199463,0.9788656234741211,1.3207273483276367
1.2400028705596924,-0.0034462809562683105,-0.004237115383148193,0.08243712782859802,-0.29402350710364406,-1.2684338668863777,-2.9320550513154524,-0.9136682152748108,0.28980541229248047,-0.28499749302864075,1.3968850374221802,1.012747883796692,1.2618008852005005
1.2599949836730957,0.061769723892211914,-0.05496063828468323,0.11782896518707275,-0.3091762100506608,-1.2379930176667977,-2.8977878272502484,-0.900316596031189,0.3042740225791931,-0.3112035095691681,1.2153682708740234,1.0280543565750122,1.2192630767822266
1.280107021331787,0.09623456001281738,-0.11227509379386902,0.14337873458862305,-0.3250779587040937,-1.2079394161930082,-2.8674070896727004,-0.8859227895736694,0.3193826675415039,-0.3363565504550934,0.9659556746482849,1.0289907455444336,1.27146577835083
1.300004005432129,0.10730624198913574,-0.12924987077713013,0.16710230708122253,-0.3425763882390224,-1.1787462903485109,-2.84042979190957,-0.8704288601875305,0.33591488003730774,-0.359881728887558,0.7850956320762634,1.0119292736053467,1.2837083339691162
1.3199968338012695,0.08354127407073975,-0.1260608434677124,0.19435173273086548,-0.35942752070239925,-1.150462771851624,-2.8151546824123117,-0.8546137809753418,0.3517383933067322,-0.3819890022277832,0.7420503497123718,0.9558310508728027,1.1959705352783203
1.4551129341125488,0.03813660144805908,-0.13247159123420715,0.2452455461025238,-0.3737806269509258,-1.1227661404677893,-2.7911150828079125,-0.8390704393386841,0.36513760685920715,-0.40328070521354675,0.6852535009384155,0.9659475088119507,1.0411787033081055
1.466195821762085,0.007527291774749756,-0.16999337077140808,0.29237252473831177,-0.3854453318474665,-1.0958183975964086,-2.770400903804756,-0.8240557312965393,0.37597182393074036,-0.4237658977508545,0.5050334930419922,0.9604637622833252,0.867717981338501
1.505537986755371,0.004426300525665283,-0.19198772311210632,0.3283812403678894,-0.39586509531209757,-1.0713042356335352,-2.7548636608724437,-0.8099378943443298,0.3856065273284912,-0.44193708896636963,0.2878803610801697,0.8876346945762634,0.7296306490898132
1.5220227241516113,-0.0435638427734375,-0.19895461201667786,0.37314069271087646,-0.4138203735733596,-1.0338474267768494,-2.7388650930010505,-0.7867432236671448,0.40211015939712524,-0.4683402180671692,-0.07690918445587158,0.7138190269470215,0.3901061713695526
1.545933723449707,0.0038834810256958008,-0.23356977105140686,0.3946934938430786,-0.4307418972513905,-1.0036519740094432,-2.7471158672923055,-0.7663957476615906,0.41754505038261414,-0.48815351724624634,-0.4088117778301239,0.29774802923202515,-0.00947257038205862
1.5605506896972656,-0.13785213232040405,-0.25140973925590515,0.4085942506790161,-0.4356536483184838,-1.0159642743416812,-2.7854465730128264,-0.7705953121185303,0.4220030903816223,-0.4775944948196411,-0.7779049873352051,-0.11227020621299744,-0.4877426028251648
1.5799980163574219,-0.06439155340194702,-0.23662853240966797,0.31949901580810547,-0.43236228558816947,-1.0466921501079653,-2.8337584487740277,-0.7861029505729675,0.41901686787605286,-0.4543866217136383,-0.8558236956596375,-0.588448703289032,-0.7604194283485413
1.6000208854675293,-0.17464470863342285,-0.18144181370735168,0.29159682989120483,-0.4249852292737357,-1.0720671179950951,-2.857279533980724,-0.8000715374946594,0.4123073220252991,-0.43576183915138245,-0.6681768894195557,-0.9221424460411072,-0.9685712456703186
1.6190619468688965,-0.4038076400756836,-0.18679237365722656,0.34432584047317505,-0.4115539186049796,-1.1006903167995175,-2.8820115645562536,-0.8170786499977112,0.40003398060798645,-0.4151570796966553,-0.8007585406303406,-0.8963531851768494,-1.2921860218048096
1.6399908065795898,-0.5033222436904907,-0.2105441689491272,0.37410226464271545,-0.39393286529566657,-1.1299040462411414,-2.9166716674249336,-0.8351024985313416,0.3838230073451996,-0.3940606713294983,-1.3094756603240967,-0.6522140502929688,-1.697361946105957
1.6600847244262695,-0.21276360750198364,-0.16086620092391968,0.2621934115886688,-0.37376210568127877,-1.1595024404638277,-2.961941714778125,-0.8533222675323486,0.36512038111686707,-0.3721939027309418,-1.5949127674102783,-0.7419856190681458,-1.7889959812164307
1.6799907684326172,-0.01412123441696167,-0.08699947595596313,0.1325823962688446,-0.35460808538668354,-1.1956154741034386,-3.0052508012957984,-0.8725517988204956,0.34722286462783813,-0.34364184737205505,-1.3608942031860352,-1.3031600713729858,-1.5489866733551025
1.6999859809875488,-0.15720289945602417,-0.0661630928516388,0.09417179226875305,-0.3344321149524666,-1.2344593706904325,-3.040597650061147,-0.8916710615158081,0.3282327950000763,-0.311746746301651,-1.0860425233840942,-1.2909892797470093,-1.5564614534378052
1.7199859619140625,-0.27824866771698,-0.0673896074295044,0.07949367165565491,-0.31049870832197135,-1.2673794093932975,-3.0715261728219074,-0.9086867570877075,0.3055335283279419,-0.28449538350105286,-0.9676128625869751,-1.0535638332366943,-1.6179958581924438
1.7399849891662598,-0.22000014781951904,-0.026218771934509277,0.048318296670913696,-0.2861504762259303,-1.2962241081922434,-3.099922007879035,-0.9234021902084351,0.28226134181022644,-0.2601102292537689,-0.9788682460784912,-1.0364086627960205,-1.4766148328781128
1.7600278854370117,-0.21479666233062744,-0.021417558193206787,0.0808526873588562,-0.26514446124947233,-1.3248822567772895,-3.1300781771221757,-0.9360213279724121,0.2620486915111542,-0.23493583500385284,-1.3303173780441284,-0.9825869798660278,-1.3309522867202759
1.7801170349121094,-0.2334551215171814,-0.04861517250537872,0.0880872905254364,-0.247074727692982,-1.3518878369838732,3.1168442752234626,-0.9464917778968811,0.2445685714483261,-0.21056944131851196,-1.656815767288208,-0.816169798374176,-1.2426631450653076
1.7999858856201172,-0.13144409656524658,0.009623050689697266,0.02254873514175415,-0.22986855538892254,-1.378557720774641,3.0756054431641147,-0.9557600021362305,0.227849543094635,-0.1860312819480896,-1.854862093925476,-0.9105224013328552,-1.2904192209243774
1.819983959197998,-0.0061678290367126465,0.08871486783027649,-0.055862173438072205,-0.21087930994076098,-1.4067449485000572,3.03549289606935,-0.9647184610366821,0.2093198150396347,-0.15969862043857574,-1.5982481241226196,-1.046101450920105,-1.2578966617584229
1.8399887084960938,0.05921578407287598,0.14122141897678375,-0.1182524710893631,-0.18971811446285627,-1.434103488414734,3.0046433313288112,-0.9728970527648926,0.18858207762241364,-0.13382259011268616,-1.0904260873794556,-1.0338608026504517,-1.313525676727295
1.859980821609497,0.11534947156906128,0.17209023237228394,-0.1511533260345459,-0.16591979014004607,-1.4576300830491278,2.9838338535091187,-0.9799583554267883,0.16515955328941345,-0.11137405782938004,-0.6968482732772827,-0.9825568199157715,-1.2878520488739014
1.8800396919250488,0.15844589471817017,0.19847211241722107,-0.16642451286315918,-0.14169274007139676,-1.4793113991547924,2.9684899713007185,-0.9858385920524597,0.1412190943956375,-0.09044183045625687,-0.5859892964363098,-0.96267169713974,-1.3082225322723389
1.8999848365783691,0.14412707090377808,0.22983738780021667,-0.23280709981918335,-0.11592689792470934,-1.5007542090029027,2.956417508502654,-0.9908527731895447,0.1156674176454544,-0.06951513886451721,-0.4059769809246063,-1.034991979598999,-1.3390129804611206
1.9199819564819336,0.10934567451477051,0.2859838306903839,-0.28899675607681274,-0.09023722825013454,-1.5221279302917299,2.94977709901304,-0.9947521686553955,0.09011481702327728,-0.0484512522816658,-0.09094063192605972,-1.0308384895324707,-1.2737338542938232
1.9400098323822021,0.09169447422027588,0.29957181215286255,-0.2926805019378662,-0.06512879062047927,-1.5421843459954367,2.948077900063223,-0.9974715709686279,0.06508275866508484,-0.02854742668569088,-0.02833741158246994,-0.9362965226173401,-1.2483545541763306
1.959981918334961,0.11060577630996704,0.29013895988464355,-0.3306153416633606,-0.04161440045833512,-1.5603075704511606,2.9470429292586733,-0.9990795254707336,0.04160239174962044,-0.010479485616087914,0.002081919927150011,-0.8685120344161987,-1.0941407680511475
1.9799809455871582,0.13853490352630615,0.3171142637729645,-0.3615875244140625,-0.021876735412608445,-1.5770845741808848,2.947053075205569,-0.9997410774230957,0.021874990314245224,0.0062867021188139915,0.004833325278013945,-0.8203556537628174,-0.8925522565841675
2.0000438690185547,0.14996230602264404,0.3319323658943176,-0.3939039707183838,-0.005607311174338837,-1.5929221705834398,2.9482536606321013,-0.9997396469116211,0.005607281811535358,0.02212369441986084,0.09961039572954178,-0.7772657871246338,-0.7368288636207581
2.019991874694824,0.12806999683380127,0.3441029191017151,-0.4103950262069702,0.007310976427985501,-1.607879496105941,2.9519132056981334,-0.999285876750946,-0.007310911081731319,0.037073682993650436,0.21948488056659698,-0.7063356041908264,-0.5760650634765625
2.0400729179382324,0.07315170764923096,0.35125675797462463,-0.4053668975830078,0.01762426107848382,-1.621059260007491,2.957318234456972,-0.9985820651054382,-0.01762334816157818,0.05023397505283356,0.2652960419654846,-0.5982823371887207,-0.5009114146232605
2.0599327087402344,-0.0033095479011535645,0.3763534724712372,-0.4164208173751831,0.02752577438916076,-1.6313506469551409,2.963356854490843,-0.9977890849113464,-0.02752229943871498,0.06049439683556557,0.27345597743988037,-0.40866929292678833,-0.5744583606719971
2.0800158977508545,-0.04057210683822632,0.386307030916214,-0.39803051948547363,0.040523452587120645,-1.6373878588078445,2.9708319555945524,-0.9969647526741028,-0.040512364357709885,0.06648771464824677,0.36382395029067993,-0.18987010419368744,-0.743477463722229
2.100010871887207,-0.01745659112930298,0.28067538142204285,-0.35089051723480225,0.053360005440201544,-1.6395819632894801,2.9770772595896395,-0.9962155222892761,-0.053334686905145645,0.06863360106945038,0.1042613536119461,0.0009626955143176019,-0.5022038817405701
2.1199798583984375,-0.018905043601989746,0.18248040974140167,-0.3072190284729004,0.05959086846110033,-1.6386707334768347,2.974158914881519,-0.9959267377853394,-0.05955560505390167,0.06770193576812744,-0.4783190190792084,0.04943861812353134,-0.1656486690044403
2.139979839324951,-0.06125497817993164,0.23351548612117767,-0.2829552888870239,0.061924199595782624,-1.6368853398388075,2.9609144913796275,-0.9959045648574829,-0.06188463047146797,0.0659143403172493,-0.7951345443725586,0.054519131779670715,0.031457558274269104
2.160031795501709,-0.11340785026550293,0.28117093443870544,-0.20852935314178467,0.06122323599175633,-1.6337332190947695,2.942648488856693,-0.9961504936218262,-0.061184994876384735,0.06277752667665482,-1.0404044389724731,0.11802718043327332,0.13134701550006866
2.179978847503662,-0.23228031396865845,0.2489473819732666,-0.1580129861831665,0.059177836032255064,-1.6318779100946397,2.9201935353392208,-0.9963880181312561,-0.0591433010995388,0.060936760157346725,-1.1092400550842285,-0.07738945633172989,0.23699745535850525
2.199863910675049,-0.5231804847717285,0.2781159281730652,-0.18024587631225586,0.055090811776149835,-1.630792740554089,2.9018832082806107,-0.9966866374015808,-0.055062949657440186,0.05986947566270828,-0.6351409554481506,0.1482308954000473,0.20655789971351624
2.2194509506225586,-0.44842129945755005,0.3137734830379486,-0.1381434202194214,0.05495103404023876,-1.623196956765242,2.894004882353925,-0.9971201419830322,-0.05492338165640831,0.052297599613666534,-0.2582131028175354,0.5431503057479858,-0.09416278451681137
2.2400169372558594,-0.023108959197998047,0.24524366855621338,-0.023313522338867188,0.054994283896461035,-1.611195579364409,2.8873113259936396,-0.9976736307144165,-0.05496656894683838,0.04032720997929573,-0.4384450316429138,0.5715190768241882,0.19525401294231415
2.259845733642578,0.12034845352172852,0.13094265758991241,0.030025118961930275,0.046929722732047686,-1.6014177505837497,2.8762636681595337,-0.9984306693077087,-0.04691249877214432,0.030582929030060768,-0.5916544795036316,0.3542886972427368,0.6179037690162659
2.2800450325012207,0.02449434995651245,0.169472336769104,0.06691718101501465,0.032026640418595126,-1.592988599904818,2.8663758405701096,-0.9992412328720093,-0.032021164894104004,0.022179074585437775,-0.2767597734928131,0.4881894290447235,0.8755979537963867
2.299959897994995,-0.05300569534301758,0.21713301539421082,0.07489073276519775,0.013413320844975611,-1.5816918776196733,2.8673907203232827,-0.9998508095741272,-0.013412918895483017,0.010894356295466423,0.444289892911911,0.6103753447532654,0.9492241144180298
2.319978713989258,-0.03671485185623169,0.1574881225824356,0.14598309993743896,-0.0058572657009239425,-1.5699701912553583,2.8815988820522027,-0.9999826550483704,0.00585723202675581,-0.0008261214243248105,0.929659903049469,0.5748854279518127,0.980635941028595
2.340052843093872,-0.02175372838973999,0.01530894823372364,0.273168683052063,-0.025511082523419895,-1.556900171624532,2.9005261256429558,-0.9995783567428589,0.025508316233754158,-0.013891189359128475,0.8713761568069458,0.710342288017273,0.9932658672332764
2.3599767684936523,0.08553493022918701,-0.08188043534755707,0.2970616817474365,-0.04518315756472742,-1.5418133196735242,2.915791544717984,-0.9985600709915161,0.04516778513789177,-0.028949379920959473,0.6679619550704956,0.6976117491722107,1.0050960779190063
2.380033016204834,0.2351229190826416,-0.11293255537748337,0.22959524393081665,-0.06547870910981407,-1.5295778032806093,2.9307903841391205,-0.9970094561576843,0.06543193012475967,-0.041118547320365906,0.767655074596405,0.4512087106704712,1.0775256156921387
2.4000778198242188,0.3336501121520996,-0.15395857393741608,0.19718188047409058,-0.08581127661279908,-1.520441779720793,2.9487961132017135,-0.9950578212738037,0.08570600301027298,-0.05014808103442192,0.9577628970146179,0.3605577051639557,1.014257788658142
2.42000675201416,0.4552881717681885,-0.19059276580810547,0.19099795818328857,-0.10392672608429854,-1.5117394217694684,2.970341207824031,-0.9928706288337708,0.10373974591493607,-0.058704130351543427,1.0730717182159424,0.24758818745613098,0.9067444801330566
2.4399778842926025,0.5049623847007751,-0.17759640514850616,0.23268771171569824,-0.11822504979413183,-1.5075010511439453,2.9937999593947198,-0.9910312294960022,0.11794983595609665,-0.06281149387359619,1.1858166456222534,-0.04880104213953018,0.6553872227668762
2.459974765777588,0.42459821701049805,-0.26056113839149475,0.29654020071029663,-0.12780638530100463,-1.5051499362730991,3.0195890165591734,-0.9897077083587646,0.12745872139930725,-0.06506422907114029,1.2812907695770264,0.02823728322982788,0.49995458126068115
2.4800219535827637,0.3747762441635132,-0.3470073342323303,0.3344627022743225,-0.13607741252841077,-1.4986665300901898,3.043862323945569,-0.9881796836853027,0.13565784692764282,-0.07140106707811356,0.9947268962860107,0.2679831385612488,0.49841779470443726
2.499971866607666,0.4352955222129822,-0.3476950526237488,0.32073622941970825,-0.14429202436975885,-1.492159027910529,3.058274482235106,-0.9865499138832092,0.14379185438156128,-0.07773992419242859,0.37269216775894165,0.12615977227687836,0.4161423146724701
2.5199790000915527,0.4775667190551758,-0.32531243562698364,0.31543248891830444,-0.15251742379865227,-1.4913278298703696,3.0611070230404227,-0.9852727055549622,0.15192681550979614,-0.07846338301897049,-0.13626563549041748,-0.061989106237888336,0.45766639709472656
2.539975881576538,0.4430099129676819,-0.3680126965045929,0.3174726366996765,-0.16273641692361338,-1.4941189362601235,3.055639072024676,-0.9838883280754089,0.16201907396316528,-0.07559019327163696,-0.4432796835899353,-0.10958440601825714,0.505139946937561
2.5598597526550293,0.39619094133377075,-0.3588254451751709,0.28846579790115356,-0.17322812009820865,-1.4968559361153313,3.047320424127071,-0.9823421239852905,0.1723630428314209,-0.07276742160320282,-0.39076289534568787,0.010415763594210148,0.45886602997779846
2.579972743988037,0.3697589635848999,-0.31596839427948,0.251245379447937,-0.18045638549322723,-1.497884297867951,3.042511829468626,-0.9811482429504395,0.17947857081890106,-0.07166454941034317,-0.17882034182548523,-0.06927045434713364,0.22365567088127136
2.5999739170074463,0.30066537857055664,-0.2712212800979614,0.2061479687690735,-0.18334916798908685,-1.4996269612267792,3.0417370936204597,-0.9807497262954712,0.18232361972332,-0.06991741806268692,0.10651394724845886,-0.07639139145612717,0.08553501963615417
2.6199727058410645,0.22632896900177002,-0.2356983721256256,0.21302402019500732,-0.18469900133486702,-1.499941665228152,3.045430269551272,-0.9805251955986023,0.1836506575345993,-0.06959127634763718,0.21576620638370514,-0.003973384853452444,0.08277439326047897
2.6399707794189453,0.19277912378311157,-0.24225038290023804,0.22320926189422607,-0.18625760490112353,-1.4986521752974515,3.0484623212348727,-0.9801479578018188,0.18518252670764923,-0.07083487510681152,0.02971562370657921,0.04519469290971756,0.09672890603542328
2.6599979400634766,0.1619497537612915,-0.2604043483734131,0.22615456581115723,-0.18878511438369439,-1.499598341393179,3.0457143667573168,-0.9797446727752686,0.18766573071479797,-0.06987395137548447,-0.35387465357780457,-0.05729901045560837,0.13878615200519562
2.67996883392334,0.0751485824584961,-0.297275185585022,0.30505549907684326,-0.19208519257455667,-1.5027808424823779,3.033429591976964,-0.9793387055397034,0.19090615212917328,-0.06671310216188431,-0.8655049204826355,-0.014838193543255329,0.07176268845796585
2.6999707221984863,-0.02453392744064331,-0.24415311217308044,0.24050235748291016,-0.192918375652121,-1.5059726485836193,3.0147083735251683,-0.979387640953064,0.19172394275665283,-0.0635765865445137,-0.860862672328949,0.05175929516553879,-0.08244939148426056
2.7199697494506836,-0.14587849378585815,-0.11324682831764221,0.0947042778134346,-0.19139378384483208,-1.5070669148491531,3.0040743355070796,-0.9797471761703491,0.1902274191379547,-0.06252337992191315,-0.13802559673786163,0.06799526512622833,-0.16574914753437042
2.740057945251465,-0.21498841047286987,-0.12819387018680573,0.10457384586334229,-0.18503409045121977,-1.5058559536203437,3.0042618604269413,-0.9808582663536072,0.1839800477027893,-0.06378699839115143,0.06305252760648727,0.015174033120274544,-0.47058936953544617
2.7599668502807617,-0.1962314248085022,-0.23574219644069672,0.1269540935754776,-0.17556174816217757,-1.5083329843140179,3.001272418599106,-0.9827083945274353,0.1746612787246704,-0.06146320700645447,-0.3612004816532135,-0.20587153732776642,-0.4326818883419037
2.7799696922302246,-0.20886439085006714,-0.2087010145187378,0.12232542037963867,-0.16905409317895917,-1.5146272883968008,2.988909218963593,-0.9841899275779724,0.16825000941753387,-0.05533921346068382,-0.754584789276123,-0.21072451770305634,-0.3350403606891632
2.800036907196045,-0.2879496216773987,-0.15460005402565002,0.05401093140244484,-0.16395483618526382,-1.5232097115422383,2.973371101464601,-0.9854726791381836,0.16322126984596252,-0.046930741518735886,-0.728401243686676,-0.35363444685935974,-0.20777389407157898
2.8201868534088135,-0.40666383504867554,-0.1583566814661026,0.0934794619679451,-0.16197850183127005,-1.5325629634340057,2.96095755834933,-0.9861888885498047,0.1612711250782013,-0.03772370144724846,-0.48422250151634216,-0.34249141812324524,-0.06934542208909988
2.8400518894195557,-0.5037875771522522,-0.13100548088550568,0.1480940580368042,-0.16104336794746454,-1.539232152364356,2.9511563393465057,-0.9865689873695374,0.16034816205501556,-0.031150581315159798,-0.529233455657959,-0.18115900456905365,-0.07768404483795166
2.8600869178771973,-0.48166191577911377,-0.1366686373949051,0.1355268955230713,-0.15936075764296423,-1.5448469334455053,2.9370059909253805,-0.986996591091156,0.15868709981441498,-0.02561771310865879,-0.9167618751525879,-0.15680597722530365,-0.12415604293346405
2.8799657821655273,-0.4341472387313843,-0.21530410647392273,0.08698773384094238,-0.158038775186408,-1.5519010151492083,2.9165592645481078,-0.9873616099357605,0.15738172829151154,-0.018658725544810295,-1.0952773094177246,-0.24241462349891663,-0.02220330759882927
2.899935722351074,-0.4155784845352173,-0.16524122655391693,0.055001139640808105,-0.15813272840175396,-1.5601570041273896,2.8954874704006732,-0.9874672889709473,0.15747450292110443,-0.010506379418075085,-0.9117680191993713,-0.22698037326335907,-0.04812797158956528
2.928273916244507,-0.4617663025856018,-0.11923485994338989,0.04612398147583008,-0.1501018483909183,-1.567188640286379,2.871603693797097,-0.9887496829032898,0.1495388299226761,-0.003567114472389221,-0.35059720277786255,0.08485928177833557,-0.31867361068725586
2.9482297897338867,-0.415904700756073,-0.19247955083847046,0.03886222839355469,-0.14427348703440604,-1.565663825468291,2.8659738167460627,-0.9895977973937988,0.14377349615097046,-0.005079156719148159,-0.21272948384284973,0.15916049480438232,-0.2561541199684143
2.969982862472534,-0.4052358865737915,-0.13209855556488037,0.017049670219421387,-0.13856885366579239,-1.5622708860178738,2.8631016855766127,-0.9903789758682251,0.13812582194805145,-0.008443621918559074,-0.035719454288482666,0.22482705116271973,-0.3496433198451996
2.9887328147888184,-0.332752525806427,-0.04372788965702057,-0.005967139266431332,-0.12984684589358153,-1.5577015851007439,2.864343899359801,-0.9914968013763428,0.12948228418827057,-0.012984137050807476,0.18595871329307556,0.19884611666202545,-0.5313615202903748
3.0082287788391113,-0.281582772731781,-0.013847596943378448,-0.06688278913497925,-0.11847947503291967,-1.5547566786598987,2.8697857807285576,-0.9928619265556335,0.11820247769355774,-0.01592652127146721,0.32435593008995056,-0.019002845510840416,-0.5789685249328613
3.0280098915100098,-0.24302810430526733,-0.03771406412124634,-0.052578385919332504,-0.10679513674401497,-1.5554001790224579,2.8752244958040167,-0.9941849708557129,0.10659225285053253,-0.015307828783988953,0.20902806520462036,-0.12822245061397552,-0.5609310865402222
3.0476980209350586,-0.17890405654907227,-0.01131630688905716,-0.08339047431945801,-0.09783705816639028,-1.559375005874037,2.8805174594988068,-0.9951530694961548,0.09768104553222656,-0.011366456747055054,0.35547706484794617,-0.3101954460144043,-0.3113210201263428
3.068844795227051,-0.21734356880187988,0.09451249986886978,-0.07129830121994019,-0.09313734848737407,-1.5658863359185118,2.889050625495029,-0.9956541061401367,0.09300275146961212,-0.0048886919394135475,0.4292652904987335,-0.38874363899230957,-0.16070249676704407
3.087883949279785,-0.4132547974586487,0.0602143332362175,-0.08110636472702026,-0.090298984929228,-1.5694081306155045,2.896655476198983,-0.9959249496459961,0.09017632156610489,-0.0013825400965288281,0.28478220105171204,0.031171640381217003,-0.24640187621116638
3.1082987785339355,-0.47784149646759033,-0.06519914418458939,-0.019578158855438232,-0.0862410926960667,-1.5645793780507151,2.897962489306945,-0.9962645173072815,0.08613423258066177,-0.006193805020302534,-0.08597495406866074,0.3393702208995819,0.02867426536977291
3.1278300285339355,-0.3260071873664856,0.07328249514102936,-0.0568927526473999,-0.08986330299659284,-1.561581358826644,2.8951324359931316,-0.9959228038787842,0.08974240720272064,-0.009177655912935734,-0.1259121596813202,-0.06992044299840927,0.3139081597328186
3.147822856903076,-0.43833571672439575,0.2447974681854248,-0.1216878890991211,-0.09725949673740625,-1.5719913210786234,2.899427645841982,-0.9952734112739563,0.09710623323917389,0.001189346658065915,0.784320056438446,-1.034773588180542,0.26789700984954834
3.1678109169006348,-0.5606730580329895,0.15519645810127258,0.12018632888793945,-0.10321117174875816,-1.5911617460152605,2.915445108628013,-0.9944722056388855,0.10302802920341492,0.020255643874406815,0.699150562286377,-0.8830413222312927,0.4609638452529907
3.18753981590271,-0.6046011447906494,-0.15161654353141785,0.13585245609283447,-0.11419058612865796,-1.6051113472018501,2.9220129790977287,-0.9929024577140808,0.11394258588552475,0.03408484905958176,-0.09011566638946533,-0.5868691205978394,0.5760431885719299
3.207683801651001,-0.552433431148529,-0.010903418064117432,0.02990102767944336,-0.1262747941371724,-1.6173632668476734,2.915948075568528,-0.9909626841545105,0.1259394735097885,0.04617948457598686,-0.32514071464538574,-0.6403036117553711,0.6958860754966736
3.227581024169922,-0.4936385750770569,0.019634947180747986,-0.00962616503238678,-0.14143485920398718,-1.6335497262410463,2.90887684261149,-0.9880660772323608,0.14096379280090332,0.06208602339029312,-0.18544888496398926,-0.8974537253379822,0.7957919239997864
3.2465157508850098,-0.5382585525512695,0.06341016292572021,0.0022270679473876953,-0.15601781593498085,-1.651995387643345,2.906735073135694,-0.984599232673645,0.15538562834262848,0.08012470602989197,0.02987806499004364,-0.8984482288360596,0.7437979578971863
3.2674999237060547,-0.4976785182952881,-0.06897701323032379,0.012781500816345215,-0.17147013301462563,-1.6698878069038348,2.904051983144691,-0.9805015325546265,0.17063111066818237,0.09747860580682755,-0.23805484175682068,-0.773610532283783,0.8343257308006287
3.2877449989318848,-0.4632357358932495,-0.10690072178840637,-0.008473381400108337,-0.18743353142890085,-1.6859993520580714,2.894709675450249,-0.9759734869003296,0.18633799254894257,0.1129351556301117,-0.4842211604118347,-0.705599308013916,0.8640336990356445
3.307297706604004,-0.41427934169769287,-0.012337803840637207,-0.036239027976989746,-0.20331076821241145,-1.7023244591006839,2.8838766434187777,-0.9709441661834717,0.2019130140542984,0.12844803929328918,-0.3076419532299042,-0.7418503165245056,0.7978218793869019
3.327293872833252,-0.3811257481575012,0.034601837396621704,-0.008631482720375061,-0.21878742668072393,-1.7182447442659905,2.8786078458252162,-0.965569257736206,0.2170461118221283,0.1434124857187271,-0.029176507145166397,-0.6993957757949829,0.8092348575592041
3.3480818271636963,-0.3638787865638733,0.009329110383987427,-0.016632914543151855,-0.23554938808426482,-1.7328041921268793,2.875957229252136,-0.9596534371376038,0.23337723314762115,0.1568460315465927,0.001989934593439102,-0.6735865473747253,0.9454241394996643
3.3674418926239014,-0.3652980327606201,-0.00029900670051574707,-0.04229713976383209,-0.25691543940299066,-1.7466159044075564,2.870156773802206,-0.9522678852081299,0.25409844517707825,0.16917414963245392,-0.2309320569038391,-0.57789146900177,1.2401115894317627
3.3873488903045654,-0.35890674591064453,0.07371622323989868,-0.029269814491271973,-0.2803920818955047,-1.7594145960722598,2.8565872310408245,-0.9439040422439575,0.2767324447631836,0.18017937242984772,-0.605872631072998,-0.33578673005104065,1.2894295454025269
3.408545970916748,-0.2542612552642822,0.09614905714988708,-0.06298577785491943,-0.30438843167104823,-1.7709819151661643,2.8372538783965338,-0.9349783658981323,0.2997097671031952,0.18971015512943268,-0.7005013227462769,-0.2654161751270294,1.4918715953826904
3.4274158477783203,-0.16668397188186646,0.052281200885772705,-0.049167752265930176,-0.334200124887881,-1.7820928699615046,2.8159542830679083,-0.9236634373664856,0.32801365852355957,0.19812420010566711,-0.6775996088981628,-0.19529256224632263,1.7806758880615234
3.4468507766723633,-0.14114129543304443,0.13077312707901,-0.02533164620399475,-0.3643242503415238,-1.7919503359817663,2.794796825889363,-0.9116083383560181,0.3563179671764374,0.2049582153558731,-0.5242936015129089,-0.08176077157258987,1.5755184888839722
3.4668068885803223,0.004167139530181885,0.09167984127998352,-0.07206034660339355,-0.39329589784065483,-1.7991428455297882,2.781360363059646,-0.8996750712394714,0.38323473930358887,0.2090844064950943,-0.10253748297691345,-0.13764746487140656,1.5746008157730103
3.4867098331451416,0.11407822370529175,-0.03282707929611206,-0.050632476806640625,-0.423635497775813,-1.8054624291613472,2.772845734452926,-0.886615514755249,0.4110772907733917,0.21196378767490387,0.02821647748351097,-0.15576663613319397,1.5586167573928833
3.506906032562256,0.1875128149986267,-0.07603499293327332,-0.0604325532913208,-0.45336023717682084,-1.8141375167064762,2.76367401389001,-0.8724952340126038,0.4379887878894806,0.21660645306110382,-0.21126298606395721,-0.3379427492618561,1.551823377609253
3.5265018939971924,0.20142078399658203,-0.06896740198135376,0.015180110931396484,-0.4804592130936687,-1.8272658138843896,2.748745503119624,-0.8577777147293091,0.46218645572662354,0.22494767606258392,-0.29493841528892517,-0.2382732331752777,1.4021915197372437
3.5458106994628906,0.20366448163986206,-0.02753189206123352,-0.038691043853759766,-0.5052358888729401,-1.8358451141594587,2.738007797903917,-0.8445032238960266,0.4840138852596283,0.229227676987648,0.03793974593281746,-0.14705482125282288,1.2251403331756592
3.566844940185547,0.2884036898612976,-0.06276237964630127,-0.058884888887405396,-0.5288607668877797,-1.8400578455274685,2.7362155787296287,-0.8322727084159851,0.5045500993728638,0.22967667877674103,0.44571247696876526,-0.2097981870174408,1.1279126405715942
3.585667848587036,0.3293241858482361,-0.12781178951263428,-0.05936574935913086,-0.5533405703854453,-1.8425207119814393,2.741934296658983,-0.8195586800575256,0.5255322456359863,0.228341743350029,0.6097420454025269,-0.33783090114593506,1.0870027542114258
3.606614828109741,0.3150210380554199,-0.18889713287353516,0.0054782480001449585,-0.5754874825152257,-1.8463889275491427,2.7474846742184504,-0.8072696328163147,0.5442438125610352,0.22828656435012817,0.47915416955947876,-0.31012365221977234,0.9151378870010376
3.626276969909668,0.27823883295059204,-0.1523655652999878,-0.046104878187179565,-0.5947777685161489,-1.8467057753560074,2.7549082982472446,-0.7969463467597961,0.5603247284889221,0.22563998401165009,0.6552736759185791,-0.14271733164787292,0.7890750765800476
3.646469831466675,0.2996567487716675,-0.18028497695922852,-0.08808311820030212,-0.6125102723495482,-1.8430984810208764,2.766174808129645,-0.7880602478981018,0.5749232172966003,0.22005653381347656,0.7160710692405701,-0.16278521716594696,0.6980453729629517
3.6661388874053955,0.2937486171722412,-0.2416929006576538,-0.06070542335510254,-0.6298942181186244,-1.8395342700355133,2.7771372471744473,-0.7790849804878235,0.5890592932701111,0.2145599126815796,0.5794820785522461,-0.1034170612692833,0.7321001291275024
3.6861088275909424,0.2329283356666565,-0.21030938625335693,-0.04324306547641754,-0.6455863054261709,-1.8377743371923978,2.7828966959853334,-0.7704497575759888,0.6016668677330017,0.21072369813919067,0.25618231296539307,-0.07733219861984253,0.646528959274292
3.7052106857299805,0.1651971936225891,-0.11408323049545288,-0.03843638300895691,-0.6564189912435371,-1.8398013682711374,2.7816828500685062,-0.7636928558349609,0.6102839708328247,0.21054039895534515,0.008946403861045837,-0.06525902450084686,0.44880950450897217
3.7261719703674316,0.14678406715393066,-0.1153516173362732,-0.024835005402565002,-0.6655256048161912,-1.8425993902885751,2.7787608439869436,-0.7577155232429504,0.6174726486206055,0.21117551624774933,0.047666437923908234,-0.038626525551080704,0.5221961736679077
3.7449898719787598,0.14837241172790527,-0.18809586763381958,0.02408313751220703,-0.6778329973613331,-1.843430164410608,2.7758967898742766,-0.7501638531684875,0.6271065473556519,0.20974265038967133,0.04086074233055115,0.14655646681785583,0.6920616030693054
3.766207695007324,0.10686761140823364,-0.1123761534690857,-0.03761686384677887,-0.6909219990475163,-1.8406063844010812,2.7742617461818937,-0.7427777051925659,0.6372479796409607,0.20541788637638092,0.2637922763824463,0.2101268321275711,0.5640345811843872
3.785095691680908,0.11373358964920044,-0.08411175012588501,-0.06404522061347961,-0.7022744148163108,-1.8319943371700207,2.780368325829326,-0.7374823689460754,0.6459555625915527,0.19713252782821655,0.4635753333568573,0.25456053018569946,0.38212481141090393
3.80587100982666,0.1389254927635193,-0.12460225820541382,-0.028373822569847107,-0.7109936485367171,-1.817452395337816,2.793627079859327,-0.7347813248634338,0.6525869965553284,0.18500544130802155,0.7258838415145874,0.3732558488845825,0.21578896045684814
3.825697898864746,0.12588220834732056,-0.1595555543899536,-0.03639112412929535,-0.7170650984091607,-1.7965264662107272,2.8137728764823318,-0.7346165180206299,0.6571753621101379,0.1687001883983612,0.8363200426101685,0.4050932228565216,0.041434939950704575
3.844740867614746,0.13050276041030884,-0.22987425327301025,-0.024116992950439453,-0.719890669513174,-1.7770557781747844,2.8316530634926877,-0.7359411120414734,0.6593024730682373,0.1539846807718277,0.5030167102813721,0.34481871128082275,-0.06154930964112282
3.8657379150390625,0.15004897117614746,-0.20419305562973022,-0.045768722891807556,-0.7194839953109237,-1.7646228042516459,2.842440633064845,-0.738061785697937,0.6589966416358948,0.1448747217655182,0.3451695442199707,0.1963929980993271,-0.1291324645280838
3.884544849395752,0.15580666065216064,-0.16410231590270996,-0.02415764331817627,-0.71842169532366,-1.7540966617775924,2.8525353617465123,-0.7402336597442627,0.658197283744812,0.1372254192829132,0.41153818368911743,0.19881194829940796,-0.11757813394069672
3.9056320190429688,0.13451898097991943,-0.14616364240646362,-0.037667036056518555,-0.7174161977893851,-1.7424818259439518,2.865007561056736,-0.742429256439209,0.6574399471282959,0.12873166799545288,0.47585445642471313,0.1598077416419983,-0.13370661437511444
3.9244658946990967,0.11362975835800171,-0.15622562170028687,-0.03562868386507034,-0.7164934697066688,-1.732625132314807,2.8742922598114125,-0.744260311126709,0.6567444205284119,0.12150529772043228,0.1603699028491974,0.19932353496551514,-0.07659484446048737
3.945374011993408,0.09905999898910522,-0.1109393835067749,-0.06393252313137054,-0.715565753002689,-1.7271679045295418,2.8757030826867775,-0.7455139756202698,0.6560444831848145,0.1175367683172226,-0.06075311452150345,0.2786322236061096,-0.03757829591631889
3.964484691619873,0.10038954019546509,-0.05334341526031494,-0.1079186350107193,-0.7159981846889749,-1.7192401629154597,2.877363871245741,-0.7461415529251099,0.6563708186149597,0.11158090829849243,0.3217207193374634,0.42683809995651245,0.0916343554854393
3.98250675201416,0.095439612865448,0.12807363271713257,-0.1593405157327652,-0.7200838620675678,-1.6979903524486275,2.896941593981613,-0.745677649974823,0.6594477295875549,0.09536055475473404,1.1606537103652954,0.43060487508773804,0.09019721299409866
4.005193710327148,0.024441838264465332,0.026552140712738037,-0.09612154960632324,-0.7240756916127508,-1.665929899152959,2.930731670587222,-0.7457249164581299,0.6624433398246765,0.0711582750082016,1.277784824371338,0.5582420229911804,0.05201265960931778
4.025173902511597,0.05192798376083374,-0.09727698564529419,-0.07052325457334518,-0.7268957068039364,-1.6363065173104705,2.958506648827784,-0.7456384301185608,0.664553165435791,0.04891691356897354,0.7799023389816284,0.5379582047462463,0.07459181547164917
4.045667886734009,0.03782004117965698,-0.13886427879333496,-0.11698591709136963,-0.7294808897450383,-1.6159789354177017,2.9728344780685285,-0.744759738445282,0.6664827466011047,0.033673107624053955,0.32262781262397766,0.6004145741462708,0.11567626893520355
4.0656328201293945,0.026416301727294922,-0.16070681810379028,-0.10864806175231934,-0.7316007638205004,-1.5998036397729045,2.9761080854159103,-0.7437930703163147,0.6680616140365601,0.021581491455435753,-0.02470463328063488,0.7963032722473145,0.07099630683660507
4.08507776260376,0.06218397617340088,-0.13702207803726196,-0.12968528270721436,-0.7317400545105168,-1.5825084314252766,2.9761267746991145,-0.7439619898796082,0.6681652665138245,0.008713758550584316,0.1290178745985031,0.9392876625061035,-0.049071699380874634
4.1050310134887695,0.10970103740692139,-0.10105854272842407,-0.12440425157546997,-0.728260975259388,-1.5560541965691217,2.9864239223967606,-0.7462520599365234,0.6655727624893188,-0.01100214198231697,0.6430546045303345,1.0175501108169556,-0.3020165264606476
4.124825954437256,0.14163005352020264,-0.14854764938354492,-0.07548320293426514,-0.7187583019843606,-1.5214265005343008,3.0078146902786704,-0.7517069578170776,0.6584506630897522,-0.0371418222784996,0.9542986154556274,1.02839994430542,-0.5823637843132019
4.14480185508728,0.17876631021499634,-0.20846205949783325,-0.04038219153881073,-0.7028826788131072,-1.4856481097400285,3.0329031723461477,-0.7602177262306213,0.6464198231697083,-0.06488807499408722,1.0279693603515625,0.8908260464668274,-0.8143157958984375
4.1648478507995605,0.1969367265701294,-0.2510603666305542,-0.0026284903287887573,-0.6850321814659094,-1.4595795709858042,3.050211201298163,-0.7696143388748169,0.6326979398727417,-0.08594867587089539,0.2939468324184418,0.5868319272994995,-0.8506733775138855
4.184682846069336,0.10734432935714722,-0.2828366756439209,0.03666842728853226,-0.6674338809558249,-1.4561530125554278,3.040944891445949,-0.780256986618042,0.6189725399017334,-0.089845210313797,-0.6755854487419128,0.4012692868709564,-0.9692583680152893
4.204770803451538,0.04047834873199463,-0.1668948531150818,0.01977914571762085,-0.650059949652056,-1.4596366994232592,3.0199951774449034,-0.7911345958709717,0.6052341461181641,-0.0883062481880188,-0.6375804543495178,0.5450711846351624,-0.9615499973297119
4.22456169128418,0.03399312496185303,0.00020229816436767578,-0.014218263328075409,-0.6305582016075661,-1.455315979835037,3.00865039751393,-0.8023189306259155,0.5895957350730896,-0.09306614100933075,-0.01812589168548584,0.5448336601257324,-1.0976749658584595
4.244520902633667,0.006909728050231934,0.014039456844329834,0.0025574713945388794,-0.6065873975101814,-1.443389214073145,3.0112606075853883,-0.8149389028549194,0.5700669884681702,-0.10439448803663254,0.4788602590560913,0.5120713114738464,-1.2613343000411987
4.2650368213653564,-0.08457911014556885,-0.033991217613220215,0.03370678424835205,-0.5788030079713283,-1.4276207661352016,3.0206184136122745,-0.8285527229309082,0.54702228307724,-0.11944580078125,0.6020089387893677,0.5901877284049988,-1.425416111946106
4.284591913223267,-0.1574912667274475,-0.07111495733261108,0.05923260748386383,-0.5462592028173916,-1.410249420410987,3.0273065665737886,-0.8434853553771973,0.5194944739341736,-0.13659457862377167,0.41144075989723206,0.7708731293678284,-1.6873899698257446
4.303713798522949,-0.09658157825469971,-0.10052329301834106,0.061633169651031494,-0.5111492737716102,-1.395702684852388,3.0259342768420727,-0.8588476181030273,0.48917993903160095,-0.15193460881710052,0.05162374675273895,0.7222134470939636,-1.7674741744995117
4.3233537673950195,-0.07740890979766846,-0.1248750388622284,0.0593600869178772,-0.4770202542953135,-1.386672693023729,3.0161293669271196,-0.8733510971069336,0.4591341018676758,-0.16264674067497253,-0.27203571796417236,0.6381657123565674,-1.752426028251648
4.343184947967529,-0.14154458045959473,-0.13971742987632751,0.06273294985294342,-0.44435827727169896,-1.3816020461155305,2.9996765450033105,-0.8867757320404053,0.4298785626888275,-0.16980375349521637,-0.5788076519966125,0.6041503548622131,-1.738539695739746
4.364414691925049,-0.21095770597457886,-0.10620474815368652,0.09369492530822754,-0.4127131362146904,-1.3787510275123922,2.9765347687115646,-0.8991956114768982,0.4010961353778839,-0.174841046333313,-0.8754105567932129,0.6561636328697205,-1.784109115600586
4.383176803588867,-0.21458643674850464,-0.04217994213104248,0.12116503715515137,-0.3810298420976971,-1.3764714872774642,2.947313757355559,-0.9108104109764099,0.37187665700912476,-0.1792551428079605,-1.1719456911087036,0.6846311092376709,-1.8537025451660156
4.404047012329102,-0.17733293771743774,-0.04971054196357727,0.13555997610092163,-0.34991363197373254,-1.375748671230715,2.9132366216249745,-0.9215899109840393,0.34281668066978455,-0.18206867575645447,-1.3396022319793701,0.621870219707489,-1.7667714357376099
4.424221992492676,-0.1890084147453308,-0.04453268647193909,0.1594942808151245,-0.32263842036700635,-1.3753510668364708,2.87728825488211,-0.9303459525108337,0.317069947719574,-0.18418288230895996,-1.4842572212219238,0.6356989741325378,-1.594714879989624
4.442867755889893,-0.19415521621704102,0.00347784161567688,0.17608928680419922,-0.2977306431079521,-1.374036035554195,2.8381551685212556,-0.9375587701797485,0.2933514416217804,-0.18689240515232086,-1.6535511016845703,0.6635761857032776,-1.5672727823257446
4.463735818862915,-0.10549342632293701,0.018029093742370605,0.14893168210983276,-0.27548116617494456,-1.3737350234653791,2.797793875481482,-0.9436705112457275,0.2720099985599518,-0.1884060800075531,-1.7316588163375854,0.4916089177131653,-1.342922568321228
4.483784914016724,-0.05428171157836914,0.013864457607269287,0.13914018869400024,-0.25729069021999873,-1.37677727616588,2.7574083853156304,-0.9489380121231079,0.2544613480567932,-0.1864575743675232,-1.7138361930847168,0.30913296341896057,-1.2080782651901245
4.502799034118652,-0.053552865982055664,0.04410620033740997,0.12092477083206177,-0.2397075206922837,-1.3819518255615815,2.719542816807579,-0.9541376829147339,0.2374185174703598,-0.1823565810918808,-1.566810131072998,0.07510136812925339,-1.1882672309875488
4.523653984069824,-0.0093994140625,0.07574141025543213,0.11475956439971924,-0.22183466780036412,-1.391567316240246,2.6855668802433437,-0.9598695039749146,0.22001969814300537,-0.17390255630016327,-1.3375024795532227,-0.24457889795303345,-1.1712435483932495
4.542090892791748,-0.013752222061157227,0.12572915852069855,0.11110442876815796,-0.20299365201679498,-1.404960587921134,2.6556366420566615,-0.9660300016403198,0.20160241425037384,-0.1616872400045395,-1.2670882940292358,-0.4334874451160431,-1.186470627784729
4.565634727478027,-0.030444025993347168,0.17506325244903564,0.10361124575138092,-0.18153835154359035,-1.4189977389201283,2.6283835670280387,-0.9722568392753601,0.18054285645484924,-0.14873136579990387,-0.955916702747345,-0.4197610020637512,-1.3439366817474365
4.586331844329834,-0.003065645694732666,0.2714717388153076,0.06261412799358368,-0.15548459317470525,-1.4295999475954002,2.6100466271694214,-0.9781052470207214,0.15485885739326477,-0.1390300691127777,-0.4876469671726227,-0.35190579295158386,-1.482940912246704
4.601832866668701,0.044755637645721436,0.31201761960983276,0.04929254949092865,-0.12546033805481208,-1.4374996008035057,2.5988109626980087,-0.983339250087738,0.12513147294521332,-0.13185778260231018,-0.2336311936378479,-0.2842755913734436,-1.6436033248901367
4.620731830596924,0.08038300275802612,0.270060271024704,-0.002441808581352234,-0.09306534994934462,-1.4446588570482102,2.590963201749948,-0.9877622127532959,0.09293106943368912,-0.12525884807109833,-0.1774725764989853,-0.3473195433616638,-1.6201978921890259
4.639933824539185,0.11097121238708496,0.2540290057659149,-0.026358067989349365,-0.06273883692140303,-1.45375920563591,2.581310856037068,-0.991205096244812,0.06269768625497818,-0.11654039472341537,-0.4279349148273468,-0.5082586407661438,-1.5092982053756714
4.659881830215454,0.11299800872802734,0.30717733502388,-0.05769829452037811,-0.03502342324104323,-1.4662837986938058,2.5675582306760893,-0.9939336776733398,0.0350162647664547,-0.10425840318202972,-0.5876275300979614,-0.6429620981216431,-1.3969078063964844
4.679147720336914,0.09471285343170166,0.4219338297843933,-0.09483234584331512,-0.009020265873279362,-1.4794476576529965,2.553908850146722,-0.9957900643348694,0.009020143188536167,-0.09121796488761902,-0.5027115345001221,-0.6311147809028625,-1.3601640462875366
4.699949741363525,0.0751115083694458,0.4810762107372284,-0.1265431046485901,0.01809502975836615,-1.4911418584493923,2.542979828356941,-0.9966661334037781,-0.01809404231607914,-0.07955724000930786,-0.37640297412872314,-0.5217012763023376,-1.4334522485733032
4.719876766204834,0.10517948865890503,0.4833143353462219,-0.1387961506843567,0.04651776208814503,-1.4999842493813962,2.5346135204544384,-0.9964150786399841,-0.04650098830461502,-0.07067639380693436,-0.2196597307920456,-0.4239286780357361,-1.428551435470581
4.743186950683594,0.13916945457458496,0.45817697048187256,-0.16825568675994873,0.07203931931390696,-1.5081051770495653,2.5292840961776797,-0.9954471588134766,-0.07197702676057816,-0.062487613409757614,-0.16203561425209045,-0.44067126512527466,-1.133533000946045
4.762452840805054,0.10648608207702637,0.4499552845954895,-0.22100800275802612,0.0913941179031013,-1.5171715312662426,2.5250638456388708,-0.9943950772285461,-0.0912669375538826,-0.053375404328107834,-0.15268144011497498,-0.5097411870956421,-0.846296489238739
4.779891014099121,0.0776294469833374,0.50968998670578,-0.2525344491004944,0.10661731295509524,-1.5270480942818185,2.521479708342377,-0.9933704733848572,-0.10641543567180634,-0.04348595067858696,-0.12930931150913239,-0.5017252564430237,-0.7096474170684814
4.799921989440918,0.07064473628997803,0.5385521650314331,-0.2861470580101013,0.11940210837103224,-1.5367944304960945,2.519389144480961,-0.9923063516616821,-0.1191185936331749,-0.03375330567359924,-0.010725527070462704,-0.49833109974861145,-0.5624905824661255
4.819917917251587,0.056655287742614746,0.5339309573173523,-0.295484721660614,0.1285074131517314,-1.5462059700901014,2.51952008283705,-0.9914546012878418,-0.12815400958061218,-0.024385137483477592,0.026184460148215294,-0.4477643072605133,-0.3635641932487488
4.842496871948242,0.022834599018096924,0.5396232604980469,-0.31189924478530884,0.13466496966400382,-1.5549298993845415,2.5203009530358815,-0.990821897983551,-0.13425831496715546,-0.01572212390601635,0.097516730427742,-0.42056766152381897,-0.25277042388916016
4.862803936004639,-0.0015619397163391113,0.5664000511169434,-0.33650118112564087,0.13851308084731997,-1.5635853171334295,2.5240900706389575,-0.9903969168663025,-0.13807058334350586,-0.007141885347664356,0.2886474132537842,-0.3970845341682434,-0.14510637521743774
4.881615877151489,-0.0329778790473938,0.5833667516708374,-0.34246790409088135,0.14086957320488222,-1.572167697597091,2.531711891621429,-0.9900935292243958,-0.1404041200876236,0.0013577862409874797,0.4573999345302582,-0.3561515808105469,-0.09378302842378616
4.902684688568115,-0.057151973247528076,0.566918134689331,-0.3309863805770874,0.14165594746066995,-1.5805304294629452,2.541424902934574,-0.989936888217926,-0.14118266105651855,0.009636451490223408,0.4934621751308441,-0.38034239411354065,0.03046106919646263
4.922513961791992,-0.20688819885253906,0.5498214960098267,-0.3538264036178589,0.13882906045080415,-1.5908788016014443,2.552897841935098,-0.9901793003082275,-0.13838353753089905,0.019887924194335938,0.7153726816177368,-0.44146105647087097,0.21387681365013123
4.9426188468933105,-0.4284013509750366,0.6079119443893433,-0.41503119468688965,0.1348399779277385,-1.599002460315005,2.5715983851587967,-0.9905288219451904,-0.13443174958229065,0.02794639952480793,1.1353362798690796,-0.10542020946741104,0.0805356353521347
4.9624598026275635,-0.31038618087768555,0.645656406879425,-0.41496944427490234,0.13315590392208532,-1.6023528760642411,2.597101004622539,-0.9906545877456665,-0.13276275992393494,0.03127202019095421,1.3451366424560547,0.09110759198665619,0.10081812739372253
4.982304811477661,-0.21757417917251587,0.5410720109939575,-0.27313554286956787,0.12535394327448884,-1.6005171616029867,2.6219592271949512,-0.9917154908180237,-0.1250259131193161,0.029483294114470482,1.0596319437026978,0.4554474651813507,0.6098790168762207
5.0023298263549805,-0.2966803312301636,0.39272814989089966,-0.1658533811569214,0.10799533728480724,-1.5886990260750353,2.6372447933732825,-0.994015097618103,-0.10778553783893585,0.017797455191612244,0.5424836277961731,0.8551198840141296,1.0789963006973267
5.020510911941528,-0.3018186092376709,0.3699103593826294,-0.15695130825042725,0.08139547808959183,-1.5713163548280944,2.6466497881948685,-0.9966892004013062,-0.08130563050508499,0.0005183063331060112,0.5407944321632385,0.904998242855072,1.5189918279647827
5.0425848960876465,-0.3124813437461853,0.44792622327804565,-0.14151716232299805,0.0496311694222946,-1.555082293947993,2.66307267392498,-0.9986454844474792,-0.04961079731583595,-0.015694038942456245,1.1298515796661377,0.8021905422210693,1.5881803035736084
5.05943489074707,-0.29885274171829224,0.44988545775413513,-0.07776522636413574,0.019115758367743374,-1.5407177590772727,2.6937789020643903,-0.9993651509284973,-0.019114594906568527,-0.030068540945649147,1.8798753023147583,0.7559612393379211,1.528896450996399
5.081093788146973,-0.19550496339797974,0.36376577615737915,-0.012529909610748291,-0.009662703120046587,-1.5257223237964117,2.7393896886331253,-0.9989379048347473,0.009662552736699581,-0.045056648552417755,2.5736899375915527,0.7565097212791443,1.550462245941162
5.099901914596558,-0.080974280834198,0.27494940161705017,0.034477174282073975,-0.03907117273690329,-1.5093171724136778,2.7979221428045205,-0.997349202632904,0.03906123340129852,-0.061393555253744125,3.090487003326416,0.7431356310844421,1.6982277631759644
5.122040748596191,-0.056146323680877686,0.19615721702575684,0.08967292308807373,-0.069110838899113,-1.490213092601428,2.8645779283216646,-0.9943756461143494,0.06905583292245865,-0.08030389994382858,3.302647590637207,0.8171021938323975,1.755281686782837
5.141878843307495,-0.04697871208190918,0.1342782974243164,0.1320953220129013,-0.09787256496416885,-1.4669799697627355,2.9335052398192696,-0.9898562431335449,0.09771638363599777,-0.10313405096530914,3.24517560005188,0.9357238411903381,1.7352383136749268
5.161922931671143,-0.02206599712371826,0.08231353759765625,0.17428022623062134,-0.1247972729300789,-1.4398814103691602,2.998864362178961,-0.9837324619293213,0.12447358667850494,-0.1295260637998581,2.8900058269500732,1.034867525100708,1.6990305185317993
5.181847810745239,-0.01304560899734497,0.012954190373420715,0.1924033761024475,-0.15042375997884108,-1.4105749087704942,3.057199580048193,-0.9760444760322571,0.14985711872577667,-0.15773527324199677,2.4521121978759766,1.0956096649169922,1.6834003925323486
5.201758861541748,-0.020400047302246094,-0.028451010584831238,0.2229379564523697,-0.1752822595299258,-1.3800223211771394,3.1064268059392792,-0.9668132066726685,0.17438608407974243,-0.18671347200870514,1.9207555055618286,1.1651766300201416,1.5975502729415894
5.220716953277588,-0.020211100578308105,-0.06432406604290009,0.24800904095172882,-0.19856084214473124,-1.348856070557195,-3.136775273229791,-0.956305742263794,0.19725865125656128,-0.21579764783382416,1.4706206321716309,1.218970537185669,1.4994395971298218
5.241783857345581,-0.0029295682907104492,-0.06516335904598236,0.2831173539161682,-0.22088587261358228,-1.3174143870705743,-3.104648494732347,-0.9445497989654541,0.21909405291080475,-0.24458879232406616,1.1145020723342896,1.2616548538208008,1.3904199600219727
5.261575698852539,-0.02540135383605957,-0.03008049726486206,0.2909083962440491,-0.24016145546321982,-1.2852910589118633,-3.0759170692447606,-0.9319809079170227,0.23785945773124695,-0.2735590636730194,1.107095718383789,1.2900800704956055,1.2200771570205688
5.28144383430481,-0.05978715419769287,-0.016141891479492188,0.3374393880367279,-0.25499555628156645,-1.2520652373068324,-3.0470861136650726,-0.9189268946647644,0.2522411048412323,-0.30322909355163574,1.1265368461608887,1.32710599899292,1.025599479675293
5.300605773925781,-0.08810383081436157,-0.09371408820152283,0.3995541036128998,-0.2662676205227969,-1.2183042683579024,-3.0198409714980934,-0.9054417610168457,0.2631324231624603,-0.33307144045829773,0.950354814529419,1.3334393501281738,0.9333537220954895
5.321500778198242,-0.12156867980957031,-0.1392248570919037,0.4357394576072693,-0.27733366724731895,-1.1860967559249185,-2.9976717380252906,-0.8914929628372192,0.27379217743873596,-0.3609408140182495,0.652379035949707,1.2888734340667725,0.8554083108901978
5.34106183052063,-0.12709832191467285,-0.15494981408119202,0.462785005569458,-0.2880360489730447,-1.1564715626632156,-2.9813174652032974,-0.8776777982711792,0.2840697169303894,-0.38598746061325073,0.3782409727573395,1.2162364721298218,0.74399334192276
5.361740827560425,-0.08821356296539307,-0.19228947162628174,0.48576757311820984,-0.29892479316023274,-1.1302529256231348,-2.9706380195000484,-0.8644079566001892,0.29449284076690674,-0.4075203835964203,0.11329704523086548,1.0774182081222534,0.6703009009361267
5.381147861480713,-0.06861990690231323,-0.2276717722415924,0.4776039719581604,-0.3097657314499483,-1.1084988192022318,-2.963736361523509,-0.8524313569068909,0.3048355281352997,-0.4247780442237854,0.026745202019810677,0.8719789981842041,0.5908215045928955
5.401027679443359,-0.0862235426902771,-0.2457217574119568,0.46253708004951477,-0.31963332857913934,-1.0913675529640643,-2.9576674298671617,-0.8423195481300354,0.3142184913158417,-0.4379093050956726,0.04468630626797676,0.6351997256278992,0.5131490230560303
5.4200708866119385,-0.1319320797920227,-0.2550859749317169,0.46382936835289,-0.3272888595600822,-1.0792104007748005,-2.952281008497417,-0.8347885608673096,0.3214769959449768,-0.44696834683418274,0.05672911927103996,0.4034101068973541,0.3724299967288971
5.440918922424316,-0.17427438497543335,-0.2888539135456085,0.4956536889076233,-0.33240176908851643,-1.0709547282188394,-2.948656300980334,-0.8296167254447937,0.3263142704963684,-0.4530510902404785,-0.030930597335100174,0.29463016986846924,0.2340545654296875
5.460900783538818,-0.1980230212211609,-0.3547450602054596,0.5238186717033386,-0.3367836280705355,-1.0663988107678488,-2.94910423686952,-0.8262843489646912,0.33045312762260437,-0.45613062381744385,-0.24953144788742065,0.18927064538002014,0.12348508089780807
5.479928016662598,-0.17427170276641846,-0.42018193006515503,0.517416775226593,-0.34138636230599567,-1.0654749330325366,-2.9556016147515773,-0.8245229721069336,0.3347937762737274,-0.45615270733833313,-0.5027443766593933,0.04806389659643173,-0.006089098751544952
5.501078844070435,-0.22806775569915771,-0.43679311871528625,0.4748087227344513,-0.34694020936550635,-1.0748688968075388,-2.967536414140885,-0.8271233439445496,0.34002190828323364,-0.44749537110328674,-0.7472767233848572,-0.5571069121360779,-0.05598801374435425
5.520640850067139,-0.5616020560264587,-0.4252621829509735,0.5352481603622437,-0.35220727728307494,-1.092635537386544,-2.985489003743743,-0.8333412408828735,0.3449704349040985,-0.4319002330303192,-1.027199149131775,-0.5060195922851562,-0.34621167182922363
5.540613889694214,-0.5727367997169495,-0.4241787791252136,0.5766343474388123,-0.3515571361407127,-1.1098491133302846,-3.0160100923570776,-0.8408527374267578,0.3443601131439209,-0.4175918996334076,-1.5105667114257812,-0.223955899477005,-0.9900386333465576
5.561158895492554,-0.17284178733825684,-0.312985897064209,0.3925727903842926,-0.34600200656076996,-1.132506132710929,-3.056304154124438,-0.8518164157867432,0.339139461517334,-0.39924079179763794,-1.5225739479064941,-0.7651262283325195,-1.0730390548706055
5.580590724945068,-0.14287054538726807,-0.18493816256523132,0.2015981674194336,-0.33756838593431704,-1.164566791555292,-3.0880242194883154,-0.8667731285095215,0.3311936855316162,-0.3728474974632263,-0.8255545496940613,-1.2891472578048706,-0.9721620678901672
5.600381851196289,-0.2802378535270691,-0.16774415969848633,0.19067522883415222,-0.3220075626675703,-1.1956613542530719,-3.106776070973947,-0.8826345205307007,0.31647157669067383,-0.34756597876548767,-0.2847921550273895,-1.1810808181762695,-1.1709238290786743
5.620451927185059,-0.24378955364227295,-0.23776105046272278,0.19808682799339294,-0.3015288301447019,-1.2218589659619568,-3.119920193423274,-0.8973390460014343,0.2969804108142853,-0.326474130153656,-0.25937819480895996,-1.0494152307510376,-1.1312938928604126
5.64001989364624,-0.18481844663619995,-0.2859104573726654,0.2024267315864563,-0.2842129439526554,-1.2466934028083607,-3.136654169182158,-0.9099082350730896,0.2804020643234253,-0.30568286776542664,-0.745867908000946,-0.9394121170043945,-1.0813754796981812
5.6603617668151855,-0.15563857555389404,-0.31770622730255127,0.21142840385437012,-0.2699634011296928,-1.2721811560638878,3.1176624068688037,-0.9211284518241882,0.26669615507125854,-0.28354135155677795,-1.4844673871994019,-0.8197059035301208,-1.1368073225021362
5.6803669929504395,-0.10506200790405273,-0.2716919183731079,0.161766916513443,-0.25666316205198647,-1.2989682242285685,3.075524904627409,-0.9317269921302795,0.2538544535636902,-0.25969770550727844,-1.9807043075561523,-0.7867631316184998,-1.2999045848846436
5.700251817703247,-0.03245425224304199,-0.12065663933753967,0.0810043215751648,-0.24075846528597183,-1.3271564329201335,3.0271567616445876,-0.9424756169319153,0.23843927681446075,-0.23427873849868774,-2.1349802017211914,-0.8607184290885925,-1.4476491212844849
5.720017910003662,0.0006569027900695801,-0.00990191102027893,0.03440648317337036,-0.21917198544393832,-1.3569419004382077,2.9774839219520093,-0.9538430571556091,0.2174214869737625,-0.2071511596441269,-2.073627233505249,-0.9622622132301331,-1.7404234409332275
5.73992395401001,0.02609044313430786,0.05550110340118408,0.025541067123413086,-0.19232546118600607,-1.3862075482023917,2.929573337366834,-0.9648875594139099,0.1911419928073883,-0.18015825748443604,-2.015465259552002,-0.9891888499259949,-1.8005702495574951
5.759923934936523,0.024860918521881104,0.12219764292240143,0.010173752903938293,-0.16358037473802084,-1.414335026097151,2.883911077165011,-0.9745985269546509,0.16285182535648346,-0.15374356508255005,-1.901211142539978,-1.0132176876068115,-1.8019863367080688
5.779923915863037,0.0012468695640563965,0.25009405612945557,-0.05604583024978638,-0.132911090289157,-1.4407777067317653,2.844512751937961,-0.982814371585846,0.13252010941505432,-0.12850913405418396,-1.480919361114502,-1.062167763710022,-1.7998087406158447
5.799994945526123,-0.006472229957580566,0.3731442093849182,-0.12837928533554077,-0.09995303424559222,-1.4666881090589101,2.8154113746464255,-0.9896216988563538,0.0997866839170456,-0.10340159386396408,-0.9632992148399353,-1.203792691230774,-1.8192284107208252
5.8199238777160645,-0.0019086599349975586,0.43072274327278137,-0.1809767484664917,-0.06529536132844718,-1.4920945266193633,2.799864779697516,-0.9947804808616638,0.06524897366762161,-0.07845305651426315,-0.37683773040771484,-1.210952877998352,-1.7625716924667358
5.839915752410889,0.04208296537399292,0.4499545097351074,-0.20253634452819824,-0.03192348668088033,-1.5173138662307137,2.7924389747702345,-0.9980614185333252,0.03191806375980377,-0.0534297339618206,-0.13690076768398285,-1.2772197723388672,-1.6084034442901611
5.859951019287109,0.050234079360961914,0.4734490215778351,-0.27522820234298706,-0.0028083024291355643,-1.542844008245741,2.790904558458294,-0.999605655670166,0.002808298682793975,-0.027948575094342232,0.07171730697154999,-1.25956392288208,-1.310691237449646
5.880003929138184,0.030122220516204834,0.5021147131919861,-0.35646164417266846,0.020915066571048215,-1.5665851967482898,2.793091061364962,-0.9997727274894714,-0.020913541316986084,-0.0042101978324353695,0.17481347918510437,-1.114068627357483,-1.0680276155471802
5.899937868118286,0.06988853216171265,0.49560120701789856,-0.39747321605682373,0.039236155217810854,-1.586767154766317,2.794904008738312,-0.9991031289100647,-0.03922608867287636,0.01595786027610302,-0.10215821117162704,-0.9236622452735901,-0.7724729776382446
5.919911861419678,0.09058153629302979,0.4319145381450653,-0.3870811462402344,0.05231497969060337,-1.603496988111875,2.786588863745561,-0.9980980753898621,-0.05229112133383751,0.03265010565519333,-0.7861518859863281,-0.7587130665779114,-0.5194410681724548
5.939921855926514,0.05859029293060303,0.4304717779159546,-0.4211757183074951,0.060360747362961646,-1.6149918134550503,2.766647755533415,-0.9972043037414551,-0.06032410264015198,0.044100645929574966,-1.1295474767684937,-0.501470685005188,-0.22392798960208893
5.9599127769470215,0.05107063055038452,0.5478775501251221,-0.5000172853469849,0.06440156998976855,-1.6215388098959795,2.746059433421658,-0.9966425895690918,-0.06435706466436386,0.050615571439266205,-0.8690979480743408,-0.32306206226348877,-0.1238115057349205
5.979922771453857,0.04402172565460205,0.6314212083816528,-0.5606745481491089,0.06735470961578786,-1.6273109179846332,2.7355234074882055,-0.9961397051811218,-0.06730379164218903,0.05635644122958183,-0.1585715115070343,-0.3260993957519531,-0.10393641889095306
5.9999237060546875,-0.01579582691192627,0.6616288423538208,-0.5518152713775635,0.06858873858558263,-1.6329142617875183,2.738591689317501,-0.9957245588302612,-0.0685349702835083,0.0619320310652256,0.3558265268802643,-0.18514211475849152,-0.05326218158006668
6.019923686981201,-0.07447105646133423,0.5822657942771912,-0.4493117332458496,0.06866311789413496,-1.6350957663753385,2.744936166405468,-0.995582103729248,-0.06860917806625366,0.06410373747348785,0.19946715235710144,-0.02339928038418293,0.05812089145183563
6.03991174697876,-0.25134849548339844,0.5355998873710632,-0.4175182580947876,0.06341341948550867,-1.6344971130343304,2.7462199254330266,-0.9959661960601807,-0.06337092816829681,0.06352978199720383,0.03771886229515076,0.15045364201068878,0.4529823362827301
6.060745716094971,-0.4864885210990906,0.6290174126625061,-0.4387397766113281,0.053221640088988956,-1.6268323164957919,2.7480951819567405,-0.9970167875289917,-0.05319651961326599,0.055927373468875885,0.25121045112609863,0.6274970173835754,0.47138985991477966
6.080024719238281,-0.35370439291000366,0.6997421383857727,-0.42985522747039795,0.043857171471453286,-1.6122909596545272,2.7562341534959915,-0.9981786608695984,-0.043843112885951996,0.04144284501671791,0.5949411392211914,0.8246930241584778,0.5264888405799866
6.099956035614014,-0.1946609616279602,0.6302027106285095,-0.29675424098968506,0.027743508270576544,-1.5955595225371462,2.7683562823108856,-0.9993088841438293,-0.02773994952440262,0.024751141667366028,0.5895630717277527,0.9136130809783936,1.052226185798645
6.119954824447632,-0.32711225748062134,0.5042394995689392,-0.14980745315551758,0.0017675932087816873,-1.5748215004314232,2.7780234144031266,-0.9999905228614807,-0.0017675922717899084,0.004025157541036606,0.44332170486450195,1.176999568939209,1.4945334196090698
6.139956951141357,-0.43266934156417847,0.479780375957489,-0.13350272178649902,-0.03125683188683084,-1.5498226571518365,2.788393389410168,-0.9992918372154236,0.03125174343585968,-0.02096189185976982,0.6585100293159485,1.229380488395691,1.7574671506881714
6.159955024719238,-0.4208180904388428,0.5010576248168945,-0.12144029140472412,-0.06716910287853405,-1.5255390659070551,2.808230864362741,-0.9967234134674072,0.06711860746145248,-0.04513979330658913,1.2418866157531738,1.1119904518127441,1.8873701095581055
6.180172920227051,-0.39327847957611084,0.4523032307624817,-0.06096869707107544,-0.1040827215135176,-1.5008827984445356,2.841993263497509,-0.9921586513519287,0.10389489680528641,-0.06947854906320572,1.893723964691162,1.076825499534607,1.9884282350540161
6.200019836425781,-0.3555195927619934,0.34345465898513794,0.04090529680252075,-0.1404354329456968,-1.472987765675273,2.88744274568315,-0.9854229092597961,0.13997428119182587,-0.0966913253068924,2.256653070449829,1.1774473190307617,2.006662607192993
6.219934940338135,-0.2698665261268616,0.23672185838222504,0.11862720549106598,-0.17614438542504465,-1.4396692949003425,2.9402297086930194,-0.9760746359825134,0.17523492872714996,-0.12872841954231262,2.480933427810669,1.300460934638977,2.14772891998291
6.240049839019775,-0.20045554637908936,0.14566107094287872,0.18401886522769928,-0.21173720353373218,-1.4019215991071028,2.996926694918449,-0.9637595415115356,0.21015861630439758,-0.16431966423988342,2.4856457710266113,1.3671287298202515,2.205324172973633
6.259918689727783,-0.17592132091522217,0.06003028154373169,0.24144601821899414,-0.2463321935515299,-1.3611314402721462,3.0544944281181543,-0.9485752582550049,0.243848517537117,-0.20184935629367828,2.362377643585205,1.4264976978302002,2.250135660171509
6.279902935028076,-0.17553818225860596,-0.01707252860069275,0.3175143599510193,-0.27975587155670634,-1.3172866791514894,3.109640341866716,-0.9304037094116211,0.27612102031707764,-0.24105249345302582,2.044693946838379,1.5155096054077148,2.220637798309326
6.299921989440918,-0.18796175718307495,-0.08021989464759827,0.3759194016456604,-0.31161824597747484,-1.2721085304802353,-3.12405677837731,-0.9096946120262146,0.30659934878349304,-0.28009411692619324,1.6501092910766602,1.5693671703338623,2.1405088901519775
6.319933891296387,-0.20366764068603516,-0.12244081497192383,0.4237173795700073,-0.3419408308534268,-1.2266936686033774,-3.0810649400507923,-0.8868781328201294,0.33531618118286133,-0.31782132387161255,1.270801305770874,1.5946708917617798,2.0276918411254883
6.339927911758423,-0.2067132592201233,-0.14208775758743286,0.4613136649131775,-0.3705407869903482,-1.1819530753449536,-3.044004755608023,-0.862546443939209,0.36211955547332764,-0.3533881902694702,0.9696831703186035,1.594597578048706,1.8964463472366333
6.359921932220459,-0.1854456663131714,-0.1617366373538971,0.4989005923271179,-0.39693140078867095,-1.138228567196104,-3.01147009397081,-0.8373051881790161,0.3865901529788971,-0.38661104440689087,0.7673666477203369,1.5679237842559814,1.7333183288574219
6.379990816116333,-0.14773213863372803,-0.21522584557533264,0.5424686670303345,-0.4210205865801653,-1.0962007759390984,-2.982428771943349,-0.8118017315864563,0.4086921215057373,-0.4170719087123871,0.5744869709014893,1.468953251838684,1.6185451745986938
6.3999388217926025,-0.12331724166870117,-0.2456112504005432,0.5617905855178833,-0.44344350452011827,-1.0567325988468705,-2.9560888539121075,-0.7865339517593384,0.4290524423122406,-0.44416049122810364,0.5094366669654846,1.370958924293518,1.4915225505828857
6.419957876205444,-0.09064245223999023,-0.24957388639450073,0.5602796077728271,-0.4623427608317777,-1.0195747699857671,-2.9296570587785165,-0.7624460458755493,0.4460461139678955,-0.4687420725822449,0.5971354842185974,1.1927545070648193,1.3465369939804077
6.439917802810669,-0.0488048791885376,-0.27054014801979065,0.570593535900116,-0.4764588408316553,-0.985445490384113,-2.901728350083639,-0.7406849265098572,0.4586353003978729,-0.4909578859806061,0.7530856728553772,0.9559239745140076,1.1942819356918335
6.459928035736084,-0.04042249917984009,-0.3144310414791107,0.5821775197982788,-0.4861753604305346,-0.9553866452707416,-2.872549606606946,-0.721921980381012,0.4672478437423706,-0.510400116443634,0.8244656920433044,0.694942057132721,1.0683293342590332
6.479959011077881,-0.06874573230743408,-0.3449214696884155,0.5985352396965027,-0.4925583994398725,-0.9308337067441369,-2.844914305160708,-0.7067670822143555,0.4728817045688629,-0.5261780023574829,0.7768393754959106,0.46564266085624695,0.8724653720855713
6.499914884567261,-0.10546880960464478,-0.3690515458583832,0.5976743698120117,-0.49571962699458716,-0.912273160943948,-2.820483420847661,-0.6956939697265625,0.47566476464271545,-0.5382871031761169,0.7436924576759338,0.23031145334243774,0.6835393905639648
6.519914865493774,-0.1547631025314331,-0.37225794792175293,0.6029170751571655,-0.4964160526121138,-0.8999958090537468,-2.8002602261112175,-0.6887733936309814,0.47627726197242737,-0.5465816259384155,0.6329928040504456,0.035237401723861694,0.42946478724479675
6.539914846420288,-0.19088762998580933,-0.39741092920303345,0.6124019622802734,-0.4940647924466329,-0.894139335771405,-2.786888148369049,-0.6864317655563354,0.4742085039615631,-0.5513057112693787,0.42026829719543457,-0.06983034312725067,0.12723857164382935
6.559903860092163,-0.14868700504302979,-0.4081045687198639,0.5954962372779846,-0.48987219337413007,-0.8952301557272665,-2.7817785409387366,-0.6885781288146973,0.47051310539245605,-0.5517950057983398,0.21266286075115204,-0.3187570869922638,-0.1713421642780304
6.579308032989502,-0.11512672901153564,-0.3963882327079773,0.5729550123214722,-0.4828844145120529,-0.908716330278315,-2.78419163793984,-0.6985329985618591,0.46433570981025696,-0.5444667935371399,0.08737680315971375,-0.9563777446746826,-0.5051168203353882
6.599916934967041,-0.3146439790725708,-0.31903037428855896,0.5389188528060913,-0.47197983026385576,-0.935152542388209,-2.7924280745678214,-0.7167129516601562,0.45465055108070374,-0.5287869572639465,0.04585571214556694,-1.1880031824111938,-0.8435449004173279
6.619916915893555,-0.5679769515991211,-0.23309406638145447,0.48891639709472656,-0.45074838982427434,-0.95999019985774,-2.8023240666941143,-0.737366795539856,0.43563929200172424,-0.5162448287010193,0.4896644353866577,-0.838810920715332,-1.433921456336975
6.639916896820068,-0.3245670795440674,-0.16858112812042236,0.39180701971054077,-0.4163456578369122,-0.9795590799593701,-2.811678217958619,-0.7593258023262024,0.40442100167274475,-0.5097726583480835,0.7361775040626526,-0.8743700981140137,-1.8048614263534546
6.6599438190460205,-0.06732052564620972,-0.18097952008247375,0.2526871860027313,-0.37901485136979857,-1.0063918669234704,-2.817289281051266,-0.7849439382553101,0.37000542879104614,-0.49694979190826416,0.8551351428031921,-1.625441312789917,-1.5533180236816406
6.679916858673096,-0.2037198543548584,-0.22218197584152222,0.18985965847969055,-0.346035635048747,-1.0430727347964117,-2.8177291404382467,-0.8127444386482239,0.3391711115837097,-0.4737187922000885,0.8003697395324707,-1.8869829177856445,-1.3444474935531616
6.699917793273926,-0.3715657591819763,-0.21741026639938354,0.18323951959609985,-0.31628529502844566,-1.078507072977392,-2.818825672332011,-0.8375407457351685,0.3110382556915283,-0.44920018315315247,0.4978049099445343,-1.62056565284729,-1.3020883798599243
6.719038009643555,-0.27157825231552124,-0.19994127750396729,0.1816868782043457,-0.2925517888117535,-1.1121716985340777,-2.828178627094294,-0.858564019203186,0.28839653730392456,-0.42390480637550354,-0.2533564269542694,-1.4994460344314575,-1.202433705329895
6.739965915679932,-0.2128124237060547,-0.25171080231666565,0.1900516152381897,-0.2787598815781027,-1.1476513696448098,-2.8516488991246693,-0.8766041994094849,0.2751636207103729,-0.39477869868278503,-1.2155137062072754,-1.3662688732147217,-1.0079147815704346
6.7599968910217285,-0.23112303018569946,-0.28032535314559937,0.2026745080947876,-0.27433901947576556,-1.1830543158097173,-2.8910158221863815,-0.8911457657814026,0.27091073989868164,-0.36395981907844543,-2.041095733642578,-1.1064995527267456,-0.9119822382926941
6.7799248695373535,-0.18694913387298584,-0.20905756950378418,0.17937839031219482,-0.27431351797844616,-1.2176257124489571,-2.9425193147849944,-0.9031999111175537,0.2708861827850342,-0.33294275403022766,-2.561666965484619,-0.9952880144119263,-0.9151833653450012
6.799928903579712,-0.13184136152267456,-0.11590209603309631,0.13652098178863525,-0.27331445546291916,-1.254069820769342,-3.0026668210140928,-0.9149879813194275,0.2699243426322937,-0.299896776676178,-2.835787534713745,-1.0304503440856934,-1.1012022495269775
6.819913864135742,-0.09529542922973633,-0.05568942427635193,0.08737331628799438,-0.26683733489274664,-1.2925766724739054,-3.0657853963528936,-0.9275165796279907,0.2636820375919342,-0.26492446660995483,-2.7446787357330322,-1.1315888166427612,-1.2994637489318848
6.839942932128906,-0.07675552368164062,0.02631285786628723,0.039598703384399414,-0.2533037865488616,-1.330761378737015,-3.1242961671799354,-0.9403344392776489,0.25060367584228516,-0.23015037178993225,-2.366220235824585,-1.1818480491638184,-1.4715781211853027
6.85991096496582,-0.08116334676742554,0.11800357699394226,-0.04377239942550659,-0.23126618883941244,-1.3668285659010497,3.1097675591072833,-0.9531995058059692,0.22921018302440643,-0.19716377556324005,-1.7652807235717773,-1.2435574531555176,-1.7352499961853027
6.8799238204956055,-0.0552634596824646,0.20544342696666718,-0.0699874758720398,-0.2008574537544114,-1.399742958003759,3.0733979475505797,-0.9655954241752625,0.1995096206665039,-0.16679833829402924,-1.2288849353790283,-1.2605841159820557,-1.9130396842956543
6.89992094039917,-0.037262558937072754,0.23209907114505768,-0.09549294412136078,-0.1650729014078383,-1.4304997808783657,3.0456899204519017,-0.976714551448822,0.16432423889636993,-0.13793587684631348,-0.9316543936729431,-1.3141497373580933,-2.03650164604187
6.919960021972656,-0.036675870418548584,0.27369558811187744,-0.14450067281723022,-0.1270211217621509,-1.4601381860663707,3.024239041861442,-0.985876739025116,0.12667982280254364,-0.10954277962446213,-0.7092209458351135,-1.326822280883789,-2.000556468963623
6.939909934997559,-0.04464060068130493,0.33937668800354004,-0.2104361653327942,-0.08911650297363437,-1.4885777969861966,3.008468311618474,-0.9926671981811523,0.08899859338998795,-0.08180004358291626,-0.45537450909614563,-1.335892677307129,-1.9264116287231445
6.959914684295654,-0.051342010498046875,0.42684948444366455,-0.288402795791626,-0.052086429527826696,-1.515544607809935,3.000140814569042,-0.9971199631690979,0.052062880247831345,-0.05514872074127197,-0.12701331079006195,-1.2994582653045654,-1.8517296314239502
6.979913711547852,-0.023093044757843018,0.48257341980934143,-0.344668984413147,-0.01582505219957053,-1.5409302672948413,2.9987511436104177,-0.9994288682937622,0.015824392437934875,-0.029857881367206573,0.1163627952337265,-1.2321335077285767,-1.762812852859497
6.999942779541016,0.028322339057922363,0.5028896331787109,-0.35845303535461426,0.017172731317822543,-1.5647313504117646,3.0010957347940073,-0.999834418296814,-0.017171887680888176,-0.006064046639949083,0.16973790526390076,-1.1326533555984497,-1.5246866941452026
7.019918918609619,0.05110526084899902,0.5192118287086487,-0.3580803871154785,0.04472415217701326,-1.5856610746879927,3.0047837714190253,-0.9988898038864136,-0.04470924288034439,0.014849339611828327,0.185874342918396,-0.937716007232666,-1.2386810779571533
7.040000915527344,0.06409192085266113,0.550836980342865,-0.38670146465301514,0.06629691045681753,-1.6024243798335314,3.0092747701371922,-0.9973043203353882,-0.06624835729598999,0.03155331686139107,0.22311361134052277,-0.7301371693611145,-0.9338312149047852
7.0599188804626465,0.07671654224395752,0.5969034433364868,-0.44348394870758057,0.08198061084919439,-1.616163405996933,3.0157907964577677,-0.99561607837677,-0.08188880980014801,0.045199207961559296,0.39769431948661804,-0.6099928617477417,-0.6757177114486694
7.079919815063477,0.07947307825088501,0.6355489492416382,-0.4826740026473999,0.09255968868245822,-1.6289012196292507,3.027575820806677,-0.9940392374992371,-0.0924275815486908,0.057823631912469864,0.7346804738044739,-0.5663268566131592,-0.44662877917289734
7.099909782409668,0.044314682483673096,0.6473863124847412,-0.4721858501434326,0.09815117758464645,-1.6411570219172595,3.0459560749595656,-0.9927248954772949,-0.09799366444349289,0.06996430456638336,1.040959119796753,-0.4852725565433502,-0.22524970769882202
7.119909763336182,-0.06340795755386353,0.6408048868179321,-0.4338514804840088,0.09859088690975354,-1.6524430256675617,3.06859325280063,-0.9918290972709656,-0.09843124449253082,0.08115999400615692,1.168224811553955,-0.433963805437088,0.010724736377596855
7.1399078369140625,-0.3088299036026001,0.628523051738739,-0.3781108856201172,0.09371757217839159,-1.6627884832054556,3.0920699863885592,-0.9914022088050842,-0.0935804471373558,0.09145936369895935,1.2250380516052246,-0.3092719614505768,0.2559025287628174
7.159908771514893,-0.6433122158050537,0.6384291052818298,-0.35654425621032715,0.08570811995785457,-1.6653309979570985,3.1167937088676774,-0.9918808937072754,-0.08560322225093842,0.09404746443033218,1.2873741388320923,0.33514404296875,0.25317198038101196
7.17990779876709,-0.5573570728302002,0.6098032593727112,-0.2997475862503052,0.07946086875895693,-1.654213554456095,3.1402942978485133,-0.9933786392211914,-0.07937727868556976,0.08305763453245163,1.0381702184677124,0.8770144581794739,0.2387528419494629
7.199944019317627,-0.2028430700302124,0.5259308218955994,-0.17687606811523438,0.06792948661322269,-1.637493583078499,-3.1292290744516995,-0.9954755902290344,-0.06787725538015366,0.06649412214756012,0.4081917405128479,0.8457385897636414,0.8288171887397766
7.219357967376709,-0.1827825903892517,0.4202972650527954,-0.11374127864837646,0.04363262959631528,-1.6209925978245074,-3.1259908902676443,-0.9977899789810181,-0.043618787080049515,0.05012744665145874,0.1444232165813446,0.849553644657135,1.4832777976989746
7.2399067878723145,-0.3045662045478821,0.44964680075645447,-0.13939666748046875,0.010956821259694686,-1.6021069170147808,-3.121380803266208,-0.9994500279426575,-0.010956602171063423,0.03130359947681427,0.5764037370681763,1.0279631614685059,1.6624525785446167
7.259906768798828,-0.26070326566696167,0.5397580862045288,-0.187546968460083,-0.021828118198105713,-1.5816189331605395,-3.1003709884551482,-0.9997034668922424,0.021826384589076042,0.010819819755852222,1.6804994344711304,0.954870879650116,1.5811165571212769
7.279906749725342,-0.20192068815231323,0.5444681644439697,-0.15765917301177979,-0.05322846934589285,-1.562489141849523,-3.0542553982173986,-0.9985494613647461,0.053203336894512177,-0.008295325562357903,2.9175095558166504,0.8166425824165344,1.5486761331558228
7.299907684326172,-0.23256134986877441,0.4298773407936096,-0.022916017100214958,-0.08205550714474404,-1.5401683849991155,-2.9868429236339478,-0.9961679577827454,0.08196345716714859,-0.03052011877298355,3.6573665142059326,0.9946266412734985,1.4778964519500732
7.319946765899658,-0.22801047563552856,0.261578232049942,0.12701088190078735,-0.10847695773596414,-1.5104261420314429,-2.9112793517571873,-0.9923112988471985,0.10826433449983597,-0.059978898614645004,3.658834934234619,1.2828691005706787,1.5245743989944458
7.33994197845459,-0.2069501280784607,0.13939771056175232,0.204065203666687,-0.1346600121993676,-1.4731459047170383,-2.83922257425337,-0.9862262606620789,0.13425341248512268,-0.09661269187927246,3.244699239730835,1.5571744441986084,1.6557741165161133
7.359877824783325,-0.1860176920890808,0.069954052567482,0.23713043332099915,-0.16164497500432246,-1.4308323642706906,-2.7762096279939907,-0.9773123264312744,0.1609419584274292,-0.1376887857913971,2.6232240200042725,1.7373087406158447,1.761989712715149
7.379920959472656,-0.1705392599105835,0.01410946249961853,0.26071369647979736,-0.18975552394928374,-1.38605883104283,-2.724150298720501,-0.9653403162956238,0.18861880898475647,-0.1803913712501526,2.0111610889434814,1.8180478811264038,1.8507088422775269
7.399904727935791,-0.16437268257141113,-0.0020531564950942993,0.30666112899780273,-0.2191504436035872,-1.340909564534653,-2.6813865986891248,-0.9504039883613586,0.217400461435318,-0.22241726517677307,1.5184097290039062,1.8517078161239624,1.876763105392456
7.419916868209839,-0.18004417419433594,-0.010093390941619873,0.36603206396102905,-0.2486870951674804,-1.2952460088521478,-2.645579345571675,-0.9326726198196411,0.24613165855407715,-0.2637065052986145,1.1119765043258667,1.9025094509124756,1.8506667613983154
7.439908981323242,-0.18204545974731445,-0.03631529211997986,0.4438752233982086,-0.2781225178971065,-1.2492820152313657,-2.6170433510342335,-0.9122998714447021,0.27455079555511475,-0.30386051535606384,0.6881182789802551,1.951298713684082,1.7813761234283447
7.459902763366699,-0.1618286371231079,-0.050414204597473145,0.48561400175094604,-0.3074154476670874,-1.2039471794534489,-2.594240828860205,-0.8897004127502441,0.3025962710380554,-0.34186089038848877,0.39684396982192993,1.9348324537277222,1.7196037769317627
7.479910850524902,-0.14070171117782593,-0.06191074848175049,0.5130839347839355,-0.3361177725073889,-1.1600207277651604,-2.5745709359470554,-0.8655086755752563,0.3298245966434479,-0.3769754469394684,0.2669009864330292,1.8344297409057617,1.654049277305603
7.499905824661255,-0.11753755807876587,-0.06989651918411255,0.5376050472259521,-0.3634928724642133,-1.1181815291784147,-2.5555525207094285,-0.8405466079711914,0.35554105043411255,-0.4087444245815277,0.22829176485538483,1.684965968132019,1.5849835872650146
7.519937992095947,-0.10497939586639404,-0.08931168913841248,0.5491193532943726,-0.38843494802404777,-1.078742612697285,-2.5354609503908305,-0.8157054781913757,0.37874042987823486,-0.4372418224811554,0.3103184103965759,1.536251425743103,1.4966099262237549
7.539906978607178,-0.08459067344665527,-0.12480354309082031,0.5582776665687561,-0.4104802641709118,-1.0412431263300326,-2.5132055365162946,-0.7913401126861572,0.3990497291088104,-0.46318480372428894,0.39595821499824524,1.3512628078460693,1.4392614364624023
7.559906959533691,-0.07223182916641235,-0.15501374006271362,0.5683338642120361,-0.43004934010468304,-1.006525018681204,-2.489271647078212,-0.7680392861366272,0.4169156551361084,-0.48610416054725647,0.4575871229171753,1.149441123008728,1.3759480714797974
7.579905986785889,-0.08321249485015869,-0.18087002635002136,0.5851004719734192,-0.44733447168883483,-0.9747518903282274,-2.464257608766483,-0.7461332678794861,0.43256381154060364,-0.5061361789703369,0.48098936676979065,0.9598204493522644,1.3122385740280151
7.599901914596558,-0.11786943674087524,-0.20251929759979248,0.6181327104568481,-0.46304578692535264,-0.9471863037095722,-2.440246800369874,-0.726292610168457,0.44667524099349976,-0.5224753618240356,0.37966129183769226,0.7544562220573425,1.2120766639709473
7.619939804077148,-0.16047734022140503,-0.2390904724597931,0.660152792930603,-0.47857066838473766,-0.9242450247382831,-2.419362075830311,-0.708495557308197,0.46051087975502014,-0.534756064414978,0.196550190448761,0.6036348342895508,1.1361382007598877
7.639901876449585,-0.2046833038330078,-0.27064448595046997,0.682503342628479,-0.4951263721181702,-0.9064927803198886,-2.4037535426781673,-0.6927929520606995,0.47514283657073975,-0.5424733757972717,-0.115328848361969,0.4473552703857422,0.983211100101471
7.659920692443848,-0.21849888563156128,-0.293550968170166,0.691318154335022,-0.5129217567182124,-0.8959972124046619,-2.3965606416838496,-0.6803507208824158,0.4907251000404358,-0.5443454384803772,-0.48213526606559753,0.2620299756526947,0.7849172353744507
7.679903984069824,-0.186870276927948,-0.32840418815612793,0.6664854884147644,-0.5312324576381374,-0.8937644677200404,-2.3980060624460426,-0.672016441822052,0.5065963268280029,-0.5401426553726196,-0.7175675630569458,-0.007628040853887796,0.5623164772987366
7.6999030113220215,-0.17298179864883423,-0.37834030389785767,0.604026734828949,-0.5473904155868401,-0.9023693880090016,-2.404556157757045,-0.6701274514198303,0.5204607248306274,-0.5291975736618042,-0.7111839652061462,-0.5372631549835205,0.3471139073371887
7.719899892807007,-0.29316943883895874,-0.3915429711341858,0.5548145174980164,-0.5583501965640356,-0.9226437075876275,-2.4143984993919982,-0.6761299967765808,0.5297876596450806,-0.5120288133621216,-0.6297639608383179,-0.9237865209579468,-0.03884955495595932
7.739964962005615,-0.38488781452178955,-0.39055854082107544,0.509107768535614,-0.5597988681044819,-0.9499017296892293,-2.4302981340497594,-0.689208984375,0.5310157537460327,-0.49296388030052185,-0.5403838753700256,-0.9167068600654602,-0.6665471196174622
7.759891033172607,-0.20215892791748047,-0.41333240270614624,0.39199286699295044,-0.548878634244783,-0.9795083411821132,-2.4505648876352364,-0.7082720994949341,0.521730899810791,-0.4755499064922333,-0.18818163871765137,-1.0442609786987305,-1.146963357925415
7.77990198135376,-0.00847017765045166,-0.3912914991378784,0.2222851812839508,-0.5272618546118111,-1.012302012846273,-2.4641022840381925,-0.7328781485557556,0.5031689405441284,-0.45794183015823364,0.405428409576416,-1.6013938188552856,-1.284916877746582
7.799898862838745,-0.0892210602760315,-0.316925585269928,0.10607200860977173,-0.49622055460453435,-1.049645525883745,-2.4653140994927574,-0.7626466751098633,0.47610533237457275,-0.43782854080200195,1.1014747619628906,-2.0162837505340576,-1.4592854976654053
7.819915771484375,-0.32040226459503174,-0.32889679074287415,0.12865880131721497,-0.45773639132809385,-1.086475592705467,-2.4602287075329747,-0.793886125087738,0.44191867113113403,-0.4176754653453827,0.9803335666656494,-1.8111387491226196,-1.7197498083114624
7.839897871017456,-0.4254823923110962,-0.46807923913002014,0.18497419357299805,-0.42187334863169634,-1.1220987356352823,-2.468476012989922,-0.8220152258872986,0.40947026014328003,-0.39575904607772827,-0.09720095247030258,-1.456078052520752,-1.7421386241912842
7.859935760498047,-0.34006357192993164,-0.4743158519268036,0.12368246912956238,-0.3967030298480015,-1.161497582986746,-2.496968466400546,-0.8461549282073975,0.38637951016426086,-0.3670600950717926,-1.1788816452026367,-1.4135030508041382,-1.6529394388198853
7.87991189956665,-0.31878185272216797,-0.30854472517967224,0.08655303716659546,-0.37832698330991954,-1.205645759213378,-2.5407486626977636,-0.8680164217948914,0.36936628818511963,-0.3318380117416382,-1.768247365951538,-1.2823084592819214,-1.5947325229644775
7.899800777435303,-0.35526490211486816,-0.2015235722064972,0.02379608154296875,-0.3599088226815269,-1.245554834010624,-2.58803752853079,-0.8868616223335266,0.3521888852119446,-0.2990645468235016,-1.7471667528152466,-1.0395219326019287,-1.6585630178451538
7.91994571685791,-0.263180673122406,-0.11626294255256653,-0.020182698965072632,-0.3374438480690301,-1.281893028933676,-2.633890938066204,-0.9044982194900513,0.33107617497444153,-0.2688339054584503,-1.6514087915420532,-1.0706603527069092,-1.7993333339691162
7.939904689788818,-0.18127429485321045,-0.02867048978805542,-0.0930122584104538,-0.3093211529624707,-1.317769975913613,-2.6741366168913485,-0.9222108721733093,0.3044120669364929,-0.23845431208610535,-1.2222394943237305,-1.2259043455123901,-1.9292833805084229
7.959904909133911,-0.12208360433578491,0.02658534049987793,-0.13386254012584686,-0.27623056779120575,-1.3517638453331684,-2.7027543311814846,-0.9391042590141296,0.27273106575012207,-0.20904812216758728,-0.6838878989219666,-1.3478835821151733,-1.9335302114486694
7.9798970222473145,-0.07616281509399414,0.07820457220077515,-0.15301841497421265,-0.240136806645068,-1.3847162433083307,-2.720132509221286,-0.9545379877090454,0.23783551156520844,-0.1796993911266327,-0.27281293272972107,-1.5006849765777588,-1.947074055671692
7.999897003173828,-0.06598895788192749,0.1395232230424881,-0.18259978294372559,-0.2023704280339293,-1.4179693564234892,-2.729582722831608,-0.9681755900382996,0.2009919434785843,-0.14912615716457367,-0.009103542193770409,-1.616524338722229,-1.9458636045455933
8.019896984100342,-0.07346010208129883,0.19815292954444885,-0.21755200624465942,-0.16409373446359368,-1.451319241775808,-2.733221292409981,-0.9795337915420532,0.16335830092430115,-0.11759191006422043,0.14679975807666779,-1.6520044803619385,-1.901595115661621
8.039982795715332,-0.06394702196121216,0.24578934907913208,-0.2326880693435669,-0.1264652373582718,-1.4840498012550465,-2.7332243483999146,-0.9882840514183044,0.1261284053325653,-0.08594589680433273,0.23628434538841248,-1.604500412940979,-1.8267581462860107
8.059823989868164,-0.0574033260345459,0.28398597240448,-0.2544616460800171,-0.09196758997906429,-1.5145968616055812,-2.7309894109474326,-0.9942020177841187,0.09183800220489502,-0.05593252182006836,0.21941816806793213,-1.4724596738815308,-1.6130762100219727
8.079906940460205,-0.05296534299850464,0.333482950925827,-0.28211456537246704,-0.0614531973847767,-1.5423677019352124,-2.729000890296007,-0.9977092742919922,0.06141452491283417,-0.028371145948767662,0.0908137708902359,-1.3228644132614136,-1.4479024410247803
8.099896907806396,-0.01946425437927246,0.37587568163871765,-0.31714117527008057,-0.034592629946873406,-1.5672872926846646,-2.728984691537953,-0.9993957877159119,0.03458573296666145,-0.003506928216665983,-0.027093395590782166,-1.186069130897522,-1.2205904722213745
8.119901895523071,0.011657953262329102,0.40536266565322876,-0.37153804302215576,-0.012865821159691603,-1.5903781496701999,-2.7300564258577946,-0.9997255206108093,0.012865466065704823,0.019578950479626656,-0.11187466979026794,-1.1280081272125244,-0.9731378555297852
8.139894962310791,0.02516186237335205,0.43497443199157715,-0.38245439529418945,0.004798674160096412,-1.6122292495993829,-2.7331628601518103,-0.9991304874420166,-0.004798655863851309,0.041420601308345795,-0.25552815198898315,-1.0343127250671387,-0.7901331782341003
8.159881830215454,0.051911234855651855,0.4362887144088745,-0.3975706100463867,0.018580411171278143,-1.6309809069341112,-2.7385068299060267,-0.9980172514915466,-0.01857934147119522,0.060137875378131866,-0.33383405208587646,-0.8658230900764465,-0.5560373067855835
8.179906845092773,0.06835824251174927,0.45947012305259705,-0.43288958072662354,0.0276193741807683,-1.6469925752387988,-2.7440736117719466,-0.9967183470726013,-0.027615861967206,0.07609351724386215,-0.27164942026138306,-0.7416198253631592,-0.32225123047828674
8.199895858764648,0.056989312171936035,0.4917723536491394,-0.46797752380371094,0.03285492544606484,-1.6604020901328536,-2.747902985376488,-0.9954506754875183,-0.032849013805389404,0.08943761140108109,-0.14130976796150208,-0.6136723160743713,-0.18881116807460785
8.219892978668213,0.046859681606292725,0.49457669258117676,-0.5087336301803589,0.03572198755148061,-1.6711012409189456,-2.7486544911739954,-0.9943389296531677,-0.035714391618967056,0.10007292032241821,0.04561963677406311,-0.46833422780036926,-0.08739025890827179
8.239895820617676,0.03901165723800659,0.48391950130462646,-0.5265227556228638,0.03542533709070873,-1.6794490962353112,-2.7463064818216743,-0.9934795498847961,-0.03541792929172516,0.10837109386920929,0.14955447614192963,-0.34935465455055237,0.09644293040037155
8.259933948516846,-0.04337435960769653,0.45609936118125916,-0.5055328607559204,0.031437187376323186,-1.6852013567316835,-2.744627436812778,-0.992972195148468,-0.03143201023340225,0.11409924179315567,0.03596968576312065,-0.2336743175983429,0.27828407287597656
