timestamp,acceleration_x,acceleration_y,acceleration_z,attitude_pitch,attitude_roll,attitude_yaw,gravity_x,gravity_y,gravity_z,rotation_x,rotation_y,rotation_z
0.0,-0.051105797290802,0.6927343010902405,-0.18183904886245728,-0.0998510313691467,-1.5279522314259273,2.7511702955734294,-0.9941060543060303,0.0996851921081543,-0.04261765629053116,0.9007769227027893,-0.5847072601318359,1.738093614578247
0.020444154739379883,-0.20485937595367432,0.5991972088813782,-0.101787269115448,-0.13719475409705922,-1.5380230764401468,2.7682274911897555,-0.9900717735290527,0.1367647647857666,-0.03245949000120163,0.6851317286491394,-0.6270437240600586,2.048461675643921
0.03994011878967285,-0.45909470319747925,0.6158008575439453,-0.14978450536727905,-0.17883691046720784,-1.5458798207108466,2.7847714593364237,-0.9837459325790405,0.17788515985012054,-0.02451658621430397,0.9238490462303162,-0.3528626561164856,2.127849817276001
0.059960126876831055,-0.6572958827018738,0.652961015701294,-0.18687182664871216,-0.2203386226027934,-1.5427689114442682,2.8102381419468005,-0.975440502166748,0.21856006979942322,-0.027346236631274223,1.4758217334747314,0.1522487998008728,2.111114978790283
0.07943010330200195,-0.499719500541687,0.5339468717575073,-0.08880674839019775,-0.26398475014310024,-1.5293566694524217,2.8454555605558034,-0.9645291566848755,0.26092931628227234,-0.03999265283346176,1.7164371013641357,0.24144108593463898,2.432556390762329
0.09962916374206543,-0.2948891520500183,0.35237669944763184,0.05597144365310669,-0.3157626579238503,-1.516220828646439,2.883316862669935,-0.9491446614265442,0.3105415105819702,-0.051851533353328705,1.6621564626693726,0.007327650673687458,2.8544230461120605
0.11999011039733887,-0.3697700500488281,0.2471594512462616,0.09751492738723755,-0.37324805677878414,-1.5018548131841865,2.9230546163935536,-0.9289360642433167,0.36464178562164307,-0.06414391100406647,1.7778842449188232,0.10901166498661041,3.00266432762146
0.13999700546264648,-0.4725789427757263,0.19499516487121582,0.06893623620271683,-0.4301301887579593,-1.479446764093367,2.9705739448293373,-0.9051218628883362,0.41698914766311646,-0.08291324228048325,2.1686248779296875,0.21553269028663635,3.0161242485046387
0.1599891185760498,-0.4145456552505493,0.12930095195770264,0.03963269293308258,-0.48497766940127984,-1.4497260957302225,3.030825832097558,-0.8782094120979309,0.46618860960006714,-0.10684758424758911,2.634115219116211,0.0423927828669548,3.0160114765167236
0.17934799194335938,-0.3257233500480652,0.05056464672088623,0.06791955232620239,-0.5363176772809387,-1.4152528536549562,3.104900791664992,-0.8492186665534973,0.5109741687774658,-0.1331660896539688,3.0635859966278076,-0.19890540838241577,2.962400436401367
0.19998908042907715,-0.30678045749664307,-0.037044525146484375,0.15235863626003265,-0.5824365890287803,-1.3733003298733397,-3.0920129694980005,-0.8188911080360413,0.5500604510307312,-0.16386374831199646,3.2963101863861084,-0.14019407331943512,2.86545729637146
0.21999025344848633,-0.31616783142089844,-0.15678662061691284,0.27595335245132446,-0.6226921546922196,-1.3217816676730068,-3.000168466900487,-0.7872562408447266,0.5832241177558899,-0.20019343495368958,3.1507935523986816,0.08200650662183762,2.7364649772644043
0.23999929428100586,-0.3297230005264282,-0.28019869327545166,0.3587069511413574,-0.6577783972691921,-1.264373119826101,-2.9118646495402483,-0.7544902563095093,0.6113603115081787,-0.23871181905269623,2.6908633708953857,0.4001554250717163,2.5733771324157715
0.26006221771240234,-0.3266282081604004,-0.3816570043563843,0.4051685035228729,-0.6883823679923476,-1.2038861515127082,-2.8329712684219333,-0.7208724617958069,0.6352887749671936,-0.2770404815673828,2.115485906600952,0.7001882195472717,2.3546905517578125
0.27998924255371094,-0.2947021722793579,-0.4388240575790405,0.41503363847732544,-0.715813372515998,-1.1461284407131924,-2.766500640364536,-0.6875365972518921,0.6562313437461853,-0.31089240312576294,1.540732979774475,0.7569580674171448,2.1375975608825684
0.29999208450317383,-0.2872047424316406,-0.43802428245544434,0.4148978590965271,-0.7406455373935799,-1.0940212384743762,-2.711118054618865,-0.6557273864746094,0.6747644543647766,-0.3386954665184021,1.119766116142273,0.810643196105957,1.906232476234436
0.32001709938049316,-0.2849881052970886,-0.43890273571014404,0.4577142894268036,-0.7631154629496779,-1.0451049123385727,-2.665532464950675,-0.6251070499420166,0.6911762952804565,-0.3626520037651062,0.7359679341316223,0.9663383364677429,1.6729434728622437
0.34008026123046875,-0.2475513219833374,-0.5035805106163025,0.5024250149726868,-0.7839684947890955,-0.9994101320380953,-2.629105756875391,-0.5956340432167053,0.7060951590538025,-0.382948637008667,0.40661054849624634,1.0163389444351196,1.4773045778274536
0.3599872589111328,-0.20572572946548462,-0.5326810479164124,0.5190393924713135,-0.8037115124426103,-0.960497705994796,-2.6007782099585315,-0.5687493681907654,0.7199369668960571,-0.3977625072002411,0.1716536283493042,0.8416760563850403,1.264181137084961
0.38007211685180664,-0.21566569805145264,-0.5266785025596619,0.4914827346801758,-0.8206496260980186,-0.9296862906272872,-2.578170237108031,-0.5463734865188599,0.7315888404846191,-0.4077424705028534,0.10576555877923965,0.6388828158378601,1.0074548721313477
0.3999900817871094,-0.2511420249938965,-0.5247375965118408,0.5021038055419922,-0.8337413802002746,-0.9039771988319215,-2.5613824376818104,-0.5281395316123962,0.7404511570930481,-0.4156931936740875,-0.011307988315820694,0.6985275149345398,0.7050466537475586
0.420072078704834,-0.2239866852760315,-0.5738728046417236,0.5223637223243713,-0.8434678097129935,-0.8843747107662235,-2.5533990060526217,-0.5142945051193237,0.7469532489776611,-0.42138099670410156,-0.178404301404953,0.6444517374038696,0.39493513107299805
0.43938612937927246,-0.15655559301376343,-0.6048258543014526,0.517162561416626,-0.851086331999037,-0.8744494876235109,-2.554394622814701,-0.5057063698768616,0.7519969344139099,-0.422802209854126,-0.34759968519210815,0.37795037031173706,0.15841041505336761
0.459989070892334,-0.12972742319107056,-0.596011757850647,0.4770044982433319,-0.8560625684655625,-0.8779691600970422,-2.5624404388631428,-0.5043057799339294,0.7552677392959595,-0.41862431168556213,-0.3569289743900299,-0.11929740011692047,-0.13907814025878906
0.47999000549316406,-0.19659119844436646,-0.5491158962249756,0.4272181987762451,-0.8549606327330587,-0.8948532166028111,-2.5766714707077583,-0.511950671672821,0.7545450925827026,-0.41057083010673523,-0.29409220814704895,-0.44937607645988464,-0.5566911101341248
0.49999427795410156,-0.3069272041320801,-0.49584412574768066,0.41976943612098694,-0.8460030695455898,-0.9207615796557689,-2.597974695119256,-0.5277742147445679,0.7486364841461182,-0.40124523639678955,-0.29030466079711914,-0.5055266618728638,-1.0213563442230225
0.5190620422363281,-0.375951886177063,-0.4688882827758789,0.44123709201812744,-0.8304747833446005,-0.9526892400405308,-2.6290113706729095,-0.5497224926948547,0.7382516860961914,-0.39088302850723267,-0.49391621351242065,-0.35686007142066956,-1.4580371379852295
0.5400431156158447,-0.353898286819458,-0.4561500549316406,0.4283905625343323,-0.8107609085471114,-0.9913189298358972,-2.672188728421293,-0.5764758586883545,0.7248116135597229,-0.3772583305835724,-0.8275485634803772,-0.4704679548740387,-1.8308515548706055
0.5591750144958496,-0.32710587978363037,-0.4018588066101074,0.3574041724205017,-0.7861596993396565,-1.0454258097939215,-2.7250910980522005,-0.6112791299819946,0.707645058631897,-0.3543676733970642,-0.9961448907852173,-1.181820034980774,-2.2222485542297363
0.5800261497497559,-0.49332308769226074,-0.25689780712127686,0.2951229214668274,-0.7519032259183288,-1.1135974497364143,-2.7823816024958417,-0.6553738117218018,0.6830300688743591,-0.3224208950996399,-1.0137639045715332,-1.5274662971496582,-2.79927921295166
0.6000089645385742,-0.7904375195503235,-0.13479840755462646,0.3105009198188782,-0.703290444676255,-1.1791070466025841,-2.8427082589285986,-0.7049543261528015,0.6467308402061462,-0.2911679744720459,-1.1673617362976074,-0.8564488887786865,-3.465353488922119
0.7980051040649414,-0.7641873955726624,-0.11386942863464355,0.3164636194705963,-0.6452178997346704,-1.229905556031576,-2.909307606033371,-0.7529939413070679,0.6013725399971008,-0.26711663603782654,-1.6099679470062256,-0.27153754234313965,-3.763947010040283
0.8078701496124268,-0.3871349096298218,-0.03318601846694946,0.17051687836647034,-0.5845414862069783,-1.2787651257307227,-2.976421444449075,-0.7986559867858887,0.5518170595169067,-0.24009692668914795,-1.6082721948623657,-0.8382625579833984,-3.675337076187134
0.8256292343139648,-0.2335178256034851,0.22654366493225098,-0.11245447397232056,-0.46618516885717387,-1.3758907165800305,-3.0596069809793813,-0.8763760328292847,0.4494818150997162,-0.17300692200660706,-0.485362708568573,-1.6627750396728516,-3.0015757083892822
0.8453202247619629,-0.24084937572479248,0.24624952673912048,0.018279314041137695,-0.32360872833554294,-1.4795291486851085,-3.126585047081879,-0.9441481828689575,0.3179900348186493,-0.0864097997546196,-1.0459702014923096,-0.8173962235450745,-1.9402600526809692
0.8630509376525879,0.054271161556243896,0.35920557379722595,-0.10445815324783325,-0.2145966381278136,-1.5522230414586498,3.003327522649143,-0.9768940210342407,0.2129533290863037,-0.018146218731999397,-2.0919694900512695,-0.2802239656448364,-1.1737948656082153
0.8799352645874023,0.08927839994430542,0.47517919540405273,-0.20280218124389648,-0.14441718226613312,-1.5990151029343833,2.8952868287066944,-0.9891960024833679,0.14391569793224335,0.027921311557292938,-1.4189860820770264,-0.5634196400642395,-1.2344297170639038
0.8999862670898438,0.07710796594619751,0.5166760683059692,-0.27182555198669434,-0.11898050939886708,-1.6138594023956812,2.8704879116736683,-0.992009699344635,0.11869998276233673,0.04274541512131691,-1.1462734937667847,-0.5869539380073547,-1.2142647504806519
0.9199962615966797,0.09018456935882568,0.5474322438240051,-0.32338619232177734,-0.09423246261791834,-1.627511891402901,2.8514786460169494,-0.9939627647399902,0.09409306198358536,0.05643368139863014,-0.8891618847846985,-0.5708190202713013,-1.1559972763061523
0.9400510787963867,0.11609447002410889,0.5776509642601013,-0.36694276332855225,-0.0716413277040976,-1.6400135151245676,2.8367414394745585,-0.9950464963912964,0.07158005982637405,0.06898452341556549,-0.7250857353210449,-0.5536374449729919,-1.0011563301086426
0.9600310325622559,0.14057844877243042,0.5888553857803345,-0.3926846981048584,-0.05261791130083353,-1.6509947983525022,2.8248261425185226,-0.9954063296318054,0.05259363353252411,0.08000165969133377,-0.6127191781997681,-0.4768064320087433,-0.7899489998817444
0.9799511432647705,0.1403951644897461,0.601925253868103,-0.43172335624694824,-0.03848042056407214,-1.6607121086993468,2.8151353322449095,-0.9952231049537659,0.03847092390060425,0.0897282063961029,-0.4621192216873169,-0.426230788230896,-0.5439327359199524
0.9999520778656006,0.1250934600830078,0.6339293122291565,-0.45464181900024414,-0.029649290708718863,-1.6682898042963608,2.8090970061785483,-0.994813859462738,0.02964494749903679,0.0972963273525238,-0.21073143184185028,-0.3194800317287445,-0.27532947063446045
1.0200262069702148,0.11779183149337769,0.6399099230766296,-0.445137619972229,-0.027284107049851673,-1.6739156029974358,2.8079005706174525,-0.9943177700042725,0.027280721813440323,0.10289831459522247,0.06688381731510162,-0.24737459421157837,0.05425352230668068
1.0399932861328125,0.07224297523498535,0.6269782185554504,-0.4427527189254761,-0.03161171952999579,-1.678099815164123,2.8114695148066846,-0.9937520027160645,0.03160645440220833,0.10704420506954193,0.32502028346061707,-0.16383957862854004,0.32018184661865234
1.0599889755249023,-0.002752840518951416,0.6169843673706055,-0.4246097803115845,-0.04078764025446389,-1.6791337919305274,2.8187507015687205,-0.9933103322982788,0.0407763309776783,0.10803572833538055,0.47903701663017273,0.04329781234264374,0.5138121247291565
1.0801241397857666,-0.051334261894226074,0.574620246887207,-0.3484569787979126,-0.05434335468019213,-1.6768256006741307,2.8276193608863673,-0.9929162263870239,0.05431661009788513,0.10567449033260345,0.5268241763114929,0.09529940783977509,0.7505799531936646
1.1000752449035645,-0.16801738739013672,0.5573294758796692,-0.33045220375061035,-0.07217348093380785,-1.6741160037942031,2.8363903161100223,-0.9920777678489685,0.07211083918809891,0.10286744683980942,0.5551562309265137,0.19822409749031067,0.8985418081283569
1.1199841499328613,-0.3603752851486206,0.5805477499961853,-0.34360337257385254,-0.09140881159209975,-1.6626226843742147,2.847149502767186,-0.9916297793388367,0.09128157049417496,0.09131455421447754,0.7021452188491821,0.9190069437026978,0.9212096333503723
1.1396822929382324,-0.2862192392349243,0.5103646516799927,-0.23792612552642822,-0.11315248495446827,-1.6372139399163772,2.859034812629111,-0.9914146065711975,0.1129111796617508,0.06594438850879669,0.60304856300354,1.3863513469696045,1.2134716510772705
1.1599822044372559,-0.029907643795013428,0.3872697651386261,-0.08738839626312256,-0.14314110389895965,-1.6103666050436334,2.8675042501895707,-0.9889979362487793,0.14265279471874237,0.03915536403656006,0.4205099046230316,1.1180590391159058,1.75294828414917
1.1799931526184082,0.004753589630126953,0.328177273273468,0.0016976576298475266,-0.18280321424261908,-1.5896936601951526,2.8754182950331972,-0.9831624627113342,0.18178679049015045,0.018581360578536987,0.527069628238678,0.9001622796058655,2.12982177734375
1.1999831199645996,-0.18853461742401123,0.32726138830184937,0.02971595525741577,-0.22606616925446213,-1.5677829061144353,2.8892228425064896,-0.9745513796806335,0.2241455316543579,-0.0029367420356720686,0.8852568864822388,1.0191445350646973,2.143249750137329
1.219985008239746,-0.3655923008918762,0.34733718633651733,0.04216312989592552,-0.2671102576596828,-1.5397814512390322,2.913292821207139,-0.9640740156173706,0.2639452815055847,-0.02991022728383541,1.4058886766433716,1.2123115062713623,1.976138710975647
1.2399859428405762,-0.35718613862991333,0.2834356427192688,0.10130024701356888,-0.30429223738073957,-1.5017965013227974,2.9500581219736546,-0.9517890810966492,0.2996180057525635,-0.06577770411968231,1.8897013664245605,1.4558537006378174,1.9023468494415283
1.2599821090698242,-0.1651315689086914,0.15477144718170166,0.19152766466140747,-0.33913411232779284,-1.4596519093384248,2.995652490393132,-0.9372245073318481,0.332670658826828,-0.10459832847118378,2.0746848583221436,1.2649273872375488,1.9749878644943237
1.2800230979919434,-0.004857063293457031,0.04429560899734497,0.24211788177490234,-0.37416401649370334,-1.420672972058531,3.045513169655891,-0.9203444123268127,0.3654945194721222,-0.13921257853507996,2.106517791748047,0.8380573987960815,2.1080689430236816
1.300076961517334,0.0016922950744628906,-0.022318482398986816,0.27392953634262085,-0.4092083029538745,-1.388782995745734,3.0976613011461867,-0.9022812843322754,0.3978831171989441,-0.16606514155864716,2.0780794620513916,0.46508029103279114,2.114699602127075
1.31998610496521,-0.10408878326416016,-0.07806074619293213,0.3238867521286011,-0.4409687230862485,-1.355419267565491,-3.132854739335863,-0.8834448456764221,0.4268157184123993,-0.1932714730501175,1.9897022247314453,0.7351785898208618,1.9383505582809448
1.3399851322174072,-0.08256697654724121,-0.188228040933609,0.3834206163883209,-0.46846658007253106,-1.3165785787169124,-3.0823017131533255,-0.8635848760604858,0.45151859521865845,-0.22439348697662354,1.7615675926208496,0.8739319443702698,1.812204360961914
1.3600010871887207,0.036391258239746094,-0.2682640254497528,0.4056290090084076,-0.49389539348062095,-1.2793724174175973,-3.0368315626345015,-0.8433675765991211,0.4740593433380127,-0.2529800236225128,1.468928337097168,0.7093006372451782,1.7034083604812622
1.380033016204834,0.1012081503868103,-0.2741687595844269,0.3856680989265442,-0.516090284034221,-1.247361174852958,-2.9947062842730867,-0.8246578574180603,0.49348342418670654,-0.2764303982257843,1.4112573862075806,0.43649932742118835,1.5048234462738037
1.3996291160583496,0.103157639503479,-0.25809282064437866,0.37163230776786804,-0.5327033904918653,-1.2187413010311938,-2.951688534617495,-0.808601975440979,0.5078639984130859,-0.29704728722572327,1.5840911865234375,0.288124680519104,1.2613526582717896
1.4201061725616455,0.09624069929122925,-0.29904961585998535,0.418062299489975,-0.5428864035364511,-1.1903059127639914,-2.9071746144310655,-0.7949865460395813,0.5166095495223999,-0.3179799020290375,1.581488847732544,0.2696441411972046,1.0469270944595337
1.4399371147155762,0.09269022941589355,-0.34294378757476807,0.479690283536911,-0.5483601952345434,-1.1641102600189068,-2.86626798816429,-0.7837759852409363,0.5212885737419128,-0.3375698924064636,1.441093921661377,0.2086380422115326,0.8016608357429504
1.4599831104278564,0.06611102819442749,-0.3361092805862427,0.4634290933609009,-0.5497571697154615,-1.1421384382534736,-2.829218059381559,-0.775507390499115,0.5224801898002625,-0.3544050455093384,1.4587278366088867,0.05350286513566971,0.6178051829338074
1.4799909591674805,0.012174725532531738,-0.2993425726890564,0.3928022086620331,-0.5461722222715433,-1.1227814880038773,-2.7911713443516915,-0.7701855897903442,0.5194201469421387,-0.3701581358909607,1.6338040828704834,-0.117006815969944,0.43568164110183716
1.4999830722808838,-0.033802807331085205,-0.2502053380012512,0.3702009618282318,-0.5371567254740689,-1.1070988586789834,-2.7526955976862477,-0.76844322681427,0.5116952061653137,-0.38426950573921204,1.7092751264572144,-0.2803661823272705,0.20023538172245026
1.5199811458587646,-0.09131217002868652,-0.20361077785491943,0.3518137037754059,-0.5234373612458783,-1.092972880726061,-2.71669689476803,-0.7691003680229187,0.4998601973056793,-0.398276686668396,1.715370774269104,-0.11496585607528687,-0.017872309312224388
1.5400152206420898,-0.09525108337402344,-0.19837093353271484,0.2939421832561493,-0.5065460314179919,-1.0786998935099896,-2.684488106632222,-0.7706698775291443,0.48515990376472473,-0.4131438136100769,1.4485198259353638,-0.054009296000003815,-0.13276533782482147
1.559995174407959,-0.02064305543899536,-0.2297534942626953,0.322656512260437,-0.4950425819114389,-1.0701252613800603,-2.6642545001963582,-0.7719442248344421,0.475069135427475,-0.4223879277706146,0.6140490770339966,-0.04057649150490761,-0.027433013543486595
1.580078125,0.004378318786621094,-0.3411025404930115,0.3133564591407776,-0.49296933491765704,-1.0681183568336363,-2.6611044772509596,-0.7719565033912659,0.47324374318122864,-0.4244099259376526,-0.17184458673000336,0.05166129022836685,-0.050670526921749115
1.5999822616577148,-0.021255135536193848,-0.32456961274147034,0.2521582245826721,-0.49493628260485995,-1.070377514228657,-2.6676784719956137,-0.7720950841903687,0.4749755859375,-0.4222174286842346,-0.38981595635414124,0.14047859609127045,-0.05518224462866783
1.6200242042541504,-0.02608323097229004,-0.21510589122772217,0.2254374623298645,-0.49547707494789145,-1.0670749173111638,-2.676140933905511,-0.7704713344573975,0.47545140981674194,-0.4246409833431244,-0.2073310911655426,0.5311762690544128,-0.27964040637016296
1.6399812698364258,0.07653909921646118,-0.2074410319328308,0.10828918218612671,-0.4891341197695133,-1.0599013187431523,-2.6795914541555605,-0.7700205445289612,0.4698617160320282,-0.4316229522228241,0.2392895668745041,0.23317435383796692,-0.38253626227378845
1.6599812507629395,0.207899272441864,-0.18949288129806519,0.050959229469299316,-0.4790102363993675,-1.062031912612157,-2.674720587233425,-0.7750532031059265,0.46090102195739746,-0.4322763681411743,0.5749250650405884,-0.6896878480911255,-0.26281407475471497
1.6800050735473633,0.12094438076019287,-0.18841233849525452,0.09276121854782104,-0.46901512289106767,-1.07716994656728,-2.6653180018631457,-0.7855256795883179,0.4520079791545868,-0.42265623807907104,0.6514462232589722,-1.1242938041687012,-0.2764568030834198
1.7001309394836426,-0.14609694480895996,-0.2294217050075531,0.10788553953170776,-0.45501329355799436,-1.0926656492014863,-2.6559301860398747,-0.7975218892097473,0.4394742548465729,-0.41330549120903015,0.6832447648048401,-0.7955014705657959,-0.5929086804389954
1.7199821472167969,-0.29801052808761597,-0.19581425189971924,0.1357124149799347,-0.4358638995369587,-1.101935637426912,-2.6512443194003743,-0.8086788654327393,0.4221936762332916,-0.4096229076385498,0.6382889747619629,-0.35424456000328064,-0.8920719027519226
1.7399811744689941,-0.22958672046661377,-0.19796743988990784,0.07022607326507568,-0.41365884497297173,-1.1078800465139844,-2.6465290802479213,-0.8192872405052185,0.4019622504711151,-0.40889492630958557,0.696023166179657,-0.561617374420166,-0.8588997721672058
1.760025978088379,-0.12055778503417969,-0.2236829400062561,0.16359582543373108,-0.39507436222561704,-1.1203486490139551,-2.644119204563992,-0.830903947353363,0.3848768174648285,-0.4018312394618988,0.25282928347587585,-0.6517435312271118,-0.721121609210968
1.7799811363220215,-0.149469792842865,-0.2930404543876648,0.2190161943435669,-0.3829273813501003,-1.1318364936805811,-2.6519038987438437,-0.83963543176651,0.37363743782043457,-0.3942176103591919,-0.3420753479003906,-0.18273203074932098,-0.7282834053039551
1.7999801635742188,-0.10997796058654785,-0.24124231934547424,0.16725009679794312,-0.37291866311004485,-1.1372673029856801,-2.666780976909628,-0.8451154828071594,0.3643350303173065,-0.3912033438682556,-0.3512163460254669,0.07791171967983246,-0.7398011088371277
1.8200271129608154,0.04559141397476196,-0.10668307542800903,0.06334578990936279,-0.3614341997942718,-1.1416842756184868,-2.674980535600122,-0.850584089756012,0.3536161482334137,-0.3891819715499878,0.17794175446033478,-0.2782132625579834,-0.6267696022987366
1.8400051593780518,0.12944990396499634,-0.057565152645111084,0.00793108344078064,-0.34656567373772745,-1.1497727007092766,-2.6691290414561695,-0.8584080338478088,0.33966967463493347,-0.38439586758613586,0.8862372636795044,-0.7031059861183167,-0.5011210441589355
1.8599801063537598,0.09272027015686035,-0.12886178493499756,0.11215609312057495,-0.33110677857615145,-1.159090290341895,-2.6559874747453223,-0.8666614294052124,0.3250899016857147,-0.3784372806549072,0.7456696629524231,-0.5478484034538269,-0.43877366185188293
1.879979133605957,0.03428506851196289,-0.22905263304710388,0.20783042907714844,-0.31909614039014433,-1.1632861506137062,-2.6494898163321334,-0.8717637658119202,0.31370845437049866,-0.37631794810295105,0.3151867389678955,-0.17366264760494232,-0.3916919231414795
1.9000260829925537,0.04667395353317261,-0.20652595162391663,0.1836692988872528,-0.31135521665898575,-1.1669628749150798,-2.6478588165680246,-0.8753482103347778,0.306348979473114,-0.3740531802177429,0.20379722118377686,-0.2234618067741394,-0.24584273993968964
1.9199790954589844,0.04953056573867798,-0.09632560610771179,0.15280982851982117,-0.3060364994373117,-1.1702672592233663,-2.6442376645659196,-0.8780674934387207,0.3012816607952118,-0.37178871035575867,0.3165021538734436,-0.2026708573102951,-0.14381343126296997
1.9400262832641602,0.027192652225494385,-0.0849958062171936,0.17230212688446045,-0.30040054756399315,-1.1707799146662157,-2.6401122672758657,-0.8798080682754517,0.2959028482437134,-0.37199389934539795,0.23046553134918213,0.02775045484304428,-0.24257566034793854
1.9599809646606445,0.08374398946762085,-0.12777838110923767,0.2294386625289917,-0.29466770119842733,-1.1694186154165527,-2.639438154323568,-0.8808479309082031,0.29042190313339233,-0.3738478422164917,0.08237386494874954,0.04656418040394783,-0.20209205150604248
1.9799790382385254,0.14323359727859497,-0.1363375186920166,0.21541911363601685,-0.29229147389526494,-1.1702040684108124,-2.6374540009956453,-0.8817742466926575,0.2881472706794739,-0.3734239339828491,0.22585351765155792,-0.20072773098945618,0.03016328252851963
1.9999990463256836,0.10490274429321289,-0.08946919441223145,0.18680697679519653,-0.29068944591988427,-1.1743152023287469,-2.6298982696457776,-0.8837266564369202,0.2866128087043762,-0.36997348070144653,0.5175566077232361,-0.44914206862449646,0.10629826784133911
2.0199790000915527,-0.030974090099334717,-0.07691702246665955,0.13414618372917175,-0.288211812481814,-1.1821541479903304,-2.6164562700568856,-0.8872541785240173,0.2842382490634918,-0.36330267786979675,0.7091510891914368,-0.6313996911048889,0.12057505548000336
2.0399889945983887,-0.19010382890701294,-0.0530494749546051,0.24734801054000854,-0.285170417655349,-1.1881188379226135,-2.6047489329475546,-0.8902031779289246,0.2813209891319275,-0.35832518339157104,0.38523659110069275,-0.2783472537994385,0.02498907595872879
2.0599780082702637,-0.29648661613464355,-0.12559252977371216,0.2580268085002899,-0.2838537698810025,-1.190708149464288,-2.601046908879285,-0.8914711475372314,0.28005728125572205,-0.35615605115890503,0.031069763004779816,-0.1388295590877533,0.0022554476745426655
2.0799801349639893,-0.3019726872444153,-0.09769019484519958,0.20564615726470947,-0.2845912716223099,-1.194023693173945,-2.6013266099601404,-0.8924548625946045,0.280765175819397,-0.353122353553772,-0.04015594720840454,-0.17984676361083984,0.051817141473293304
2.0999979972839355,-0.2979169487953186,-0.04042896628379822,0.14388123154640198,-0.2849144353193548,-1.1971618137831357,-2.6010076020532567,-0.8934740424156189,0.2810753285884857,-0.3502868115901947,0.026220720261335373,-0.11776590347290039,-0.02721254713833332
2.1200242042541504,-0.235734760761261,-0.02757015824317932,0.14038348197937012,-0.2840287333449679,-1.1988203570436926,-2.6019299072786306,-0.8942853808403015,0.2802252173423767,-0.3488948345184326,-0.05884537473320961,-0.04560818150639534,-0.06734473258256912
2.140043258666992,-0.13692468404769897,-0.05619990825653076,0.09455525875091553,-0.28352455418847283,-1.200265989414901,-2.6024995030645144,-0.8949204683303833,0.27974122762680054,-0.347652792930603,0.04264877364039421,-0.0868123471736908,0.014882426708936691
2.160076141357422,-0.05439317226409912,-0.006130993366241455,0.0725100040435791,-0.28348776540306353,-1.2022090176196434,-2.6005896387245526,-0.8956037759780884,0.27970588207244873,-0.3459169566631317,0.12492596358060837,-0.18090049922466278,0.0388466939330101
2.179992198944092,-0.031055450439453125,0.016480982303619385,0.06488916277885437,-0.2832032573847456,-1.2068951361519922,-2.5972999848531098,-0.8972892761230469,0.2794327437877655,-0.341744601726532,0.19356507062911987,-0.3683372437953949,0.06508433073759079
2.1999521255493164,-0.09571051597595215,0.00020936131477355957,0.061402350664138794,-0.2831933405064739,-1.212273129891899,-2.592666337296033,-0.8991167545318604,0.27942320704460144,-0.3369150161743164,0.2054678499698639,-0.27958357334136963,0.06125162914395332
2.2199230194091797,-0.1702088713645935,0.03687438368797302,0.07701244950294495,-0.2824008374908344,-1.216055158086436,-2.5887634330790683,-0.9005920886993408,0.27866217494010925,-0.33358898758888245,0.16631445288658142,-0.23212160170078278,0.009396296925842762
2.2399182319641113,-0.1946154236793518,0.09511223435401917,0.06944277882575989,-0.2809286549608237,-1.2203940813605272,-2.58628764408696,-0.9024152159690857,0.2772480249404907,-0.3298186957836151,0.09709061682224274,-0.24726690351963043,-0.06706248223781586
2.259925127029419,-0.20890235900878906,0.07545384764671326,0.08603230118751526,-0.2795207732604148,-1.2244736061064159,-2.5865442950603295,-0.9041194319725037,0.27589505910873413,-0.32626667618751526,-0.055914830416440964,-0.16909781098365784,-0.05739913135766983
2.2799761295318604,-0.20912379026412964,0.026799440383911133,0.0956660807132721,-0.2810390719644278,-1.2284436526259024,-2.5901600069399033,-0.9050121307373047,0.27735409140586853,-0.3225337862968445,-0.2938041687011719,-0.1614561229944229,0.05825148522853851
2.2999751567840576,-0.24942106008529663,0.04903757572174072,0.06631368398666382,-0.2843695052534313,-1.2322248444476174,-2.594400815278942,-0.9053488969802856,0.28055232763290405,-0.3188008964061737,-0.12982013821601868,-0.11873343586921692,0.07610141485929489
2.3199291229248047,-0.36328232288360596,0.1439281404018402,0.03473946452140808,-0.28458014814959093,-1.231060955288862,-2.592918667107722,-0.9049213528633118,0.2807545065879822,-0.3198346495628357,0.24291035532951355,0.29375702142715454,0.01436325442045927
2.3399300575256348,-0.4470707178115845,0.17715761065483093,-0.02804085612297058,-0.2813428355393509,-1.2189241056417084,-2.587162898228572,-0.9018216729164124,0.27764594554901123,-0.3311052918434143,0.32785719633102417,0.6486556529998779,-0.13040639460086823
2.359987258911133,-0.3980422019958496,0.09930449724197388,-0.040355682373046875,-0.2800593810557583,-1.2050545587868422,-2.5815593872164473,-0.8974748253822327,0.2764127254486084,-0.3437080681324005,-0.003218595404177904,0.5455976128578186,0.22391028702259064
2.3799991607666016,-0.4079221487045288,0.01961725950241089,-0.06071177124977112,-0.2914366236346371,-1.201365374361918,-2.5832778260490707,-0.8932100534439087,0.2873285710811615,-0.3458586633205414,-0.4533269703388214,-0.1447439044713974,0.45006367564201355
2.3999452590942383,-0.47933638095855713,0.06589287519454956,-0.0889575183391571,-0.3003743162379041,-1.2125005406476967,-2.5892169098183535,-0.8945649862289429,0.2958777844905853,-0.3349774181842804,-0.2689928710460663,-0.6200377345085144,0.3679179549217224
2.4200611114501953,-0.4826620817184448,0.13072213530540466,-0.053201645612716675,-0.3084570288045913,-1.2244620197592628,-2.5855527024950975,-0.8962290287017822,0.3035888373851776,-0.3234310448169708,0.27026599645614624,-0.6064904928207397,0.44528692960739136
2.440120220184326,-0.5540527105331421,0.16018259525299072,-0.003252953290939331,-0.31309311143738505,-1.2323798194047375,-2.5764322437948763,-0.8974243402481079,0.30800285935401917,-0.3158540725708008,0.3776152431964874,-0.40762683749198914,0.30291232466697693
2.4600210189819336,-0.5515525937080383,0.09695082902908325,-0.06465780735015869,-0.3159646807508001,-1.2337733211953223,-2.5630423499901354,-0.8970253467559814,0.3107335567474365,-0.3143095076084137,0.7284749746322632,-0.17415566742420197,0.4550115466117859
2.4803080558776855,-0.43649929761886597,0.09986737370491028,-0.14474749565124512,-0.3202999746235084,-1.2317858779663338,-2.542429320507695,-0.8951200842857361,0.3148512840270996,-0.31564071774482727,1.005353569984436,-0.24148811399936676,0.5974110960960388
2.5000340938568115,-0.34207940101623535,0.1120792031288147,-0.1726905107498169,-0.3252183311454667,-1.2300142449340594,-2.5158002283921617,-0.8930891156196594,0.3195156753063202,-0.3167046308517456,1.1735546588897705,-0.3979777693748474,0.7274475693702698
2.520024061203003,-0.30265742540359497,0.07415860891342163,-0.14051735401153564,-0.3319113073685595,-1.2310277467446369,-2.486829020936854,-0.8913733959197998,0.32585060596466064,-0.31507956981658936,1.1844596862792969,-0.6384790539741516,0.8047350645065308
2.540220260620117,-0.35282498598098755,0.0594693124294281,-0.09858602285385132,-0.3399386882452003,-1.233793444561672,-2.4585145921519684,-0.8897440433502197,0.3334292769432068,-0.31173810362815857,1.1232643127441406,-0.5085371136665344,0.8859125971794128
2.559974193572998,-0.416238009929657,-0.02681705355644226,-0.15654677152633667,-0.350249111732222,-1.2324149757133536,-2.43211713477994,-0.8860234022140503,0.34313181042671204,-0.31180647015571594,0.7915949821472168,-0.2414294332265854,0.8612949848175049
2.5800321102142334,-0.3986132740974426,-0.04133757948875427,-0.13026002049446106,-0.3623562666930282,-1.2303623859207957,-2.4175348523777087,-0.8814007043838501,0.35447847843170166,-0.31221434473991394,0.07090519368648529,-0.09810813516378403,0.7687950730323792
2.5999679565429688,-0.34321045875549316,-0.05124479532241821,-0.07562345266342163,-0.37845167224225706,-1.231979306208372,-2.4164066175530303,-0.8764093518257141,0.369482159614563,-0.30885228514671326,-0.4223440885543823,-0.11442311108112335,0.7925911545753479
2.619993209838867,-0.3101152181625366,0.006377726793289185,-0.009346038103103638,-0.3964095669407852,-1.236249523115269,-2.4192168045359015,-0.8713116645812988,0.3861088454723358,-0.30287933349609375,-0.3343575596809387,-0.20210368931293488,0.7927538156509399
2.648822069168091,-0.2364426851272583,0.08288797736167908,-0.02838173508644104,-0.4234764132345182,-1.2417975831396622,-2.404560010462297,-0.8627699613571167,0.4109322428703308,-0.29455530643463135,0.5069843530654907,-0.4506258964538574,0.7705616354942322
2.667288064956665,-0.20558512210845947,0.0741342306137085,-0.035332053899765015,-0.4348821289201992,-1.2444453941778648,-2.3890035928544764,-0.8590512275695801,0.42130351066589355,-0.29074826836586,0.3979952931404114,-0.353454053401947,0.7722341418266296
2.688103199005127,-0.2299180030822754,0.006192892789840698,0.03182134032249451,-0.4484118261839511,-1.243775529275598,-2.3807917480016427,-0.8533797264099121,0.4335349202156067,-0.289465993642807,-0.17639680206775665,0.030911628156900406,0.7446132302284241
2.707261085510254,-0.17256581783294678,-0.034518152475357056,0.04070138931274414,-0.4651083588637237,-1.2437037566284492,-2.3849369260256172,-0.8463857173919678,0.44851964712142944,-0.28716135025024414,-0.6490625143051147,0.10694363713264465,0.7392261624336243
2.727236270904541,-0.07586973905563354,0.02181828022003174,0.010493576526641846,-0.4836670449797691,-1.2473816503938528,-2.393859229437731,-0.8393982648849487,0.46502870321273804,-0.28135234117507935,-0.6485741138458252,-0.05523080378770828,0.7636191844940186
2.74625301361084,-0.0430300235748291,0.08431518077850342,0.014688849449157715,-0.5004119856551242,-1.250943327302261,-2.398715920266931,-0.8328855633735657,0.47978705167770386,-0.2758735716342926,-0.22469893097877502,-0.0646042451262474,0.6928539872169495
2.767920970916748,0.0034404993057250977,0.099793940782547,-0.03134739398956299,-0.5130049031273478,-1.2510374055002829,-2.3940141358742486,-0.8271099925041199,0.4907975494861603,-0.2738742232322693,0.1800289750099182,-0.21207989752292633,0.6351838707923889
2.7879531383514404,0.06920814514160156,0.0669063925743103,-0.05023661255836487,-0.52358509050662,-1.2516117518347643,-2.383526887031151,-0.8222903609275818,0.4999881386756897,-0.27175435423851013,0.2636052966117859,-0.3297728896141052,0.697291374206543
2.808004140853882,0.057483971118927,0.013711988925933838,-0.02106228470802307,-0.5356817706785804,-1.2526274135508484,-2.374943938231949,-0.816761314868927,0.5104274153709412,-0.26900723576545715,0.045830585062503815,-0.10774212330579758,0.6758682727813721
2.827998161315918,0.010693073272705078,-0.01463174819946289,-0.027381330728530884,-0.5486952887297903,-1.249979979784261,-2.3718043122127326,-0.8096738457679749,0.5215744972229004,-0.26905107498168945,-0.12701314687728882,0.15078184008598328,0.6099333167076111
2.847903251647949,0.04873114824295044,0.03954857587814331,-0.10020321607589722,-0.55955576750173,-1.2447834961279678,-2.3677859375048156,-0.8028510212898254,0.530809760093689,-0.27142462134361267,0.1645975112915039,0.1405983567237854,0.5880529880523682
2.867647171020508,0.10073196887969971,0.10182273387908936,-0.12260907888412476,-0.5696850944499497,-1.2368658606092267,-2.356080018362593,-0.7955561876296997,0.5393669009208679,-0.27599626779556274,0.4014001190662384,0.03418287634849548,0.6635844707489014
2.8877151012420654,0.0641549825668335,0.07036709785461426,-0.07862713932991028,-0.578981063607955,-1.228326668996328,-2.341768791187288,-0.7884132862091064,0.5471713542938232,-0.28108352422714233,0.39220118522644043,0.0720970630645752,0.6250560283660889
2.907564163208008,0.047993004322052,0.011521458625793457,-0.021876662969589233,-0.5885730195713413,-1.21783701954991,-2.327810245663562,-0.78046053647995,0.555174708366394,-0.28751054406166077,0.40718716382980347,0.18132831156253815,0.6882107853889465
2.927816152572632,0.08849495649337769,0.015489399433135986,0.0034511685371398926,-0.5975889508290615,-1.2040117435656439,-2.3092137508740214,-0.7717072367668152,0.5626509189605713,-0.2964657247066498,0.7756063938140869,0.19693008065223694,0.7241137027740479
2.948380947113037,0.10570526123046875,0.04026377201080322,-0.020012259483337402,-0.6045342064225361,-1.1837142821579334,-2.2793675105421816,-0.7618942260742188,0.5683789253234863,-0.3105846643447876,1.2508535385131836,0.11176341772079468,0.7927225828170776
2.967827081680298,0.07780241966247559,0.010540127754211426,-0.038360029458999634,-0.6080800754391674,-1.1607666314316194,-2.2417485429054658,-0.7527138590812683,0.5712927579879761,-0.32717952132225037,1.4040639400482178,0.0547122098505497,0.7410154342651367
2.9874110221862793,0.05935823917388916,-0.061565935611724854,0.014552772045135498,-0.6106767749937339,-1.1384693728124757,-2.205310926655424,-0.7438828349113464,0.5734220743179321,-0.3432576060295105,1.1717305183410645,0.10142095386981964,0.7060595154762268
3.0073680877685547,0.051973164081573486,-0.13594979047775269,0.065839022397995,-0.6141791856972245,-1.1192101264239336,-2.1767346236602894,-0.7353227734565735,0.5762879252433777,-0.35664102435112,0.8157986998558044,0.17648011445999146,0.6148877739906311
3.0271501541137695,0.0808115005493164,-0.15257596969604492,0.07548144459724426,-0.617705188234875,-1.1023904046404684,-2.15421813882276,-0.7274026870727539,0.5791659355163574,-0.36803820729255676,0.7328072190284729,0.19314491748809814,0.5331552028656006
3.04726505279541,0.10847091674804688,-0.0958060622215271,0.041142404079437256,-0.6178087285447788,-1.0848716774930334,-2.1296870339167824,-0.7207909226417542,0.5792503356933594,-0.38069629669189453,1.1265612840652466,0.13840152323246002,0.3894662857055664
3.067160129547119,0.10102909803390503,-0.015500426292419434,0.009864896535873413,-0.6100072926086616,-1.0618095012524325,-2.0950648045730267,-0.71574467420578,0.5728734135627747,-0.3994064927101135,1.7366816997528076,0.1890179067850113,0.29271581768989563
3.0869851112365723,0.11032241582870483,-0.029895424842834473,0.05270606279373169,-0.5954187671581748,-1.0337574820319009,-2.0525582101315676,-0.7113661766052246,0.560855507850647,-0.4235556721687317,1.973022699356079,0.16993671655654907,0.188465416431427
3.1070780754089355,0.13530832529067993,-0.07340902090072632,0.09595286846160889,-0.5752579067961001,-1.0071982423975814,-2.0070736786392573,-0.7092829942703247,0.5440512299537659,-0.44824787974357605,2.3925275802612305,-0.019669344648718834,0.10563066601753235
3.1261250972747803,0.1388210654258728,0.008107423782348633,0.059059709310531616,-0.5475826239525162,-0.9805579154190871,-1.9528697970639588,-0.7093318700790405,0.5206248164176941,-0.47518211603164673,3.0091657638549805,-0.22951357066631317,0.036531176418066025
3.146851062774658,0.12787193059921265,0.07375448942184448,0.03827780485153198,-0.5092001619436378,-0.9565237719279855,-1.8905280953813481,-0.7135195136070251,0.487479031085968,-0.5032435655593872,3.5329275131225586,-0.4632224440574646,-0.12106121331453323
3.1665992736816406,0.11652320623397827,0.04322099685668945,0.09307420253753662,-0.466992069308752,-0.9371403102420258,-1.8311131170076544,-0.719581127166748,0.45020246505737305,-0.5286973714828491,3.089016914367676,-0.30256202816963196,-0.2491588443517685
3.1885571479797363,0.1628509759902954,-0.04890608787536621,0.1937272548675537,-0.4310253279840543,-0.9247536874602545,-1.7857194104152454,-0.7254425287246704,0.4178025722503662,-0.5469682216644287,2.4095230102539062,-0.5003074407577515,-0.13156771659851074
3.208494186401367,0.2140580415725708,-0.18301701545715332,0.20406091213226318,-0.4034032842732939,-0.9131370138593999,-1.7448375371025326,-0.7278978228569031,0.3925507068634033,-0.5621999502182007,1.8938627243041992,-0.19208373129367828,0.19898323714733124
3.228429079055786,0.22954308986663818,0.05001232028007507,0.13329291343688965,-0.37988086050132647,-0.9107791663026491,-1.7121950150147414,-0.7336629629135132,0.3708098232746124,-0.5694196224212646,2.1720492839813232,-0.5789512991905212,-0.20427437126636505
3.244809150695801,0.20211058855056763,0.026735424995422363,0.09816688299179077,-0.3513114459235046,-0.9076157997247684,-1.6762585806285177,-0.7399066686630249,0.34412944316864014,-0.5780252814292908,2.1723790168762207,-0.3919985294342041,0.0356827974319458
3.264930248260498,0.21335047483444214,-0.09470871090888977,0.18555420637130737,-0.3273615743417444,-0.9054179174031258,-1.6430539213452113,-0.7449056506156921,0.3215458393096924,-0.5845715403556824,1.6789942979812622,-0.5046417117118835,-0.022905070334672928
3.286879062652588,0.2219151258468628,-0.153293639421463,0.2127118706703186,-0.3111366435800365,-0.9086376438275218,-1.6208290845316737,-0.7507999539375305,0.3061408996582031,-0.585300862789154,1.0449209213256836,-0.5290197730064392,0.06497659534215927
3.3064000606536865,0.2115018367767334,-0.1208944022655487,0.16206347942352295,-0.30140138977423725,-0.9149749697740389,-1.60429797808766,-0.7568203806877136,0.2968587279319763,-0.5823209881782532,0.8662059903144836,-0.6032214760780334,0.11580341309309006
3.326447010040283,0.17556357383728027,-0.03715193271636963,0.09772932529449463,-0.2928455542048797,-0.9228201742201054,-1.5886504834079096,-0.76336270570755,0.28867781162261963,-0.5778776407241821,0.8613858222961426,-0.6245511770248413,0.10801636427640915
3.346200942993164,0.1344820261001587,-0.030334770679473877,0.08397698402404785,-0.2847310430421663,-0.9303897615435929,-1.5738997835670732,-0.769568145275116,0.2808993458747864,-0.5734636783599854,0.738324761390686,-0.5425500273704529,0.08231959491968155
3.366063117980957,0.1160011887550354,-0.0772354006767273,0.11464905738830566,-0.2797690498612475,-0.9381680444473492,-1.5633736155103952,-0.7751199007034302,0.2761336863040924,-0.5682775974273682,0.3900236487388611,-0.5137631893157959,0.13736213743686676
3.384350061416626,0.12370693683624268,-0.10823825001716614,0.13836902379989624,-0.2802898932466491,-0.9468020478621438,-1.5565080211260636,-0.779880702495575,0.27663424611091614,-0.5614800453186035,0.14403989911079407,-0.5119931101799011,0.26402419805526733
3.405985116958618,0.11078929901123047,-0.07658571004867554,0.09675329923629761,-0.2874206029919579,-0.9568018841521185,-1.5546627941403246,-0.7838239669799805,0.28347957134246826,-0.5525028109550476,-0.36771348118782043,-0.543506920337677,0.3813454508781433
3.4276161193847656,-0.06766682863235474,-0.2569755017757416,-0.12320846319198608,-0.2996315794594036,-0.9714788210794694,-1.5617570970796157,-0.7889310717582703,0.2951682209968567,-0.5389466881752014,-0.7980536222457886,-0.44405701756477356,0.3509255051612854
3.4442451000213623,-0.15441381931304932,-0.27498558163642883,-0.03280150890350342,-0.31832900429181393,-0.977360681145329,-1.572777276500289,-0.787373960018158,0.31297996640205383,-0.5311175584793091,-1.0160456895828247,0.18041439354419708,0.4975707232952118
3.4659719467163086,0.017258167266845703,0.05299219489097595,0.12781012058258057,-0.3311392478574171,-0.9762580806007192,-1.5831303114506483,-0.7834020256996155,0.32512059807777405,-0.5296961069107056,-0.4202113449573517,0.1546436995267868,-0.0024665631353855133
3.4859981536865234,0.159032940864563,0.1250024139881134,0.06662243604660034,-0.3316352590258866,-0.9779922620542931,-1.5840811101406196,-0.7841855883598328,0.3255896270275116,-0.5282465815544128,0.2752927839756012,-0.29021376371383667,0.11657225340604782
3.504770278930664,0.15775781869888306,0.06399509310722351,-0.006922423839569092,-0.3318801716851461,-0.9837007836461156,-1.5728825322718498,-0.7871218323707581,0.325821191072464,-0.5237172245979309,0.522027313709259,-0.5855337381362915,0.4294988512992859
3.5257880687713623,0.030771493911743164,0.0014314353466033936,-0.05559021234512329,-0.33390106799336033,-0.9910259605714651,-1.5599440300813159,-0.7903845310211182,0.3277311325073242,-0.5175756216049194,0.32653605937957764,-0.5255159139633179,0.38660281896591187
3.546002149581909,-0.017818212509155273,-0.08654254674911499,-0.02981400489807129,-0.33802999469171485,-0.9976210532221057,-1.553652730960141,-0.7926371693611145,0.33162921667099,-0.5116136074066162,-0.028943585231900215,-0.3445018529891968,0.25321921706199646
3.565739154815674,0.02042078971862793,-0.10978031158447266,-0.0557437539100647,-0.34319273109510956,-1.0043188091799808,-1.5542139893992741,-0.7945907115936279,0.3364953398704529,-0.5053676962852478,-0.29805728793144226,-0.3279625475406647,0.17898394167423248
3.5862040519714355,0.052598774433135986,-0.10226026177406311,-0.11059761047363281,-0.3496195614737127,-1.0120981766279586,-1.558980001333695,-0.7966479063034058,0.3425404131412506,-0.4980144202709198,-0.35396808385849,-0.25392189621925354,0.12359321862459183
3.60569429397583,0.04032886028289795,-0.1119832694530487,-0.16159704327583313,-0.35438576243851205,-1.0169109891405292,-1.5635636864321991,-0.7976378202438354,0.3470143675804138,-0.4933101534843445,-0.28100746870040894,-0.05640392750501633,0.04495587199926376
3.6256511211395264,0.049319326877593994,-0.17407631874084473,-0.15483009815216064,-0.35750048005470825,-1.0184827637210223,-1.5694399882579282,-0.7974883317947388,0.34993383288383484,-0.49148643016815186,-0.3627551198005676,0.08626250177621841,-0.07096759229898453
3.645386219024658,0.09418070316314697,-0.2358604371547699,-0.12664878368377686,-0.36043542165587844,-1.0196824883784774,-1.5786660292220969,-0.7971989512443542,0.3526816964149475,-0.48998937010765076,-0.5432493090629578,0.10521035641431808,-0.12847857177257538
3.6653530597686768,0.133478045463562,-0.2268226444721222,-0.1083253026008606,-0.36451032229507824,-1.022968094493159,-1.5927143521900116,-0.797571063041687,0.3564918339252472,-0.4866149127483368,-0.796960175037384,0.060211725533008575,-0.24209503829479218
3.683377265930176,0.13537299633026123,-0.20784220099449158,-0.11198469996452332,-0.36735516670348545,-1.029029727782196,-1.6122778132111164,-0.7996339201927185,0.3591483235359192,-0.4812465012073517,-0.884385883808136,0.058659277856349945,-0.4536847472190857
3.7033772468566895,0.1422167420387268,-0.20630741119384766,-0.10305964946746826,-0.368228681904478,-1.0361816658868768,-1.6350248246497958,-0.8027850389480591,0.35996341705322266,-0.4753552973270416,-0.9857100248336792,0.02261064387857914,-0.5468685030937195
3.725208282470703,0.15602761507034302,-0.23974579572677612,-0.055033326148986816,-0.36902071215991145,-1.0460969244872163,-1.6606176837896933,-0.8072118163108826,0.360702246427536,-0.46722930669784546,-1.1490081548690796,-0.09551279991865158,-0.6040608882904053
3.7451772689819336,0.1425163745880127,-0.2610670030117035,0.017815113067626953,-0.370482184945972,-1.0599709979416323,-1.6910467557296096,-0.8131555914878845,0.3620649576187134,-0.45572715997695923,-1.393316626548767,-0.17552995681762695,-0.6764734983444214
3.7651140689849854,0.09359526634216309,-0.2711818218231201,0.05981910228729248,-0.372412588314591,-1.075877535790015,-1.7261283498496416,-0.8196847438812256,0.3638637065887451,-0.44240275025367737,-1.5419725179672241,-0.10480660945177078,-0.719330906867981
3.7850022315979004,0.025452733039855957,-0.2251676619052887,0.06723961234092712,-0.3744187530945661,-1.0897040919891476,-1.763266089627695,-0.825074315071106,0.3657316267490387,-0.4306887090206146,-1.614281415939331,0.05591418221592903,-0.7505859732627869
3.8050050735473633,-0.06404179334640503,-0.0935623049736023,0.019160568714141846,-0.37251949051987215,-1.1025590138256594,-1.8026650393297485,-0.8311607837677002,0.3639632761478424,-0.42035987973213196,-1.5689516067504883,0.10953062772750854,-1.1864475011825562
3.825155258178711,-0.17942172288894653,0.0282612144947052,0.0055408477783203125,-0.35897677644850556,-1.1136295267934917,-1.845500982883618,-0.8401095867156982,0.3513164222240448,-0.4132709503173828,-1.3599576950073242,0.3216490149497986,-1.7852143049240112
3.8449721336364746,-0.2176944613456726,-0.012553811073303223,0.029825598001480103,-0.33634955417231205,-1.120059183850074,-1.8876426497306924,-0.8496883511543274,0.33004340529441833,-0.4112190306186676,-1.3285449743270874,0.4738563001155853,-1.9044523239135742
3.8646891117095947,-0.16719764471054077,-0.08995452523231506,0.13967099785804749,-0.3170729620392675,-1.12474234879491,-1.9342442129867838,-0.8571859002113342,0.3117867708206177,-0.4099041521549225,-1.866668701171875,0.5145805478096008,-1.7676271200180054
3.8838019371032715,-0.16549652814865112,-0.09750285744667053,0.22066804766654968,-0.304790967310397,-1.1316639913257907,-1.991008710263723,-0.8634036183357239,0.30009377002716064,-0.4055587947368622,-2.501399278640747,0.5691583156585693,-1.6669063568115234
3.9047601222991943,-0.21030110120773315,-0.010018706321716309,0.25118541717529297,-0.2982974195021431,-1.138368836501729,-2.056720930168144,-0.8678544163703918,0.2938932478427887,-0.40056896209716797,-2.8739774227142334,0.710547149181366,-1.5725284814834595
3.9271750450134277,-0.25777482986450195,0.04202556610107422,0.26013821363449097,-0.2956202537724146,-1.1439269317642613,-2.126197201728057,-0.8707806468009949,0.29133325815200806,-0.39606356620788574,-3.0748257637023926,0.7475941181182861,-1.4493168592453003
3.9451732635498047,-0.30757826566696167,0.07524183392524719,0.29597389698028564,-0.29547891243733276,-1.1495722416552367,-2.1972278134215526,-0.8730401396751404,0.2911980450153351,-0.39115825295448303,-3.098055124282837,0.7668890953063965,-1.3666261434555054
3.966125011444092,-0.3671191334724426,0.10590684413909912,0.2900667190551758,-0.2956916264841368,-1.1526896075540745,-2.2666387804422268,-0.8741986751556396,0.29140153527259827,-0.3884096145629883,-2.9688398838043213,0.9877635836601257,-1.338600754737854
3.9839301109313965,-0.32383835315704346,0.10717421770095825,0.2667486071586609,-0.2941916461425911,-1.1499623752891355,-2.3318405446799195,-0.8735341429710388,0.28996631503105164,-0.3909704387187958,-2.664914846420288,1.1531602144241333,-1.3156297206878662
4.00460410118103,-0.13725227117538452,0.08705770969390869,0.23449069261550903,-0.29226869351666734,-1.1441052321150507,-2.390100620941378,-0.8717352151870728,0.2881254553794861,-0.3963101804256439,-2.3785786628723145,1.0792652368545532,-1.1456283330917358
4.024420261383057,0.016820013523101807,0.06257691979408264,0.22423183917999268,-0.29127089010913815,-1.1406220854123514,-2.4425707548056663,-0.8706102967262268,0.28716981410980225,-0.39946380257606506,-2.1594157218933105,0.786897599697113,-1.053450107574463
4.0451860427856445,0.053146541118621826,-0.005472809076309204,0.2656586766242981,-0.2903743443844441,-1.1396069066924828,-2.4908766778208724,-0.8704379200935364,0.28631091117858887,-0.40045487880706787,-2.067680835723877,0.7645155191421509,-0.9465115666389465
4.062315940856934,0.01793539524078369,-0.04603669047355652,0.2716069221496582,-0.2913840745528403,-1.1370846264456727,-2.53932017023797,-0.8691623210906982,0.2872782349586487,-0.40252742171287537,-2.217603921890259,0.8863056302070618,-0.9543089270591736
4.083216190338135,-0.005100369453430176,-0.05105522274971008,0.28381773829460144,-0.29252949813635243,-1.1326664231452306,-2.5921567011125246,-0.8670767545700073,0.2883751690387726,-0.40622371435165405,-2.4522035121917725,1.0740922689437866,-1.0630913972854614
4.102002143859863,0.029092013835906982,-0.0477067232131958,0.28160396218299866,-0.2951847143677647,-1.1279710582292741,-2.6512144811849097,-0.8644649386405945,0.2909165918827057,-0.40996089577674866,-2.814918041229248,1.1085611581802368,-1.106788992881775
4.122449159622192,0.04116910696029663,-0.04643949866294861,0.29566848278045654,-0.30117014373690176,-1.1260584176849988,-2.7198067713834257,-0.8620918989181519,0.2966378927230835,-0.41085705161094666,-3.4167723655700684,1.106268048286438,-1.1911280155181885
4.144104957580566,0.020997583866119385,-0.02180624008178711,0.32179802656173706,-0.30978810072127894,-1.1284618598452985,-2.8012798009630564,-0.8607345819473267,0.3048568367958069,-0.4076744616031647,-3.9299769401550293,1.1211894750595093,-1.376757264137268
4.163278102874756,0.004576921463012695,0.033893048763275146,0.2962155342102051,-0.31767572670939775,-1.133366639173304,-2.8907154099186445,-0.860518753528595,0.31235942244529724,-0.4024167060852051,-4.076691627502441,1.123209834098816,-1.5573855638504028
4.1846842765808105,0.010858595371246338,0.131839781999588,0.21845555305480957,-0.32006941189417953,-1.1428443539889976,-2.9823624406947102,-0.8636112809181213,0.31463244557380676,-0.3939315974712372,-3.8992269039154053,0.8000756502151489,-1.8819196224212646
4.203817129135132,0.06177312135696411,0.1794314682483673,0.1706218719482422,-0.3144007246696825,-1.157993178632932,-3.0711803909885727,-0.8710994124412537,0.30924662947654724,-0.3815136253833771,-3.607022523880005,0.4466214179992676,-2.062981128692627
4.223948955535889,0.0865563154220581,0.17015960812568665,0.15087014436721802,-0.30267188457143995,-1.178116104294564,3.127841297253439,-0.8818901777267456,0.2980717122554779,-0.3652713894844055,-3.3095967769622803,0.09793415665626526,-2.1832919120788574
4.243711948394775,0.07697218656539917,0.20498579740524292,0.10198956727981567,-0.28382551475694445,-1.2016772720766105,3.051020489538021,-0.895331621170044,0.28003016114234924,-0.3463590741157532,-2.7894392013549805,-0.23470538854599,-2.3058087825775146
4.263494968414307,0.06595534086227417,0.30053362250328064,0.013719737529754639,-0.25686243259412295,-1.2275520570637608,2.9869967305825056,-0.910773515701294,0.2540471851825714,-0.32550254464149475,-2.031885862350464,-0.6316953301429749,-2.383674144744873
4.283717155456543,0.04371565580368042,0.3773590326309204,-0.06256163120269775,-0.22213490888856313,-1.2546162771953617,2.939649292834185,-0.9270775318145752,0.22031258046627045,-0.30329832434654236,-1.2220923900604248,-0.951396107673645,-2.398588180541992
4.303394079208374,0.00907588005065918,0.42525094747543335,-0.11785915493965149,-0.1818284991583415,-1.2820791786972947,2.9080218214604865,-0.9428069591522217,0.18082822859287262,-0.28002896904945374,-0.5563367009162903,-1.134458303451538,-2.3686394691467285
4.323450088500977,0.004009604454040527,0.4625610113143921,-0.18134558200836182,-0.1396842127254821,-1.309976665442401,2.8882101304493077,-0.9567684531211853,0.139230415225029,-0.2553609311580658,-0.2679126262664795,-1.3425482511520386,-2.229858636856079
4.342410087585449,0.027003824710845947,0.5161991119384766,-0.20012959837913513,-0.09902922323954191,-1.3399336931762755,2.8725313263342187,-0.9686999320983887,0.09886744618415833,-0.2276962846517563,-0.2671601474285126,-1.450432538986206,-2.0904784202575684
4.363210201263428,0.021980464458465576,0.545143187046051,-0.24488767981529236,-0.06201331946380826,-1.3695939868326488,2.8581127329045275,-0.9779435396194458,0.06197357922792435,-0.19946341216564178,-0.35168546438217163,-1.3871318101882935,-1.8422585725784302
4.383224964141846,0.0279238224029541,0.5966468453407288,-0.30006903409957886,-0.029715639811898484,-1.3963643319694967,2.844301904918026,-0.9843905568122864,0.029711266979575157,-0.17347218096256256,-0.3789252042770386,-1.2383612394332886,-1.5873188972473145
4.403059005737305,0.06972390413284302,0.6418031454086304,-0.37026840448379517,-0.0026976555070023743,-1.4201397137648237,2.8333516922136894,-0.9886692762374878,0.002697652205824852,-0.15008682012557983,-0.2529396414756775,-1.1304420232772827,-1.2513198852539062
4.424561977386475,0.11485886573791504,0.6666432619094849,-0.4100459814071655,0.017901485615630475,-1.4412444394235764,2.82687582836668,-0.9914610981941223,-0.017900530248880386,-0.12916910648345947,-0.09187434613704681,-0.9798175096511841,-0.8858107924461365
4.439914226531982,0.12421047687530518,0.6614440083503723,-0.4503899812698364,0.031841182138918844,-1.4590535635094606,2.824618987863031,-0.9932595491409302,-0.031835801899433136,-0.11145384609699249,0.009529756382107735,-0.8092939257621765,-0.5507552623748779
4.46299409866333,0.13648658990859985,0.6823326945304871,-0.4905553460121155,0.04023835911205259,-1.4734269752708866,2.8241109346373574,-0.9944579005241394,-0.0402275025844574,-0.09713689237833023,0.0264664888381958,-0.6499375700950623,-0.28620511293411255
4.483029127120972,0.1768132448196411,0.6616406440734863,-0.5122546553611755,0.043077875232982676,-1.4857628497081479,2.824039157381727,-0.9954625964164734,-0.043064553290605545,-0.08485225588083267,-0.014021029695868492,-0.5980362296104431,-0.0015629599802196026
4.50192928314209,0.18101656436920166,0.6335614919662476,-0.5179814696311951,0.04099782228665258,-1.4970812669982003,2.8238673886574817,-0.9964463114738464,-0.04098633676767349,-0.07358643412590027,0.005304691381752491,-0.5199258327484131,0.1935155838727951
4.522768020629883,0.1608157753944397,0.647516667842865,-0.5345613360404968,0.03557035932094078,-1.5060283592980352,2.82610083463912,-0.9972721338272095,-0.03556285798549652,-0.0646817609667778,0.20312555134296417,-0.37605020403862,0.3664095103740692
4.542015075683594,0.18508964776992798,0.6595850586891174,-0.531557023525238,0.02653149619620834,-1.5131288037600807,2.833377279575943,-0.9979864358901978,-0.026528384536504745,-0.057615287601947784,0.4714849591255188,-0.3488922417163849,0.5861197113990784
4.562705993652344,0.1785660982131958,0.6450448632240295,-0.5387436747550964,0.013193955264911043,-1.5230156006329538,2.8468423704486137,-0.9987717270851135,-0.013193572871387005,-0.04775838553905487,0.8452837467193604,-0.6466786861419678,0.8170208930969238
4.5830230712890625,-0.03740054368972778,0.6845346093177795,-0.5963343381881714,-0.003102764945315269,-1.536844496308375,2.8706671716283707,-0.999419093132019,0.003102760063484311,-0.033945150673389435,1.4825713634490967,-0.6050498485565186,0.8762073516845703
4.602482080459595,-0.28438347578048706,0.7244576215744019,-0.5459868907928467,-0.019791200088855102,-1.542341509085357,2.9049634767344292,-0.9993995428085327,0.019789908081293106,-0.0284454096108675,1.8173638582229614,0.010193301364779472,0.940230667591095
4.622809171676636,-0.21548402309417725,0.6323697566986084,-0.42018455266952515,-0.040569329926290615,-1.5380825646941365,2.939393783878929,-0.99864262342453,0.04055820405483246,-0.03268101438879967,1.4775049686431885,0.23268993198871613,1.2761595249176025
4.642560005187988,-0.13994592428207397,0.5101536512374878,-0.3288608193397522,-0.06930860008019034,-1.5324139022408485,2.9647696644333545,-0.9968643188476562,0.06925312429666519,-0.03828087076544762,0.9892273545265198,0.20501214265823364,1.6837550401687622
4.662276268005371,-0.2974141240119934,0.4632931351661682,-0.2860296964645386,-0.10530658140224752,-1.52501361931893,2.984245507212768,-0.9934184551239014,0.10511205345392227,-0.04551319032907486,0.8682851195335388,0.4102611839771271,1.9769436120986938
4.68381404876709,-0.4951208233833313,0.47203344106674194,-0.23205679655075073,-0.14549908785307905,-1.5110335905706185,3.005309260680773,-0.9876673221588135,0.14498625695705414,-0.0590960755944252,1.0422558784484863,0.7210446000099182,2.1372056007385254
4.702773094177246,-0.5381386280059814,0.4424334764480591,-0.13485056161880493,-0.18777273605332367,-1.488767435010357,3.032626142808161,-0.9791192412376404,0.18667124211788177,-0.08049669861793518,1.364553451538086,1.0129154920578003,2.2568016052246094
4.7221479415893555,-0.45020073652267456,0.3551873564720154,-0.033118247985839844,-0.23167268980648928,-1.4588191412273288,3.0679161494773726,-0.9671881794929504,0.22960583865642548,-0.10875795781612396,1.626436710357666,1.1830720901489258,2.409611225128174
4.742301940917969,-0.37217265367507935,0.2695106863975525,0.054481759667396545,-0.2761615485819683,-1.4241795469993088,3.109213890581519,-0.9517866969108582,0.2726646661758423,-0.14055649936199188,1.750733733177185,1.2449936866760254,2.5071873664855957
4.762412071228027,-0.3450095057487488,0.1984897255897522,0.12447454035282135,-0.3202306134977496,-1.384712021255301,-3.1291795150516792,-0.932776689529419,0.3147854506969452,-0.17560672760009766,1.7368929386138916,1.3832265138626099,2.5339608192443848
4.7821431159973145,-0.28698915243148804,0.11867117881774902,0.18519750237464905,-0.3622692756244307,-1.340744491563647,-3.082893818877099,-0.9104595184326172,0.35439711809158325,-0.21322783827781677,1.679612636566162,1.4646772146224976,2.493380069732666
4.801151275634766,-0.19272416830062866,0.04811650514602661,0.2410934567451477,-0.40198419808386726,-1.293542442702153,-3.035320193087215,-0.8851414918899536,0.39124515652656555,-0.2518966495990753,1.61309814453125,1.462855577468872,2.4631524085998535
4.821967124938965,-0.12472659349441528,-0.013048797845840454,0.2795340120792389,-0.43847942064336043,-1.2442136053368453,-2.9844497501122667,-0.857542872428894,0.4245632290840149,-0.2904593050479889,1.7590519189834595,1.397688865661621,2.4207072257995605
4.841902256011963,-0.1088794469833374,-0.05613645911216736,0.3059454560279846,-0.47143143535696075,-1.1926140158115215,-2.9286851909528906,-0.8279644846916199,0.45416203141212463,-0.328955739736557,1.7808358669281006,1.3178329467773438,2.397981643676758
4.86201810836792,-0.13568651676177979,-0.10855603218078613,0.3702748119831085,-0.5010904300969964,-1.1399725375787584,-2.8730048043727425,-0.7969153523445129,0.48038220405578613,-0.3662770092487335,1.548680305480957,1.360544204711914,2.257680654525757
4.881792068481445,-0.16451716423034668,-0.1721128225326538,0.44130319356918335,-0.5278783643309416,-1.0870574535670077,-2.822583499608757,-0.7647583484649658,0.5037016272544861,-0.40178290009498596,1.2170493602752686,1.4355170726776123,2.095153570175171
4.9016852378845215,-0.1744016408920288,-0.2161799669265747,0.4975256323814392,-0.5523239068819508,-1.0357932359862012,-2.7782051317358483,-0.7323518991470337,0.5246670246124268,-0.4340338110923767,0.9470809102058411,1.4105225801467896,1.9034990072250366
4.921621084213257,-0.19659382104873657,-0.24196583032608032,0.522276759147644,-0.5735045580794296,-0.9868406442274698,-2.7378001672849392,-0.7008060216903687,0.5425792336463928,-0.46311840415000916,0.831587553024292,1.333277940750122,1.7065765857696533
4.941586971282959,-0.23822981119155884,-0.24613040685653687,0.5387955904006958,-0.5909318701428424,-0.9410292564173377,-2.7015142498495335,-0.6711177229881287,0.5571351051330566,-0.4890824258327484,0.6876201629638672,1.2566665410995483,1.4419995546340942
4.96153712272644,-0.2639901638031006,-0.2910630702972412,0.5657338500022888,-0.6039563392261366,-0.8987968510902539,-2.6700552932864845,-0.6441366672515869,0.5679033398628235,-0.5124196410179138,0.5841033458709717,1.1836061477661133,1.1809039115905762
4.980626106262207,-0.2618325352668762,-0.35420650243759155,0.6080072522163391,-0.6140797687978107,-0.861699679687708,-2.644861093792901,-0.6202932596206665,0.5762066841125488,-0.5321862697601318,0.33906441926956177,1.072351336479187,0.9095640778541565
5.0004870891571045,-0.26738178730010986,-0.3967663645744324,0.6144177913665771,-0.623468223498407,-0.83272001180386,-2.629391108404008,-0.6005838513374329,0.5838543772697449,-0.5462719798088074,-0.040453553199768066,0.9234163165092468,0.6345994472503662
5.020359992980957,-0.27496659755706787,-0.4078652858734131,0.6207935810089111,-0.6342303981832499,-0.8126654306740809,-2.624436593146324,-0.5849119424819946,0.5925577282905579,-0.5538532137870789,-0.3850001394748688,0.7898755669593811,0.39630234241485596
5.041230201721191,-0.2792646288871765,-0.43185901641845703,0.6377562880516052,-0.6459393397094085,-0.8006550949929384,-2.629162354310307,-0.573198139667511,0.6019487977027893,-0.5559691786766052,-0.6920855045318604,0.667308509349823,0.18334995210170746
5.06067419052124,-0.2830394506454468,-0.46800869703292847,0.6254689693450928,-0.658266660404615,-0.7980967565965118,-2.642485828716673,-0.5664173364639282,0.611746609210968,-0.5522115230560303,-0.9194942712783813,0.38216036558151245,-0.04824003204703331
5.0805580615997314,-0.32424354553222656,-0.47180694341659546,0.5977873802185059,-0.6695407616723855,-0.8067390475576582,-2.6641572843000185,-0.5661524534225464,0.6206259727478027,-0.5424894690513611,-1.0947481393814087,0.11159084737300873,-0.3453821539878845
5.101219177246094,-0.39222121238708496,-0.4415849447250366,0.5784022212028503,-0.6778262874121899,-0.8243897559946657,-2.6949001342467036,-0.5718442797660828,0.6271013021469116,-0.5289026498794556,-1.2304996252059937,0.06860174983739853,-0.7040116190910339
5.120453119277954,-0.38590478897094727,-0.42690908908843994,0.5341488718986511,-0.6821081994573581,-0.8496780362928648,-2.7342602336348323,-0.5830129981040955,0.6304308772087097,-0.5124966502189636,-1.3193690776824951,-0.21086034178733826,-1.0222026109695435
5.141631126403809,-0.37968283891677856,-0.4002072811126709,0.4457457661628723,-0.6813432156301208,-0.888202565746184,-2.7790371494952657,-0.6026932597160339,0.629836916923523,-0.4899657070636749,-1.2785321474075317,-0.7762313485145569,-1.2921805381774902
5.160093069076538,-0.498768150806427,-0.35142648220062256,0.44905275106430054,-0.6753092585450114,-0.9354307309240429,-2.829327977868154,-0.6282002329826355,0.6251387000083923,-0.46321290731430054,-1.561531662940979,-0.7012265920639038,-1.6066991090774536
5.180930137634277,-0.5662794709205627,-0.3820435404777527,0.5544369220733643,-0.6680679150986966,-0.9860870033689345,-2.8953660191012545,-0.6546067595481873,0.6194704174995422,-0.43329736590385437,-2.327392578125,-0.22053053975105286,-1.9439711570739746
5.201040267944336,-0.42775750160217285,-0.4318208694458008,0.5656225085258484,-0.6622152632371359,-1.0425725462080977,-2.9821334839434313,-0.6811444759368896,0.6148653626441956,-0.397470623254776,-3.082180976867676,-0.24525827169418335,-2.1628365516662598
5.220716953277588,-0.3180595636367798,-0.3000256419181824,0.3743909001350403,-0.6518987371251471,-1.1122348662428214,-3.0784278604838216,-0.7128089666366577,0.6066968441009521,-0.351884126663208,-3.005779981613159,-0.8129543662071228,-2.3802881240844727
5.2406721115112305,-0.3905547857284546,-0.07800298929214478,0.19046247005462646,-0.6277889425827489,-1.1821025877413354,3.1187551260629527,-0.7489563822746277,0.5873567461967468,-0.30671918392181396,-2.267160654067993,-0.9910132884979248,-2.6846206188201904
5.2608561515808105,-0.4326093792915344,0.0003333091735839844,0.11291345953941345,-0.5881553677232731,-1.2425431067796642,3.0507668533576777,-0.787544310092926,0.5548272728919983,-0.26821738481521606,-1.6196082830429077,-1.1783969402313232,-2.9749529361724854
5.281052112579346,-0.3581168055534363,0.03083270788192749,0.06662328541278839,-0.5391806713280096,-1.2963347016333922,2.998068191430644,-0.8260110020637512,0.5134330987930298,-0.2325778305530548,-1.2039607763290405,-1.3888241052627563,-3.0103607177734375
5.300550937652588,-0.29654061794281006,0.08713185787200928,0.015734687447547913,-0.4867479959810411,-1.3452854379199324,2.9587331307247613,-0.8614793419837952,0.467754065990448,-0.19763463735580444,-0.8212608098983765,-1.5622889995574951,-2.931535482406616
5.320342063903809,-0.2839146852493286,0.12816327810287476,-0.011779248714447021,-0.43333731358400623,-1.3888200885779203,2.9307360181701245,-0.8925837278366089,0.419901967048645,-0.164246067404747,-0.6119489073753357,-1.5210672616958618,-2.814328670501709
5.340384006500244,-0.25462138652801514,0.14339494705200195,-0.002760767936706543,-0.38122982883127904,-1.4276825763736696,2.9070683008679796,-0.9187185168266296,0.3720622956752777,-0.13238631188869476,-0.7391388416290283,-1.4362400770187378,-2.702371835708618
5.35997200012207,-0.20929694175720215,0.17607346177101135,-0.022442877292633057,-0.3302479053637852,-1.465087414217063,2.8813707802891324,-0.9406817555427551,0.3242775499820709,-0.09981049597263336,-0.9852501749992371,-1.4794858694076538,-2.6954495906829834
5.380323171615601,-0.17691397666931152,0.27546870708465576,-0.09161751717329025,-0.2792164506899799,-1.5017431297323929,2.8546069864656034,-0.9589807987213135,0.2756025195121765,-0.06632614880800247,-1.042391061782837,-1.414489984512329,-2.5874524116516113
5.40022611618042,-0.1505170464515686,0.39690113067626953,-0.19266563653945923,-0.22985829673928337,-1.536462955284035,2.831895164953397,-0.9731249809265137,0.22783954441547394,-0.03342379629611969,-0.8154940009117126,-1.5446736812591553,-2.505112648010254
5.420255184173584,-0.12569129467010498,0.44755905866622925,-0.21889418363571167,-0.1808049091019013,-1.569919142790449,2.8177922575548506,-0.9836991429328918,0.1798214167356491,-0.0008628853829577565,-0.5266234874725342,-1.5137914419174194,-2.4260716438293457
5.441651105880737,-0.11167913675308228,0.4860163927078247,-0.26103532314300537,-0.13299728910375902,-1.601316813737749,2.8080232799168847,-0.990707516670227,0.13260555267333984,0.030246267095208168,-0.5466455221176147,-1.4580318927764893,-2.345703125
5.460107088088989,-0.10148823261260986,0.5211753845214844,-0.3076012134552002,-0.08666015071405453,-1.6299509538559287,2.7965725142368933,-0.9945048093795776,0.0865517184138298,0.05889827758073807,-0.8147140741348267,-1.2680774927139282,-2.222517967224121
5.480017185211182,-0.06221741437911987,0.5662456154823303,-0.36406612396240234,-0.0431428770628993,-1.6541833772644512,2.7810756036452053,-0.995598316192627,0.04312949627637863,0.0832129642367363,-1.0298380851745605,-1.0648597478866577,-1.9962925910949707
5.499963283538818,-0.00615161657333374,0.6181966662406921,-0.4291337728500366,-0.00416364732194597,-1.6742794884659264,2.76286010341196,-0.9946419596672058,0.004163635428994894,0.10329768806695938,-1.1309764385223389,-0.9034625887870789,-1.7057160139083862
5.520089149475098,0.04493933916091919,0.6912793517112732,-0.4960247278213501,0.028777158947855097,-1.690492943029984,2.7439746649771037,-0.9924339652061462,-0.02877318672835827,0.11936157196760178,-1.0952178239822388,-0.7424112558364868,-1.350807547569275
5.539961099624634,0.08592218160629272,0.7341464161872864,-0.5395159721374512,0.05471503430151999,-1.7028730558083636,2.7258855800361252,-0.9898073077201843,-0.0546877384185791,0.13149601221084595,-1.0607266426086426,-0.5506522059440613,-0.9949132800102234
5.559967994689941,0.12770521640777588,0.7432727813720703,-0.5241266489028931,0.07363098768429553,-1.7099905800061765,2.7063314044169315,-0.9876447916030884,-0.07356447726488113,0.13836927711963654,-1.1369107961654663,-0.2951200008392334,-0.6257396340370178
5.5800461769104,0.1551399827003479,0.7477133870124817,-0.5345340967178345,0.08577013532036079,-1.7125403602312486,2.6854535526279655,-0.9863321781158447,-0.0856650099158287,0.14075058698654175,-1.0568724870681763,-0.14026235044002533,-0.2989080250263214
5.5999650955200195,0.1647878885269165,0.8007547855377197,-0.56740403175354,0.0914246482409196,-1.7125682396554522,2.668219175189263,-0.985832929611206,-0.09129734337329865,0.14070738852024078,-0.6776521801948547,-0.029484691098332405,-0.027162792161107063
5.619961261749268,0.1592199206352234,0.8485487103462219,-0.6112403869628906,0.09072318613830296,-1.7123556907519342,2.660425188671811,-0.9859259724617004,-0.09059878438711166,0.14050684869289398,-0.05876493453979492,-0.038465313613414764,0.18961270153522491
5.639950275421143,0.1242910623550415,0.8752058148384094,-0.6385974884033203,0.08413678536774831,-1.7139112307760678,2.664715797328978,-0.9862753748893738,-0.08403754979372025,0.14212234318256378,0.5529122948646545,-0.07890106737613678,0.40629398822784424
5.659972190856934,0.05084007978439331,0.8487080931663513,-0.5721195936203003,0.07165446333032496,-1.7155841472881352,2.6774763693086823,-0.9869972467422485,-0.07159316539764404,0.14391222596168518,0.8132680654525757,0.06656087934970856,0.6531062126159668
5.679962158203125,-0.03557455539703369,0.7636502981185913,-0.4563981294631958,0.0535317882343091,-1.712023556762463,2.6906167694922183,-0.9886259436607361,-0.05350622534751892,0.14055661857128143,0.7205356359481812,0.35657912492752075,0.9724472761154175
5.699961185455322,-0.12199211120605469,0.703970193862915,-0.4270899295806885,0.02949015693694277,-1.703779965899725,2.7007391779829293,-0.9907400012016296,-0.029485883191227913,0.13253441452980042,0.6562146544456482,0.5112945437431335,1.2483961582183838
5.7201011180877686,-0.2451900839805603,0.747616171836853,-0.4773976802825928,0.0008204824646114577,-1.6921225814635694,2.7132557743833297,-0.9926486015319824,-0.0008204823825508356,0.12102877348661423,1.0277506113052368,0.6519052386283875,1.4429655075073242
5.739963054656982,-0.33578741550445557,0.7978118658065796,-0.4606984853744507,-0.03288262061325495,-1.6782438690496415,2.7365836209020813,-0.993695855140686,0.032876696437597275,0.10718296468257904,1.689635157585144,0.7126778364181519,1.6366087198257446
5.759986162185669,-0.4267098307609558,0.759398341178894,-0.32059431076049805,-0.07122833631308972,-1.6606446833291828,2.77153210755277,-0.9934408664703369,0.07116812467575073,0.08949999511241913,2.1154849529266357,0.879148542881012,1.8498241901397705
5.779962062835693,-0.5498629808425903,0.6352330446243286,-0.14163172245025635,-0.113684291260046,-1.6360982906080817,2.8115866485833196,-0.9914273619651794,0.11343957483768463,0.06483433395624161,2.1359846591949463,1.235333800315857,2.0692076683044434
5.800006151199341,-0.6803222298622131,0.513946533203125,-0.010226013138890266,-0.15944244813241198,-1.6014197717783292,2.850191625703697,-0.9868531227111816,0.15876774489879608,0.030230293050408363,1.915537714958191,1.705363392829895,2.3114817142486572
5.819962024688721,-0.7243887782096863,0.40321922302246094,0.07496112585067749,-0.20943844046562216,-1.5566212647331519,2.8864932320119285,-0.978049635887146,0.20791064202785492,-0.013864842243492603,1.6907564401626587,2.0205559730529785,2.5951130390167236
5.840147972106934,-0.6751629710197449,0.3087700307369232,0.13921207189559937,-0.2632290728189034,-1.5066643560801758,2.9215008162097416,-0.9635698199272156,0.26019975543022156,-0.06188049167394638,1.5116422176361084,2.1366782188415527,2.9218060970306396
5.8601579666137695,-0.6113049983978271,0.21990430355072021,0.17242926359176636,-0.32159060909401693,-1.453160096401414,2.9577595040007845,-0.9421771168708801,0.31607601046562195,-0.11134826391935349,1.4311128854751587,2.1710071563720703,3.20650577545166
5.8801469802856445,-0.5312694907188416,0.14748993515968323,0.2167670726776123,-0.38331242436261304,-1.3964524080189868,2.9980619156437145,-0.9133716821670532,0.3739945590496063,-0.16087408363819122,1.4408648014068604,2.108144760131836,3.4618966579437256
5.899963140487671,-0.46214157342910767,0.07533025741577148,0.2689407765865326,-0.44697338199348985,-1.3359213758983335,3.0455378275389977,-0.8770003914833069,0.43223825097084045,-0.2098587304353714,1.5328855514526367,2.036220073699951,3.667264699935913
5.919969081878662,-0.42686790227890015,0.00755956768989563,0.3291294276714325,-0.510549115555572,-1.2702033358072662,3.102380063671573,-0.8333556056022644,0.4886564016342163,-0.2583286464214325,1.6679909229278564,1.916978359222412,3.805864095687866
5.940007209777832,-0.4358881115913391,-0.07572978734970093,0.39046621322631836,-0.5716267253519546,-1.1980636155850626,-3.1135490957472283,-0.7832739353179932,0.5410009026527405,-0.30626818537712097,1.7461729049682617,1.8479782342910767,3.8663997650146484
5.960038185119629,-0.4894576072692871,-0.1664448380470276,0.46406134963035583,-0.6281872105377029,-1.118412312708622,-3.0382362978176087,-0.7277054190635681,0.5876790285110474,-0.35366395115852356,1.6641064882278442,1.8860000371932983,3.804962158203125
5.9800331592559814,-0.5469325184822083,-0.2507472634315491,0.5375580787658691,-0.678850564236687,-1.0315457978937779,-2.9591793168212988,-0.6678501963615417,0.6278988122940063,-0.39964911341667175,1.4309600591659546,1.9990710020065308,3.639702558517456
6.0000340938568115,-0.561154305934906,-0.31775516271591187,0.6028808355331421,-0.7236586042541429,-0.9402577938533367,-2.8806939541786223,-0.6052885055541992,0.6621308326721191,-0.4418242275714874,1.1021640300750732,2.0636916160583496,3.4225213527679443
6.020008087158203,-0.5418111085891724,-0.3721500635147095,0.6461502313613892,-0.7634386258037529,-0.8477865177002232,-2.8047605237564515,-0.5417155027389526,0.6914098262786865,-0.4780136048793793,0.7745736837387085,2.0519843101501465,3.197740316390991
6.040004253387451,-0.5099489092826843,-0.41613566875457764,0.6818609237670898,-0.7991510343735291,-0.7564371141962591,-2.7318066838502855,-0.4785916805267334,0.7167643308639526,-0.5071477293968201,0.4870672821998596,1.9351361989974976,2.9793550968170166
6.059959173202515,-0.4871059060096741,-0.46282559633255005,0.6929365992546082,-0.8309200470553442,-0.6682193905426967,-2.6616754660053275,-0.41772496700286865,0.7385519742965698,-0.5291944742202759,0.2634226679801941,1.789892315864563,2.746978759765625
6.079963207244873,-0.46382251381874084,-0.5191774964332581,0.6913337111473083,-0.858267759771309,-0.5842562971486857,-2.594948537731443,-0.36059457063674927,0.7567112445831299,-0.5453070998191833,0.13772614300251007,1.628970980644226,2.445178508758545
6.099961280822754,-0.4227931499481201,-0.5927245020866394,0.6765914559364319,-0.8802072764425651,-0.5067214529094209,-2.533425708508554,-0.3091403841972351,0.7708709239959717,-0.5569472908973694,0.05632496997714043,1.4120922088623047,2.0830605030059814
6.119961261749268,-0.3715856969356537,-0.6725339293479919,0.6546453833580017,-0.8964016220431592,-0.4399819367077679,-2.480430230211817,-0.26595696806907654,0.7810850739479065,-0.5649541616439819,0.013205118477344513,1.139604091644287,1.6320587396621704
6.139961242675781,-0.3241063952445984,-0.7286996245384216,0.6541000604629517,-0.9088360245010817,-0.3898487318798982,-2.440529533201461,-0.23360228538513184,0.7887887954711914,-0.5685440301895142,-0.16367624700069427,0.7136641144752502,1.110879898071289
6.1599602699279785,-0.31536412239074707,-0.7379514575004578,0.6525424718856812,-0.919719055816789,-0.36416721868893437,-2.4198826384532817,-0.21585533022880554,0.79543137550354,-0.5662997364997864,-0.39517438411712646,0.23405525088310242,0.44997134804725647
6.180002212524414,-0.35763514041900635,-0.703148365020752,0.643149197101593,-0.9295042856102949,-0.3648245636652294,-2.422746974855296,-0.21344023942947388,0.8013234734535217,-0.558859646320343,-0.5793207287788391,-0.03332887589931488,-0.26303166151046753
6.199960231781006,-0.3710494637489319,-0.7294140458106995,0.6457041501998901,-0.9379785717769741,-0.389723197762166,-2.4503133697609183,-0.22469937801361084,0.8063642382621765,-0.5470713376998901,-0.808728814125061,-0.25303664803504944,-0.9352411031723022
6.219963073730469,-0.3459058403968811,-0.7561482191085815,0.6331716179847717,-0.9443805427131303,-0.4389086499578177,-2.500104316361415,-0.24912585318088531,0.8101339340209961,-0.5306782722473145,-0.9718836545944214,-0.7133232951164246,-1.4830126762390137
6.239997148513794,-0.3767106831073761,-0.687868595123291,0.535243034362793,-0.9457410686393855,-0.5163853807480838,-2.5693394367275437,-0.2889081835746765,0.8109307885169983,-0.5088452696800232,-0.9474896192550659,-1.4272315502166748,-2.089557409286499
6.259960174560547,-0.535285234451294,-0.5341677069664001,0.4143538475036621,-0.9331012750952566,-0.6183496681625327,-2.653513788228447,-0.34511637687683105,0.8034701347351074,-0.4851088523864746,-0.6493726968765259,-1.8914011716842651,-2.804713010787964
6.279959201812744,-0.7256309986114502,-0.4012433886528015,0.45703357458114624,-0.903068960427573,-0.7279320779263758,-2.746585236466065,-0.4119727611541748,0.7852309346199036,-0.46226730942726135,-0.6474295258522034,-1.5418955087661743,-3.4713823795318604
6.299961090087891,-0.7173807621002197,-0.4058709144592285,0.5572455525398254,-0.8636607085530547,-0.8326672538050623,-2.848877327896661,-0.4805714786052704,0.7602258920669556,-0.43715885281562805,-1.1681804656982422,-1.1907298564910889,-3.8855674266815186
6.320027112960815,-0.5502049326896667,-0.4342796802520752,0.4700559973716736,-0.8190518388289569,-0.9417875774453173,-2.9563636195414915,-0.5522119998931885,0.7304986715316772,-0.4017881453037262,-1.4823931455612183,-1.7549083232879639,-4.088176250457764
6.339960098266602,-0.5937156677246094,-0.27167922258377075,0.26393893361091614,-0.7646546595953647,-1.0510167532942498,-3.0548245469283337,-0.6263159513473511,0.6922878623008728,-0.35842132568359375,-1.342758297920227,-2.0960822105407715,-4.308391571044922
6.359957218170166,-0.8058629035949707,-0.118813157081604,0.18358933925628662,-0.6951836991376009,-1.1501399076578673,-3.1411409338244995,-0.7009882926940918,0.640526533126831,-0.31359419226646423,-1.3395854234695435,-2.022245168685913,-4.833494663238525
6.3799591064453125,-0.8896130323410034,-0.05585432052612305,0.1555260419845581,-0.6133554767489925,-1.2396317878130754,3.0598287346600155,-0.7732897996902466,0.5756145119667053,-0.2658775746822357,-1.7773990631103516,-1.9568383693695068,-5.136075496673584
6.39995813369751,-0.8457046747207642,0.06599956750869751,0.08937650918960571,-0.5263965049312922,-1.3222624857528942,2.979564788436233,-0.8380569219589233,0.502420961856842,-0.21268272399902344,-2.2032947540283203,-1.9690839052200317,-5.1072306632995605
6.419934272766113,-0.8675563931465149,0.2506152391433716,-0.005956411361694336,-0.4377803185903095,-1.3947125136419938,2.9053531812594238,-0.8916904330253601,0.42393016815185547,-0.15865537524223328,-2.3300535678863525,-1.7978860139846802,-4.947216033935547
6.439988136291504,-0.8422473669052124,0.39101549983024597,-0.10377703607082367,-0.3495007760624202,-1.4528946556270486,2.840424393181746,-0.9330211281776428,0.3424288034439087,-0.11051731556653976,-2.3799240589141846,-1.4976942539215088,-4.637472152709961
6.459994077682495,-0.6649988293647766,0.48345836997032166,-0.1729326844215393,-0.2708006687039068,-1.4967484319997677,2.774103107409637,-0.9609167575836182,0.267503023147583,-0.07128419727087021,-2.839179277420044,-0.8564146757125854,-3.8474955558776855
6.479976177215576,-0.5612807869911194,0.583180844783783,-0.3423886299133301,-0.19825150509437225,-1.5300205076977953,2.719626933616601,-0.9795977473258972,0.1969553828239441,-0.039966050535440445,-2.299571990966797,-1.1129696369171143,-3.7217133045196533
6.499965190887451,-0.3296608328819275,0.8281017541885376,-0.37414032220840454,-0.13244450478181574,-1.5564438256272943,2.680287404200518,-0.9911399483680725,0.13205763697624207,-0.01422631461173296,-1.3749736547470093,-1.0940797328948975,-2.9647247791290283
6.519963264465332,-0.17498040199279785,0.7900044918060303,-0.310508131980896,-0.07785680766509201,-1.583155053157334,2.6574853052338403,-0.9968947768211365,0.0777781754732132,0.012320976704359055,-0.9052839279174805,-1.1844604015350342,-2.4719431400299072
6.5399580001831055,-0.16062533855438232,0.7985593676567078,-0.3127439022064209,-0.033096570625413706,-1.6061164281877525,2.644887107652192,-0.9988291263580322,0.03309052810072899,0.035293422639369965,-0.5129051208496094,-1.0081897974014282,-1.9457659721374512
6.559959173202515,-0.1449461579322815,0.7255808711051941,-0.30890750885009766,0.004007935932114844,-1.6242671351130396,2.6346757654116555,-0.9985628128051758,-0.004007925279438496,0.05344490706920624,-0.7541198134422302,-0.7908264398574829,-1.74592125415802
6.5799880027771,-0.10832542181015015,0.7371616959571838,-0.318790078163147,0.03868498455725871,-1.6371671876776803,2.6190543302711,-0.9970518350601196,-0.03867533802986145,0.06627252697944641,-0.9820410013198853,-0.5331576466560364,-1.6216806173324585
6.59995698928833,-0.03490561246871948,0.7908833026885986,-0.35156309604644775,0.07152283725566069,-1.64461519144755,2.601254041388255,-0.9947270750999451,-0.07146187126636505,0.07356329262256622,-0.998314380645752,-0.3263342082500458,-1.5335057973861694
6.619958162307739,0.04832136631011963,0.8611690998077393,-0.42400503158569336,0.10259033290942744,-1.6484858880493631,2.584806878387254,-0.9917417764663696,-0.10241047292947769,0.07720337063074112,-0.8755884766578674,-0.2060672789812088,-1.4358160495758057
6.640001058578491,0.1454426646232605,0.8977099061012268,-0.41299521923065186,0.1307942592323917,-1.6489824158149518,2.5692126661588883,-0.9884299635887146,-0.13042165338993073,0.0774393305182457,-0.9208743572235107,-0.022504812106490135,-1.240451455116272
6.659959077835083,0.235462486743927,0.9116480350494385,-0.3919494152069092,0.15413992180509586,-1.6455241883389187,2.5514378273113825,-0.9853864312171936,-0.1535302698612213,0.07377319037914276,-1.0042603015899658,0.09139876812696457,-0.9519056081771851
6.679957151412964,0.29230374097824097,0.9578208923339844,-0.3985859155654907,0.17066902717405374,-1.6406341807215812,2.533679469014097,-0.983069121837616,-0.1698416918516159,0.06876727193593979,-0.7930362224578857,0.09320047497749329,-0.560177743434906
6.700042247772217,0.3006638288497925,1.0503946542739868,-0.42470288276672363,0.1783062608372802,-1.6377849686962072,2.524338848073445,-0.981938362121582,-0.17736294865608215,0.0658772885799408,-0.11219152808189392,0.0314682312309742,-0.14959830045700073
6.719956159591675,0.2573186755180359,1.126799464225769,-0.4573554992675781,0.17689971683018957,-1.6393670624532561,2.5310149434440614,-0.9820808172225952,-0.17597852647304535,0.06744775176048279,0.7615331411361694,-0.09813211113214493,0.25438857078552246
6.740005970001221,0.1708986759185791,1.1337486505508423,-0.4149017333984375,0.16564830609318457,-1.6468611317141826,2.5523462035924886,-0.983460009098053,-0.1648917943239212,0.07495129853487015,1.343936562538147,-0.26698699593544006,0.7125210762023926
6.7599570751190186,-0.010545015335083008,1.0615463256835938,-0.3155437707901001,0.1452474141291907,-1.65522693949696,2.5790069653477268,-0.9859456419944763,-0.14473724365234375,0.08344236761331558,1.3691259622573853,-0.0839482918381691,1.10364830493927
6.779957294464111,-0.19269275665283203,0.9328603744506836,-0.21924221515655518,0.11734883260153876,-1.6555445789230372,2.6010703614012143,-0.9895584583282471,-0.11707969009876251,0.08406469970941544,1.0175637006759644,0.33830150961875916,1.5020586252212524
6.800004959106445,-0.2944456934928894,0.8448498249053955,-0.188262939453125,0.08172661259763549,-1.6468987849190646,2.6152738933281245,-0.9937777519226074,-0.08163566142320633,0.07577527314424515,0.7401806712150574,0.6348866820335388,1.942641019821167
6.819961071014404,-0.3345864415168762,0.8391227722167969,-0.21667897701263428,0.037526250249863634,-1.6341351589198556,2.627533265553473,-0.9972923994064331,-0.03751744329929352,0.06325194239616394,0.8594186902046204,0.7010897397994995,2.3742895126342773
6.839956283569336,-0.35729551315307617,0.821760892868042,-0.19929897785186768,-0.014619681918710516,-1.6201268361997736,2.6451220577186505,-0.9986768364906311,0.014619161374866962,0.04930524155497551,1.1976592540740967,0.7008334398269653,2.746657133102417
6.859957218170166,-0.3912563920021057,0.7225557565689087,-0.08102715015411377,-0.07412776324217475,-1.6050798870392957,2.6694231941423494,-0.9966678023338318,0.07405989617109299,0.03418271243572235,1.4669082164764404,0.7259868383407593,3.0944275856018066
6.87999415397644,-0.49559110403060913,0.6019248366355896,0.014526605606079102,-0.1392782425427096,-1.5859428231550083,2.6993965498654964,-0.9902030229568481,0.13882838189601898,0.014999253675341606,1.6809990406036377,0.8745864629745483,3.3376147747039795
6.899967193603516,-0.6043882966041565,0.4943249821662903,0.07272595167160034,-0.20780528657375696,-1.56071969321109,2.7354084318880227,-0.9784364104270935,0.206312894821167,-0.009859679266810417,1.8954237699508667,1.0043843984603882,3.4929428100585938
6.919958114624023,-0.6824541687965393,0.3926505744457245,0.1086801290512085,-0.2781906591965675,-1.5291211689097308,2.778775461247832,-0.9607189893722534,0.2746163308620453,-0.040061309933662415,2.173032283782959,1.0551167726516724,3.5593745708465576
6.9399542808532715,-0.7592566609382629,0.30683380365371704,0.14566552639007568,-0.34599391321724465,-1.4916683035466478,2.8310030180571935,-0.9377952814102173,0.3391318619251251,-0.07436114549636841,2.336526393890381,1.1241281032562256,3.536168098449707
6.9600019454956055,-0.7940375208854675,0.17967531085014343,0.23335260152816772,-0.41124054990111525,-1.445753773031287,2.889937841995738,-0.909468948841095,0.39974674582481384,-0.11431875824928284,2.400264024734497,1.3005518913269043,3.504944324493408
6.979986190795898,-0.7731130123138428,0.08856949210166931,0.32753974199295044,-0.4733429139228225,-1.39160136335886,2.951560649931051,-0.8757975697517395,0.45586419105529785,-0.15864019095897675,2.2148215770721436,1.417984127998352,3.497159957885742
6.999972105026245,-0.7236782312393188,-0.012417137622833252,0.37764209508895874,-0.53288761370271,-1.330940994825077,3.01620988581949,-0.8366855978965759,0.508022665977478,-0.20462265610694885,2.068140983581543,1.555763602256775,3.5236732959747314
7.01996111869812,-0.6660258769989014,-0.06973391771316528,0.4289999008178711,-0.5899525014108902,-1.2627822937513227,3.0837043212936575,-0.7918599247932434,0.5563215613365173,-0.2519216239452362,1.8989083766937256,1.66316819190979,3.5377204418182373
7.039957046508789,-0.5794496536254883,-0.167180597782135,0.459501177072525,-0.6452904711427949,-1.1880167194861349,-3.128691220096241,-0.7411069273948669,0.6014305353164673,-0.29839882254600525,1.6624218225479126,1.6996241807937622,3.6473212242126465
7.059988021850586,-0.517845094203949,-0.2562345266342163,0.4817500114440918,-0.7005416159229871,-1.1086266225968475,-3.054378428170641,-0.6842881441116333,0.6446318626403809,-0.3408808410167694,1.3858674764633179,1.600765585899353,3.7869739532470703
7.0799560546875,-0.5222370028495789,-0.32248204946517944,0.5118186473846436,-0.7554633063300821,-1.0254709490454004,-2.976053129139699,-0.6223704814910889,0.6856260299682617,-0.3775870203971863,1.0948632955551147,1.539214015007019,3.836496353149414
7.099956035614014,-0.5688288807868958,-0.3871971368789673,0.5583822727203369,-0.807844029849224,-0.9365475260454331,-2.8939955248099567,-0.5566593408584595,0.7227989435195923,-0.409502238035202,0.8467401266098022,1.5834490060806274,3.753326654434204
7.119962215423584,-0.5959125757217407,-0.4580156207084656,0.60429847240448,-0.8553245858531061,-0.8414002005517127,-2.8086770724474284,-0.4890788793563843,0.7547838687896729,-0.4371536672115326,0.6495941281318665,1.633482813835144,3.5581743717193604
7.139955043792725,-0.5855710506439209,-0.5351475477218628,0.6129950881004333,-0.8951135371314491,-0.7407325374176527,-2.720593604211393,-0.4220583140850067,0.7802801132202148,-0.4615515470504761,0.5770238637924194,1.663270115852356,3.2383830547332764
7.16005802154541,-0.5311509370803833,-0.6248449683189392,0.6319190859794617,-0.9260004577725104,-0.6389649379439301,-2.633544795194163,-0.3584364354610443,0.799222469329834,-0.4824592173099518,0.4297671318054199,1.6214451789855957,2.8403072357177734
7.180016040802002,-0.4659388065338135,-0.6828768849372864,0.6209183931350708,-0.95010555778253,-0.5443998296010146,-2.5547665047598236,-0.30121201276779175,0.8134769201278687,-0.4975205659866333,0.15588030219078064,1.4894369840621948,2.3852133750915527
7.2000181674957275,-0.4064114987850189,-0.6951197385787964,0.5424950122833252,-0.9691006478061736,-0.46272986867092797,-2.4884445015300467,-0.2526765763759613,0.8243770003318787,-0.5065147280693054,0.05878494679927826,1.2260651588439941,1.8669277429580688
7.2200140953063965,-0.35453805327415466,-0.6781224608421326,0.4738216996192932,-0.9804923186250822,-0.3981166151691129,-2.4351352791315377,-0.21578966081142426,0.8307715058326721,-0.5130825638771057,0.1954929381608963,0.820122480392456,1.3442726135253906
7.239916086196899,-0.3180665373802185,-0.6598465442657471,0.46596890687942505,-0.9833566939432825,-0.35074474083597756,-2.393673540988418,-0.19043251872062683,0.8323624134063721,-0.520488440990448,0.3508893847465515,0.47421252727508545,0.9258546829223633
7.259205102920532,-0.32272255420684814,-0.6898589134216309,0.510931134223938,-0.981786342311075,-0.31983768740810126,-2.3641198414055653,-0.17466813325881958,0.8314910531044006,-0.5273648500442505,0.3079947829246521,0.17001892626285553,0.5692803859710693
7.279895067214966,-0.3785853087902069,-0.7311037182807922,0.5337231755256653,-0.9806617124944659,-0.3068010409935237,-2.350137035410558,-0.16806074976921082,0.8308658003807068,-0.5304882526397705,0.04166318103671074,0.007792371790856123,0.1187296137213707
7.300037145614624,-0.45447641611099243,-0.7133670449256897,0.5517662763595581,-0.9818859683165068,-0.31059389902411205,-2.355580020606194,-0.169760599732399,0.831546425819397,-0.5288780927658081,-0.27415990829467773,0.09710556268692017,-0.36174091696739197
7.319908142089844,-0.4709293246269226,-0.6978608965873718,0.5524628162384033,-0.987037105213873,-0.3293086380600206,-2.382177844342969,-0.17824052274227142,0.8343966007232666,-0.5215484499931335,-0.6996711492538452,0.22177736461162567,-0.895669162273407
7.339906215667725,-0.39067262411117554,-0.730553150177002,0.5173482298851013,-0.9959151874703878,-0.36990934001626535,-2.4341695515731048,-0.19657708704471588,0.8392569422721863,-0.5069570541381836,-1.0569512844085693,0.0033027261961251497,-1.4857885837554932
7.35995626449585,-0.3194625973701477,-0.686107337474823,0.35820430517196655,-0.9999179294892668,-0.43883205893914085,-2.5094050803744214,-0.2295943647623062,0.8414266109466553,-0.48917046189308167,-0.8360674977302551,-0.6298160552978516,-2.133228063583374
7.379964113235474,-0.32286345958709717,-0.5338186621665955,0.3316400945186615,-0.9885705656856782,-0.5372452532905958,-2.601240440478886,-0.28141504526138306,0.8352407813072205,-0.4724176228046417,-0.5532476902008057,-1.5121667385101318,-2.859419107437134
7.400053024291992,-0.4836345613002777,-0.47180354595184326,0.4303971529006958,-0.9612671048067578,-0.6625840883454892,-2.710210235406878,-0.352165549993515,0.819917619228363,-0.4513474106788635,-0.7632949948310852,-1.8397053480148315,-3.7696311473846436
7.420022010803223,-0.7134252786636353,-0.4825928211212158,0.5008569955825806,-0.9212012495209633,-0.8010035347585833,-2.841365637115488,-0.43432554602622986,0.7963287830352783,-0.4209771454334259,-1.4491726160049438,-1.3881428241729736,-4.615354537963867
7.439929962158203,-0.7472347617149353,-0.417782187461853,0.47121262550354004,-0.868881914196773,-0.9398447401377121,-2.983535091225941,-0.5213657021522522,0.7636075019836426,-0.38089582324028015,-1.9242353439331055,-1.5602129697799683,-5.087802410125732
7.45997428894043,-0.6880664229393005,-0.2017919421195984,0.318257600069046,-0.80035024188408,-1.075360518746901,-3.1148662028484093,-0.6127148270606995,0.7176000475883484,-0.33110547065734863,-1.768363356590271,-2.2464258670806885,-5.417690277099609
7.479973077774048,-0.7971234321594238,-0.002308189868927002,0.13314580917358398,-0.7122899441315491,-1.194128095273811,3.0684565131739,-0.7038073539733887,0.653568685054779,-0.2783941924571991,-1.0515460968017578,-2.7035951614379883,-5.653092861175537
7.499942064285278,-0.959179162979126,0.1367121934890747,-0.005128383636474609,-0.608511357433707,-1.2875899044605659,3.0074840730961903,-0.7878149151802063,0.5716466903686523,-0.22927705943584442,-0.12593798339366913,-2.889521837234497,-5.719902992248535
7.5191991329193115,-0.9860175251960754,0.3239608407020569,-0.13446380198001862,-0.4974333268491267,-1.3601252679758409,2.9854235074778646,-0.8593806028366089,0.47717148065567017,-0.1837734580039978,1.0600759983062744,-3.1590237617492676,-5.514674663543701
7.539955139160156,-0.8749710917472839,0.5631136298179626,-0.13490939140319824,-0.3875886437913864,-1.4166036090337042,2.9996089873952183,-0.9148391485214233,0.3779570162296295,-0.14219020307064056,2.115532398223877,-3.03513240814209,-5.047769546508789
7.559964179992676,-0.6110358834266663,0.6016846895217896,0.010723114013671875,-0.2898381403513656,-1.463769194524053,3.0321537555150306,-0.9528069496154785,0.285797119140625,-0.10236736387014389,1.9673446416854858,-2.778183698654175,-4.199148178100586
7.579977035522461,-0.3723278045654297,0.40653255581855774,0.07370167970657349,-0.21483679973199027,-1.5113024726283442,3.0544161083141077,-0.9752827286720276,0.21318797767162323,-0.05809188261628151,0.7501653432846069,-2.5465705394744873,-3.0983927249908447
7.59996223449707,-0.3564537763595581,0.26620614528656006,-0.061396896839141846,-0.16332151207596227,-1.5590694210333595,3.052690063588872,-0.9866248965263367,0.16259640455245972,-0.011570587754249573,-0.5909959673881531,-2.2026712894439697,-2.1335489749908447
7.619956970214844,-0.4226081371307373,0.34473681449890137,-0.2022559642791748,-0.12694792126113014,-1.6010130703714451,3.035660852746084,-0.991500198841095,0.12660722434520721,0.029969029128551483,-1.0234508514404297,-1.7727844715118408,-1.547375202178955
7.6403350830078125,-0.37253445386886597,0.5339524745941162,-0.265582799911499,-0.09837782551531798,-1.6364567102920353,3.014993174548788,-0.9930205345153809,0.09821921586990356,0.06529597193002701,-1.1617467403411865,-1.5869972705841064,-1.255113124847412
7.6599531173706055,-0.2545998692512512,0.5555827021598816,-0.31400465965270996,-0.07288457701492103,-1.6703243086345103,2.99367527726201,-0.9924096465110779,0.07282006740570068,0.09909997135400772,-1.101071834564209,-1.5985214710235596,-1.08517587184906
7.679953098297119,-0.1864127516746521,0.5609307289123535,-0.3995983898639679,-0.04921185197143612,-1.7030255063787905,2.97659458064069,-0.9900703430175781,0.04919198900461197,0.1316845566034317,-0.8308002352714539,-1.5186493396759033,-1.0691951513290405
7.699954032897949,-0.15087324380874634,0.6339691877365112,-0.5256698131561279,-0.0252590508333676,-1.7334493400281379,2.967499411576761,-0.9864864945411682,0.025256365537643433,0.1618851274251938,-0.44909656047821045,-1.4738757610321045,-1.1662777662277222
7.71995210647583,-0.06930351257324219,0.6243161559104919,-0.5927462577819824,-0.00031767160777236206,-1.761964410517305,2.963099809153029,-0.9817829728126526,0.00031767159816809,0.1900058388710022,-0.48948535323143005,-1.3652598857879639,-1.2084347009658813
7.739957094192505,0.00601118803024292,0.5514787435531616,-0.6233552694320679,0.026228405791164398,-1.7873758844384893,2.955966293694242,-0.9763025641441345,-0.02622539922595024,0.21481651067733765,-0.7624979615211487,-1.1557445526123047,-1.2322100400924683
7.759953022003174,0.04450178146362305,0.5653080344200134,-0.6774966716766357,0.05337045336207996,-1.8064179264225875,2.944548857077091,-0.9709849953651428,-0.05334512144327164,0.2331150770187378,-0.9514384269714355,-0.7775922417640686,-1.142317295074463
7.779952049255371,0.08445793390274048,0.6614556908607483,-0.7307568788528442,0.07875811511098378,-1.817105915629252,2.9300869050238427,-0.9668127298355103,-0.0786767229437828,0.2430708259344101,-1.051909327507019,-0.4107540249824524,-0.9748634696006775
7.799951076507568,0.139457106590271,0.7123276591300964,-0.7552951574325562,0.10058920252214446,-1.8213047290959419,2.91362766198495,-0.9638895392417908,-0.10041965544223785,0.24664346873760223,-1.051649570465088,-0.1661277562379837,-0.7212421298027039
7.819952964782715,0.15728002786636353,0.7745040059089661,-0.795610785484314,0.11578112928857964,-1.820175453744995,2.8978504834019656,-0.9625779986381531,-0.11552262306213379,0.24515001475811005,-0.8125506639480591,0.10537734627723694,-0.35059329867362976
7.839958190917969,0.15483200550079346,0.8434855937957764,-0.8408317565917969,0.12127898865234907,-1.8152788746618402,2.8869356669183053,-0.9631360173225403,-0.12098190188407898,0.24027638137340546,-0.34974735975265503,0.22527435421943665,0.09005607664585114
7.85997200012207,0.11360794305801392,0.8825522661209106,-0.8345284461975098,0.11535178729676449,-1.8097701823211503,2.8839443723898084,-0.965124785900116,-0.11509614437818527,0.23513275384902954,0.1919589638710022,0.29286056756973267,0.5617988705635071
7.879953145980835,-0.011925101280212402,0.8693311214447021,-0.7510344982147217,0.09835615022530947,-1.8023600059914662,2.887368188312961,-0.9686046838760376,-0.09819764643907547,0.22839057445526123,0.45983800292015076,0.5256627798080444,0.9977564811706543
7.899973154067993,-0.16018414497375488,0.7786753177642822,-0.5969569683074951,0.07341892644522847,-1.788254216774095,2.889201594351171,-0.9738187789916992,-0.07335298508405685,0.21516691148281097,0.20517532527446747,0.9095121026039124,1.4048975706100464
7.919953107833862,-0.286552369594574,0.6563537120819092,-0.4658299684524536,0.04209301019742528,-1.7655193029538814,2.881494097882996,-0.9802323579788208,-0.042080581188201904,0.19332337379455566,-0.315010130405426,1.3430824279785156,1.8169803619384766
7.939955234527588,-0.40345633029937744,0.613306999206543,-0.4043022394180298,0.004664358910979906,-1.7340336716320865,2.865132291547749,-0.9866957068443298,-0.0046643419191241264,0.16251160204410553,-0.5603007674217224,1.738372564315796,2.153120756149292
7.959956169128418,-0.4414357542991638,0.6320027709007263,-0.369706392288208,-0.03911929622438763,-1.697360985795806,2.848734604607968,-0.991242527961731,0.03910931944847107,0.12613047659397125,-0.39138829708099365,1.9287617206573486,2.423698663711548
7.979952096939087,-0.3881625533103943,0.6088132858276367,-0.26510584354400635,-0.0899775928490069,-1.66034293635669,2.838084527402718,-0.9919643402099609,0.08985622972249985,0.08906523138284683,-0.12471959739923477,1.8113220930099487,2.7675702571868896
7.999962091445923,-0.4029238820075989,0.517914891242981,-0.10751473903656006,-0.14793792950286447,-1.6255611710202809,2.8331568381532155,-0.9875943660736084,0.14739890396595,0.05413958802819252,0.03759834170341492,1.761186122894287,3.0406851768493652
8.019956111907959,-0.5403306484222412,0.4266808331012726,-0.009882690384984016,-0.21036544499698734,-1.5887666317069422,2.833556378001351,-0.9777967929840088,0.20881730318069458,0.017573198303580284,0.24912160634994507,1.93022882938385,3.1729869842529297
8.039995193481445,-0.6344468593597412,0.35099637508392334,0.04310232400894165,-0.2750318231580096,-1.546223121034693,2.8418929726646303,-0.9621260762214661,0.2715775668621063,-0.023647282272577286,0.5420984029769897,2.0370867252349854,3.2456493377685547
