timestamp,acceleration_x,acceleration_y,acceleration_z,attitude_pitch,attitude_roll,attitude_yaw,gravity_x,gravity_y,gravity_z,rotation_x,rotation_y,rotation_z
0.0,-0.17347896099090576,0.29093804955482483,-0.031461477279663086,-0.014894407892798913,-1.548802209147494,1.2927423600283177,-0.999647319316864,0.014893856830894947,-0.021989906206727028,-3.4659223556518555,0.36277443170547485,-1.125421166419983
0.01997208595275879,-0.1880183219909668,0.39863425493240356,-0.01612752303481102,0.008222955023045724,-1.5386996109001203,1.2263407379951556,-0.999451220035553,-0.008222862146794796,-0.03209012374281883,-3.106112480163574,0.6621921062469482,-1.3623236417770386
0.03999519348144531,-0.007437407970428467,0.47262492775917053,-0.011489033699035645,0.03415498687786474,-1.5241664547962974,1.1665457539782706,-0.9983305931091309,-0.03414834663271904,-0.046585794538259506,-2.8066272735595703,0.6236881613731384,-1.4428825378417969
0.05914020538330078,0.11987197399139404,0.4878407418727875,-0.018394649028778076,0.05826249211393719,-1.5133632723658237,1.112129580236734,-0.9966573715209961,-0.058229535818099976,-0.05730409920215607,-2.492654323577881,0.2347494512796402,-1.1951229572296143
0.0791170597076416,0.06129711866378784,0.48285359144210815,-0.01590757817029953,0.0757605188847385,-1.5077461858403078,1.0636146377357618,-0.9951502680778503,-0.07568806409835815,-0.06282763928174973,-2.2515478134155273,0.05048532783985138,-0.8641472458839417
0.100006103515625,-0.07484555244445801,0.4622836410999298,0.00913197547197342,0.0877471631369608,-1.5025570837314914,1.0211017659893031,-0.9938343167304993,-0.0876346006989479,-0.06792396306991577,-1.900243878364563,0.1760159134864807,-0.5963460803031921
0.11983299255371094,-0.1133502721786499,0.4846550226211548,0.02847599983215332,0.09433773370637175,-1.4944370019231668,0.9846106801611824,-0.9926526546478271,-0.09419786930084229,-0.07594595104455948,-1.6993482112884521,0.2904592454433441,-0.36938226222991943
0.13974618911743164,-0.05446445941925049,0.4753921926021576,0.0014887526631355286,0.09809275943309054,-1.48582016802722,0.9526553418835015,-0.9916018843650818,-0.09793552756309509,-0.08446592837572098,-1.4261037111282349,0.2198076993227005,-0.2498016208410263
0.15928220748901367,0.037653446197509766,0.4351482689380646,-0.03198731690645218,0.09900624661243947,-1.4800382426183984,0.92659766993778,-0.9910076260566711,-0.09884458035230637,-0.09018971771001816,-1.1466635465621948,0.10544613748788834,-0.08025263249874115
0.18020105361938477,0.09796613454818726,0.3854157328605652,-0.06679075956344604,0.09748410348324248,-1.4773555920915287,0.9072704626509027,-0.9909105896949768,-0.0973297730088234,-0.0928618386387825,-0.7794889807701111,-0.02083882875740528,0.0403013713657856
0.20065808296203613,0.14142251014709473,0.37093594670295715,-0.09599161148071289,0.09474094868373106,-1.4774836387068662,0.8951923061578592,-0.991184651851654,-0.09459928423166275,-0.09275948256254196,-0.43432921171188354,-0.11471152305603027,0.09749248623847961
0.22004413604736328,0.16399914026260376,0.34105080366134644,-0.11573648452758789,0.09257152003675785,-1.480041988033298,0.8898145812524825,-0.9916207790374756,-0.09243936091661453,-0.09024177491664886,-0.14716988801956177,-0.18618997931480408,0.06674176454544067
0.23994803428649902,0.1742735505104065,0.3458845913410187,-0.13392406702041626,0.09076015187887297,-1.483932631164469,0.889092449538197,-0.9921295046806335,-0.09063559770584106,-0.0863974466919899,0.08676324784755707,-0.21584933996200562,0.09695293009281158
0.2600560188293457,0.16604626178741455,0.35802724957466125,-0.2020334005355835,0.08913279867884438,-1.488889979318355,0.8943051976989898,-0.9926912784576416,-0.08901482075452805,-0.08149003237485886,0.4130273759365082,-0.25035032629966736,0.11378829181194305
0.2792041301727295,0.18761056661605835,0.35198161005973816,-0.23951596021652222,0.0872301395077408,-1.4953792699215103,0.9058687128915016,-0.9933662414550781,-0.08711955696344376,-0.07505911588668823,0.6789042949676514,-0.2679647207260132,0.17690564692020416
0.29998111724853516,0.20419657230377197,0.30422621965408325,-0.22892767190933228,0.08345208410142897,-1.5017300658532267,0.9199815685244579,-0.9941442608833313,-0.08335525542497635,-0.06877121329307556,0.684120237827301,-0.23601096868515015,0.29720306396484375
0.3199760913848877,0.20281141996383667,0.2786765694618225,-0.23158442974090576,0.07738356746865256,-1.5071187569897722,0.9335501786650114,-0.9949869513511658,-0.0773063600063324,-0.063444122672081,0.6523299217224121,-0.1824411302804947,0.39606255292892456
0.34006309509277344,0.20795732736587524,0.30126073956489563,-0.2378649115562439,0.06927574490763018,-1.511962375537816,0.9483056576810109,-0.9958755373954773,-0.06922034919261932,-0.058658991008996964,0.7927907109260559,-0.21665218472480774,0.4923851788043976
0.3600621223449707,0.17078876495361328,0.3215736746788025,-0.242173433303833,0.05993660203767831,-1.5178978764893332,0.9664115069641278,-0.9968081712722778,-0.05990072339773178,-0.05277884751558304,0.9417159557342529,-0.25531506538391113,0.5362741351127625
0.3799750804901123,0.10251528024673462,0.29890939593315125,-0.22985845804214478,0.05013583906901863,-1.5234934997792444,0.9864671785465559,-0.9976264834403992,-0.05011483654379845,-0.04722578078508377,0.98249351978302,-0.17216549813747406,0.5518861413002014
0.39997291564941406,0.093924880027771,0.258043497800827,-0.1773706078529358,0.039303625712639616,-1.5266067235917202,1.004659798309594,-0.9982525110244751,-0.03929350897669792,-0.04414111748337746,0.7748175263404846,-0.06765373796224594,0.6202273368835449
0.41997814178466797,0.12992793321609497,0.2263817936182022,-0.1507691740989685,0.026220007227798374,-1.5278120189615454,1.0192723942568105,-0.9987331032752991,-0.026217002421617508,-0.042956311255693436,0.6703956127166748,0.0020631137304008007,0.7735810875892639
0.4400451183319092,0.14833134412765503,0.2586418390274048,-0.1796783208847046,0.009435417509822864,-1.5279866577258212,1.034541134792326,-0.9990395903587341,-0.009435277432203293,-0.04279470071196556,0.821075439453125,-0.02363079972565174,0.9569668173789978
0.4599771499633789,0.11573386192321777,0.3064999282360077,-0.21010863780975342,-0.009143514504388,-1.5292587210207595,1.0542664553654626,-0.9990957975387573,0.009143386967480183,-0.04152392968535423,1.0939545631408691,-0.12011641263961792,0.9763277769088745
0.47994518280029297,0.020901381969451904,0.31198716163635254,-0.218947172164917,-0.027768610196873697,-1.5313563670098147,1.0796253246627816,-0.9988372921943665,0.02776504121720791,-0.03941453993320465,1.3452379703521729,-0.06446220725774765,0.993080735206604
0.49997806549072266,-0.04391491413116455,0.28499865531921387,-0.15996062755584717,-0.04726382621254083,-1.5294968620292537,1.107258063846564,-0.998031735420227,0.04724623262882233,-0.04124162718653679,1.2680546045303345,0.09917155653238297,1.0992677211761475
0.5200760364532471,-0.12344563007354736,0.23234869539737701,-0.12112271785736084,-0.07126999442874765,-1.5283924866780383,1.1310186451109816,-0.9965649843215942,0.07120967656373978,-0.04228352755308151,1.07283616065979,-0.1169603019952774,1.4109700918197632
0.5399999618530273,-0.48077183961868286,0.277135968208313,-0.20978236198425293,-0.10013703623859868,-1.5276945915616786,1.1571914334433075,-0.9940665364265442,0.0999697670340538,-0.04287254437804222,1.498919129371643,0.014894223771989346,1.5078788995742798
0.5595822334289551,-0.7381011843681335,0.38930827379226685,-0.2145775556564331,-0.12384069808743267,-1.5201791525801642,1.1951372074047972,-0.9910706877708435,0.12352439016103745,-0.05020808428525925,2.1564948558807373,0.29056692123413086,0.9908593893051147
0.5799741744995117,-0.570458173751831,0.351097047328949,-0.08813189715147018,-0.13821898767932653,-1.5056892522884213,1.2412587901098653,-0.9883645176887512,0.13777931034564972,-0.06444060057401657,2.181020736694336,0.5585403442382812,0.8327001929283142
0.5999741554260254,-0.4111121892929077,0.17939691245555878,0.08069456368684769,-0.1549318966257899,-1.4861810478368906,1.2802309342894214,-0.9844872355461121,0.15431281924247742,-0.08350203931331635,1.543737769126892,0.8237340450286865,1.1422277688980103
0.6200032234191895,-0.3964153528213501,0.07008771598339081,0.07957470417022705,-0.17942386583550468,-1.463416103519227,1.3101647891097943,-0.9782795906066895,0.17846271395683289,-0.1054535061120987,1.2618229389190674,0.8910080194473267,1.5153666734695435
0.639185905456543,-0.39404815435409546,0.12719988822937012,0.014348447322845459,-0.2072580754120766,-1.4406006083090792,1.3420554405228229,-0.9703165888786316,0.20577743649482727,-0.1270497441291809,1.593535304069519,0.7650535106658936,1.5569566488265991
0.6599750518798828,-0.3314492106437683,0.15861326456069946,0.022557079792022705,-0.23110322523220878,-1.4171476692941827,1.383133554810575,-0.9619469046592712,0.22905156016349792,-0.14897604286670685,2.029916286468506,0.7052123546600342,1.3757961988449097
0.6800510883331299,-0.22057181596755981,0.09539340436458588,0.10202260315418243,-0.24977061013065796,-1.3905507085121966,1.4314019738233292,-0.9532716274261475,0.247181698679924,-0.17370830476284027,2.2659943103790283,0.8236366510391235,1.2773374319076538
0.6999759674072266,-0.10406494140625,-0.004146188497543335,0.16447651386260986,-0.26699649107104845,-1.3598005214287772,1.4824845000832723,-0.9431763887405396,0.2638355493545532,-0.2020130157470703,2.204345226287842,0.9351760745048523,1.4005519151687622
0.7200732231140137,-0.050711214542388916,-0.07636216282844543,0.21468448638916016,-0.28643989779301676,-1.3275166412642005,1.530549331420687,-0.9310088753700256,0.2825389802455902,-0.2310723066329956,1.8476413488388062,0.9858415722846985,1.5298224687576294
0.7400650978088379,-0.06474101543426514,-0.1553778052330017,0.27443403005599976,-0.30869475425683596,-1.2948575893323477,1.5706010664737977,-0.9166891574859619,0.3038153350353241,-0.2595718502998352,1.2708439826965332,1.1253107786178589,1.6083921194076538
0.7599749565124512,-0.0758051872253418,-0.23403671383857727,0.3100738823413849,-0.33405683860942403,-1.2616467953862303,1.6008136688421706,-0.8999333381652832,0.32787829637527466,-0.2874297499656677,0.7915039658546448,1.2417405843734741,1.6499296426773071
0.7799749374389648,-0.053430795669555664,-0.26323506236076355,0.3230833113193512,-0.36159385576317604,-1.2285204399313039,1.6250445985641073,-0.8810784816741943,0.35376545786857605,-0.31392791867256165,0.500797688961029,1.2263211011886597,1.6741580963134766
0.8000011444091797,-0.05188620090484619,-0.2746812403202057,0.3454951047897339,-0.38924923468877026,-1.1976750822143973,1.6456395595793358,-0.8615355491638184,0.37949392199516296,-0.3372552692890167,0.3486872613430023,1.0953912734985352,1.570982813835144
0.8199729919433594,-0.0962228775024414,-0.31965839862823486,0.3942013382911682,-0.4146612300985443,-1.1686545665569505,1.6636231976265536,-0.8422385454177856,0.40287989377975464,-0.35822099447250366,0.18897579610347748,1.1291992664337158,1.4197232723236084
0.8400640487670898,-0.10017895698547363,-0.39143499732017517,0.46389180421829224,-0.43871389794507526,-1.1405959750066763,1.676214339807627,-0.8228099942207336,0.42477551102638245,-0.37755751609802246,-0.11592699587345123,1.1462677717208862,1.2493655681610107
0.8600430488586426,-0.057898521423339844,-0.45380181074142456,0.4893493950366974,-0.4621259018706552,-1.1162634567567937,1.681954934647465,-0.8042231202125549,0.44585201144218445,-0.39299002289772034,-0.39219245314598083,1.0129715204238892,1.092272162437439
0.8799729347229004,-0.057275235652923584,-0.47310900688171387,0.47338980436325073,-0.4836593582013737,-1.0979704542259456,1.6835232293508609,-0.7881685495376587,0.46502190828323364,-0.40316876769065857,-0.45154881477355957,0.7596061825752258,0.9040959477424622
0.900062084197998,-0.08284002542495728,-0.47371476888656616,0.505285382270813,-0.5022920530812602,-1.0838695451910942,1.682304797843304,-0.7746124267578125,0.48143574595451355,-0.4101162552833557,-0.5111127495765686,0.7217238545417786,0.6626367568969727
0.9199230670928955,-0.06712985038757324,-0.5224215984344482,0.5233719348907471,-0.516397296530905,-1.0725136925815735,1.6767558413481758,-0.7638640403747559,0.4937504231929779,-0.4155990779399872,-0.6066938042640686,0.6559023261070251,0.36996990442276
0.9399771690368652,-0.011519134044647217,-0.5685093998908997,0.5258253812789917,-0.5273352378494247,-1.0670868900993762,1.6659083224461613,-0.7568219900131226,0.5032323598861694,-0.41710641980171204,-0.7376635074615479,0.40589404106140137,0.14346101880073547
0.9599740505218506,-0.03934645652770996,-0.5852857232093811,0.500980019569397,-0.5353609669982807,-1.0701355831924957,1.6501439500156618,-0.7545226812362671,0.5101515054702759,-0.4128451943397522,-0.8184051513671875,0.10771230608224869,-0.07718510180711746
0.9794049263000488,-0.1535705327987671,-0.565078616142273,0.4939309358596802,-0.5395833884384924,-1.0803651473812599,1.6300619954212645,-0.7567994594573975,0.5137786269187927,-0.404087096452713,-0.9381199479103088,-0.04850481450557709,-0.39932703971862793
0.9999961853027344,-0.26205432415008545,-0.5678095817565918,0.5314584374427795,-0.5389428429955461,-1.0958159686551576,1.6018513329563608,-0.7632448673248291,0.5132289528846741,-0.39249658584594727,-1.2087078094482422,-0.030199838802218437,-0.7638551592826843
1.0200250148773193,-0.27573442459106445,-0.5792137384414673,0.5564651489257812,-0.5355927860958355,-1.1156591075957192,1.5637727919108226,-0.7724224328994751,0.5103508830070496,-0.3780288100242615,-1.5705746412277222,-0.029372485354542732,-0.9869676828384399
1.0399789810180664,-0.2531473636627197,-0.5304110646247864,0.5101160407066345,-0.5304668159590276,-1.1416626545198312,1.5172176275390954,-0.78435879945755,0.5059360861778259,-0.35890132188796997,-1.797654151916504,-0.22350876033306122,-1.2063360214233398
1.0599861145019531,-0.27852100133895874,-0.41526663303375244,0.4191429615020752,-0.5201473943863343,-1.1732145912412024,1.4676895097863751,-0.8000618815422058,0.4970080554485321,-0.33598247170448303,-1.6688774824142456,-0.4307452142238617,-1.4733531475067139
1.0800671577453613,-0.3357977867126465,-0.2797147333621979,0.3376125693321228,-0.5014916788313039,-1.2060159926693215,1.4222537312017371,-0.8191705942153931,0.48073408007621765,-0.31281694769859314,-1.34640371799469,-0.6614375710487366,-1.747831106185913
1.1000242233276367,-0.4501962661743164,-0.19192355871200562,0.3536820113658905,-0.47381252785331446,-1.2400725360951148,1.3799258945519475,-0.8416128754615784,0.4562821090221405,-0.28895413875579834,-1.2697279453277588,-0.6390263438224792,-2.1532206535339355
1.119184970855713,-0.5373715758323669,-0.1622493863105774,0.3805975317955017,-0.4389682866847618,-1.2704996907052144,1.3353331912224262,-0.8646823763847351,0.42500579357147217,-0.26775866746902466,-1.530807375907898,-0.5229988694190979,-2.365480422973633
1.13997220993042,-0.5149975419044495,-0.10169312357902527,0.33120816946029663,-0.4027954511102896,-1.3033161980665544,1.2834861877922685,-0.8872547149658203,0.39199158549308777,-0.24314962327480316,-2.0050156116485596,-0.6678921580314636,-2.441826343536377
1.1599712371826172,-0.5245830416679382,-0.005237877368927002,0.25041699409484863,-0.36506933178991996,-1.3397863421161413,1.2250961623351804,-0.9092854857444763,0.3570140600204468,-0.21387210488319397,-2.2768352031707764,-0.7819167375564575,-2.5675876140594482
1.18003511428833,-0.42560577392578125,0.10195055603981018,0.15475307404994965,-0.32366953554189554,-1.3760491956675025,1.1666425394148827,-0.9301531314849854,0.3180477023124695,-0.1834699958562851,-2.1569015979766846,-0.8850889205932617,-2.6255943775177
1.1999711990356445,-0.2595011591911316,0.22403818368911743,0.03149771690368652,-0.28003479277952953,-1.4107662598461765,1.117618488971667,-0.9487661719322205,0.27638909220695496,-0.15314064919948578,-1.6375945806503296,-1.1394551992416382,-2.495277166366577
1.219973087310791,-0.18936914205551147,0.32610654830932617,-0.04039128124713898,-0.2356541429452136,-1.444419489822021,1.0844332897770523,-0.9646075367927551,0.2334790974855423,-0.12255720794200897,-0.8866445422172546,-1.3439464569091797,-2.389242172241211
1.2399702072143555,-0.19946551322937012,0.38870668411254883,-0.05534273386001587,-0.18999476526446868,-1.4743858916342785,1.0685006009161397,-0.9774450659751892,0.18885375559329987,-0.09452896565198898,-0.2080574631690979,-1.2675045728683472,-2.3307456970214844
1.2600231170654297,-0.17651581764221191,0.40279245376586914,-0.06705308705568314,-0.14458584450810782,-1.4995959246886748,1.0629438812181746,-0.9870586395263672,0.14408260583877563,-0.07039797306060791,-0.07695076614618301,-1.1721833944320679,-2.2578063011169434
1.2799720764160156,-0.1122673749923706,0.39204370975494385,-0.09220743179321289,-0.10066468164266844,-1.5232188268754059,1.055448759228798,-0.9938117861747742,0.10049475729465485,-0.04731879010796547,-0.4512460231781006,-1.1246999502182007,-2.1484811305999756
1.3001041412353516,-0.05236762762069702,0.3809414803981781,-0.1334887146949768,-0.06091441814240494,-1.5464311770444517,1.0395790656266939,-0.99784916639328,0.0608767531812191,-0.024317556992173195,-1.0044695138931274,-1.0600085258483887,-1.880071997642517
1.3199849128723145,-0.03286612033843994,0.4110591411590576,-0.1706160306930542,-0.026245521717589294,-1.5675527286665438,1.0129274044593262,-0.9996504187583923,0.026242509484291077,-0.0032424756791442633,-1.637885570526123,-0.9370733499526978,-1.6442739963531494
1.3399710655212402,-0.021615922451019287,0.47683605551719666,-0.18723106384277344,0.005415788646703601,-1.5850545606620845,0.9751755309778164,-0.999883770942688,-0.005415762308984995,0.014257542788982391,-2.094102382659912,-0.7559742331504822,-1.5097633600234985
1.3600001335144043,-0.006059050559997559,0.5866367816925049,-0.26514923572540283,0.03506926554292421,-1.5971802121395184,0.9343285104566329,-0.9990376234054565,-0.03506207838654518,0.026364613324403763,-1.940545916557312,-0.5506983995437622,-1.3863803148269653
1.3799800872802734,0.04893338680267334,0.7209338545799255,-0.35066843032836914,0.0629707167580621,-1.6054240823412056,0.9020672288341808,-0.9974198341369629,-0.06292910873889923,0.03455222025513649,-1.372495412826538,-0.4583256244659424,-1.3117220401763916
1.4000630378723145,0.11364245414733887,0.7940953969955444,-0.41893112659454346,0.08993190596253205,-1.6134940388344063,0.8811723205425827,-0.9950512647628784,-0.08981072902679443,0.04251224920153618,-0.801207959651947,-0.5150601267814636,-1.2898461818695068
1.4200410842895508,0.15366822481155396,0.8197274208068848,-0.478019118309021,0.11388826323342555,-1.6232761877165935,0.873352402664996,-0.9921540021896362,-0.11364222317934036,0.05211595818400383,-0.07188816368579865,-0.5189700722694397,-1.0408837795257568
1.4399709701538086,0.15638089179992676,0.863723635673523,-0.5247396230697632,0.13108173928973463,-1.633868827228851,0.8802572735563109,-0.9894499778747559,-0.13070668280124664,0.06248997151851654,0.6172212958335876,-0.45301634073257446,-0.7325626611709595
1.4599709510803223,0.15196329355239868,0.8563127517700195,-0.5271629095077515,0.14169862422536825,-1.6438609411132643,0.8969669904123933,-0.9873364567756653,-0.1412249207496643,0.07226800173521042,0.8731207251548767,-0.30735456943511963,-0.4253765940666199
1.4799370765686035,0.16781872510910034,0.7741223573684692,-0.4794718027114868,0.1448678086390164,-1.6503978597361142,0.9134067563653894,-0.9863918423652649,-0.14436163008213043,0.07868456840515137,0.7068193554878235,-0.10245894640684128,0.004352862015366554
1.4999730587005615,0.1546277403831482,0.700393795967102,-0.46673429012298584,0.13870438406628077,-1.6518152274040607,0.9254552070054629,-0.9871475100517273,-0.13826005160808563,0.08015306293964386,0.5605313777923584,0.12194255739450455,0.5127372741699219
1.5199699401855469,0.1206514835357666,0.6966732740402222,-0.4678231477737427,0.12390042691126646,-1.6491631789138879,0.9358564240805002,-0.9892886281013489,-0.12358366698026657,0.07768653333187103,0.6377078294754028,0.25794094800949097,0.8352535963058472
1.5399720668792725,0.08091568946838379,0.7192805409431458,-0.4682047367095947,0.10408139207540626,-1.6454310125822342,0.9510629472434082,-0.9918196797370911,-0.10389357805252075,0.07416190207004547,1.092687964439392,0.27093371748924255,1.0278522968292236
1.5599911212921143,0.008306920528411865,0.7065956592559814,-0.44126904010772705,0.07972698313227039,-1.642404595905883,0.9776067403638502,-0.9942691326141357,-0.07964254915714264,0.0713198333978653,1.7086279392242432,0.29177963733673096,1.202194333076477
1.5799710750579834,-0.11465173959732056,0.6451077461242676,-0.35565388202667236,0.05293887699442057,-1.637147975582651,1.0136064591212097,-0.9964019656181335,-0.052914153784513474,0.06621010601520538,2.0083529949188232,0.49057936668395996,1.2036759853363037
1.6000089645385742,-0.20912808179855347,0.5482481122016907,-0.24233508110046387,0.026370045781657272,-1.6267788015913003,1.0521138909331627,-0.9980863928794861,-0.02636699005961418,0.055933792144060135,1.9592303037643433,0.6938967704772949,1.2461017370224
1.6200311183929443,-0.2898988127708435,0.46681609749794006,-0.15531551837921143,-0.0017507935000561391,-1.6120338065775044,1.087946884177793,-0.9991485476493835,0.001750792609527707,0.04122573882341385,1.78043532371521,0.8251514434814453,1.3962101936340332
1.639970064163208,-0.4177433252334595,0.4553489685058594,-0.15020465850830078,-0.0315337105619384,-1.5933439205532216,1.1229071778038962,-0.9992488026618958,0.03152848407626152,0.022534474730491638,1.8836902379989624,0.9765857458114624,1.4525842666625977
1.6599760055541992,-0.47962290048599243,0.5109100341796875,-0.19887018203735352,-0.06066040970669881,-1.5717160395270318,1.1650789330364835,-0.9981604218482971,0.06062321364879608,0.0009180210763588548,2.4276809692382812,0.9913724660873413,1.4072972536087036
1.6799721717834473,-0.46518903970718384,0.5246586203575134,-0.1936720609664917,-0.08759020183934947,-1.5470596448724796,1.221014608148076,-0.9958859086036682,0.08747824281454086,-0.02364346757531166,3.053375005722046,1.100171685218811,1.3639411926269531
1.7000069618225098,-0.43383246660232544,0.4362677335739136,-0.004544436931610107,-0.11272268936625915,-1.516005945481813,1.2830493996913903,-0.9921625256538391,0.11248412728309631,-0.054415423423051834,2.913860559463501,1.408621907234192,1.3944014310836792
1.7200031280517578,-0.43885308504104614,0.26813191175460815,0.13760173320770264,-0.13823751192358777,-1.4777986419413838,1.3381178020275533,-0.9861806035041809,0.13779765367507935,-0.09197782725095749,2.3636183738708496,1.6579861640930176,1.5381101369857788
1.7399721145629883,-0.4307519793510437,0.19102072715759277,0.16266687214374542,-0.16581721254257453,-1.4361710325045955,1.3867646146774164,-0.9773596525192261,0.16505838930606842,-0.13237804174423218,2.235309600830078,1.7061105966567993,1.7284877300262451
1.7599701881408691,-0.4498407244682312,0.24786081910133362,0.16293299198150635,-0.19264436504001523,-1.39428536086694,1.4390186231250686,-0.9662513136863708,0.19145500659942627,-0.17234757542610168,2.4548075199127197,1.5552886724472046,1.646358847618103
1.7799670696258545,-0.5060315132141113,0.2836262583732605,0.25005000829696655,-0.21116470693852268,-1.3521545185202613,1.4963866985587635,-0.9545093774795532,0.20959888398647308,-0.2120860069990158,2.6705403327941895,1.5585793256759644,1.2771960496902466
1.8001041412353516,-0.4331302046775818,0.20786915719509125,0.39488545060157776,-0.22141047229750255,-1.3067568028352645,1.554587508035344,-0.9417784810066223,0.21960587799549103,-0.2546113133430481,2.5529332160949707,1.728745460510254,1.1267998218536377
1.820054054260254,-0.2672879099845886,0.09816648066043854,0.4907495677471161,-0.23002864734755785,-1.259199137899147,1.607874485824594,-0.9267733693122864,0.22800540924072266,-0.29850396513938904,2.204629898071289,1.817228078842163,1.2016465663909912
1.8399720191955566,-0.1417386531829834,0.016871869564056396,0.5222782492637634,-0.24118161414931386,-1.2119279769435627,1.6562303859360334,-0.9091953039169312,0.2388502061367035,-0.34104955196380615,1.881417155265808,1.7762136459350586,1.401181697845459
1.859971046447754,-0.07815432548522949,-0.015046834945678711,0.5521417260169983,-0.2553935650321185,-1.1668201451616989,1.7005194849630363,-0.8896802663803101,0.2526262402534485,-0.3803277015686035,1.5921932458877563,1.6573201417922974,1.4831676483154297
1.8799691200256348,-0.05464130640029907,-0.027545660734176636,0.5859049558639526,-0.26969485274855676,-1.124320419494231,1.7408188439964463,-0.86937016248703,0.2664373219013214,-0.41618141531944275,1.3787702322006226,1.5590593814849854,1.4208163022994995
1.9000561237335205,-0.04277849197387695,-0.05351504683494568,0.6406093835830688,-0.28317558583104363,-1.084315806416409,1.7778417889705729,-0.8487773537635803,0.2794061601161957,-0.4488978385925293,1.1951241493225098,1.4535024166107178,1.4012941122055054
1.9200959205627441,-0.042581140995025635,-0.09491658210754395,0.7020488977432251,-0.29693868394664097,-1.046285124107959,1.8117180723608024,-0.8276886940002441,0.2925942540168762,-0.47887375950813293,0.9721261262893677,1.3958443403244019,1.3714817762374878
1.9400992393493652,-0.041123390197753906,-0.13971850275993347,0.7560847997665405,-0.31131847215580516,-1.0100519991753056,1.8407269515143496,-0.8061515092849731,0.30631399154663086,-0.5062525868415833,0.6457483172416687,1.3586760759353638,1.2899760007858276
1.9600110054016113,-0.01767808198928833,-0.19604340195655823,0.803638219833374,-0.3275722787986126,-0.9768276281896202,1.8627636540005432,-0.7846596837043762,0.3217453360557556,-0.5298954844474792,0.19962817430496216,1.2700430154800415,1.2166820764541626
1.9799790382385254,0.017021536827087402,-0.24888500571250916,0.8116202354431152,-0.3469605502821424,-0.9482480301153516,1.877088868181886,-0.7639850974082947,0.34004104137420654,-0.5483603477478027,-0.15899839997291565,1.116948127746582,1.144819736480713
2.0003440380096436,0.0794253945350647,-0.2558152377605438,0.776132345199585,-0.3681068040937172,-0.9245910885204798,1.886801283116253,-0.7448917627334595,0.3598497211933136,-0.5618225336074829,-0.29720568656921387,0.8558753728866577,1.0964475870132446
2.0201001167297363,0.15737223625183105,-0.25197532773017883,0.7441489100456238,-0.3880116754786984,-0.9071551532745735,1.8961291396106843,-0.7291953563690186,0.3783486485481262,-0.5701985955238342,-0.20840078592300415,0.5435317754745483,0.9531065821647644
2.0403871536254883,0.1972774863243103,-0.2716585695743561,0.7373983860015869,-0.40266040822013766,-0.8964709869939783,1.9055019810705294,-0.7186551094055176,0.39186736941337585,-0.5744344592094421,-0.02006356790661812,0.16252344846725464,0.7624893188476562
2.0600221157073975,0.18987375497817993,-0.28889670968055725,0.6842122673988342,-0.4124783959907679,-0.892506390229476,1.917024956871579,-0.7133418917655945,0.4008810818195343,-0.5748372673988342,0.22256165742874146,-0.23954880237579346,0.6542372107505798
2.080012083053589,0.1272544264793396,-0.27182242274284363,0.6612281799316406,-0.4170301605150167,-0.8960991111013724,1.9294219473124954,-0.7139701843261719,0.4050469398498535,-0.5711249113082886,0.3771308958530426,-0.614298939704895,0.394487202167511
2.099950075149536,0.02683711051940918,-0.25054964423179626,0.6574404239654541,-0.41567656402329,-0.9063659257576019,1.9402543971483845,-0.720227062702179,0.40380898118019104,-0.5641023516654968,0.45813077688217163,-0.8281386494636536,0.12767033278942108
2.1232519149780273,-0.04790961742401123,-0.31054872274398804,0.6161034107208252,-0.40645661529254346,-0.9364014912641823,1.9528980797234066,-0.7398101687431335,0.3953571319580078,-0.5444023013114929,0.23025792837142944,-0.9682708382606506,-0.05090421810746193
2.143134117126465,-0.01714235544204712,-0.3058442175388336,0.5018656253814697,-0.40326405355359235,-0.9572426037922158,1.9551370789897777,-0.7520227432250977,0.3924226462841034,-0.5295907855033875,0.13532759249210358,-1.2306627035140991,-0.10714695602655411
2.163544178009033,-0.0026859045028686523,-0.2689358592033386,0.428924024105072,-0.3981959964703431,-0.9864441206613002,1.955326067834459,-0.7688137888908386,0.3877561092376709,-0.5084985494613647,0.18567220866680145,-1.6766867637634277,-0.30368441343307495
2.1840500831604004,-0.08903563022613525,-0.23925164341926575,0.36636513471603394,-0.38941557110282454,-1.0225001122244386,1.9545268176579909,-0.7895197868347168,0.379647821187973,-0.48220980167388916,0.21253585815429688,-1.8421084880828857,-0.49265772104263306
2.2048659324645996,-0.1534290909767151,-0.24031361937522888,0.319547176361084,-0.37670862533847654,-1.058256242774493,1.9509983729832725,-0.810392439365387,0.36786189675331116,-0.4560064375400543,0.16370601952075958,-1.6188130378723145,-0.7761771082878113
2.219980239868164,-0.1534290909767151,-0.24031361937522888,0.319547176361084,-0.37670862533847654,-1.058256242774493,1.9509983729832725,-0.810392439365387,0.36786189675331116,-0.4560064375400543,0.16370601952075958,-1.6188130378723145,-0.7761771082878113
2.245065212249756,0.20023280382156372,-0.16365444660186768,0.09236025810241699,-0.33891338974121454,-1.1294115710777575,1.9494459510973081,-0.8527292609214783,0.33246248960494995,-0.40289178490638733,0.7757236361503601,-2.273684501647949,-0.8063690066337585
2.2673091888427734,0.09777063131332397,-0.10119792819023132,0.07686078548431396,-0.3170224077415512,-1.173811054145106,1.9621267302847265,-0.8762741088867188,0.3117387294769287,-0.3673727810382843,1.167454481124878,-2.456526756286621,-0.7117220163345337
2.2852401733398438,-0.13946020603179932,-0.1448284089565277,0.13340184092521667,-0.29626886642829736,-1.2126401401572109,1.9779210265649174,-0.895741879940033,0.2919536828994751,-0.3352755308151245,0.9025135040283203,-1.8524504899978638,-0.6772499680519104
2.306049108505249,-0.176408052444458,-0.25563809275627136,0.13101863861083984,-0.28046455208845805,-1.244323729908728,1.985676320831457,-0.9101704359054565,0.27680209279060364,-0.30817312002182007,0.309924840927124,-1.6531121730804443,-0.5357903242111206
2.327065944671631,-0.14118486642837524,-0.2583092749118805,0.09961271286010742,-0.2716635386760501,-1.278641357558688,1.9828304790039097,-0.9225054383277893,0.2683343291282654,-0.27745380997657776,-0.25705164670944214,-1.688035488128662,-0.42715832591056824
2.3478212356567383,-0.21387892961502075,-0.19954699277877808,0.07486644387245178,-0.2645735569144024,-1.3116362704868159,1.9729111990938515,-0.9329716563224792,0.2614976763725281,-0.24735164642333984,-0.4423658549785614,-1.2898576259613037,-0.5472656488418579
2.367805004119873,-0.05489140748977661,-0.16946402192115784,0.08680230379104614,-0.2557544761822718,-1.3359354378550483,1.959861607877367,-0.9409125447273254,0.2529754042625427,-0.22513838112354279,-0.5909841060638428,-0.8835873007774353,-0.5841628909111023
2.3878350257873535,0.20528322458267212,-0.19374403357505798,0.055697694420814514,-0.24849387274875218,-1.3575728482796965,1.9450307029081328,-0.9473334550857544,0.24594438076019287,-0.20511162281036377,-0.6039499044418335,-1.0238925218582153,-0.4464704394340515
2.4079461097717285,0.25899970531463623,-0.16624602675437927,-0.03076334297657013,-0.24253031850250578,-1.384891499813046,1.934732993880133,-0.9540072679519653,0.24015966057777405,-0.17942635715007782,-0.2666451930999756,-1.3869636058807373,-0.35475027561187744
2.4277329444885254,0.11203348636627197,-0.09370853006839752,-0.0028946995735168457,-0.23548150284621178,-1.4130631511237413,1.9292642640565711,-0.9603307247161865,0.2333112210035324,-0.15274487435817719,-0.17564737796783447,-1.216800570487976,-0.4897528290748596
2.44765305519104,0.044697582721710205,-0.11987553536891937,0.06674307584762573,-0.22461912121435496,-1.4348622018832815,1.9216913242771456,-0.9658860564231873,0.22273506224155426,-0.13211160898208618,-0.4308297634124756,-0.8359141945838928,-0.6431288719177246
2.4682579040527344,0.17484647035598755,-0.17645473778247833,0.08354879915714264,-0.21484695485063882,-1.4535588669650454,1.9078987524389885,-0.970302402973175,0.21319790184497833,-0.1142798438668251,-0.7910835146903992,-0.8274760842323303,-0.4700687825679779
2.4829821586608887,0.183233380317688,-0.18356205523014069,0.043354399502277374,-0.20959899360821788,-1.4777430814875658,1.8889684809648648,-0.9738828539848328,0.20806768536567688,-0.09088543057441711,-0.9343199729919434,-1.1790955066680908,-0.2559078335762024
2.507878065109253,-0.026351630687713623,-0.07589960098266602,0.030546419322490692,-0.20693579872210405,-1.5050016441953185,1.8711596151681018,-0.9765477776527405,0.2054620385169983,-0.06434452533721924,-0.7684510946273804,-1.1007553339004517,-0.19463947415351868
2.5275750160217285,-0.15827834606170654,-0.020013511180877686,0.06226838007569313,-0.20164459182348438,-1.5271772333125115,1.8570344490520887,-0.9788066744804382,0.20028087496757507,-0.04272175952792168,-0.602314293384552,-0.8485839366912842,-0.4149273931980133
2.5473930835723877,-0.03551262617111206,-0.06360504031181335,0.02978748083114624,-0.1933475198542147,-1.5463649322719066,1.8454432671668435,-0.981073796749115,0.19214510917663574,-0.023973770439624786,-0.5075580477714539,-0.8832765817642212,-0.39926913380622864
2.566433906555176,0.053826212882995605,-0.08421987295150757,0.004501044750213623,-0.186961246993238,-1.5673026187954102,1.8353061294658086,-0.9825677871704102,0.18587395548820496,-0.0034328189212828875,-0.5107691884040833,-1.0046765804290771,-0.2915782928466797
2.5862479209899902,-0.03688168525695801,-0.07691098749637604,-0.02081036940217018,-0.17991556614483897,-1.5886302024288692,1.8262138619681474,-0.9837023615837097,0.17894650995731354,0.01754508540034294,-0.3144163489341736,-0.9705119729042053,-0.4181327521800995
2.6074109077453613,-0.20209282636642456,0.019183412194252014,-0.11225533485412598,-0.17074726598518009,-1.6078543990704917,1.8252097303910233,-0.9847816824913025,0.16991879045963287,0.03651082515716553,0.22761133313179016,-0.9577105641365051,-0.49936607480049133
2.6272010803222656,-0.34561318159103394,0.1398012489080429,-0.11729823797941208,-0.16009135298573227,-1.6250172364822648,1.835086937648614,-0.9857621788978577,0.15940839052200317,0.05350136011838913,0.6237008571624756,-0.8900176286697388,-0.6457532048225403
2.6470401287078857,-0.4034118056297302,0.11288703978061676,0.02346121519804001,-0.14640928612646517,-1.6371898354688545,1.8477931551225215,-0.9871217012405396,0.14588677883148193,0.06563494354486465,0.4608537256717682,-0.48896315693855286,-0.7445123791694641
2.66701602935791,-0.3261503577232361,-0.020362600684165955,0.15118873119354248,-0.1349072093560342,-1.6412528978891963,1.853132651711946,-0.9884555339813232,0.13449835777282715,0.06975865364074707,-0.03372029587626457,-0.014539741910994053,-0.38746482133865356
2.6860299110412598,-0.24391067028045654,-0.07901404798030853,0.1472557783126831,-0.13067040660113158,-1.640376009642384,1.8476631321683155,-0.9890758991241455,0.13029886782169342,0.06893086433410645,-0.5284366011619568,0.12583094835281372,-0.06310449540615082
2.7073001861572266,-0.23187851905822754,-0.025630220770835876,0.08638632297515869,-0.12903057589469455,-1.640008541900554,1.8352035505236355,-0.989313006401062,0.12867283821105957,0.06858208775520325,-0.6024488806724548,0.05793756619095802,-0.03360583633184433
2.7293500900268555,-0.2681552767753601,0.0443459153175354,0.007583267986774445,-0.12786197151335837,-1.641377310802212,1.8273250415183686,-0.9893675446510315,0.1275138556957245,0.06994672119617462,-0.09687789529561996,-0.09535034000873566,-0.05790526047348976
2.747258186340332,-0.3148193955421448,0.09491586685180664,-0.016133785247802734,-0.12578299475637653,-1.6429671680669435,1.8339017422910842,-0.9895172715187073,0.12545157968997955,0.071538545191288,0.7200472950935364,-0.1515989750623703,-0.19401755928993225
2.7668261528015137,-0.34893476963043213,0.1255701184272766,0.02854752540588379,-0.12155520175756708,-1.6429409682145926,1.8559182043602562,-0.9900393486022949,0.12125608325004578,0.07155021280050278,1.3757188320159912,-0.08136661350727081,-0.38623306155204773
2.7856240272521973,-0.39342087507247925,0.06132785975933075,0.11343634128570557,-0.11407504190493434,-1.638977531866382,1.8854814843237253,-0.9911922812461853,0.11382778733968735,0.06768559664487839,1.384239673614502,0.15585072338581085,-0.5242034196853638
2.808462142944336,-0.3701789379119873,-0.11249612271785736,0.18525195121765137,-0.10660971006357507,-1.6309784844154942,1.906584972105067,-0.9925225973129272,0.10640787333250046,0.059804368764162064,0.5889983177185059,0.3543142080307007,-0.32601964473724365
2.8279221057891846,-0.32096779346466064,-0.20190362632274628,0.18581414222717285,-0.10209004390766972,-1.6244227922956382,1.91101010250182,-0.9933633804321289,0.10191279649734497,0.05332169309258461,-0.11831521987915039,0.28816670179367065,-0.15930715203285217
2.8469109535217285,-0.3317582607269287,-0.057849422097206116,0.16520440578460693,-0.09888882410518934,-1.6190575043543294,1.9045483477843055,-0.9939559698104858,0.09872773289680481,0.04800676181912422,-0.4571152329444885,0.3090327978134155,-0.17554257810115814
2.8664379119873047,-0.3419818878173828,0.028020314872264862,0.1399555206298828,-0.09284054094773929,-1.6150516578538374,1.8945103633180234,-0.994718611240387,0.09270722419023514,0.04405036196112633,-0.6011850833892822,0.1821449100971222,-0.372275710105896
2.8866329193115234,-0.2670047879219055,-0.01011309027671814,0.1460719108581543,-0.08437088055041417,-1.6141317096224248,1.880189759602505,-0.995507538318634,0.08427082002162933,0.04316772520542145,-0.9381003379821777,0.13335837423801422,-0.3381897807121277
2.9064691066741943,-0.2928202152252197,-0.10909099876880646,0.060170408338308334,-0.07716989213964162,-1.6147903324437607,1.8655064674789699,-0.996059238910675,0.07709331810474396,0.043848928064107895,-0.26853373646736145,0.015481716953217983,-0.491270512342453
2.9282002449035645,-0.3183361887931824,-0.05153176188468933,0.18994545936584473,-0.06515819007511081,-1.6080657689014834,1.8632605089057297,-0.9971851110458374,0.06511209160089493,0.03718174993991852,-0.21448662877082825,0.47675809264183044,-0.7181260585784912
2.9486541748046875,-0.28209084272384644,-0.23099075257778168,0.059571389108896255,-0.05034797386240327,-1.5995527834527365,1.862710641062084,-0.9983201622962952,0.05032670497894287,0.028716066852211952,0.11383133381605148,0.2154625654220581,-0.6525577306747437
2.9677629470825195,-0.05502420663833618,-0.19217252731323242,0.04391217604279518,-0.042756241777109426,-1.601654883495313,1.8674673451440014,-0.9986106753349304,0.04274321720004082,0.03082546964287758,0.18534986674785614,-0.2548290491104126,-0.15574334561824799
2.987823009490967,-0.15936118364334106,-0.0783986821770668,0.10606026649475098,-0.03997245064307469,-1.6046623203091666,1.865906350256631,-0.9986284375190735,0.0399618074297905,0.033832479268312454,-0.1722659170627594,0.00462436443194747,-0.13006718456745148
3.0076961517333984,-0.13956135511398315,0.053123246878385544,-0.0326918363571167,-0.040363059479916995,-1.6043764179730406,1.8609692164508358,-0.9986223578453064,0.04035210236907005,0.03354644030332565,-0.38877636194229126,-0.05954476818442345,0.15765319764614105
3.0261359214782715,0.022649049758911133,0.22531574964523315,-0.06788778305053711,-0.04183207630042341,-1.6100115186996147,1.852293457270946,-0.9983571767807007,0.04181987792253494,0.039170850068330765,-0.31759798526763916,-0.4137831926345825,0.018962789326906204
3.0461480617523193,-0.02461683750152588,0.24978211522102356,-0.0790870189666748,-0.04277245489964462,-1.6164939245191574,1.8533946274419022,-0.9980427026748657,0.04275941476225853,0.04563992843031883,0.5251967310905457,-0.1587645560503006,0.06809587776660919
3.0660910606384277,-0.12843835353851318,0.22912663221359253,-0.10785531252622604,-0.04374499427446095,-1.6182290533861035,1.8696008501260681,-0.9979199171066284,0.043731044977903366,0.047369591891765594,0.8499115705490112,-0.13112486898899078,-0.050683654844760895
3.087743043899536,-0.07705885171890259,0.12753520905971527,-0.04619479179382324,-0.04331574694607661,-1.6234277867948916,1.8807373951063686,-0.997678816318512,0.043302204459905624,0.05255782976746559,0.2140902727842331,-0.4277956485748291,0.0008896145736798644
3.1061530113220215,-0.18255329132080078,0.16889230906963348,-0.025397777557373047,-0.0439056141757373,-1.635654531654277,1.8793604455079802,-0.996936023235321,0.043891508132219315,0.0647502988576889,-0.4135131239891052,-0.621540367603302,0.00575129734352231
3.1248791217803955,-0.3022434115409851,0.3028591275215149,0.04644465446472168,-0.04273494774578556,-1.6510982719006053,1.8706418316278264,-0.9958677291870117,0.0427219420671463,0.08014245331287384,-0.38675031065940857,-0.67986661195755,0.009847297333180904
3.1447081565856934,-0.46932917833328247,0.3322151005268097,0.05102027952671051,-0.0370713484814583,-1.6657357704400446,1.8763650444362068,-0.9948129057884216,0.037062857300043106,0.09473177790641785,1.1076446771621704,-0.7212943434715271,-0.6274883151054382
3.167311191558838,-0.4122079014778137,0.14824572205543518,0.21437789499759674,-0.03199654915659528,-1.6749430281518856,1.902006883661066,-0.9940728545188904,0.03199109062552452,0.10390534996986389,1.2340574264526367,-0.2889827489852905,-0.029784083366394043
3.188061237335205,-0.4640645980834961,-0.40202194452285767,0.22969865798950195,-0.042827887426452195,-1.6771345086238232,1.9200608605900527,-0.993439793586731,0.042814794927835464,0.1060405820608139,0.3591596782207489,0.0030847021844238043,0.8563311100006104
3.206116199493408,-0.5296823978424072,-0.20875431597232819,0.2117936611175537,-0.06143884440216404,-1.6780134932841537,1.917376742280805,-0.9923819303512573,0.06140019744634628,0.10680997371673584,-0.16063116490840912,-0.13163191080093384,1.032470703125
3.2256081104278564,-0.46111220121383667,0.03178046643733978,0.1537635326385498,-0.08371954057401088,-1.682486920869617,1.9134968876946967,-0.9902886748313904,0.08362177759408951,0.11106816679239273,0.05566903576254845,-0.26797616481781006,1.161001205444336
3.24537992477417,-0.4383389949798584,-0.05023729056119919,0.13405895233154297,-0.10783448237472253,-1.68908725595894,1.9175877290753958,-0.9872440099716187,0.10762561857700348,0.11732978373765945,0.6658807992935181,-0.43374884128570557,1.239469289779663
3.26572322845459,-0.3657952547073364,-0.07699410617351532,0.15836405754089355,-0.1352521877215136,-1.6963613008233471,1.9313821848431623,-0.9830665588378906,0.1348402053117752,0.12409158051013947,1.0207594633102417,-0.4618840217590332,1.2912657260894775
3.284482002258301,-0.3842487931251526,-0.13766951858997345,0.1487095057964325,-0.16410085902553564,-1.7009307199724606,1.9509248778751163,-0.9782237410545349,0.16336533427238464,0.12802405655384064,1.2299473285675049,-0.3041573464870453,1.290723204612732
3.303596019744873,-0.3829306960105896,-0.13821125030517578,0.0461430549621582,-0.19083536693287154,-1.7032966641504288,1.9704704529800339,-0.973240077495575,0.18967916071414948,0.12971463799476624,0.8925430774688721,-0.2697566747665405,1.154617428779602
3.325428009033203,-0.31099599599838257,-0.19190633296966553,0.06145797669887543,-0.2141229014300017,-1.706966059094619,1.975434077005122,-0.9681177735328674,0.21249043941497803,0.13264921307563782,-0.1170119121670723,-0.20510604977607727,1.0852675437927246
3.3466920852661133,-0.2539796829223633,-0.24138201773166656,0.10223269462585449,-0.23370759973044167,-1.7132932788460389,1.9616943753955522,-0.9629546403884888,0.23158591985702515,0.13815446197986603,-0.8648102283477783,-0.16223324835300446,1.0490005016326904
3.3650951385498047,-0.20217746496200562,-0.16258563101291656,0.13858772814273834,-0.2498637865313535,-1.7233781811333737,1.9372913438231671,-0.957689106464386,0.24727198481559753,0.14727063477039337,-1.1767268180847168,-0.25540614128112793,0.8887679576873779
3.384826183319092,-0.21613657474517822,-0.04983258247375488,0.15478622913360596,-0.2627767998529513,-1.7357485120951206,1.911404295808812,-0.9525647163391113,0.25976303219795227,0.15856842696666718,-1.0495483875274658,-0.31506434082984924,0.7933430075645447
3.404881000518799,-0.19712531566619873,0.060622721910476685,0.12910114228725433,-0.2752525718624771,-1.7487341518487252,1.889708528839573,-0.947161853313446,0.2717899978160858,0.1703374683856964,-0.8151717782020569,-0.41110917925834656,0.8155777454376221
3.4248342514038086,-0.1596742868423462,0.11331051588058472,0.11235405504703522,-0.28890018658906064,-1.762638928742776,1.8704528758789531,-0.9409729242324829,0.28489816188812256,0.1827663779258728,-0.8030589818954468,-0.43786659836769104,0.8724220395088196
3.4437460899353027,-0.1370883584022522,0.11714723706245422,0.08540156483650208,-0.30365059403577593,-1.7774051347119657,1.849887769085885,-0.9339568018913269,0.29900577664375305,0.19575710594654083,-0.8000208139419556,-0.4268730580806732,0.9789157509803772
3.4649782180786133,-0.1061590313911438,0.15838941931724548,0.008747369050979614,-0.3208096812511058,-1.7914309922490241,1.8310009719019587,-0.9259762167930603,0.3153350353240967,0.20768341422080994,-0.5550870895385742,-0.3848111927509308,1.0938937664031982
3.4862160682678223,-0.10026007890701294,0.17552247643470764,-0.06705944240093231,-0.3411906456325409,-1.802398238706381,1.8165203152463307,-0.9171959161758423,0.33460932970046997,0.21630574762821198,-0.36927366256713867,-0.25370749831199646,1.1893978118896484
3.5047550201416016,-0.029140353202819824,0.10357680916786194,-0.11813512444496155,-0.36375825574959947,-1.8103149650356514,1.8032127261722388,-0.9078866243362427,0.35578906536102295,0.2217118740081787,-0.31066757440567017,-0.0714968591928482,1.2956767082214355
3.524580955505371,0.038044750690460205,0.09394025802612305,-0.17197763919830322,-0.38707354994299253,-1.8152459752621883,1.7900204739887782,-0.8984879851341248,0.37748008966445923,0.22411704063415527,-0.3419395089149475,0.042982496321201324,1.256483793258667
3.543661117553711,0.14019370079040527,0.034358084201812744,-0.2061987817287445,-0.4102671396666253,-1.8195446796882935,1.775849935643143,-0.8887901306152344,0.3988543152809143,0.22576077282428741,-0.3406674265861511,0.09731195867061615,1.330193042755127
3.564387083053589,0.15895044803619385,0.018304288387298584,-0.23327374458312988,-0.4342406521125032,-1.8219731915306383,1.762177036284024,-0.8787229061126709,0.4207216501235962,0.2254766970872879,-0.2753114104270935,0.21531519293785095,1.279446005821228
3.58447003364563,0.1690853238105774,-0.0003751218318939209,-0.24102593958377838,-0.4569031761441019,-1.8213436448183171,1.750379234439286,-0.8694027662277222,0.4411710798740387,0.22250190377235413,-0.18421003222465515,0.36310243606567383,1.212261438369751
3.603586196899414,0.2179076075553894,-0.039345622062683105,-0.21693885326385498,-0.4792844685779463,-1.817378481010129,1.7400894324537426,-0.860485851764679,0.4611443877220154,0.2165880650281906,-0.1807255744934082,0.5070085525512695,1.185415506362915
3.6241400241851807,0.229256272315979,-0.05945262312889099,-0.17552630603313446,-0.5001678585717112,-1.8107336553409514,1.7292925589205477,-0.8523641228675842,0.4795728325843811,0.20853112637996674,-0.261223703622818,0.6859188079833984,1.0886948108673096
3.6440229415893555,0.283730685710907,-0.12362515926361084,-0.12400759756565094,-0.5200767662506648,-1.800465495041849,1.7192139624568747,-0.8449947834014893,0.4969467520713806,0.1975550651550293,-0.07098500430583954,0.8195476531982422,1.0756577253341675
3.6631689071655273,0.3580167889595032,-0.09035032987594604,-0.11645996570587158,-0.5419008704121713,-1.7860439556521812,1.717380995381829,-0.8369597792625427,0.5157654285430908,0.18298842012882233,0.3908872902393341,0.6743535399436951,1.0688109397888184
3.6842470169067383,0.3670983910560608,-0.16600865125656128,-0.0708228349685669,-0.5635830660395822,-1.770355167931473,1.724688133681109,-0.8285700082778931,0.5342185497283936,0.16757893562316895,0.6131905913352966,0.5030317902565002,0.9572924375534058
3.7040481567382812,0.31822651624679565,-0.2559888958930969,-0.04031576216220856,-0.5838574914883586,-1.7577882802647444,1.7335817892701402,-0.8197982311248779,0.5512465238571167,0.15510773658752441,0.43490609526634216,0.3065074384212494,0.8271438479423523
3.7241320610046387,0.24134474992752075,-0.24778711795806885,0.01307833194732666,-0.5967418614597247,-1.7512990373016275,1.7351844161108037,-0.8137325644493103,0.5619504451751709,0.14849717915058136,0.018505407497286797,0.2944830060005188,0.4810245633125305
3.7441611289978027,0.27078014612197876,-0.37102049589157104,-0.01291702687740326,-0.60772625626206,-1.745592938151677,1.7345688772356698,-0.8084390759468079,0.5710023045539856,0.14276942610740662,0.16253462433815002,0.2750609815120697,0.6389200091362
3.762770175933838,0.2538576126098633,-0.3035004138946533,-0.014403119683265686,-0.620477862004763,-1.7402084591019675,1.7369299966056782,-0.8019533157348633,0.5814239978790283,0.13717547059059143,0.24143829941749573,0.16256996989250183,0.5202754735946655
3.782680034637451,0.1093587875366211,-0.2686620354652405,-0.01164795458316803,-0.6291475751421911,-1.7332714491437307,1.7413876177550807,-0.7978811264038086,0.5884557366371155,0.13078872859477997,0.27457085251808167,0.27006661891937256,0.28141018748283386
3.805272102355957,0.08748781681060791,-0.2646791934967041,0.02085816115140915,-0.6357116493200543,-1.7237821654672325,1.7452335249156552,-0.7952515482902527,0.5937502980232239,0.1226203516125679,0.025966159999370575,0.66252601146698,0.5262138843536377
3.825181007385254,0.010528326034545898,-0.22073578834533691,-0.13332390785217285,-0.6457641368660791,-1.7131869897784857,1.7430901573049922,-0.7905577421188354,0.6018089056015015,0.1133350357413292,-0.06688211113214493,0.4767586290836334,0.4312674403190613
3.8399970531463623,-0.011498212814331055,-0.03562718629837036,-0.0938258171081543,-0.653903939469422,-1.70696054118345,1.737813306570629,-0.786368727684021,0.6082896590232849,0.10774197429418564,-0.1494399756193161,0.46250227093696594,0.4293695092201233
3.862406015396118,-0.03594255447387695,-0.11279881000518799,-0.06156374514102936,-0.6625357896494822,-1.701154355836704,1.7325494754243491,-0.781745433807373,0.615118145942688,0.10248798877000809,-0.1643097847700119,0.4245605766773224,0.4751072824001312
3.882620096206665,-0.003952682018280029,-0.10701274871826172,-0.031914472579956055,-0.6720117238655988,-1.698497254402836,1.7271545127079655,-0.7761987447738647,0.6225615739822388,0.099663645029068,-0.11059150099754333,0.20401301980018616,0.5585465431213379
3.9036269187927246,0.005127131938934326,-0.13265031576156616,-0.0017737224698066711,-0.6842419095289761,-1.6985315510104722,1.7224693170626322,-0.7685854434967041,0.6320857405662537,0.09871289134025574,-0.13680242002010345,0.14185775816440582,0.672195315361023
3.923302173614502,-0.01311635971069336,-0.06242036819458008,0.004885539412498474,-0.6955461591983813,-1.699145695624647,1.7165554258160816,-0.7613892555236816,0.6408048272132874,0.09826400876045227,-0.0602966845035553,0.1650840789079666,0.48557230830192566
3.9434330463409424,0.006222069263458252,-0.04257327318191528,-0.07045374810695648,-0.7043099259154246,-1.6943177674426162,1.7182184031848011,-0.7562527656555176,0.6475080847740173,0.0938914343714714,0.2701064348220825,0.23121853172779083,0.36916211247444153
3.9633541107177734,0.04811906814575195,-0.05796939134597778,-0.09117650985717773,-0.7100907091870506,-1.683019307202731,1.7279780862625682,-0.7535329461097717,0.6519025564193726,0.08492051064968109,0.5119375586509705,0.2677505314350128,0.12124031782150269
3.9830689430236816,0.08057808876037598,-0.10995018482208252,-0.09660505503416061,-0.7118551408143068,-1.6677245575201438,1.742265275894298,-0.7535976767539978,0.6532394886016846,0.07327450811862946,0.5580438375473022,0.33855679631233215,-0.04772721603512764
4.003225088119507,0.10754621028900146,-0.14000201225280762,-0.09295130521059036,-0.71057550695799,-1.6508946578993684,1.756927451580564,-0.7555564045906067,0.6522700786590576,0.06064856797456741,0.5529711246490479,0.3933808207511902,-0.17020283639431
4.023036003112793,0.11582916975021362,-0.14626038074493408,-0.11744177341461182,-0.7070409057071971,-1.6313169846101734,1.773840518411554,-0.7588956952095032,0.6495868563652039,0.04598502442240715,0.7038318514823914,0.4752899706363678,-0.24016010761260986
4.041900157928467,0.1412346363067627,-0.1469007134437561,-0.06843960285186768,-0.7020935291503427,-1.6099033184693345,1.7904805117215246,-0.762908399105072,0.6458175182342529,0.029850272461771965,0.5516594648361206,0.6108536720275879,-0.3614993095397949
4.063042163848877,0.1504337191581726,-0.18190091848373413,-0.03358268737792969,-0.692574041122476,-1.5862396772432303,1.8048906149379436,-0.7695133686065674,0.6385203003883362,0.011884809471666813,0.5212833881378174,0.8831610679626465,-0.5851857662200928
4.084660053253174,0.16990232467651367,-0.1938658356666565,-0.023152410984039307,-0.6784432382537067,-1.5576906150127288,1.8176774740190578,-0.7784839272499084,0.627581775188446,-0.010203170590102673,0.5367518663406372,1.1414352655410767,-0.8519396185874939
4.10330605506897,0.18476063013076782,-0.21552729606628418,-0.035265564918518066,-0.6578881555338935,-1.5242323767001322,1.832845021535339,-0.7904278635978699,0.6114471554756165,-0.036832068115472794,0.7244690656661987,1.2939095497131348,-1.1330878734588623
4.122756004333496,0.2012491226196289,-0.2128666639328003,0.01683080941438675,-0.6312892345854645,-1.485350595470256,1.8514157548914008,-0.8043223023414612,0.5901859998703003,-0.06889364868402481,0.9888407588005066,1.5151969194412231,-1.4575839042663574
4.141665935516357,0.19872379302978516,-0.17014461755752563,0.09923987090587616,-0.5965135517440046,-1.4363440581059266,1.8760477687692203,-0.8198330402374268,0.5617615580558777,-0.11089746654033661,1.336817741394043,1.987597107887268,-1.7852389812469482
4.161669015884399,0.2028515338897705,-0.10377991199493408,0.12227781116962433,-0.5517996525134219,-1.3808053579812753,1.8987486771685294,-0.836259126663208,0.5242206454277039,-0.16082139313220978,1.237140417098999,2.2750940322875977,-2.37583327293396
4.1825971603393555,0.23766010999679565,-0.1530996859073639,0.07782326638698578,-0.49706227725844454,-1.330290834024768,1.910532294838578,-0.8536878824234009,0.476845383644104,-0.20936912298202515,0.9327889680862427,2.0949063301086426,-2.6589696407318115
4.203118085861206,0.2733616232872009,-0.23504137992858887,0.06552231311798096,-0.44446227491820084,-1.2926165401024297,1.9100559407127216,-0.868134081363678,0.42997246980667114,-0.2479257583618164,0.36511072516441345,1.6426079273223877,-2.436446189880371
4.222645044326782,0.19637179374694824,-0.29025107622146606,0.10283878445625305,-0.40086123128826073,-1.2697769711532072,1.896296700245818,-0.879324734210968,0.39021143317222595,-0.272989422082901,-0.33517730236053467,1.2118102312088013,-2.10308575630188
4.242438077926636,-0.048502445220947266,-0.2046605944633484,0.1067855954170227,-0.3654020404995099,-1.259975181516381,1.8687103868013664,-0.889226496219635,0.3573248088359833,-0.28564903140068054,-1.0149551630020142,0.8028251528739929,-2.137287139892578
4.2623419761657715,-0.3393775224685669,-0.07715815305709839,0.11908772587776184,-0.3304863946086548,-1.2617431661849663,1.8274283628172583,-0.9010705351829529,0.3245031535625458,-0.2876972556114197,-1.6235506534576416,0.45624998211860657,-2.4050538539886475
4.282218933105469,-0.4907992482185364,0.022282540798187256,0.19657984375953674,-0.29407143323946616,-1.2713764285191906,1.7724437443263794,-0.9144895076751709,0.28985127806663513,-0.2823036015033722,-2.31140398979187,0.280363529920578,-2.589660167694092
4.302349090576172,-0.461312472820282,0.0009852051734924316,0.25679370760917664,-0.2611118031112293,-1.285732754619033,1.7035306158342198,-0.9271153211593628,0.25815483927726746,-0.2716861665248871,-3.10795259475708,0.19143596291542053,-2.435701847076416
4.32133412361145,-0.34610235691070557,0.003461673855781555,0.24748235940933228,-0.23580875073080132,-1.3036407726563686,1.622307107612813,-0.937833309173584,0.23362943530082703,-0.2566832900047302,-3.700758934020996,0.01052956935018301,-2.1665501594543457
4.342390060424805,-0.205724835395813,0.09601764380931854,0.15054741501808167,-0.21441363988321316,-1.3236532955144087,1.5406282108964011,-0.9474126100540161,0.21277453005313873,-0.239033043384552,-3.277390956878662,-0.18929512798786163,-1.9350709915161133
4.3621039390563965,-0.0555872917175293,0.23345690965652466,0.02292276918888092,-0.19178896682308902,-1.342081813324031,1.4801829075881978,-0.9561010003089905,0.19061537086963654,-0.22256866097450256,-1.8902379274368286,-0.4315072298049927,-1.663731336593628
4.381778240203857,0.06361579895019531,0.3245387673377991,-0.0117417573928833,-0.16610751306141003,-1.359104975730808,1.4507306354728218,-0.9642201662063599,0.165344700217247,-0.20722177624702454,-0.39110511541366577,-0.7431322336196899,-1.5254827737808228
4.40191912651062,0.09181869029998779,0.3283395767211914,0.0382286012172699,-0.13663906681964222,-1.3760943638887906,1.4478361975845944,-0.9719609022140503,0.13621428608894348,-0.19167084991931915,0.5059564113616943,-0.8747795224189758,-1.4056249856948853
4.422034025192261,0.04072600603103638,0.24997198581695557,0.22870367765426636,-0.10704386059745531,-1.3906155177017059,1.4506678064620555,-0.9781803488731384,0.10683955252170563,-0.1781817376613617,0.2105160504579544,-0.5120610594749451,-1.4946627616882324
4.441744089126587,-0.10179543495178223,0.17194700241088867,0.1644488424062729,-0.07689281369705361,-1.3977748186175605,1.446032208793543,-0.9821586608886719,0.07681706547737122,-0.17165087163448334,-0.16528961062431335,-0.2113654613494873,-1.5463122129440308
4.462075233459473,-0.04108905792236328,0.28978288173675537,0.06430591642856598,-0.04716392051631702,-1.4032270536599465,1.4338969115551305,-0.984896719455719,0.04714643582701683,-0.16660070419311523,-0.472192645072937,-0.33278828859329224,-1.5893781185150146
4.482058048248291,0.038521647453308105,0.4030139446258545,0.00805838406085968,-0.017381828277292437,-1.41247172944403,1.4177532477631642,-0.9873436689376831,0.017380952835083008,-0.15764017403125763,-0.605981707572937,-0.5231090188026428,-1.6267502307891846
4.5019731521606445,0.042202889919281006,0.4392804801464081,-0.05239500105381012,0.012553505445482413,-1.4247086517280927,1.4017295522540916,-0.9892703890800476,-0.012553175911307335,-0.14555716514587402,-0.49006029963493347,-0.6915027499198914,-1.5378966331481934
4.521536111831665,0.07657337188720703,0.45541104674339294,-0.10679954290390015,0.038749001609473685,-1.4402195338412143,1.3907335052908143,-0.9907428026199341,-0.03873930498957634,-0.1301083266735077,-0.23207619786262512,-0.8988934755325317,-1.2018831968307495
4.541481018066406,0.05593496561050415,0.5025861263275146,-0.17317277193069458,0.05955183474085843,-1.4601463267626136,1.385963561522235,-0.9921228289604187,-0.05951664224267006,-0.11022862046957016,0.0027553271502256393,-1.0775775909423828,-0.9519596099853516
4.5615620613098145,-0.0032431483268737793,0.54449462890625,-0.21478980779647827,0.0768578863384968,-1.481032462388081,1.385869056628867,-0.9930339455604553,-0.0767822414636612,-0.08937875181436539,0.11531807482242584,-0.9745336771011353,-0.7869493365287781
4.581529140472412,-0.020557284355163574,0.5801628232002258,-0.2232782244682312,0.09201136898015251,-1.4981716869543849,1.3851758089026556,-0.993145227432251,-0.09188159555196762,-0.07225389033555984,-0.09051533043384552,-0.7529436945915222,-0.7414628863334656
4.600515127182007,0.011107683181762695,0.5769723057746887,-0.24397766590118408,0.10527335432061431,-1.5110633897239492,1.380038045152905,-0.99269038438797,-0.10507901012897491,-0.05936693772673607,-0.30768492817878723,-0.6038627624511719,-0.5889002084732056
4.620296955108643,0.038129568099975586,0.5834247469902039,-0.28282612562179565,0.11372957245796582,-1.521604761751957,1.3731133515251164,-0.9923380613327026,-0.11348456144332886,-0.048854075372219086,-0.2795271575450897,-0.5445070266723633,-0.27916181087493896
4.641226053237915,0.052904725074768066,0.6371370553970337,-0.3184429407119751,0.11626536968379615,-1.532234306534994,1.3690223717347436,-0.9925104975700378,-0.1160036101937294,-0.03829219192266464,-0.110210120677948,-0.5616302490234375,-0.025907939299941063
4.660247087478638,0.032768309116363525,0.6583329439163208,-0.3179140090942383,0.11470004355837966,-1.5426047893312012,1.3680756525998645,-0.9930345416069031,-0.11444871127605438,-0.02800258807837963,-0.030939185991883278,-0.48680439591407776,0.19732438027858734
4.681218147277832,-0.0045549869537353516,0.6290842294692993,-0.30906933546066284,0.10811552732206967,-1.5509215434355732,1.366312030173509,-0.9939648509025574,-0.10790502279996872,-0.019757438451051712,-0.18988609313964844,-0.33402836322784424,0.4468943774700165
4.701159954071045,-0.026284515857696533,0.6074960231781006,-0.2773846387863159,0.09653753649414151,-1.5547094999197946,1.3598630609641442,-0.9952151775360107,-0.09638766199350357,-0.016011236235499382,-0.4635604918003082,-0.15093743801116943,0.7061002850532532
4.720943927764893,-0.06098580360412598,0.6030572652816772,-0.30080950260162354,0.07901533377982847,-1.5580741218113792,1.3510084868847085,-0.9967995285987854,-0.07893314212560654,-0.012682171538472176,-0.33747485280036926,-0.2682684063911438,1.0194820165634155
4.740942001342773,-0.2157319188117981,0.6627786755561829,-0.400348424911499,0.05812084245285996,-1.561965447628776,1.3523287798934347,-0.998272716999054,-0.05808812379837036,-0.008815854787826538,0.5390043258666992,-0.07811801135540009,1.0068106651306152
4.761048078536987,-0.13545852899551392,0.7204462885856628,-0.3701961040496826,0.03919715115809486,-1.5628430736603451,1.3736784145356626,-0.9992004036903381,-0.03918711468577385,-0.007947061210870743,1.5333400964736938,0.055298637598752975,0.9592528343200684
4.780239105224609,-0.023844778537750244,0.6662801504135132,-0.27787840366363525,0.01799620614318452,-1.5628305647953966,1.4119264931007676,-0.9998065233230591,-0.017995234578847885,-0.007964389398694038,2.2514748573303223,0.0644330158829689,1.2032763957977295
4.801123142242432,-0.2131606936454773,0.6096003651618958,-0.22084617614746094,-0.0066259174118576715,-1.5608225531317488,1.461763059384156,-0.9999285340309143,0.00662586884573102,-0.009973391890525818,2.7098419666290283,0.18829761445522308,1.2548279762268066
4.820827007293701,-0.4668247699737549,0.5705726146697998,-0.1834741234779358,-0.03049110349055021,-1.5538835192223053,1.520281572850575,-0.9993923902511597,0.03048637881875038,-0.01690414361655712,3.096733808517456,0.40140190720558167,1.2067068815231323
4.840847015380859,-0.5194210410118103,0.5589976906776428,-0.10736632347106934,-0.05299613606657806,-1.5406341815748643,1.5849767953120946,-0.9981419444084167,0.052971333265304565,-0.030115235596895218,3.393064022064209,0.6445640325546265,1.175628423690796
4.860720157623291,-0.4369434118270874,0.5538351535797119,-0.018106695264577866,-0.07433082994903129,-1.5181463326452462,1.6612405132360877,-0.9958569407463074,0.07426240295171738,-0.052480362355709076,4.1746015548706055,1.0888129472732544,1.2582237720489502
4.880491018295288,-0.3443329930305481,0.5216444134712219,0.02100563794374466,-0.09489200657394198,-1.4865532291969774,1.751050932076571,-0.9919707775115967,0.09474965929985046,-0.0837649405002594,4.527629375457764,1.2777169942855835,1.3701144456863403
4.900672912597656,-0.1957527995109558,0.3334658741950989,0.1039964035153389,-0.11495303675612523,-1.4500100272111143,1.84064247812397,-0.986162543296814,0.11470003426074982,-0.11969759315252304,3.930651903152466,1.4745575189590454,1.6081517934799194
4.920387029647827,-0.10684442520141602,0.12763243913650513,0.18123382329940796,-0.1425951986225345,-1.409887097433819,1.9094650238925757,-0.977063775062561,0.14211244881153107,-0.1585896760225296,2.518174409866333,1.6613909006118774,2.0709052085876465
4.940575122833252,-0.06136602163314819,0.089384064078331,0.18963059782981873,-0.17994175632615378,-1.3680602795564536,1.9579602868849442,-0.9637041687965393,0.1789722740650177,-0.19809912145137787,1.6289165019989014,1.7093226909637451,2.415102005004883
4.95995306968689,-0.06072729825973511,0.1833583116531372,0.22104740142822266,-0.2203523653218338,-1.3257681847975873,1.9988499865983587,-0.9466733336448669,0.21857348084449768,-0.2367181032896042,1.4684295654296875,1.7309049367904663,2.4101011753082275
4.980391979217529,-0.0904737114906311,0.15247300267219543,0.2777923345565796,-0.25917114739833036,-1.2816019113126933,2.040930173776963,-0.9264636635780334,0.25627946853637695,-0.27565598487854004,1.4620453119277954,1.6952567100524902,2.417670726776123
5.00032901763916,-0.13930094242095947,0.07340976595878601,0.3639409840106964,-0.29573514551473157,-1.2356887065047126,2.0842427068554383,-0.9033779501914978,0.2914431691169739,-0.31459394097328186,1.3862675428390503,1.7119064331054688,2.341355562210083
5.020011901855469,-0.19952064752578735,0.03320181369781494,0.40887343883514404,-0.32889707854744904,-1.1888642665032518,2.1279621180034898,-0.8782077431678772,0.32299941778182983,-0.35273629426956177,1.3613580465316772,1.6281921863555908,2.2142951488494873
5.039966106414795,-0.271975576877594,0.011340230703353882,0.4549521207809448,-0.3575093688682236,-1.1427290823484175,2.1713983566656996,-0.8522463440895081,0.3499421775341034,-0.38886621594429016,1.2496806383132935,1.5219136476516724,2.0315279960632324
5.059936046600342,-0.37353551387786865,-0.021973639726638794,0.5087361931800842,-0.38191364429485464,-1.0981470094836372,2.2117220548759313,-0.8262172937393188,0.3726969361305237,-0.42244765162467957,1.0535809993743896,1.540204644203186,1.801192045211792
5.0799291133880615,-0.3819218873977661,-0.07563310861587524,0.5892965793609619,-0.40366027353108713,-1.0534376929395597,2.245127947366295,-0.7992762923240662,0.39278706908226013,-0.45483604073524475,0.6147677302360535,1.6289416551589966,1.6027593612670898
5.100613117218018,-0.27983516454696655,-0.15515729784965515,0.6463407278060913,-0.42764015762979446,-1.012069011609904,2.268625162533737,-0.7715717554092407,0.4147246181964874,-0.48236969113349915,-0.0035408656112849712,1.549897313117981,1.5778636932373047
5.1199610233306885,-0.22101205587387085,-0.2273792326450348,0.6668269038200378,-0.45710621025101417,-0.9763514588960724,2.2829576067610136,-0.7434044480323792,0.4413532614707947,-0.5025506615638733,-0.48538288474082947,1.4043059349060059,1.600522756576538
5.139959096908569,-0.2006453275680542,-0.2726064920425415,0.6566894054412842,-0.48987210874421544,-0.9464681271450499,2.292192967259928,-0.7159349322319031,0.4705130457878113,-0.5158049464225769,-0.6623148322105408,1.1469612121582031,1.548823595046997
5.159983158111572,-0.22198385000228882,-0.2932227551937103,0.6328999996185303,-0.5207758399335519,-0.9226065806704054,2.301228126649523,-0.6914989352226257,0.497553288936615,-0.5237079858779907,-0.48940786719322205,0.7996488809585571,1.3820358514785767
5.17995023727417,-0.303949773311615,-0.3195878267288208,0.6390593647956848,-0.544366013946731,-0.9035251042695716,2.3129391425754946,-0.6719719171524048,0.5178758502006531,-0.5293943881988525,-0.1406852900981903,0.5352018475532532,1.0698180198669434
5.1999430656433105,-0.3757903575897217,-0.39530616998672485,0.6685290932655334,-0.5573901523332918,-0.8876120976658869,2.3253410914519566,-0.6581757068634033,0.5289731621742249,-0.5357165336608887,0.12746673822402954,0.42470794916152954,0.5681601166725159
5.219948053359985,-0.2958502173423767,-0.5551209449768066,0.7061769366264343,-0.5609654578394896,-0.875944504974266,2.33213093131785,-0.6504237055778503,0.5320039391517639,-0.5421448945999146,0.07614065706729889,0.3403388261795044,0.0740213468670845
5.239952087402344,-0.15837591886520386,-0.6770708560943604,0.6611416339874268,-0.5608773891481654,-0.8755549943470307,2.3298543487170824,-0.6502484083175659,0.5319293737411499,-0.542428195476532,-0.2339741289615631,-0.25155627727508545,-0.20715709030628204
5.259951114654541,-0.17980623245239258,-0.5539953112602234,0.5413162708282471,-0.5577112175660129,-0.8924024552464678,2.3199864602134794,-0.6606021523475647,0.5292456150054932,-0.5324508547782898,-0.12607313692569733,-0.834279477596283,-0.620093047618866
5.279950141906738,-0.25832968950271606,-0.38625001907348633,0.44957709312438965,-0.5412790786317849,-0.9164824289676217,2.3079285997268664,-0.680040180683136,0.5152326226234436,-0.5216137766838074,0.3762836158275604,-0.9073168039321899,-1.3276402950286865
5.299952983856201,-0.1490669846534729,-0.437388151884079,0.43328195810317993,-0.5098861518510108,-0.9423623108754595,2.2984929981684443,-0.7060508728027344,0.48807787895202637,-0.5131005644798279,0.7244309782981873,-1.3070697784423828,-1.5656136274337769
5.319983005523682,-0.14828592538833618,-0.5384297966957092,0.5605016350746155,-0.47954211716873557,-0.976505751125077,2.2877437296287195,-0.7350912690162659,0.4613730013370514,-0.4967655837535858,0.11194676905870438,-1.4337278604507446,-1.4922587871551514
5.34011697769165,-0.356456995010376,-0.6128842830657959,0.6941048502922058,-0.45907048780751997,-1.0119956203463114,2.2593692104378955,-0.7601049542427063,0.4431150257587433,-0.47527849674224854,-1.0847923755645752,-0.806814968585968,-1.6677778959274292
5.360908031463623,-0.36611825227737427,-0.6027089357376099,0.616887629032135,-0.4458902419588435,-1.0508424227377064,2.2068853479394805,-0.7829907536506653,0.43126124143600464,-0.44826269149780273,-2.235680103302002,-0.9095742702484131,-1.7901464700698853
5.381575107574463,-0.2749096155166626,-0.4252334535121918,0.41561436653137207,-0.43714722779444576,-1.1006945698619064,2.14181566753458,-0.8076863288879395,0.42335668206214905,-0.4103805124759674,-2.3714776039123535,-1.3057676553726196,-1.8469003438949585
5.400909900665283,-0.3689974546432495,-0.18536686897277832,0.21880891919136047,-0.41788231139067533,-1.1556298419181035,2.081803211147329,-0.8363096117973328,0.4058259129524231,-0.3686348497867584,-1.6365489959716797,-1.6716634035110474,-2.3000118732452393
5.4200029373168945,-0.40952587127685547,0.016834914684295654,0.09306344389915466,-0.37922900666063236,-1.2082036639235096,2.0396403247704558,-0.8685505390167236,0.370204359292984,-0.3294983208179474,-0.525210440158844,-1.9239277839660645,-2.725870132446289
5.44000506401062,-0.3465437889099121,0.09964486956596375,0.06979015469551086,-0.32719797299649506,-1.2565956187146123,2.0178880371729115,-0.9005876183509827,0.32139092683792114,-0.2926599085330963,0.22271369397640228,-2.1471173763275146,-2.8344078063964844
5.460233211517334,-0.3301808834075928,0.07907450199127197,0.10513916611671448,-0.27218969194258025,-1.3030568481573643,2.006750255315044,-0.9288676381111145,0.2688411474227905,-0.2548125386238098,0.2777365744113922,-2.119708776473999,-2.7299041748046875
5.479980945587158,-0.3561697006225586,0.08297231793403625,0.09232908487319946,-0.2208667887148086,-1.3454344235264077,1.996326222218112,-0.9510356187820435,0.21907544136047363,-0.2180308699607849,-0.07693823426961899,-1.8892014026641846,-2.5058746337890625
5.500196933746338,-0.2893867492675781,0.14202749729156494,0.019635513424873352,-0.1751973538051108,-1.3860605103097798,1.9783068652161049,-0.9679375290870667,0.17430247366428375,-0.1808750182390213,-0.7397620677947998,-1.842544674873352,-2.3487017154693604
5.520016193389893,-0.20466071367263794,0.22996501624584198,-0.06570136547088623,-0.1334372265346595,-1.426497861048217,1.9519613046471838,-0.9808099865913391,0.1330415904521942,-0.14251993596553802,-1.0415583848953247,-1.7774726152420044,-2.1853928565979004
5.540029048919678,-0.14318978786468506,0.34366756677627563,-0.16280609369277954,-0.09496693827110586,-1.4638442958224716,1.9262145612806305,-0.9898059368133545,0.09482425451278687,-0.10626725107431412,-0.9925841093063354,-1.6961603164672852,-1.9758212566375732
5.559973239898682,-0.09813922643661499,0.4227086007595062,-0.2709863781929016,-0.058189731770745004,-1.4987489722283112,1.9061769473650108,-0.9957177042961121,0.058156900107860565,-0.07186321169137955,-0.6520798206329346,-1.667272686958313,-1.8774971961975098
5.579933166503906,-0.06864374876022339,0.4871969223022461,-0.3400815725326538,-0.022616415947746528,-1.5325630620709232,1.894208422812547,-0.9990138411521912,0.022614488378167152,-0.03821418434381485,-0.35717451572418213,-1.6309926509857178,-1.7557748556137085
5.60001802444458,-0.08804315328598022,0.518271803855896,-0.40442949533462524,0.011634523446177688,-1.563894233339177,1.8878942972490667,-0.9999086260795593,-0.011634261347353458,-0.006901572458446026,-0.28357499837875366,-1.4931241273880005,-1.6875954866409302
5.619952201843262,-0.0768999457359314,0.5184487104415894,-0.46108484268188477,0.04428103019895176,-1.5918247534986558,1.8796476267603903,-0.9987990260124207,-0.044266559183597565,0.0210062675178051,-0.602850079536438,-1.3200578689575195,-1.5661146640777588
5.639952182769775,-0.03155916929244995,0.5190860033035278,-0.5245710611343384,0.0737946803296178,-1.6157073905905772,1.8665107140214046,-0.9962728023529053,-0.07372771948575974,0.044773779809474945,-0.7375521659851074,-1.138449788093567,-1.3233753442764282
5.6600022315979,-0.008433043956756592,0.6291278600692749,-0.5980325937271118,0.09800417141848426,-1.6342331411404583,1.8548921549947028,-0.9931997060775757,-0.0978473648428917,0.06309007853269577,-0.5174071788787842,-0.8081164956092834,-1.0696383714675903
5.679949045181274,0.01564890146255493,0.7467681169509888,-0.646755576133728,0.11896627061258172,-1.6468734808400582,1.8493723276636216,-0.990060031414032,-0.11868584901094437,0.0754665955901146,-0.17462758719921112,-0.5331889986991882,-1.002612829208374
5.6999571323394775,0.060729801654815674,0.7857393622398376,-0.667646050453186,0.13708998532381092,-1.655753077978481,1.850744564734056,-0.9870452284812927,-0.13666097819805145,0.0840584859251976,0.1581670641899109,-0.3446469008922577,-0.7825984358787537
5.719995021820068,0.06369906663894653,0.7893043160438538,-0.667633056640625,0.14887776985533316,-1.661848095255127,1.8583668603255565,-0.9848419427871704,-0.14832840859889984,0.08992023020982742,0.48844558000564575,-0.15316109359264374,-0.4715126156806946
5.739964008331299,0.012757539749145508,0.799971878528595,-0.6608530282974243,0.15431285274098452,-1.665501299957313,1.8731697709161024,-0.9836897850036621,-0.15370115637779236,0.09343983232975006,0.9508929252624512,0.004378643352538347,-0.20751559734344482
5.7599570751190186,-0.08160632848739624,0.8486191034317017,-0.6286636590957642,0.15345037728375266,-1.668054821639366,1.897325378410907,-0.9835794568061829,-0.15284886956214905,0.0959642305970192,1.4155292510986328,0.12348461896181107,0.04745732992887497
5.779971122741699,-0.23387664556503296,0.8572414517402649,-0.5181204080581665,0.14740177165553506,-1.6677861891591337,1.9280141242556776,-0.9845073819160461,-0.14686857163906097,0.09578778594732285,1.6026948690414429,0.4095298647880554,0.27059370279312134
5.799960136413574,-0.37661975622177124,0.8041170835494995,-0.3770120143890381,0.13620289072548664,-1.6593139800037944,1.9563827837502579,-0.9868600964546204,-0.1357821524143219,0.08758340775966644,1.2436867952346802,0.8396234512329102,0.5797678828239441
5.820069074630737,-0.44210100173950195,0.7154701352119446,-0.3171268701553345,0.11947120069818323,-1.6418922957385678,1.9752363107091742,-0.990363597869873,-0.11918719112873077,0.07052973657846451,0.8056749701499939,1.1079758405685425,0.9553748369216919
5.840010166168213,-0.4127621054649353,0.7043348550796509,-0.3323155641555786,0.09510320070995086,-1.6195840439142979,1.9888240204234058,-0.9942968487739563,-0.09495989978313446,0.04854799807071686,0.7789245843887329,1.2446054220199585,1.3935918807983398
5.859954118728638,-0.3455319404602051,0.7042215466499329,-0.3107866048812866,0.06287504400236762,-1.5957004359835492,2.0061216554254884,-0.9977147579193115,-0.06283362209796906,0.024852335453033447,1.0658565759658813,1.3189365863800049,1.731866478919983
5.8799519538879395,-0.270743727684021,0.6442323923110962,-0.173786461353302,0.02549128517440066,-1.5685262545974483,2.028397215747087,-0.9996727108955383,-0.02548852376639843,-0.0022693329956382513,1.179603934288025,1.4777752161026,1.9732164144515991
5.899959087371826,-0.2631889581680298,0.5367696285247803,-0.046970367431640625,-0.016926880221931673,-1.537662642598859,2.0537118152140823,-0.9993081092834473,0.016926072537899017,-0.03312288224697113,1.2972267866134644,1.6078619956970215,2.2506368160247803
5.919947147369385,-0.34103643894195557,0.4783342480659485,0.022567152976989746,-0.06255433601051462,-1.5030622365687913,2.083939346152761,-0.995755672454834,0.06251354515552521,-0.0675499364733696,1.5243421792984009,1.6927227973937988,2.3699846267700195
5.939949989318848,-0.3714403510093689,0.43179088830947876,0.06729346513748169,-0.10769327790933968,-1.4665018167787667,2.1218446422897,-0.9888045191764832,0.10748522728681564,-0.10350243002176285,1.874198317527771,1.6112388372421265,2.4530460834503174
5.9599761962890625,-0.3947979211807251,0.3784777522087097,0.12966471910476685,-0.15182902174291407,-1.4296145315137296,2.1689421480591236,-0.978661060333252,0.15124636888504028,-0.1390945166349411,2.2222931385040283,1.4906244277954102,2.476590633392334
5.979950904846191,-0.46233779191970825,0.29524433612823486,0.20966339111328125,-0.1922662133061627,-1.3905466576614622,2.2233525265486405,-0.9656713604927063,0.19108383357524872,-0.1759718507528305,2.425471782684326,1.5089607238769531,2.3918936252593994
5.9999470710754395,-0.41225260496139526,0.18884961307048798,0.3045828938484192,-0.22988745412620384,-1.3481380179690774,2.2802946740677874,-0.9496554136276245,0.2278679460287094,-0.21501369774341583,2.2110092639923096,1.5406372547149658,2.402050018310547
6.0199480056762695,-0.35518360137939453,0.12564703822135925,0.3788546919822693,-0.2656184195594926,-1.3046806115019192,2.3333667827448505,-0.9309645891189575,0.26250603795051575,-0.2537630796432495,1.944332480430603,1.5282970666885376,2.333960771560669
6.0399510860443115,-0.3273651599884033,0.08336207270622253,0.44296661019325256,-0.3004244397770108,-1.259179492038321,2.3833938936334667,-0.9092071652412415,0.29592567682266235,-0.2928657829761505,1.6687469482421875,1.6330662965774536,2.3850998878479004
6.059947967529297,-0.31378865242004395,0.02107939124107361,0.4916270077228546,-0.33597482361541253,-1.2114800205100573,2.4306216057487444,-0.8837974071502686,0.3296896517276764,-0.33197417855262756,1.4165358543395996,1.6667741537094116,2.474656581878662
6.0799479484558105,-0.32255131006240845,-0.04984551668167114,0.5380187034606934,-0.3736170301182219,-1.1624133097489597,2.4762522549678336,-0.8544506430625916,0.36498531699180603,-0.3697294592857361,1.1487371921539307,1.669560194015503,2.6259186267852783
6.100007057189941,-0.36261194944381714,-0.13368651270866394,0.5887210369110107,-0.41374694905553394,-1.1120827640229036,2.5205358987793383,-0.8209667205810547,0.4020429253578186,-0.40543243288993835,0.8826974034309387,1.6634101867675781,2.74416184425354
6.119949102401733,-0.3874126672744751,-0.19842427968978882,0.6271986961364746,-0.4555152965713701,-1.0607747789707291,2.5642209889922336,-0.7837451696395874,0.4399251341819763,-0.43841686844825745,0.689674973487854,1.6317414045333862,2.7907521724700928
6.139948129653931,-0.3914252519607544,-0.2422424852848053,0.6668996214866638,-0.4967336639702542,-1.009375494269717,2.607282728799026,-0.7441949844360352,0.4765565097332001,-0.46804699301719666,0.5113663673400879,1.5335068702697754,2.6952717304229736
6.159996032714844,-0.3766447901725769,-0.31221145391464233,0.6984308958053589,-0.5348608247459017,-0.9592753857788237,2.64913226438963,-0.7044252753257751,0.5097212791442871,-0.4939325451850891,0.42617395520210266,1.4268759489059448,2.508253812789917
6.1794819831848145,-0.3306404948234558,-0.43332022428512573,0.7225803136825562,-0.5687635449165427,-0.9109426047326339,2.689701089380189,-0.6656975150108337,0.538590669631958,-0.5164951086044312,0.3581559956073761,1.303918719291687,2.2554750442504883
6.199955940246582,-0.24946320056915283,-0.5758381485939026,0.715991735458374,-0.596209804383119,-0.8647072120060059,2.7275981145474515,-0.6296262145042419,0.5615102648735046,-0.5369145274162292,0.3836192786693573,1.2222182750701904,1.8592791557312012
6.219954967498779,-0.1323246955871582,-0.7166728377342224,0.6982668042182922,-0.6154545058851207,-0.8232576691378856,2.76073255137424,-0.5988002419471741,0.577329695224762,-0.55509352684021,0.37311112880706787,1.0043647289276123,1.4242745637893677
6.239943981170654,-0.057493507862091064,-0.7190049290657043,0.623654305934906,-0.6285187426405913,-0.793432170499818,2.788339096283882,-0.5765549540519714,0.5879471898078918,-0.567364513874054,0.4011581540107727,0.33697256445884705,1.0270240306854248
6.2599780559539795,-0.14158952236175537,-0.5494250655174255,0.5542362928390503,-0.6303765600953684,-0.7809285860625701,2.808888793545761,-0.5686461329460144,0.5894489884376526,-0.573752224445343,0.6974127888679504,-0.23432119190692902,0.2004086971282959
6.27997612953186,-0.2662898898124695,-0.4821494221687317,0.5977461934089661,-0.6143947298338812,-0.7798726246740885,2.820704826731926,-0.5745914578437805,0.576464056968689,-0.580976665019989,1.0727300643920898,-0.2863382399082184,-0.5639131665229797
6.2999491691589355,-0.2609982490539551,-0.677230179309845,0.7473085522651672,-0.5916405154946262,-0.781324427791692,2.82514833779991,-0.5845218300819397,0.5577234625816345,-0.589303731918335,0.68109130859375,-0.07683702558279037,-0.7069268822669983
6.319947242736816,-0.19059157371520996,-0.8545064926147461,0.8115395903587341,-0.5805956624270852,-0.7878543300087023,2.8165998252297437,-0.5926879644393921,0.5485221147537231,-0.5897836089134216,-0.392434686422348,-0.18841122090816498,-0.6119776368141174
6.339956045150757,-0.1638343334197998,-0.7541239857673645,0.6606920957565308,-0.5804556844423825,-0.8096173042211734,2.7924630811631697,-0.6054376363754272,0.5484050512313843,-0.5767992734909058,-0.8876156210899353,-0.6952647566795349,-0.8352585434913635
6.3599560260772705,-0.27881312370300293,-0.4728080630302429,0.47202372550964355,-0.5752763129802047,-0.8442789963981969,2.7643807509693685,-0.6271775364875793,0.5440666675567627,-0.5573508143424988,-0.3615652322769165,-1.2318476438522339,-1.1674257516860962
6.37994909286499,-0.48843270540237427,-0.28584855794906616,0.4331989884376526,-0.553629276853777,-0.8837584043133168,2.7421560373848783,-0.657639741897583,0.5257778167724609,-0.5395069122314453,0.25097501277923584,-1.442197322845459,-1.7590389251708984
6.40001106262207,-0.6188786029815674,-0.31756463646888733,0.5853701829910278,-0.5193211423170289,-0.9232572145869387,2.7161643073512916,-0.6924160718917847,0.4962908923625946,-0.5236940383911133,-0.06056641414761543,-1.1857860088348389,-2.2397091388702393
6.419946193695068,-0.5095551609992981,-0.41762495040893555,0.626836895942688,-0.4897498880933896,-0.9672762550066103,2.6761627965815245,-0.7265594601631165,0.4704051911830902,-0.5008297562599182,-1.0769630670547485,-1.3795379400253296,-2.166257858276367
6.439946174621582,-0.46032434701919556,-0.39958804845809937,0.5233057141304016,-0.47039452135972787,-1.0222823470211928,2.623327971731701,-0.7606229782104492,0.45323798060417175,-0.46478816866874695,-1.6579383611679077,-1.6501034498214722,-2.0283894538879395
6.459949016571045,-0.5053366422653198,-0.2633630633354187,0.3321903347969055,-0.45167598060361275,-1.0812478593645392,2.569780794716745,-0.7940409183502197,0.4364740550518036,-0.42307159304618835,-1.4953510761260986,-1.873857855796814,-2.0259501934051514
6.480018138885498,-0.43099313974380493,-0.07167831063270569,0.16491729021072388,-0.42450860598745827,-1.1409094232293304,2.5255258583185554,-0.8283300995826721,0.4118730425834656,-0.3797762095928192,-0.8472809791564941,-2.2438087463378906,-2.222599983215332
6.499948024749756,-0.3632596731185913,0.07364952564239502,0.07715830206871033,-0.3858012793352658,-1.2005006221057648,2.4961464448581028,-0.8636996150016785,0.376301646232605,-0.3352911174297333,-0.18274414539337158,-2.5250978469848633,-2.3841984272003174
6.519947052001953,-0.356720507144928,0.10065293312072754,0.07945320010185242,-0.34141170806208915,-1.257893899396715,2.4783634407081103,-0.8965296745300293,0.33481764793395996,-0.29005491733551025,0.025704264640808105,-2.5336978435516357,-2.3416876792907715
6.539976119995117,-0.3863881826400757,0.049243271350860596,0.10908153653144836,-0.2992906128449632,-1.3104708954124682,2.4627212530963134,-0.9233499765396118,0.2948424220085144,-0.245952770113945,-0.35908961296081543,-2.229240655899048,-2.104724168777466
6.559999942779541,-0.36713695526123047,0.028987854719161987,0.07499957084655762,-0.2643007262005055,-1.3585179397728735,2.437967737257436,-0.9436084032058716,0.2612343430519104,-0.20337167382240295,-1.1651852130889893,-1.9230555295944214,-1.8674343824386597
6.579920053482056,-0.26936841011047363,0.07031849026679993,-0.02022765576839447,-0.23553367435407166,-1.4049990239000734,2.3997798932589847,-0.9590557217597961,0.23336195945739746,-0.1604820340871811,-1.9043670892715454,-1.8105027675628662,-1.6629873514175415
6.599124908447266,-0.21278738975524902,0.188205748796463,-0.10535651445388794,-0.20965869483046587,-1.4510369146700333,2.3506584357088607,-0.971096396446228,0.20812608301639557,-0.1168571338057518,-2.4423954486846924,-1.7188804149627686,-1.6328946352005005
6.619998931884766,-0.18885773420333862,0.2884683609008789,-0.18130415678024292,-0.1812262701772412,-1.4944604332594873,2.296620347632178,-0.9807590842247009,0.18023589253425598,-0.07501287758350372,-2.488658905029297,-1.5659672021865845,-1.7159223556518555
6.639953136444092,-0.15641731023788452,0.39635133743286133,-0.30443626642227173,-0.14940034763711457,-1.5331449588184647,2.247036851286303,-0.9881598353385925,0.14884518086910248,-0.03722316026687622,-2.1011552810668945,-1.4737499952316284,-1.739547848701477
6.659948110580444,-0.12003165483474731,0.4998273551464081,-0.41861146688461304,-0.11512711664480413,-1.5666356033947986,2.210955754745273,-0.9933717846870422,0.11487296223640442,-0.004133169073611498,-1.5101431608200073,-1.4310752153396606,-1.7964551448822021
6.679984092712402,-0.11303067207336426,0.5393200516700745,-0.42099452018737793,-0.0768597760136317,-1.5968054230318924,2.1823065151844445,-0.9967107772827148,0.07678412646055222,0.025929393246769905,-1.4244462251663208,-1.2864285707473755,-2.0063323974609375
6.700006008148193,-0.11643821001052856,0.5531574487686157,-0.448356032371521,-0.03606850938467345,-1.6221289605077578,2.158281749576838,-0.9980332851409912,0.03606069087982178,0.05127672478556633,-1.0587506294250488,-1.086388111114502,-1.9341716766357422
6.719963073730469,-0.12408238649368286,0.6601564884185791,-0.544853687286377,0.0020906901775836974,-1.6414964693486822,2.1466690640561064,-0.9974997639656067,-0.0020906885620206594,0.07064111530780792,-0.29460495710372925,-0.8585382699966431,-1.8508511781692505
6.739986896514893,-0.07626175880432129,0.7437596917152405,-0.6530057191848755,0.038935538750956504,-1.6578923245034982,2.1521290858206195,-0.9954546689987183,-0.03892570361495018,0.08692001551389694,0.5036088824272156,-0.7870540618896484,-1.844520092010498
6.759947061538696,0.01720494031906128,0.7309351563453674,-0.6848436594009399,0.07221495524591642,-1.675306836767173,2.1698815566679253,-0.9919517636299133,-0.07215220481157303,0.1040484830737114,0.8664795756340027,-0.8349940776824951,-1.6205670833587646
6.779969215393066,0.02494657039642334,0.6721890568733215,-0.6679930686950684,0.09910904174794659,-1.6915012544032684,2.190675503257491,-0.9878525733947754,-0.09894686937332153,0.11982116103172302,0.8619443774223328,-0.5620182752609253,-1.2826610803604126
6.799973011016846,0.04016268253326416,0.6746244430541992,-0.6540267467498779,0.11858200602465437,-1.7005059381814007,2.2089684168100274,-0.9846360087394714,-0.1183042898774147,0.12843787670135498,0.7038328647613525,-0.15151463449001312,-0.8694314360618591
6.819929122924805,0.10637003183364868,0.6739577651023865,-0.64104163646698,0.12891969174668,-1.7033433218309673,2.2234963490594546,-0.9830028414726257,-0.12856286764144897,0.13106250762939453,0.5952786803245544,0.02253137156367302,-0.33180078864097595
6.839907169342041,0.09019476175308228,0.6622213125228882,-0.5834405422210693,0.12890184033841964,-1.7030179002611097,2.234771383940861,-0.9830477833747864,-0.12854516506195068,0.13074292242527008,0.5224342346191406,0.17962999641895294,0.1663692742586136
6.859938144683838,-0.04496407508850098,0.6645990014076233,-0.4861549139022827,0.12070243285231098,-1.6974295820050487,2.2441416933418448,-0.9847753643989563,-0.12040955573320389,0.12537620961666107,0.5072611570358276,0.5215812921524048,0.5125733613967896
6.87995719909668,-0.14290070533752441,0.660932183265686,-0.3750962018966675,0.10653765572939426,-1.6846056058007588,2.2516483139519465,-0.9878976941108704,-0.10633622854948044,0.112919881939888,0.38279035687446594,0.8242131471633911,0.7922893762588501
6.899990081787109,-0.1941213607788086,0.605903148651123,-0.30443286895751953,0.08770500149095563,-1.6673452959719213,2.2552725308130004,-0.991517186164856,-0.08759260177612305,0.09602852910757065,0.16587281227111816,0.9228382706642151,1.053760051727295
6.91994309425354,-0.2337263822555542,0.5674340128898621,-0.2417048215866089,0.06376937015532581,-1.648092807500248,2.254788334608102,-0.9949877858161926,-0.06372615694999695,0.07706259191036224,0.03091411292552948,1.022600769996643,1.3325661420822144
6.939943075180054,-0.2379758358001709,0.5558085441589355,-0.19374024868011475,0.03480419682115403,-1.6269660111578865,2.2542110929929584,-0.9978183507919312,-0.034797169268131256,0.05610616132616997,0.14031678438186646,1.0517014265060425,1.5699048042297363
6.959943056106567,-0.23245126008987427,0.5547810196876526,-0.1501023769378662,0.0007649074029273962,-1.6069845820598478,2.258748422710099,-0.9993451237678528,-0.0007649073377251625,0.03618035092949867,0.512513279914856,0.9628255367279053,1.794079065322876
6.9800190925598145,-0.32413893938064575,0.5480849742889404,-0.08551216125488281,-0.0363346491529128,-1.5878392580095801,2.273140818343566,-0.9991950392723083,0.03632665425539017,0.017030861228704453,1.0318310260772705,0.960460364818573,1.838811993598938
7.000078201293945,-0.4340440034866333,0.5089061856269836,-0.004480957519263029,-0.07242542925071072,-1.566155749157077,2.2987965125336487,-0.997367799282074,0.07236212491989136,-0.00462839612737298,1.5544184446334839,1.0595760345458984,1.7549397945404053
7.01993989944458,-0.47276538610458374,0.45439186692237854,0.05343908444046974,-0.10692320125689317,-1.5415391404505543,2.3354973178333784,-0.9938636422157288,0.10671958327293396,-0.029085952788591385,2.032125473022461,1.04945969581604,1.7160109281539917
7.040005207061768,-0.5128454566001892,0.40392813086509705,0.08856076002120972,-0.13941552853537983,-1.5152839720284745,2.3816228232950913,-0.9887720942497253,0.13896434009075165,-0.05494552105665207,2.414186716079712,1.0057092905044556,1.7105672359466553
7.05998420715332,-0.5530620217323303,0.3461161255836487,0.13919323682785034,-0.17025393389323215,-1.4863906724656726,2.4358034693879578,-0.9820333123207092,0.1694326102733612,-0.08308657258749008,2.683946371078491,1.0665466785430908,1.7559587955474854
7.079891204833984,-0.5259299278259277,0.26601558923721313,0.23032037913799286,-0.20062922077957498,-1.453036032556649,2.493217681718441,-0.9731547832489014,0.19928596913814545,-0.1151316836476326,2.5888781547546387,1.231214165687561,1.8538917303085327
7.099889039993286,-0.3963843584060669,0.14411389827728271,0.29598909616470337,-0.2333647082495273,-1.4150227938619049,2.548003993320476,-0.9611139297485352,0.23125232756137848,-0.1509389579296112,2.2577967643737793,1.3780450820922852,2.164168357849121
7.119143009185791,-0.26329201459884644,0.050046950578689575,0.3245885670185089,-0.2728448697065769,-1.3741924165952668,2.599337752995114,-0.9444566369056702,0.2694721519947052,-0.18811386823654175,1.9821832180023193,1.4204893112182617,2.601182699203491
7.139881134033203,-0.21324032545089722,-0.007445842027664185,0.34575730562210083,-0.31925324315227344,-1.3308025480446684,2.651231262676795,-0.9222577810287476,0.3138576149940491,-0.22568580508232117,1.8935446739196777,1.4211511611938477,2.9981367588043213
7.159893989562988,-0.2203606367111206,-0.050237953662872314,0.3738481402397156,-0.36956746082842457,-1.2833806499141236,2.706620581119031,-0.894232988357544,0.3612121343612671,-0.2643357217311859,1.8269418478012085,1.454950213432312,3.1958141326904297
7.179017066955566,-0.22221189737319946,-0.12853941321372986,0.4149758815765381,-0.42011652554608037,-1.2320731348588794,2.7645267499017288,-0.8611622452735901,0.40786683559417725,-0.3033882677555084,1.7034142017364502,1.4534999132156372,3.269212484359741
7.199942111968994,-0.22212320566177368,-0.21876248717308044,0.4468688368797302,-0.46969995825663335,-1.1778109126691392,2.823847415553516,-0.8237295150756836,0.4526187479496002,-0.34147632122039795,1.5374505519866943,1.4227311611175537,3.279149293899536
7.219912052154541,-0.23229515552520752,-0.2903154194355011,0.4821724593639374,-0.5170059837651371,-1.1214125321787867,2.8831260880480554,-0.7829941511154175,0.4942796528339386,-0.3776344060897827,1.2870550155639648,1.4105782508850098,3.1654889583587646
7.2399749755859375,-0.24210208654403687,-0.35803645849227905,0.5108869075775146,-0.5606027853565574,-1.064727998629197,2.939732655302211,-0.7407776117324829,0.5316967964172363,-0.4105450510978699,1.0397417545318604,1.3654718399047852,2.9409170150756836
7.259912967681885,-0.23306888341903687,-0.41306114196777344,0.5430477261543274,-0.5994449194934258,-1.0084644358387143,2.9923658586481507,-0.6985107660293579,0.5641842484474182,-0.4402034282684326,0.7790740728378296,1.366972804069519,2.643972396850586
7.279942035675049,-0.19831597805023193,-0.45510560274124146,0.5659909844398499,-0.6333392873561831,-0.9549950637890411,3.0393278389776364,-0.6579921245574951,0.5918397307395935,-0.46558815240859985,0.5277888178825378,1.270309329032898,2.312474012374878
7.299942970275879,-0.1768360137939453,-0.4716339111328125,0.5715653300285339,-0.6625671456451834,-0.9062415734658592,3.0794486624694595,-0.6206341981887817,0.6151428818702698,-0.48622289299964905,0.319530725479126,1.1812403202056885,1.9525798559188843
7.319979190826416,-0.15529286861419678,-0.4896787405014038,0.5489932894706726,-0.6866706792518439,-0.8626957524579276,3.1134307894670266,-0.587444007396698,0.6339659094810486,-0.5029879808425903,0.2142469584941864,1.0576057434082031,1.616326928138733
7.3398661613464355,-0.13251686096191406,-0.5051907300949097,0.5373781323432922,-0.7061153101139727,-0.8251100604104548,-3.141013039368286,-0.5589657425880432,0.6488828659057617,-0.516244649887085,0.16268470883369446,0.8594110608100891,1.3144946098327637
7.359939098358154,-0.13606137037277222,-0.513935923576355,0.5393058061599731,-0.7215410009141147,-0.7938792163690659,-3.1163245035711644,-0.5353711843490601,0.6605424284934998,-0.5263662934303284,0.12826766073703766,0.6597197651863098,1.069586157798767
7.379940986633301,-0.19610333442687988,-0.5308939218521118,0.5436718463897705,-0.7335830510620871,-0.7701177390087058,-3.09778237771486,-0.5171383023262024,0.6695353388786316,-0.5331889986991882,0.0030875036027282476,0.47737956047058105,0.743033766746521
7.399990081787109,-0.2837885022163391,-0.5480725169181824,0.5576211214065552,-0.7428624364897237,-0.755940202327573,-3.0885418627289645,-0.5052435398101807,0.6763989925384521,-0.5359230637550354,-0.22638501226902008,0.33250442147254944,0.389041006565094
7.419940948486328,-0.3721967935562134,-0.5687676072120667,0.5900743007659912,-0.7511660080512448,-0.7524372440364834,-3.0923037545814704,-0.4995073676109314,0.6824914813041687,-0.5335708856582642,-0.6114088892936707,0.31851065158843994,-0.027700509876012802
7.440022945404053,-0.36348065733909607,-0.6022783517837524,0.6052193641662598,-0.7605004247767726,-0.7606035935962951,-3.113936252744007,-0.4994344413280487,0.689284086227417,-0.524836003780365,-1.1462291479110718,0.2881283462047577,-0.4780242443084717
7.459949016571045,-0.26005297899246216,-0.5962527990341187,0.5371847748756409,-0.7705763499229958,-0.7862136886961127,3.1300289220710455,-0.5077693462371826,0.6965488791465759,-0.5069417953491211,-1.5137591361999512,-0.18640221655368805,-0.8439633846282959
7.479900121688843,-0.29075509309768677,-0.526451826095581,0.43433162569999695,-0.7764310510792737,-0.8322645693565551,3.078747712847463,-0.5275432467460632,0.700737714767456,-0.4802757799625397,-1.4682868719100952,-0.8107655048370361,-1.2942639589309692
7.499969005584717,-0.5161455273628235,-0.45572614669799805,0.3780960738658905,-0.7697991854598004,-0.8922423908010352,3.0207038470588774,-0.5589888095855713,0.695991039276123,-0.45069727301597595,-1.2663570642471313,-0.9970969557762146,-1.975378155708313
7.5199432373046875,-0.6559752225875854,-0.4063636064529419,0.41073012351989746,-0.7463478020935437,-0.9549726319406157,2.952903431865419,-0.5993043780326843,0.6789619326591492,-0.4240815043449402,-1.3412140607833862,-0.6264837384223938,-2.8590941429138184
7.5399510860443115,-0.3871533274650574,-0.3620772361755371,0.3710005283355713,-0.7103325094837172,-1.0208022598638582,2.873986982124594,-0.6463397741317749,0.6520859003067017,-0.3962690234184265,-1.54470956325531,-0.8107110261917114,-3.304428815841675
7.559941053390503,-0.1977219581604004,-0.3287808895111084,0.2574639916419983,-0.669164204970386,-1.0903459418264407,2.7974816378848955,-0.6955429315567017,0.6203306317329407,-0.3625054359436035,-1.5898237228393555,-1.266855001449585,-3.168691396713257
7.579984188079834,-0.2944016456604004,-0.295687198638916,0.19201156497001648,-0.6265291611934856,-1.1609594472867975,2.7258921615268803,-0.7429823875427246,0.5863366723060608,-0.32277926802635193,-1.7347149848937988,-1.4149513244628906,-3.2004568576812744
7.599942207336426,-0.44902247190475464,-0.25934815406799316,0.18515273928642273,-0.5789303452290531,-1.2273886826139326,2.6570140117034025,-0.7881754636764526,0.5471289157867432,-0.2818322777748108,-1.766524076461792,-1.2905546426773071,-3.317314386367798
7.619941234588623,-0.553239107131958,-0.17057085037231445,0.1788773536682129,-0.5263766801469174,-1.284486262915452,2.592990159497923,-0.829436182975769,0.5024037957191467,-0.24418489634990692,-1.8409565687179565,-1.0808393955230713,-3.4071483612060547
7.639940023422241,-0.6128120422363281,-0.045244693756103516,0.18131959438323975,-0.46854243031377246,-1.3346897429052873,2.5293434003761903,-0.8674737215042114,0.4515862762928009,-0.2087090015411377,-2.091898202896118,-0.9109771251678467,-3.648864507675171
7.659943103790283,-0.5909349322319031,0.05540338158607483,0.16378545761108398,-0.4057418077381253,-1.3795671763856252,2.46434627190732,-0.902061402797699,0.39470043778419495,-0.17463435232639313,-2.3631505966186523,-0.8489254713058472,-3.710886001586914
7.679943084716797,-0.51518714427948,0.1107167899608612,0.14665527641773224,-0.3421803120011084,-1.4210519681182205,2.3975724317926774,-0.9314834475517273,0.3355417847633362,-0.14053639769554138,-2.691239356994629,-0.8680852055549622,-3.6170804500579834
7.699944972991943,-0.41860634088516235,0.20681193470954895,0.08605427294969559,-0.2790971946929174,-1.4593493028574342,2.3310513887995135,-0.9553408622741699,0.27548789978027344,-0.10691290348768234,-2.70855450630188,-0.940464973449707,-3.4726977348327637
7.720041036605835,-0.31838399171829224,0.3590666651725769,-0.010868065059185028,-0.21666005460003582,-1.493838400296312,2.2731627227069864,-0.9737303256988525,0.2149689644575119,-0.07508455961942673,-2.244051218032837,-1.0907570123672485,-3.2979726791381836
7.739944934844971,-0.2632017731666565,0.4989057183265686,-0.08244162797927856,-0.15494222860631798,-1.5252662244060797,2.2300456308486822,-0.9869966506958008,0.1543230265378952,-0.044969137758016586,-1.5774697065353394,-1.2049673795700073,-3.1192450523376465
7.759939193725586,-0.21416133642196655,0.5763076543807983,-0.12187999486923218,-0.09560614118036037,-1.553298172206341,2.203556363826753,-0.995280921459198,0.09546055644750595,-0.017417358234524727,-0.8986195921897888,-1.2402690649032593,-2.887511968612671
7.779964923858643,-0.17539572715759277,0.5948627591133118,-0.13621115684509277,-0.04162385569669798,-1.5785506857562137,2.190152159196515,-0.9991040229797363,0.04161183908581734,0.00774756632745266,-0.4921437203884125,-1.183799147605896,-2.5088229179382324
7.799943923950195,-0.17494678497314453,0.6023998260498047,-0.16116976737976074,0.005415012053028975,-1.6012340450952276,2.1798804844708655,-0.99952232837677,-0.005414985585957766,0.030432578176259995,-0.7203220129013062,-1.0659655332565308,-2.2053720951080322
7.819948196411133,-0.16009598970413208,0.6130468845367432,-0.20298147201538086,0.047971296432008995,-1.621055363388314,2.16367625778749,-0.9975883960723877,-0.04795289784669876,0.050180088728666306,-1.0369043350219727,-0.9315015077590942,-1.9435256719589233
7.839945077896118,-0.11261194944381714,0.6840760111808777,-0.26538026332855225,0.08502683702676009,-1.6373081801198586,2.1436557019632207,-0.9941844344139099,-0.08492442220449448,0.06622272729873657,-1.1584957838058472,-0.7973464727401733,-1.631935715675354
7.859940052032471,-0.06174284219741821,0.7504051923751831,-0.3200939893722534,0.11758885657868146,-1.6499572746516724,2.1229206366257882,-0.9899845123291016,-0.1173180565237999,0.07853221893310547,-1.1214791536331177,-0.6467806696891785,-1.447900414466858
7.879940986633301,0.01842367649078369,0.8104461431503296,-0.3735690116882324,0.14607864856437006,-1.6594441700584224,2.104681023689146,-0.9854648113250732,-0.1455596685409546,0.08758889138698578,-0.8957892656326294,-0.516814112663269,-1.2281403541564941
7.899947166442871,0.10765254497528076,0.8533432483673096,-0.4055522680282593,0.16958462699517018,-1.6673343546545627,2.0921942115543026,-0.9810657501220703,-0.16877295076847076,0.09500547498464584,-0.5440858602523804,-0.4698410630226135,-0.9932559132575989
7.919003963470459,0.1569145917892456,0.8857119679450989,-0.44601523876190186,0.18721880307592406,-1.6757408340004176,2.087552294906447,-0.9771203994750977,-0.18612702190876007,0.10292153060436249,-0.05775400623679161,-0.4541289210319519,-0.7152807712554932
7.939939022064209,0.14878416061401367,0.925788402557373,-0.5135279893875122,0.19784378154513454,-1.6859880599341939,2.0938986420458963,-0.973994791507721,-0.19655562937259674,0.11269504576921463,0.5759982466697693,-0.44759589433670044,-0.41843101382255554
7.9599409103393555,0.08958488702774048,0.9543312191963196,-0.549782395362854,0.20138674087423905,-1.6979626181742773,2.1113376389053435,-0.9718786478042603,-0.20002824068069458,0.12426074594259262,1.018965721130371,-0.3889464735984802,-0.1470688432455063
7.979947090148926,-0.003301262855529785,0.9195717573165894,-0.49312543869018555,0.19909808830372044,-1.7075435323019807,2.132996872627074,-0.9710946083068848,-0.19778531789779663,0.1336284577846527,1.0394207239151,-0.09949271380901337,0.1128428503870964
7.999941110610962,-0.08469915390014648,0.861221194267273,-0.3839224576950073,0.19015438200072507,-1.7092192302310456,2.1492067886302033,-0.9725824594497681,-0.18901050090789795,0.1354941874742508,0.6317965984344482,0.23822513222694397,0.5763652324676514
8.019952058792114,-0.24873346090316772,0.8245303630828857,-0.3829936981201172,0.17281667073626347,-1.7026981635717091,2.1563281394783367,-0.9765474200248718,-0.17195774614810944,0.12956063449382782,0.3382847011089325,0.575059711933136,1.0261292457580566
8.039947986602783,-0.37835443019866943,0.8628753423690796,-0.37507128715515137,0.14850046658056945,-1.6875889082029816,2.1589585167032586,-0.9822566509246826,-0.1479552686214447,0.11524476110935211,0.26504552364349365,0.9240198731422424,1.3580137491226196
8.059948921203613,-0.3567855954170227,0.8408681154251099,-0.31812584400177,0.11643007349073892,-1.6688405616510993,2.162711219715998,-0.9884598255157471,-0.11616719514131546,0.09722451865673065,0.4904352128505707,0.9922780394554138,1.8241506814956665
8.079942226409912,-0.3934864401817322,0.7768925428390503,-0.2442467212677002,0.07450783525562162,-1.6491877404715776,2.1727706806948452,-0.9941631555557251,-0.0744389146566391,0.07809388637542725,0.9098712801933289,1.0945206880569458,2.2259838581085205
8.099913120269775,-0.4628470540046692,0.6987918615341187,-0.15257835388183594,0.026706378601006,-1.626545539665701,2.193208116337243,-0.9980905652046204,-0.026703204959630966,0.055700480937957764,1.4731732606887817,1.2684910297393799,2.394904613494873
8.119946956634521,-0.4643707275390625,0.6357460021972656,-0.0968395471572876,-0.024000595521324587,-1.6006171223673389,2.2268543655571342,-0.9992676973342896,0.023998292163014412,0.029807792976498604,2.1222188472747803,1.295464038848877,2.5254533290863037
