timestamp,acceleration_x,acceleration_y,acceleration_z,attitude_pitch,attitude_roll,attitude_yaw,gravity_x,gravity_y,gravity_z,rotation_x,rotation_y,rotation_z
0.0,0.06587982177734375,0.7180225849151611,-0.29875385761260986,0.08059767705648467,-1.6683763944362633,2.457355787081937,-0.9920120239257812,-0.0805104449391365,0.09710901975631714,-2.531343460083008,-0.11574545502662659,0.08941660821437836
0.019611835479736328,0.1096121072769165,0.7445197105407715,-0.3070782423019409,0.08088111290712223,-1.6663876503353647,2.405991636641178,-0.9921804070472717,-0.08079295605421066,0.09513378143310547,-2.559722900390625,-0.12262510508298874,0.3733719289302826
0.038899898529052734,0.12205272912979126,0.7362184524536133,-0.34361183643341064,0.07584502331756393,-1.6650010729579614,2.3560896225697214,-0.992703914642334,-0.07577233016490936,0.093795046210289,-2.287027597427368,-0.1269846260547638,0.5931578278541565
0.06216096878051758,0.13824880123138428,0.762742817401886,-0.3723561763763428,0.06587580369099537,-1.6647773625438504,2.3159933409047415,-0.9934276342391968,-0.06582816690206528,0.09363920986652374,-1.557687759399414,-0.13706833124160767,0.7646241188049316
0.08101892471313477,0.15839463472366333,0.7826128005981445,-0.4066365957260132,0.05149543940264505,-1.6666715479411678,2.29127502797073,-0.9940878748893738,-0.051472682505846024,0.09560149908065796,-0.8098326325416565,-0.21711060404777527,0.9124837517738342
0.09912586212158203,0.16146767139434814,0.7139190435409546,-0.45653414726257324,0.03280315339151252,-1.671644330496156,2.275967017030527,-0.9943840503692627,-0.03279726952314377,0.1006229966878891,-0.6769024133682251,-0.34506750106811523,1.0918375253677368
0.11771392822265625,0.13133203983306885,0.5795406699180603,-0.44173097610473633,0.011028987142870345,-1.6771169609685577,2.2550548771445684,-0.9942928552627563,-0.011028763838112354,0.1061139926314354,-1.277205228805542,-0.21374906599521637,1.3199414014816284
0.13855385780334473,0.1059618592262268,0.44180601835250854,-0.38339662551879883,-0.014462766075824036,-1.6800686413775587,2.2172606966078425,-0.9939318299293518,0.014462261460721493,0.10904359072446823,-2.1756584644317627,-0.092076875269413,1.654522180557251
0.16107797622680664,0.044705867767333984,0.41942375898361206,-0.3606311082839966,-0.04626044068967431,-1.6840024532974656,2.165086398453256,-0.9925360679626465,0.04624394327402115,0.11284363269805908,-2.5800373554229736,-0.14563287794589996,2.0796854496002197
0.1777057647705078,-0.15489208698272705,0.6062120795249939,-0.43005478382110596,-0.08295465005953728,-1.6880761603741956,2.1113245667459704,-0.9897155165672302,0.08285953849554062,0.11660879850387573,-2.182439088821411,0.16491124033927917,2.084927558898926
0.19776582717895508,-0.27792948484420776,0.7688142657279968,-0.3975898027420044,-0.11587473503387649,-1.6833508186810127,2.0756688425949794,-0.987008810043335,0.1156155988574028,0.1115637868642807,-0.8985793590545654,0.6080345511436462,1.6236270666122437
0.217681884765625,-0.1926732063293457,0.7570662498474121,-0.2538008689880371,-0.14823054594277324,-1.6714966219064937,2.066695456678987,-0.9840235114097595,0.14768831431865692,0.09942776709794998,0.2677370011806488,0.6260741949081421,1.7674990892410278
0.23790788650512695,-0.2400478720664978,0.6132627725601196,-0.1783827543258667,-0.18646082450139123,-1.6578392716933448,2.073991178036514,-0.9789464473724365,0.18538223206996918,0.08542623370885849,0.7567891478538513,0.6373123526573181,1.9003212451934814
0.2572598457336426,-0.39632242918014526,0.4131419062614441,-0.18719206750392914,-0.22229025093590757,-1.6392882657469938,2.1011598986191165,-0.9731083512306213,0.2204640954732895,0.06675449758768082,2.4583468437194824,0.7210870981216431,1.4297527074813843
0.2777738571166992,-0.43775320053100586,0.456841379404068,-0.25698018074035645,-0.24774199068557096,-1.600319065679187,2.1675160003304925,-0.9690462350845337,0.2452155202627182,0.028617214411497116,3.6388003826141357,1.2724757194519043,0.6964524388313293
0.2977278232574463,-0.374631404876709,0.08665505051612854,-0.24812686443328857,-0.2619732490246826,-1.5632330130938252,2.245274262130641,-0.965853214263916,0.2589869797229767,-0.007305190432816744,3.9598228931427,0.14084593951702118,0.7598469853401184
0.3177788257598877,-0.18172621726989746,0.08364826440811157,-0.033965643495321274,-0.2856056890435096,-1.5343222798335665,2.3380758478091828,-0.958853006362915,0.28173866868019104,-0.03498876467347145,4.365551948547363,0.5610817074775696,1.8801779747009277
0.33821773529052734,-0.24043989181518555,0.05593299865722656,0.08997177332639694,-0.3269514527489221,-1.5024851857104462,2.411106454435142,-0.9448172450065613,0.3211574852466583,-0.06464212387800217,2.7895984649658203,0.17971362173557281,2.3030667304992676
0.35802483558654785,-0.2514091730117798,0.07386866211891174,0.07084184885025024,-0.3689546110689151,-1.4714984214426354,2.470970544315004,-0.9281104803085327,0.36064058542251587,-0.09246353060007095,2.397261142730713,0.8533709049224854,2.4006075859069824
0.3777039051055908,-0.17784881591796875,0.2685821056365967,0.1324734091758728,-0.4107644939254591,-1.4325877024842002,2.527383305877618,-0.9080734848976135,0.3993103504180908,-0.1263088434934616,2.388819456100464,0.8040784597396851,2.2764596939086914
0.39776086807250977,-0.12643581628799438,0.09836682677268982,0.13688433170318604,-0.44564155685626555,-1.3905064570026164,2.5892060875336664,-0.8877092003822327,0.4310368597507477,-0.16180187463760376,2.554170846939087,0.8476953506469727,2.156688928604126
0.4184098243713379,-0.12054193019866943,-0.030025005340576172,0.21706165373325348,-0.48026764915856146,-1.3441199459350348,2.653949380795581,-0.8641840219497681,0.4620165526866913,-0.1993156224489212,2.4066162109375,0.9136631488800049,2.416088104248047
0.4376950263977051,-0.1650632619857788,-0.1506102979183197,0.2842666804790497,-0.5166073813877616,-1.2934800644808315,2.717779381115828,-0.8362796306610107,0.4939331114292145,-0.2380477637052536,2.107787847518921,1.0906354188919067,2.457404851913452
0.457028865814209,-0.1822020411491394,-0.21442919969558716,0.33614835143089294,-0.5510204879851722,-1.241013543151241,2.7768987102595397,-0.8060792088508606,0.5235569477081299,-0.2759065628051758,1.7251895666122437,1.1226072311401367,2.3488235473632812
0.4774188995361328,-0.18014681339263916,-0.25868356227874756,0.3938005268573761,-0.5827165865422999,-1.1905385856450155,2.830051148575491,-0.7753280997276306,0.5502942204475403,-0.3099076449871063,1.3933504819869995,1.0748341083526611,2.1819334030151367
0.49782800674438477,-0.20573043823242188,-0.3029435873031616,0.4368746280670166,-0.6106566989221474,-1.142015728367274,2.877682133836564,-0.7451058030128479,0.5734056234359741,-0.34062209725379944,1.1503325700759888,1.1132208108901978,1.9296358823776245
0.5176777839660645,-0.21161383390426636,-0.3447522521018982,0.4665890038013458,-0.6332802476737592,-1.0946865699433157,2.91999897062467,-0.7164410948753357,0.591792106628418,-0.3694515824317932,0.9719448685646057,1.1301181316375732,1.6063761711120605
0.5376720428466797,-0.18282407522201538,-0.3951129913330078,0.48880285024642944,-0.6498012548177852,-1.051128519245886,2.957153956819369,-0.6910926103591919,0.6050281524658203,-0.39538848400115967,0.8623273968696594,0.9885779619216919,1.2726036310195923
0.5576720237731934,-0.1607329249382019,-0.43521320819854736,0.5036025047302246,-0.6611189941829266,-1.0133288608799285,2.9892147513175695,-0.6698030233383179,0.6140004396438599,-0.41757339239120483,0.7310038208961487,0.8113673329353333,1.0098992586135864
0.5776839256286621,-0.15168607234954834,-0.459159255027771,0.5238445997238159,-0.6683565424765879,-0.981543687722484,3.0153793237616173,-0.6524826884269714,0.6196969747543335,-0.43616756796836853,0.6016225218772888,0.7505848407745361,0.6905727982521057
0.5976810455322266,-0.13530224561691284,-0.4886595606803894,0.5210099816322327,-0.6711268378785932,-0.9564673085724729,3.033779209251793,-0.6399358510971069,0.6218688488006592,-0.4513993263244629,0.42561089992523193,0.5531720519065857,0.3766230344772339
0.6176877021789551,-0.099124014377594,-0.49683207273483276,0.504221498966217,-0.6714696490427854,-0.9428831310899994,3.0443695235873203,-0.6335725784301758,0.6221372485160828,-0.45992517471313477,0.2323787659406662,0.1358615607023239,0.1300411969423294
0.6377718448638916,-0.11823654174804688,-0.4938250780105591,0.5076426863670349,-0.6697738729571728,-0.942603146353068,3.0465934912395016,-0.6342964768409729,0.6208087205886841,-0.460721880197525,-0.0015974631533026695,-0.223207026720047,-0.1776198297739029
0.6576957702636719,-0.2120627760887146,-0.4943757653236389,0.5032285451889038,-0.6656365105269921,-0.9539210923172728,3.038994468171881,-0.6415596604347229,0.6175599098205566,-0.4549954831600189,-0.24256446957588196,-0.4034228026866913,-0.49652907252311707
0.6777148246765137,-0.3012757897377014,-0.5057271718978882,0.5259406566619873,-0.6606976782379244,-0.9705462539357728,3.0220541317849423,-0.6515440940856934,0.6136678457260132,-0.44598451256752014,-0.6025533080101013,-0.18946556746959686,-0.6619845628738403
0.6976919174194336,-0.2946970462799072,-0.5372548699378967,0.5174867510795593,-0.656919240460513,-0.9921434310462212,2.993977076785556,-0.6629598736763,0.6106801629066467,-0.43307510018348694,-1.0437997579574585,-0.3775078356266022,-0.9119498133659363
0.7177577018737793,-0.33549243211746216,-0.5151261687278748,0.4476223587989807,-0.6513579659972117,-1.0304940619612106,2.9539172858715532,-0.6819789409637451,0.6062669157981873,-0.4090786278247833,-1.3152549266815186,-0.9829314947128296,-1.2699543237686157
0.7370078563690186,-0.5935471057891846,-0.4420865774154663,0.42922794818878174,-0.64026227236912,-1.0797669930658758,2.9040297930392653,-0.7071884274482727,0.5974057912826538,-0.37814146280288696,-1.6731736660003662,-0.7724871039390564,-1.6881346702575684
0.7577548027038574,-0.7667988538742065,-0.42059195041656494,0.5132363438606262,-0.6230441333589642,-1.1249312910574294,2.8392726106689294,-0.7327129244804382,0.5835100412368774,-0.35021138191223145,-2.2600574493408203,0.007448913063853979,-2.191326856613159
0.7777109146118164,-0.48993515968322754,-0.3472108244895935,0.4273229241371155,-0.6013206446449478,-1.1709016627417386,2.75892012898446,-0.7595308423042297,0.565731942653656,-0.3210301697254181,-2.765674352645874,-0.11505338549613953,-2.4726076126098633
0.797724723815918,-0.26510781049728394,-0.19833016395568848,0.23969608545303345,-0.5731829814130379,-1.2239441895238559,2.676830938816875,-0.7901443243026733,0.542309045791626,-0.28560972213745117,-2.4798507690429688,-0.6234011650085449,-2.627577781677246
0.8177227973937988,-0.26038986444473267,-0.07561564445495605,0.09065589308738708,-0.5364657006769633,-1.274813150452713,2.609153780886849,-0.8221449255943298,0.5111013650894165,-0.2507053017616272,-1.804296851158142,-0.853230357170105,-2.682654857635498
0.8378357887268066,-0.2797080874443054,-0.025374263525009155,0.00044587254524230957,-0.4928381873873418,-1.317883246228882,2.5593744126094893,-0.8529672622680664,0.47312822937965393,-0.22044703364372253,-1.2423850297927856,-0.990816593170166,-2.7055325508117676
0.8577170372009277,-0.2454569935798645,0.02352204918861389,-0.030691981315612793,-0.44545598935158065,-1.3559336192160358,2.522320207460958,-0.881663978099823,0.4308694303035736,-0.19240674376487732,-0.9077214002609253,-1.1495909690856934,-2.671687364578247
0.8776729106903076,-0.21373134851455688,0.06289896368980408,0.005778655409812927,-0.3978131435664696,-1.3910479666900706,2.4925552816849046,-0.9070574045181274,0.3874031901359558,-0.16482101380825043,-0.8901525735855103,-1.097706913948059,-2.537076950073242
0.8977279663085938,-0.2072587013244629,0.05576854944229126,0.060558900237083435,-0.3522263228338618,-1.422136767219408,2.46137685145918,-0.9282547831535339,0.34498831629753113,-0.13901954889297485,-1.2801650762557983,-0.8671926259994507,-2.453752279281616
0.9177279472351074,-0.19002944231033325,0.07974186539649963,0.050367340445518494,-0.3084256301034072,-1.4499636873365345,2.4230032443431404,-0.9458655118942261,0.30355894565582275,-0.11485093832015991,-1.7235815525054932,-0.7129451632499695,-2.382197856903076
0.9377238750457764,-0.15325134992599487,0.1911402940750122,-0.012901373207569122,-0.2659795063188962,-1.4763279368546591,2.377582924690993,-0.960533618927002,0.2628544569015503,-0.09101095795631409,-2.175232172012329,-0.6311550736427307,-2.338113307952881
0.9577398300170898,-0.14120924472808838,0.284808874130249,-0.06435663253068924,-0.22184333465286551,-1.500202349402671,2.328625332607691,-0.9730640053749084,0.22002816200256348,-0.06880679726600647,-2.0877606868743896,-0.5852217078208923,-2.477470874786377
0.977733850479126,-0.08559608459472656,0.40690329670906067,-0.061715833842754364,-0.17493541689686437,-1.520874773919175,2.282905377686216,-0.9835109114646912,0.17404453456401825,-0.049139220267534256,-2.1742055416107178,-0.6159237623214722,-2.460233688354492
0.9977269172668457,-0.04863870143890381,0.4446362853050232,-0.04839479923248291,-0.12845530725418655,-1.5405992036924143,2.237398660818387,-0.9913088083267212,0.12810233235359192,-0.02994377538561821,-2.1226062774658203,-0.6545222401618958,-2.363477945327759
1.0177338123321533,-0.06467461585998535,0.503206729888916,-0.07236278057098389,-0.08395848667635526,-1.5576173343206605,2.1946389368618684,-0.9963911175727844,0.083859883248806,-0.013132191263139248,-2.0015435218811035,-0.5828746557235718,-2.1720306873321533
1.0377249717712402,-0.10533922910690308,0.5969750881195068,-0.15853118896484375,-0.042976465121537445,-1.5710025959244327,2.1578968992120684,-0.9990766644477844,0.042963236570358276,0.00020607867918442935,-1.6078444719314575,-0.5374069213867188,-1.9681129455566406
1.057723045349121,-0.09957700967788696,0.6950834393501282,-0.22627699375152588,-0.005111834781047646,-1.58187908320751,2.129795522033111,-0.9999256134033203,0.005111812613904476,0.011082385666668415,-1.270909309387207,-0.5055102705955505,-1.8174282312393188
1.077765941619873,-0.04770773649215698,0.7331448197364807,-0.26638317108154297,0.030054910988069814,-1.592180418000426,2.1077298495692935,-0.9993199706077576,-0.030050385743379593,0.021372806280851364,-1.005290150642395,-0.5363579392433167,-1.6504321098327637
1.0977239608764648,0.020159363746643066,0.7386133670806885,-0.30956530570983887,0.060167626352856544,-1.6017054620867959,2.0900289344550185,-0.9977136850357056,-0.06013133004307747,0.030848292633891106,-0.8716104626655579,-0.5109573602676392,-1.2942557334899902
1.1178197860717773,0.08251863718032837,0.7408938407897949,-0.37032008171081543,0.08275465113085739,-1.6110035319621783,2.075765117387367,-0.9957724809646606,-0.08266022801399231,0.040058817714452744,-0.6066104769706726,-0.5061412453651428,-0.9296768307685852
1.1377239227294922,0.15059614181518555,0.7427934408187866,-0.35597336292266846,0.09797637839235526,-1.6194660746255576,2.0671242431493098,-0.9940256476402283,-0.09781970083713531,0.048417214304208755,-0.32409200072288513,-0.4401381015777588,-0.5439082980155945
1.1578717231750488,0.154992938041687,0.7357739210128784,-0.39136648178100586,0.10512333179640716,-1.6277299591329888,2.0642782945590215,-0.9928683042526245,-0.10492981970310211,0.056588754057884216,0.01926528848707676,-0.39348313212394714,-0.18129633367061615
1.1777677536010742,0.08699321746826172,0.7869715094566345,-0.45575594902038574,0.10718395028505544,-1.63487371768272,2.069013674261901,-0.9922208189964294,-0.10697884112596512,0.06366608291864395,0.4518287777900696,-0.303743839263916,-0.11355026811361313
1.1977238655090332,0.011371433734893799,0.7907870411872864,-0.4663735628128052,0.10878100682373355,-1.6418516437288466,2.0820378213385875,-0.991580605506897,-0.10856659710407257,0.07057589292526245,0.7804857492446899,-0.24743255972862244,-0.09532809257507324
1.2177319526672363,-0.01884227991104126,0.7540913224220276,-0.3982853889465332,0.1073245921931509,-1.648531459043362,2.097917834498347,-0.9912437200546265,-0.10711867362260818,0.07721004635095596,0.7724154591560364,-0.2913474440574646,0.1472722291946411
1.2377510070800781,-0.1163632869720459,0.7337042093276978,-0.3416179418563843,0.10069564578870388,-1.6555439201903484,2.112128158422825,-0.9913638234138489,-0.10052556544542313,0.08421741425991058,0.7350607514381409,-0.1522320955991745,0.36608025431632996
1.2578167915344238,-0.29292094707489014,0.7799104452133179,-0.36589860916137695,0.09139325877001306,-1.654841451211162,2.1288960410041833,-0.9923115968704224,-0.09126608073711395,0.083595871925354,1.0278851985931396,0.3892664909362793,0.42326635122299194
1.277768850326538,-0.26171308755874634,0.8093762993812561,-0.3382209539413452,0.07978568563083346,-1.6469120203043055,2.1528463108374196,-0.993932843208313,-0.07970106601715088,0.0758003294467926,1.4676755666732788,0.5215715765953064,0.5772048234939575
1.2977309226989746,-0.1679937243461609,0.7590898275375366,-0.2886238098144531,0.062414053139474374,-1.6414155470554292,2.1855774863670394,-0.9955652952194214,-0.06237353757023811,0.07042314857244492,1.9099931716918945,0.28562480211257935,0.9251159429550171
1.3177227973937988,-0.2663816809654236,0.6882256269454956,-0.21445870399475098,0.03868390031480604,-1.6358592814011266,2.2263275092808694,-0.9971375465393066,-0.0386742539703846,0.06496841460466385,2.336714267730713,0.5360127091407776,1.1298092603683472
1.3377327919006348,-0.38652318716049194,0.6375449895858765,-0.1792386770248413,0.012133342098192567,-1.6224372430305671,2.2761150765408504,-0.9985935688018799,-0.012133044190704823,0.051614176481962204,2.8113043308258057,0.9130737781524658,1.2321065664291382
1.3577227592468262,-0.34042948484420776,0.6203053593635559,-0.13709330558776855,-0.016261471935671352,-1.6023998573025033,2.335771376708367,-0.9993684887886047,0.01626075617969036,0.03159409016370773,3.249056100845337,1.042325735092163,1.3537954092025757
1.377774715423584,-0.26090914011001587,0.5552573204040527,-0.03899383544921875,-0.04597040771258765,-1.5780138536619963,2.4019177039380097,-0.9989175796508789,0.04595421627163887,0.007209839764982462,3.3749969005584717,1.2123310565948486,1.4737615585327148
1.3977398872375488,-0.23182690143585205,0.4291127026081085,0.07839864492416382,-0.07740374058546345,-1.544975671710911,2.4676295925972327,-0.9966735243797302,0.0773264691233635,-0.0257404837757349,3.124668598175049,1.6229058504104614,1.6827991008758545
1.4177799224853516,-0.16387099027633667,0.2759159505367279,0.16028285026550293,-0.1122898111580006,-1.5029760545095843,2.52742551029484,-0.9914175868034363,0.11205398291349411,-0.06734149158000946,2.6584296226501465,1.9539597034454346,2.080639362335205
1.437790870666504,-0.0651201605796814,0.15381906926631927,0.20539385080337524,-0.15424110600430102,-1.4555332340964409,2.5789776968092437,-0.9815717339515686,0.15363025665283203,-0.11364270746707916,2.0467896461486816,2.0701842308044434,2.5480892658233643
1.4577229022979736,-0.005999624729156494,0.0704733282327652,0.2398684024810791,-0.2032622783537681,-1.407009528755564,2.6223594807054043,-0.9663057327270508,0.2018655240535736,-0.1596987098455429,1.5425376892089844,1.9968876838684082,2.8792269229888916
1.4777379035949707,-0.028229176998138428,0.03132703900337219,0.28129035234451294,-0.2569368243006008,-1.358674858620519,2.6613586780571117,-0.9454952478408813,0.2541191279888153,-0.20362308621406555,1.2226731777191162,1.958869457244873,3.0794594287872314
1.4977319240570068,-0.08666235208511353,0.0074269771575927734,0.34130463004112244,-0.3116017068461345,-1.3086882493587997,2.6996279745565994,-0.9193342924118042,0.30658361315727234,-0.24663907289505005,1.1093908548355103,1.9589909315109253,3.064504384994507
1.5177278518676758,-0.1490432620048523,-0.01643437147140503,0.394696980714798,-0.3620778525073144,-1.256376531968364,2.7406326856455294,-0.8893173336982727,0.35421812534332275,-0.2892129123210907,1.177793025970459,1.8936913013458252,2.861517906188965
1.5377228260040283,-0.20280927419662476,-0.03359788656234741,0.4590317904949188,-0.4049411445043356,-1.2027382581952442,2.784742977542781,-0.8575697541236877,0.3939646780490875,-0.33070528507232666,1.240714430809021,1.8236831426620483,2.526918411254883
1.5577259063720703,-0.25131624937057495,-0.0687970519065857,0.5140738487243652,-0.4382183406944412,-1.1488128152416184,2.82896164401509,-0.8260763883590698,0.4243268370628357,-0.37087008357048035,1.1845853328704834,1.7493079900741577,2.0991485118865967
1.577754020690918,-0.2712841033935547,-0.10552963614463806,0.5706361532211304,-0.46315980610366,-1.0972000676621032,2.8686832502172073,-0.7961751818656921,0.44677722454071045,-0.40803849697113037,0.923990786075592,1.690955400466919,1.7141679525375366
1.5976898670196533,-0.2577019929885864,-0.1460910439491272,0.6340311765670776,-0.48453075704541065,-1.050287627868748,2.8986918527504977,-0.7677039504051208,0.4657931923866272,-0.44007670879364014,0.39622581005096436,1.5901528596878052,1.4406821727752686
1.6177587509155273,-0.2618101239204407,-0.21468761563301086,0.6529088020324707,-0.5063772571437405,-1.0099550819324377,2.9190068645342246,-0.7405397891998291,0.48501232266426086,-0.4651493728160858,0.03565448895096779,1.4574801921844482,1.3869895935058594
1.6377229690551758,-0.25409209728240967,-0.2445656657218933,0.6726874709129333,-0.531791079676261,-0.9742643260502322,2.9352358118761224,-0.7130405306816101,0.5070778727531433,-0.48419561982154846,-0.23907092213630676,1.2636864185333252,1.4523649215698242
1.6577210426330566,-0.2631276249885559,-0.2746501564979553,0.703412652015686,-0.5586255888980122,-0.9453537986943862,2.947246823908293,-0.6874644160270691,0.5300211906433105,-0.49645760655403137,-0.4620942771434784,1.0021324157714844,1.2973088026046753
1.6777310371398926,-0.2986200451850891,-0.3289063572883606,0.7310134768486023,-0.5841448957318657,-0.924932364491097,2.953065402878154,-0.6661626696586609,0.5514862537384033,-0.50208580493927,-0.6551493406295776,0.7310916781425476,1.0533844232559204
1.6977639198303223,-0.3617939352989197,-0.37388092279434204,0.7262591123580933,-0.6075859931970912,-0.9130250379354952,2.953007368496135,-0.6497265100479126,0.5708871483802795,-0.5019396543502808,-0.7582802176475525,0.4981703460216522,0.8047842383384705
1.717742919921875,-0.41237109899520874,-0.3483944535255432,0.6614705324172974,-0.6268911631043472,-0.9081663273776386,2.947457362657966,-0.6384711861610413,0.5866298675537109,-0.49821674823760986,-0.7630428671836853,0.21655037999153137,0.4089374840259552
1.7377119064331055,-0.40733617544174194,-0.34624868631362915,0.5810719132423401,-0.637794152598148,-0.9181063296878247,2.936807043257209,-0.6382723450660706,0.5954247117042542,-0.4879322052001953,-0.6022699475288391,-0.5786994695663452,-0.0636223554611206
1.7569448947906494,-0.4816715121269226,-0.37131160497665405,0.5914095640182495,-0.6405988626129329,-0.9413530285840165,2.9212808531076297,-0.6480891704559326,0.5976756811141968,-0.471979022026062,-0.5832347273826599,-0.6622594594955444,-0.4538647532463074
1.777730941772461,-0.4488409757614136,-0.4239192008972168,0.5941615104675293,-0.637817180175637,-0.9652230952603432,2.8987302238668975,-0.6605340242385864,0.5954431891441345,-0.4573206901550293,-0.7684633135795593,-0.46012982726097107,-0.8126233816146851
1.7977147102355957,-0.16413748264312744,-0.44100379943847656,0.4642167091369629,-0.6308204426134041,-0.9954264262588312,2.8695213459658593,-0.6775221228599548,0.5898075103759766,-0.4394211173057556,-0.6842529773712158,-0.9821608066558838,-1.0608181953430176
1.8177180290222168,-0.002739548683166504,-0.4060658812522888,0.24665609002113342,-0.6161844644775464,-1.0392724200497607,2.8475201764477474,-0.7034982442855835,0.5779255628585815,-0.41363295912742615,0.008241851814091206,-2.1479806900024414,-1.102433204650879
1.8377418518066406,-0.09535777568817139,-0.32295310497283936,0.10180491209030151,-0.5920466489580385,-1.0929614947492774,2.8436312563296293,-0.7368566393852234,0.5580605268478394,-0.38158997893333435,0.823937177658081,-2.835009813308716,-1.232262372970581
1.8577380180358887,-0.3348451256752014,-0.2797214388847351,0.1283724308013916,-0.5582361405312175,-1.144604758676711,2.848065209582125,-0.7723174095153809,0.5296909213066101,-0.3506472110748291,0.8293406963348389,-2.4627392292022705,-1.6874390840530396
1.877821922302246,-0.41319596767425537,-0.3504478931427002,0.2634316086769104,-0.5203941798494877,-1.190767877843832,2.8416521024881174,-0.8057219386100769,0.4972221851348877,-0.32184216380119324,0.04792031645774841,-1.869799017906189,-1.8975095748901367
1.8977298736572266,-0.3028656244277954,-0.399497926235199,0.30197447538375854,-0.4898194018173324,-1.237326146652892,2.818708561043708,-0.8338074088096619,0.4704665243625641,-0.2888365685939789,-0.8339918255805969,-1.7642741203308105,-1.7197309732437134
1.917724847793579,-0.28867870569229126,-0.2984466254711151,0.25747716426849365,-0.4628358538029158,-1.2869923802998064,2.7816655846484575,-0.8589958548545837,0.4464873969554901,-0.25054964423179626,-1.415953278541565,-1.448369026184082,-1.884860873222351
1.9377479553222656,-0.28867822885513306,-0.15937215089797974,0.16480380296707153,-0.4337058008253408,-1.3306785881401988,2.7372033533314655,-0.8813810348510742,0.42023637890815735,-0.21579866111278534,-1.666093111038208,-1.044018030166626,-1.9374547004699707
1.9577727317810059,-0.16143178939819336,-0.07756504416465759,0.017976760864257812,-0.40330538343911987,-1.3687182244857088,2.692578194905517,-0.9010530114173889,0.3924606740474701,-0.1846027374267578,-1.6337764263153076,-1.0082861185073853,-1.9367458820343018
1.9777207374572754,-0.00748676061630249,0.002917170524597168,-0.07385754585266113,-0.37076918307940443,-1.4066148300319092,2.6502141376231343,-0.9195152521133423,0.36233246326446533,-0.1523386538028717,-1.6455155611038208,-1.203375220298767,-2.0154027938842773
1.997729778289795,0.05825096368789673,0.05161526799201965,-0.1348688006401062,-0.33438810428189275,-1.446641030809282,2.6095768712934926,-0.937340259552002,0.32819122076034546,-0.11697743088006973,-1.6652395725250244,-1.3334335088729858,-2.111236095428467
2.017803907394409,0.08894014358520508,0.11138418316841125,-0.07699394226074219,-0.29644196716396914,-1.4840515893257062,2.5668433483548885,-0.9527860283851624,0.29211923480033875,-0.08285710215568542,-1.9678736925125122,-1.0819182395935059,-2.144697666168213
2.037721872329712,0.08333194255828857,0.17077359557151794,-0.195468008518219,-0.2563725481649899,-1.5155294650047653,2.5222563409523873,-0.9658393859863281,0.25357332825660706,-0.05343332886695862,-1.756903052330017,-0.8366502523422241,-2.089390277862549
2.057809829711914,0.14167338609695435,0.3116893768310547,-0.37126368284225464,-0.21861220556216487,-1.5374831385125303,2.4933454221413895,-0.9756578207015991,0.21687506139278412,-0.0325143001973629,-1.0294636487960815,-0.762770414352417,-1.866115927696228
2.0777230262756348,0.2155599594116211,0.4190656542778015,-0.4082419276237488,-0.18029822685312144,-1.5574501093894098,2.4759186983819643,-0.9837026000022888,0.1793229728937149,-0.013129488565027714,-0.5475476384162903,-0.9018166661262512,-2.0872042179107666
2.09771990776062,0.1851298213005066,0.4648115336894989,-0.520421028137207,-0.13597942327828924,-1.577300398204872,2.4710247836997863,-0.9907481670379639,0.1355607509613037,0.006443987600505352,0.026122353971004486,-0.9577096104621887,-2.2757132053375244
2.1178107261657715,0.14805161952972412,0.5573214292526245,-0.5854092836380005,-0.09213131818085456,-1.5957673270635966,2.47483182156149,-0.9954484105110168,0.0920010358095169,0.024862511083483696,0.24965296685695648,-0.9079672694206238,-2.128512144088745
2.1377177238464355,0.10920184850692749,0.5491806268692017,-0.5785677433013916,-0.05112233824596101,-1.6116939538970054,2.481409987239293,-0.9978583455085754,0.051100071519613266,0.04083280637860298,0.2929046154022217,-0.7085973620414734,-1.979117751121521
2.1577398777008057,0.10164135694503784,0.6026018261909485,-0.5261439085006714,-0.01554756571056687,-1.6220085555492083,2.4901141988693944,-0.9985683560371399,0.015546939335763454,0.05118366703391075,0.4167189598083496,-0.3545825183391571,-1.594123363494873
2.1777799129486084,0.10134828090667725,0.6754216551780701,-0.4908161163330078,0.01152730958183171,-1.6267852908878364,2.5018961157673023,-0.99836665391922,-0.011527054011821747,0.055955998599529266,0.6410977244377136,-0.157196044921875,-1.2015289068222046
2.1977198123931885,0.09911376237869263,0.7192037105560303,-0.44636428356170654,0.031083171933884064,-1.629756805787484,2.51883875271633,-0.9977803230285645,-0.031078167259693146,0.05889786779880524,0.9422183036804199,-0.12901394069194794,-0.8552679419517517
2.2177178859710693,0.059590280055999756,0.7202589511871338,-0.37376272678375244,0.04339272278293474,-1.6325990849246816,2.5416799500576848,-0.9971513152122498,-0.043379105627536774,0.06170528382062912,1.2697352170944214,-0.03875337913632393,-0.5232784152030945
2.2377209663391113,0.0337529182434082,0.6626399755477905,-0.28334224224090576,0.04919549792557661,-1.63399644485771,2.5691466229631716,-0.9967961311340332,-0.04917565733194351,0.06308164447546005,1.384892463684082,-0.0022047795355319977,-0.2524643838405609
2.257725715637207,0.022659897804260254,0.553404688835144,-0.16389977931976318,0.050664538879794586,-1.63734224035149,2.5956905927966742,-0.99650639295578,-0.050642866641283035,0.06641148775815964,1.2466647624969482,-0.24090026319026947,-0.0798865333199501
2.2777209281921387,-0.09816873073577881,0.4585610628128052,-0.1032496765255928,0.04943203862302692,-1.645290390142994,2.620829002973878,-0.9960085153579712,-0.04941191151738167,0.0743342787027359,1.3519303798675537,-0.32121559977531433,0.019632164388895035
2.297719955444336,-0.2829706072807312,0.4651186466217041,-0.09552121162414551,0.0463120164235066,-1.6456852721890325,2.6501566532614413,-0.9961279630661011,-0.04629546403884888,0.0747387483716011,1.5989304780960083,0.5044820308685303,0.05065443366765976
2.317720890045166,-0.08864247798919678,0.45853695273399353,-0.0257415808737278,0.04316033336788783,-1.633150592089023,2.685168803097697,-0.9971271753311157,-0.04314693436026573,0.06225583702325821,1.9092806577682495,0.7197809219360352,0.08465755730867386
2.3377418518066406,0.19906175136566162,0.3810424208641052,0.12074637413024902,0.03516344910211249,-1.6268259996308403,2.7269527177359945,-0.9978135824203491,-0.03515620157122612,0.05596574768424034,2.286167860031128,0.04070824384689331,0.5320515036582947
2.3577237129211426,0.09338945150375366,0.213997483253479,0.31963813304901123,0.01627483058573134,-1.6274014000141783,2.772969676365833,-0.9982662200927734,-0.016274111345410347,0.05656736344099045,2.3547213077545166,0.26241984963417053,1.0040494203567505
2.3777618408203125,-0.29497456550598145,0.032174672931432724,0.5222851037979126,-0.0067810402022357155,-1.6160020262243697,2.816540179795166,-0.9989556074142456,0.006780988071113825,0.0451892726123333,2.001016616821289,0.9812004566192627,1.1141741275787354
2.3977208137512207,-0.43561744689941406,-0.055477142333984375,0.7367813587188721,-0.03425883400851511,-1.5884208604502064,2.851190646621004,-0.9992579817771912,0.03425213322043419,0.017613278701901436,1.6611477136611938,1.5278648138046265,1.5360186100006104
2.4177188873291016,-0.1429629921913147,-0.27511441707611084,0.6603990197181702,-0.06786054589527907,-1.5592199451039677,2.8808693253490083,-0.9976314306259155,0.06780847162008286,-0.011549478396773338,1.3274061679840088,1.1154649257659912,1.702201008796692
2.437727928161621,0.15845531225204468,-0.38557708263397217,0.4906426668167114,-0.09839754727092911,-1.542307616852922,2.9067709092760574,-0.9947591423988342,0.09823884069919586,-0.02834707498550415,1.2253426313400269,0.3573002815246582,1.3868845701217651
2.457718849182129,0.3013535737991333,-0.19924244284629822,0.3722204566001892,-0.12043177576148252,-1.5390388377279491,2.9341494128579964,-0.9922563433647156,0.12014086544513702,-0.03152216970920563,1.5867568254470825,-0.2703133523464203,0.849835216999054
2.477738857269287,0.28317856788635254,-0.031159192323684692,0.24527639150619507,-0.12994372461217898,-1.5413934033727943,2.9772876416199807,-0.991140604019165,0.1295783370733261,-0.029150832444429398,2.59726881980896,-0.4383845031261444,0.31862446665763855
2.4975128173828125,0.30682921409606934,-0.06690792739391327,0.273620069026947,-0.134728470154831,-1.5410429565402524,3.027386640658831,-0.9904993176460266,0.13432124257087708,-0.029479391872882843,2.109159469604492,-0.14331193268299103,0.4386287033557892
2.517690896987915,0.35517996549606323,-0.35304510593414307,0.39158469438552856,-0.14595164188492396,-1.5383427971897867,3.05550944171803,-0.9888471364974976,0.14543402194976807,-0.03210284933447838,0.5560681223869324,-0.015060745179653168,0.6750571727752686
2.5373377799987793,0.2850678563117981,-0.38062524795532227,0.3354012966156006,-0.15844802465090954,-1.5384511298926606,3.0534632707493445,-0.9869569540023804,0.15778586268424988,-0.031934455037117004,-0.639340341091156,0.010732591152191162,0.6021106839179993
2.5577187538146973,0.14408433437347412,-0.11942112445831299,0.24795204401016235,-0.17393141154422948,-1.5405692037376675,3.0373010021566285,-0.9844622611999512,0.1730557680130005,-0.02976652793586254,-0.883784294128418,0.10038489103317261,0.9480432868003845
2.5777578353881836,-0.04655522108078003,0.03922341763973236,0.24497240781784058,-0.19578971709630388,-1.5383017788784874,3.022042554487192,-0.9803766012191772,0.19454123079776764,-0.031868111342191696,-0.6161552667617798,0.42327842116355896,1.078635334968567
2.5976829528808594,-0.1537216305732727,0.05546608567237854,0.26659125089645386,-0.21565663613613342,-1.5285093449313603,3.016365372572825,-0.9759629964828491,0.21398890018463135,-0.04129514470696449,-0.03905801847577095,0.6532524824142456,0.9360472559928894
2.617741823196411,-0.10629218816757202,0.017335891723632812,0.2817841172218323,-0.23503572050843063,-1.5158688226217445,3.0194584279538415,-0.9710394144058228,0.2328777313232422,-0.05339047685265541,0.11564341187477112,0.5183058381080627,1.0587854385375977
2.6377530097961426,-0.04102015495300293,-0.1506422758102417,0.39500892162323,-0.2570873494677272,-1.5054111501930834,3.019886480478827,-0.9650681614875793,0.2542647123336792,-0.06319122761487961,-0.19148312509059906,0.5484592914581299,1.078884243965149
2.657716751098633,-0.016736924648284912,-0.254195898771286,0.34639042615890503,-0.277726165338126,-1.4959138689483564,3.0156144978478547,-0.9589863419532776,0.2741696536540985,-0.07194577902555466,-0.35840997099876404,0.4409269392490387,0.980705976486206
2.6777238845825195,0.02195119857788086,-0.1950262188911438,0.2733110785484314,-0.29613739764633534,-1.491558168587036,3.0094115423505157,-0.9534696936607361,0.291827917098999,-0.07570970058441162,-0.3931267261505127,0.21458204090595245,0.7907080054283142
2.697727918624878,-0.020814061164855957,-0.19111531972885132,0.24582117795944214,-0.31049051112153697,-1.4900363931531873,3.001524119380886,-0.9490805268287659,0.3055257201194763,-0.07681475579738617,-0.4847191274166107,0.15339146554470062,0.613741397857666
2.717745780944824,-0.047657310962677,-0.2117612063884735,0.2258722186088562,-0.32356340737505473,-1.4908409091402801,2.9916574526091892,-0.945079505443573,0.31794705986976624,-0.07572565972805023,-0.5617380142211914,0.0991039052605629,0.6422734260559082
2.737752914428711,-0.025416016578674316,-0.2314804196357727,0.2330998182296753,-0.3375390953847081,-1.4906233352405152,2.982546505794389,-0.9405416250228882,0.3311660587787628,-0.07556801289319992,-0.38536104559898376,0.19552382826805115,0.7070415616035461
2.7577998638153076,0.08028775453567505,-0.3064577281475067,0.22601616382598877,-0.3529231992323824,-1.4883214724760592,2.978170071392092,-0.9351768493652344,0.3456422984600067,-0.0773039311170578,-0.17307323217391968,0.1333521604537964,0.7231367826461792
2.777803897857666,0.16981202363967896,-0.3065486252307892,0.2161957025527954,-0.36446003077490785,-1.487841749641044,2.978662038793831,-0.931103527545929,0.3564448356628418,-0.07741696387529373,0.163105770945549,-0.1310485154390335,0.43065640330314636
2.7977278232574463,0.16372829675674438,-0.3031325340270996,0.1390061378479004,-0.3707572929311015,-1.493169822927865,2.9885686937147313,-0.9292465448379517,0.3623213768005371,-0.07227940112352371,0.7482170462608337,-0.6547088027000427,0.2832697033882141
2.8177647590637207,-0.0016418695449829102,-0.17821362614631653,0.1649722456932068,-0.37246561876875284,-1.497032856024907,3.0093424522827146,-0.9289001822471619,0.36391308903694153,-0.06864344328641891,1.1564069986343384,-0.37363073229789734,0.013615613803267479
2.837716817855835,-0.12792742252349854,-0.18092435598373413,0.18222421407699585,-0.36972554125069296,-1.4904046966083837,3.0364764188096944,-0.9294151663780212,0.36135953664779663,-0.07487858086824417,1.289074182510376,-0.012762082740664482,-0.03409166261553764
2.857804775238037,-0.07338583469390869,-0.30843329429626465,0.2049567699432373,-0.3689962182129904,-1.482303545230974,3.0577107081661477,-0.9290403723716736,0.36067938804626465,-0.08242864906787872,0.6330927014350891,-0.0438544861972332,0.09535198658704758
2.877793788909912,-0.07037085294723511,-0.3479546308517456,0.18518739938735962,-0.36961908896492857,-1.4830970743928027,3.0663191218768384,-0.9288815259933472,0.3612602651119232,-0.08167170733213425,0.2862016558647156,-0.2856903672218323,0.05353455990552902
2.897747039794922,-0.24989277124404907,-0.18890279531478882,0.12554222345352173,-0.3715406340653084,-1.4852324901233342,3.074954587383957,-0.9283604621887207,0.3630513846874237,-0.07962850481271744,0.5151275992393494,-0.16577257215976715,0.22047460079193115
2.917726993560791,-0.45773011445999146,-0.10946619510650635,0.15447288751602173,-0.3742283984416085,-1.4796783355432412,3.08557391846239,-0.9269286394119263,0.36555445194244385,-0.08469440042972565,0.3673843443393707,0.29151666164398193,0.08201181143522263
2.937717914581299,-0.40051472187042236,-0.26772671937942505,0.20504188537597656,-0.3758807346427111,-1.471262585749607,3.0894296505625496,-0.9255807995796204,0.36709192395210266,-0.09243196249008179,-0.024063702672719955,0.33137595653533936,0.1898668110370636
2.9577159881591797,-0.22338122129440308,-0.33070752024650574,0.19153738021850586,-0.3817522253298105,-1.4696578474079254,3.086711513205065,-0.923271119594574,0.37254711985588074,-0.0936979353427887,-0.25623542070388794,-0.06242719292640686,0.30277445912361145
2.9777448177337646,-0.24632608890533447,-0.16193494200706482,0.08590328693389893,-0.3858550176577113,-1.4735584412303673,3.0825267711723323,-0.9221004843711853,0.37635141611099243,-0.08994676917791367,-0.12143682688474655,-0.18229438364505768,0.03440731763839722
2.9977269172668457,-0.27336716651916504,-0.08134371042251587,-0.0050852298736572266,-0.38414892104332504,-1.4782553303702888,3.083235871626562,-0.9231508374214172,0.37477022409439087,-0.08567400276660919,0.204065203666687,-0.2625330984592438,-0.12431897222995758
3.017742872238159,-0.27810126543045044,-0.08280816674232483,-0.029345810413360596,-0.38261835231961266,-1.4812185460779137,3.0881269085405014,-0.9239709377288818,0.37335076928138733,-0.08298935741186142,0.2517172396183014,-0.231000155210495,0.009801045060157776
3.037184715270996,-0.2889356017112732,-0.03222888708114624,0.023357100784778595,-0.3830992446717028,-1.4830189729494543,3.093521973009653,-0.9239397048950195,0.37379685044288635,-0.08130991458892822,0.1984316110610962,-0.11986510455608368,0.0787138119339943
3.057717800140381,-0.3073531985282898,-0.014565974473953247,0.033144839107990265,-0.383583666085989,-1.4837376626080998,3.0962956772458488,-0.9238174557685852,0.37424609065055847,-0.08063012361526489,0.05187879502773285,-0.08275190740823746,0.008988669142127037
3.0777130126953125,-0.33526647090911865,-0.05974575877189636,0.02943199872970581,-0.38384539642769405,-1.4864425801809862,3.0960428437042364,-0.9239345788955688,0.37448880076408386,-0.07812272757291794,-0.021235492080450058,-0.12839458882808685,0.008483878336846828
3.0977249145507812,-0.4071647524833679,-0.028925716876983643,-0.007745973765850067,-0.38294336824670977,-1.4866465800472681,3.0974379715611695,-0.9242866635322571,0.37365224957466125,-0.07796259969472885,0.19261623919010162,0.005591180175542831,-0.10838061571121216
3.117750883102417,-0.308505654335022,0.03256574273109436,-0.01327502727508545,-0.3788029239667739,-1.4862976694639238,3.104753095731717,-0.9257931113243103,0.36980852484703064,-0.07841499149799347,0.5062203407287598,-0.2574795186519623,-0.26021304726600647
3.1377177238464355,-0.2523178458213806,0.048289746046066284,-0.028723597526550293,-0.3705148465119527,-1.4891100940036839,3.1189108969116526,-0.9290329217910767,0.3620953857898712,-0.07605844736099243,0.8336319327354431,-0.5087445378303528,-0.41389191150665283
3.1577157974243164,-0.2570239305496216,0.02375638484954834,0.04024530202150345,-0.3603498354329653,-1.4943358576207308,3.13579155626125,-0.9330394864082336,0.3526016175746918,-0.07147999107837677,0.8237610459327698,-0.5824061036109924,-0.5520155429840088
3.1777138710021973,-0.30808520317077637,-0.05834028124809265,0.04820985347032547,-0.34476213558243624,-1.4977985030187226,-3.126110210769115,-0.9386493563652039,0.33797281980514526,-0.06864132732152939,1.2865533828735352,-0.6633905172348022,-0.9041765332221985
3.197718858718872,-0.2716066241264343,-0.12484878301620483,0.11617237329483032,-0.3249012905880929,-1.5002878103976913,-3.0918301213182544,-0.945327639579773,0.31921523809432983,-0.06676432490348816,2.186528444290161,-0.6698856949806213,-0.6890461444854736
3.217751979827881,-0.17728066444396973,-0.11291083693504333,0.21735495328903198,-0.31239471507273225,-1.4975224755328902,-3.0432739606012835,-0.9490469098091125,0.30733832716941833,-0.06966504454612732,2.4731009006500244,-0.44914108514785767,-0.3574037253856659
3.237734794616699,-0.19432878494262695,0.2089037299156189,0.16931116580963135,-0.3004164656714166,-1.480259045279179,-2.983484734415757,-0.9513011574745178,0.2959180474281311,-0.08636432141065598,3.5095925331115723,0.16191641986370087,-0.32707855105400085
3.2577168941497803,-0.14173221588134766,0.6328360438346863,-0.006287515163421631,-0.2882853448990075,-1.4537256833663135,-2.889452015812117,-0.9521703720092773,0.2843087613582611,-0.1119832694530487,5.1093549728393555,-0.2604871094226837,-0.054195478558540344
3.2777228355407715,-0.12957465648651123,0.7702338695526123,0.1089012622833252,-0.2672373980465567,-1.4378790370680883,-2.7966320958906445,-0.9559966325759888,0.2640679180622101,-0.1278221160173416,3.9940876960754395,-0.7178197503089905,-0.8890232443809509
3.2977399826049805,-0.3322415351867676,0.015515774488449097,-0.04135489463806152,-0.2416824598518359,-1.4290590848494664,-2.7186515437582988,-0.9612002372741699,0.2393365204334259,-0.13715757429599762,3.802187442779541,-0.08580033481121063,-0.2496538758277893
3.3177318572998047,-0.36560243368148804,-0.06724627315998077,-0.011140301823616028,-0.23086702034628903,-1.419858309385424,-2.6442692421302465,-0.9624006152153015,0.22882162034511566,-0.1463761329650879,3.598651885986328,-0.4262692630290985,0.04275500401854515
3.337761878967285,-0.2508952021598816,-0.07040010392665863,0.06039011478424072,-0.22071688752583007,-1.4148670327476758,-2.57565455619232,-0.9639028310775757,0.21892917156219482,-0.15153078734874725,3.2898526191711426,-0.7471370100975037,0.044362664222717285
3.3577418327331543,-0.39505869150161743,-0.03380465507507324,-0.020281493663787842,-0.2134460023606645,-1.4264233042686212,-2.5073844895591124,-0.9671391844749451,0.21182894706726074,-0.140607088804245,2.673698902130127,-1.2149590253829956,0.3317812383174896
3.377776861190796,-0.35380035638809204,-0.19259686768054962,0.4479328393936157,-0.21842314412858627,-1.4437612083539986,-2.481427290072266,-0.9683737754821777,0.21669049561023712,-0.12368352711200714,-0.08933135122060776,-0.8468455076217651,0.5758169889450073
3.3977339267730713,-0.5063701272010803,-0.5075149536132812,0.28017234802246094,-0.2402422910230716,-1.4584479329313975,-2.4979895288415848,-0.9651570320129395,0.23793797194957733,-0.10889238119125366,-1.450980544090271,-0.4143142104148865,1.2761512994766235
3.4177708625793457,-0.44932568073272705,0.04666411876678467,0.09089314937591553,-0.27136673864810545,-1.4734779479647269,-2.528949399909592,-0.9588469862937927,0.26804840564727783,-0.09360913932323456,-1.8182281255722046,-0.47793474793434143,1.454917073249817
3.437717914581299,-0.404773473739624,0.09539473056793213,0.04532593488693237,-0.30538712385552613,-1.4942705998708259,-2.562127339038061,-0.9509394764900208,0.30066239833831787,-0.07291372120380402,-1.6442615985870361,-0.5081738233566284,1.7680965662002563
3.457742929458618,-0.4500848650932312,0.11934101581573486,0.01273484155535698,-0.3458076887342569,-1.5121055215778967,-2.592537716157118,-0.9391819834709167,0.33895665407180786,-0.05518472567200661,-1.5585870742797852,-0.2928449511528015,2.000411033630371
3.4777517318725586,-0.537928581237793,0.10467875003814697,-0.0733451247215271,-0.38844554101108164,-1.5273680753683618,-2.624234898206798,-0.9246264100074768,0.3787502348423004,-0.04018017277121544,-1.6906273365020752,-0.0734683945775032,2.2146096229553223
3.497964859008789,-0.5419470071792603,0.01938992738723755,-0.04808527231216431,-0.4396609326243201,-1.542165335950024,-2.6626993328416946,-0.9045252203941345,0.42563265562057495,-0.02590453065931797,-1.9918149709701538,0.11690323799848557,2.7667508125305176
3.517810821533203,-0.5448212027549744,0.05787026882171631,0.014247775077819824,-0.49699069275133234,-1.5564273047677526,-2.706044404916565,-0.8789306879043579,0.4767824709415436,-0.01263024378567934,-1.8375530242919922,0.4190206527709961,2.7891275882720947
3.537012815475464,-0.5074014067649841,0.12238204479217529,-0.07902324199676514,-0.5483853361365145,-1.5672894319162318,-2.7410904078797134,-0.8533622026443481,0.521310031414032,-0.0029926637653261423,-1.3013947010040283,0.2281852811574936,2.341994524002075
3.5578088760375977,-0.3585689663887024,0.007189154624938965,-0.016391634941101074,-0.5927971242336955,-1.5782336978015052,-2.7688176682379337,-0.8293584585189819,0.5586830973625183,0.006168360356241465,-1.0686800479888916,0.21234329044818878,2.1506474018096924
3.5770606994628906,-0.2532947063446045,-0.10507142543792725,0.00547480583190918,-0.6330771932431742,-1.5879295965650109,-2.793589556578725,-0.8060925602912903,0.5916284322738647,0.013812352903187275,-0.942613959312439,0.2494811713695526,1.8856507539749146
3.597792863845825,-0.1341874599456787,-0.18109476566314697,-0.057723041623830795,-0.6682549132286424,-1.6010878740844885,-2.822201733487585,-0.7845443487167358,0.619617223739624,0.023772334679961205,-1.3168734312057495,0.12424273043870926,1.7031539678573608
3.6178388595581055,0.021460533142089844,-0.19641739130020142,-0.08516359329223633,-0.6982448390390668,-1.624095597332654,-2.8603143915114173,-0.7648839950561523,0.6428743004798889,0.04080640524625778,-1.451961636543274,0.033841460943222046,1.4192225933074951
3.6378438472747803,0.12595534324645996,-0.19991713762283325,-0.05694759637117386,-0.7224245997868267,-1.6462281118571536,-2.8980720192128313,-0.7480713725090027,0.6612055897712708,0.05653563141822815,-1.1913338899612427,0.2411230057477951,1.187098741531372
3.6578097343444824,0.18452537059783936,-0.1447666883468628,-0.08053946495056152,-0.7420743793301972,-1.6528318372459638,-2.917608047209764,-0.7345895171165466,0.6758183240890503,0.06039797514677048,-0.020387236028909683,0.3785220682621002,0.8981617093086243
3.6777749061584473,0.26469534635543823,-0.058155596256256104,-0.20061564445495605,-0.756744846608083,-1.6419283361086834,-2.909035358706364,-0.725236177444458,0.6865583658218384,0.05167469009757042,0.6444730758666992,0.059852998703718185,0.4733986258506775
3.6977548599243164,0.3341953754425049,-0.19697141647338867,-0.18898987770080566,-0.7624988020734146,-1.6310702603587626,-2.889797990786931,-0.7217990756034851,0.6907305121421814,0.04355843365192413,0.6073293685913086,-0.26557064056396484,0.068797267973423
3.717711925506592,0.36676162481307983,-0.36152297258377075,-0.10721802711486816,-0.7635132961427384,-1.6327582456560423,-2.881706559231616,-0.7210249304771423,0.6914637684822083,0.04473334923386574,0.03925666585564613,-0.4378352761268616,0.021105224266648293
3.7462029457092285,0.2018451690673828,-0.2034907341003418,-0.19312810897827148,-0.7565074271530471,-1.6391001309634305,-2.8703162887529503,-0.7255421280860901,0.6863856911659241,0.049634501338005066,0.8811904191970825,-0.20301005244255066,-0.528498649597168
3.7659828662872314,0.22377485036849976,-0.12949210405349731,-0.15142548084259033,-0.7444985506937117,-1.6213983380766077,-2.8376076739202776,-0.7344865798950195,0.6776031255722046,0.037198252975940704,1.2841835021972656,-0.27457886934280396,-0.8157109618186951
3.7859408855438232,0.26947665214538574,-0.26415425539016724,0.005373237654566765,-0.7299926989574391,-1.6067992698003586,-2.8078955982788045,-0.7446963787078857,0.6668642163276672,0.026822851970791817,0.6972009539604187,-0.3301401436328888,-0.6314289569854736
3.805975914001465,0.17435365915298462,-0.3084335923194885,-0.03954207897186279,-0.7210370265539338,-1.612137046784276,-2.8026017625960993,-0.7504798173904419,0.660163938999176,0.03104306198656559,-0.2177799791097641,-0.49602311849594116,-0.33309897780418396
3.8264968395233154,0.03099203109741211,-0.0738416314125061,-0.06923246383666992,-0.7138032141189982,-1.6228458280994367,-2.8083930397104457,-0.7548537850379944,0.6547132730484009,0.0393252819776535,-0.12101557105779648,-0.16623783111572266,-0.3990461826324463
3.8463168144226074,-0.020832359790802002,0.047808051109313965,-0.040673017501831055,-0.7054870849991117,-1.6208762157645904,-2.804647443459262,-0.7603414058685303,0.6484047174453735,0.0381096787750721,0.34937065839767456,0.0871037021279335,-0.39656439423561096
3.8652830123901367,-0.025070607662200928,-0.02150791883468628,-0.040053367614746094,-0.6995032204886442,-1.6120666531202248,-2.7943378700389805,-0.7645107507705688,0.6438376307487488,0.03156953305006027,0.2523822486400604,0.1293741911649704,-0.18089470267295837
3.8845877647399902,-0.08492374420166016,0.0062111616134643555,-0.0381162203848362,-0.6942580894404488,-1.6100785800877837,-2.7927339241385742,-0.7679356932640076,0.6398154497146606,0.030181769281625748,0.022281304001808167,0.09828703105449677,-0.4016145169734955
3.905629873275757,-0.1181831955909729,0.030968070030212402,-0.031149860471487045,-0.6858795644850592,-1.6080012076813992,-2.79523925759315,-0.7733269929885864,0.6333538889884949,0.028784820809960365,-0.30507633090019226,0.252542108297348,-0.3711863160133362
3.9255878925323486,-0.04501217603683472,0.002431809902191162,0.03620922565460205,-0.6807665046660135,-1.6100976321659257,-2.806901045949171,-0.7764904499053955,0.6293888688087463,0.03053281083703041,-0.5842416286468506,0.26531729102134705,-0.0890936404466629
3.945234775543213,0.002468585968017578,0.023637056350708008,0.0229947566986084,-0.6814401072824237,-1.6136982611898598,-2.8209375107790473,-0.7759518623352051,0.6299121379852295,0.03331027552485466,-0.4288563132286072,0.2678995132446289,0.195307195186615
3.9676318168640137,-0.0038517117500305176,0.12199825048446655,-0.03521549701690674,-0.6860420616523419,-1.610777917509456,-2.8244702951156726,-0.773141086101532,0.633479654788971,0.03092789277434349,0.3127591907978058,0.23558177053928375,0.20666611194610596
3.9859766960144043,-0.026051819324493408,0.24654191732406616,-0.12830305099487305,-0.6877965804714888,-1.5930248258985689,-2.8007292647297324,-0.7724558711051941,0.6348362565040588,0.017173362895846367,1.4840316772460938,0.028145046904683113,-0.09401220083236694
4.005498886108398,0.024100780487060547,0.17847543954849243,-0.06882095336914062,-0.6848142635517979,-1.5660928676909847,-2.7546221181381867,-0.7745280265808105,0.6325291395187378,-0.0036429876927286386,1.939898133277893,-0.26274219155311584,-0.2028583437204361
4.016895771026611,0.024100780487060547,0.17847543954849243,-0.06882095336914062,-0.6848142635517979,-1.5660928676909847,-2.7546221181381867,-0.7745280265808105,0.6325291395187378,-0.0036429876927286386,1.939898133277893,-0.26274219155311584,-0.2028583437204361
4.0453877449035645,-0.0973932147026062,-0.0787661075592041,0.0339735709130764,-0.678400586820038,-1.516708324188715,-2.661064592695798,-0.7774390578269958,0.6275485754013062,-0.04209117963910103,1.6340155601501465,0.011726481840014458,0.015574253164231777
4.065179824829102,-0.12416064739227295,-0.1269536018371582,0.06120997667312622,-0.6781656352594576,-1.4897535342900188,-2.623059320174933,-0.7761690020561218,0.6273655891418457,-0.06304097920656204,1.3260033130645752,0.26661133766174316,0.13350872695446014
4.084198951721191,-0.08270019292831421,-0.1465691328048706,0.057434432208538055,-0.6782151768191466,-1.463895775187785,-2.591690855243508,-0.7742488384246826,0.6274042129516602,-0.0830843597650528,1.1253325939178467,0.3419577479362488,0.09951206296682358
4.104997873306274,-0.03160148859024048,-0.1764017939567566,0.06683047115802765,-0.6779821171532154,-1.4407369286799345,-2.5665058286390994,-0.7722619771957397,0.6272227168083191,-0.10101011395454407,0.8130655884742737,0.38791948556900024,0.10764066874980927
4.125028848648071,-0.0218963623046875,-0.21819138526916504,0.04050952196121216,-0.6780747363988657,-1.4226237296675956,-2.549743206486406,-0.7702484726905823,0.6272948384284973,-0.11497236043214798,0.48681265115737915,0.3838678002357483,0.06942496448755264
4.144276857376099,-0.018778443336486816,-0.2402898669242859,0.015599429607391357,-0.6770611316376925,-1.409678512442259,-2.5404273823960573,-0.7693227529525757,0.6265051364898682,-0.12503540515899658,0.2890852093696594,0.3142108917236328,-0.0819803848862648
4.1649627685546875,0.007115304470062256,-0.19309228658676147,0.06240934133529663,-0.6716277266952007,-1.3978958087078805,-2.5330999469431483,-0.7711381316184998,0.6222609877586365,-0.13467489182949066,0.35833051800727844,0.3496803641319275,-0.3460754156112671
4.1839070320129395,0.030340850353240967,-0.18594759702682495,0.0831504613161087,-0.6625720996326856,-1.386289819123464,-2.52796839344484,-0.7750307321548462,0.6151467561721802,-0.14464330673217773,0.20691946148872375,0.4604557454586029,-0.4884225130081177
4.20458984375,0.04449254274368286,-0.21027714014053345,0.09932200610637665,-0.6512700870972682,-1.3796922216396654,-2.532112258720631,-0.7808361053466797,0.6061969995498657,-0.15106447041034698,-0.3840116560459137,0.44897687435150146,-0.6987869739532471
4.223702907562256,0.05824154615402222,-0.246479332447052,0.11730021238327026,-0.6379939528053682,-1.3818797000317802,-2.5507500773688565,-0.7890002727508545,0.5955852270126343,-0.1508541852235794,-0.6821606159210205,0.45167410373687744,-0.8638736009597778
4.244792938232422,0.0407983660697937,-0.1621991991996765,0.10199923813343048,-0.623494594171211,-1.3818223064733728,-2.5674803975400087,-0.7973901033401489,0.5838757753372192,-0.15250574052333832,-0.346897155046463,0.5551932454109192,-0.7993035912513733
4.264513969421387,0.03555870056152344,-0.050951600074768066,0.10716356337070465,-0.6084504424539973,-1.375505192862656,-2.5765337950301714,-0.8049373030662537,0.5715966820716858,-0.15922650694847107,-0.12998999655246735,0.6024401187896729,-0.8763038516044617
4.284701824188232,0.07765758037567139,-0.08461165428161621,0.12308216094970703,-0.5898427130403946,-1.3687476860690144,-2.584651917151386,-0.8141230344772339,0.5562303066253662,-0.16676801443099976,-0.19140814244747162,0.5074116587638855,-1.0530848503112793
4.303610801696777,0.1135094165802002,-0.11755001544952393,0.11958754062652588,-0.5700984421197874,-1.3664958357372632,-2.596554746386476,-0.8243401050567627,0.5397149324417114,-0.1707959920167923,-0.37219876050949097,0.38086095452308655,-1.071624994277954
4.323596954345703,0.0957878828048706,-0.1231313943862915,0.1079486608505249,-0.5495831895559022,-1.366890924849098,-2.6102245362178964,-0.8350762724876404,0.5223318338394165,-0.17267636954784393,-0.29951199889183044,0.3726038932800293,-1.1902586221694946
4.344546794891357,0.0933331847190857,-0.081545889377594,0.07924288511276245,-0.5258412827685163,-1.365046289539191,-2.620990958054319,-0.8466596603393555,0.5019407868385315,-0.17670074105262756,-0.10292761027812958,0.3568440079689026,-1.2763440608978271
4.364329814910889,0.16755276918411255,-0.04111000895500183,0.05872972309589386,-0.5000617529498549,-1.3630518122658273,-2.6267250321450053,-0.8586843013763428,0.47947973012924194,-0.1809983104467392,0.1969277560710907,0.12280062586069107,-1.4138977527618408
4.38438081741333,0.21393167972564697,-0.012931019067764282,0.018162190914154053,-0.46687210718326194,-1.3643119462222313,-2.6270943613343003,-0.8740116953849792,0.45009535551071167,-0.1830790936946869,0.44906213879585266,-0.20524631440639496,-1.7969814538955688
4.404810905456543,0.2508208155632019,-0.015607386827468872,-0.017663225531578064,-0.4271111851483152,-1.372078085258944,-2.6228540193930074,-0.8922544717788696,0.414243221282959,-0.17967860400676727,0.7837916612625122,-0.7800151109695435,-2.0102663040161133
4.424078941345215,0.2495419979095459,0.06725472211837769,-0.031063437461853027,-0.3822315059556937,-1.3885886014814068,-2.6117862360671076,-0.9124753475189209,0.3729918599128723,-0.1681247502565384,1.0178381204605103,-1.2251096963882446,-2.2040529251098633
4.44406270980835,0.2063731551170349,0.08943229913711548,-0.017620518803596497,-0.33346146883835087,-1.4104808688909112,-2.598294700828171,-0.9327985048294067,0.3273157775402069,-0.15083645284175873,1.0351454019546509,-1.3712230920791626,-2.388061761856079
4.462987899780273,0.09959250688552856,0.09813225269317627,-0.015309080481529236,-0.2837896931510238,-1.43168881780122,-2.5863611614023374,-0.9507277607917786,0.27999576926231384,-0.1331131011247635,0.8059771060943604,-1.0381815433502197,-2.3055567741394043
4.483852863311768,-0.0125160813331604,0.16865061223506927,-0.03599720448255539,-0.2391868791778973,-1.445704353137651,-2.5820245760447076,-0.9639396071434021,0.23691272735595703,-0.12121401727199554,0.1359330117702484,-0.5056596398353577,-2.0750908851623535
4.503819942474365,0.028410136699676514,0.14471013844013214,-0.0635063648223877,-0.20316596441114454,-1.4564444837967874,-2.5956391476767124,-0.9730360507965088,0.20177118480205536,-0.11175601184368134,-1.1263948678970337,-0.33494341373443604,-1.6269744634628296
4.5238800048828125,0.15136605501174927,0.09889289736747742,-0.016539976000785828,-0.1792722190783492,-1.4710113749819476,-2.6339897549088516,-0.979079008102417,0.1783135086297989,-0.09802290797233582,-2.321714162826538,-0.42694586515426636,-1.1969045400619507
4.545372009277344,0.12276440858840942,0.22487783432006836,-0.0021760985255241394,-0.16370020169340435,-1.4887774665617086,-2.69063907063535,-0.9833142757415771,0.16297005116939545,-0.08083165436983109,-2.9629883766174316,-0.3393569588661194,-0.8412864208221436
4.563639879226685,0.05388098955154419,0.3482564687728882,0.03093070536851883,-0.15492601291830144,-1.5022794707424876,-2.746558949442202,-0.9857046604156494,0.15430699288845062,-0.06764326989650726,-2.3167693614959717,-0.0929979756474495,-0.42651239037513733
4.584013938903809,0.03793609142303467,0.36636418104171753,0.056944020092487335,-0.15431281992614815,-1.506916396701078,-2.784192135418996,-0.9861019849777222,0.15370112657546997,-0.06307794898748398,-1.5604156255722046,0.15505559742450714,0.05798612907528877
4.599656820297241,0.020490705966949463,0.32503560185432434,0.0447772778570652,-0.15781158170971452,-1.508450336310781,-2.814489194701762,-0.985654890537262,0.15715736150741577,-0.061531372368335724,-1.500510334968567,0.14915242791175842,0.049698635935783386
4.623708724975586,-0.01055002212524414,0.21072512865066528,-0.02561163529753685,-0.1599665958380975,-1.5104729675758437,-2.8440269569409096,-0.9854369163513184,0.15928523242473602,-0.05951707437634468,-1.418284296989441,0.09208452701568604,0.01502097025513649
4.642583847045898,-0.02851879596710205,0.18006661534309387,0.022767357528209686,-0.16213450566958565,-1.5134012401092851,-2.8720359416105405,-0.985260009765625,0.16142508387565613,-0.05661126226186752,-1.4152562618255615,0.11410034447908401,0.008106068708002567
4.663346767425537,0.0009737014770507812,0.16023185849189758,0.06351286172866821,-0.16162258852082612,-1.5162815264327592,-2.9014897571477456,-0.9855012893676758,0.16091986000537872,-0.05377769097685814,-1.4481902122497559,0.04863656312227249,-0.2086670994758606
4.683404922485352,0.07349520921707153,0.11247973144054413,0.028307557106018066,-0.15751898469551345,-1.523607275288316,-2.930539475246882,-0.9865201711654663,0.15686839818954468,-0.046587537974119186,-1.4303066730499268,-0.3246181607246399,-0.3633868992328644
4.703374862670898,0.0647728443145752,0.13805252313613892,0.04667198285460472,-0.14961441264614977,-1.5361357715162425,-2.9603108893033867,-0.9882348775863647,0.14905686676502228,-0.03426649421453476,-1.4787412881851196,-0.4196512699127197,-0.5505951642990112
4.723063945770264,0.02950972318649292,0.1269003003835678,0.04224991798400879,-0.13812587147996822,-1.5479959621881767,-2.990362148820614,-0.9902184009552002,0.1376870721578598,-0.022581253200769424,-1.4595531225204468,-0.332583487033844,-0.6744415760040283
4.743323802947998,0.07411086559295654,0.15703582763671875,0.007627427577972412,-0.12381307524463463,-1.5605882001979177,-3.019298218625956,-0.9922932386398315,0.12349697947502136,-0.010129807516932487,-1.3825470209121704,-0.5803998112678528,-0.813730001449585
4.762998819351196,0.0800018310546875,0.20756211876869202,-0.014196276664733887,-0.10652779606971817,-1.5775695777353946,-3.044892971078573,-0.9943084716796875,0.10632643103599548,0.006734803784638643,-1.1346702575683594,-0.7815156579017639,-0.9198567271232605
4.783042907714844,-0.0030187368392944336,0.26121532917022705,-0.027776002883911133,-0.08736071302427685,-1.5948670819972726,-3.0650363184391027,-0.9958978891372681,0.08724963665008545,0.0239766463637352,-0.913686215877533,-0.7266159653663635,-0.965933084487915
4.802044868469238,-0.06254565715789795,0.2590353786945343,-0.004612565040588379,-0.06796700412751447,-1.6085862572089897,-3.081306229591078,-0.9969788789749146,0.0679146870970726,0.03769370913505554,-0.7801902890205383,-0.5228169560432434,-0.9103783369064331
4.822885036468506,-0.046882808208465576,0.20257313549518585,-0.00782204419374466,-0.04979728678119414,-1.6193930193901263,-3.0957490997718637,-0.9975811839103699,0.04977670684456825,0.04851734638214111,-0.7650734186172485,-0.5013965964317322,-0.8581444025039673
4.842940807342529,-0.027003467082977295,0.25140270590782166,-0.05159282684326172,-0.03227903201460658,-1.6302066172362069,-3.10998366852839,-0.9977158308029175,0.03227342665195465,0.05934442579746246,-0.7189230918884277,-0.5243169665336609,-0.8208444714546204
4.860890865325928,-0.03172945976257324,0.3313150107860565,-0.10490082949399948,-0.015548397899213997,-1.6410190884870373,-3.1205023954409596,-0.9974150061607361,0.015547771006822586,0.07015658915042877,-0.38940972089767456,-0.5177308917045593,-0.7901920080184937
4.8825907707214355,-0.05513596534729004,0.392771452665329,-0.16127288341522217,0.0006510903121257932,-1.6515141925029002,-3.1214753573691802,-0.9967439770698547,-0.000651090289466083,0.08063023537397385,0.2159494012594223,-0.5038703680038452,-0.8268570303916931
4.901707887649536,-0.05503612756729126,0.46672382950782776,-0.20282518863677979,0.01601041837460891,-1.6615138520812145,-3.1097597340282945,-0.9957605600357056,-0.016009734943509102,0.09058155119419098,0.7992191910743713,-0.5312345623970032,-0.8138583302497864
4.922614812850952,-0.05461388826370239,0.5069200992584229,-0.26662278175354004,0.030285929709551428,-1.6739376454213761,-3.0886603219267115,-0.9942295551300049,-0.030281299725174904,0.1029113382101059,1.0993040800094604,-0.6551039814949036,-0.8240190148353577
4.94262170791626,-0.06617951393127441,0.46710696816444397,-0.29803478717803955,0.04365893339806955,-1.6881973549629696,-3.065623331451401,-0.9921700358390808,-0.043645065277814865,0.1170198991894722,0.9973682761192322,-0.653095543384552,-0.733170747756958
4.962775707244873,-0.08540618419647217,0.42215681076049805,-0.31470122933387756,0.05348419216818076,-1.6994049712238486,-3.046579412404295,-0.9903230667114258,-0.053458698093891144,0.12807099521160126,0.7847014665603638,-0.30999669432640076,-0.47173255681991577
4.981575965881348,-0.08784699440002441,0.4893794655799866,-0.37898457050323486,0.05940649347078785,-1.7034239383088,-3.031298234292351,-0.9894693493843079,-0.05937155708670616,0.13200587034225464,0.7269542217254639,0.0008104515727609396,-0.37814754247665405
5.0023579597473145,-0.012966454029083252,0.5529243350028992,-0.3526608943939209,0.06458119535010821,-1.7009504305629495,-3.0126072549513987,-0.9894750714302063,-0.06453631073236465,0.12951640784740448,1.0905814170837402,0.3010381758213043,-0.38842567801475525
5.022259712219238,0.04374051094055176,0.5809763073921204,-0.3744865655899048,0.06821184075763502,-1.6974870433200215,-2.9870437830675742,-0.989678680896759,-0.06815895438194275,0.12605825066566467,1.3920210599899292,0.15125153958797455,-0.29341796040534973
5.0413079261779785,-0.03672105073928833,0.5953529477119446,-0.36599576473236084,0.06923947293103161,-1.6967028307244343,-2.9565156556125474,-0.9897072315216064,-0.06918416172266006,0.12527324259281158,1.6456279754638672,0.1719277948141098,-0.2644672989845276
5.063864707946777,-0.19947421550750732,0.6170433759689331,-0.3432881832122803,0.07082263261640825,-1.6900713723850365,-2.9203693919274185,-0.9904062151908875,-0.07076343894004822,0.11869414895772934,1.8431838750839233,0.8247960209846497,-0.31615331768989563
5.082635879516602,-0.06407463550567627,0.6059257984161377,-0.3163498342037201,0.07214441733789971,-1.670206631448367,-2.8816260514292353,-0.9924746751785278,-0.07208184897899628,0.09898851066827774,2.057872772216797,1.329766869544983,-0.1979874074459076
5.102077960968018,0.23117166757583618,0.5965726971626282,-0.3590453863143921,0.06803021691788383,-1.650262800756018,-2.836511127107322,-0.994538426399231,-0.06797775626182556,0.07919923961162567,2.5368595123291016,0.797839343547821,0.22011972963809967
5.1219377517700195,0.21442818641662598,0.6821052432060242,-0.4426003694534302,0.05652497297541612,-1.6475361378986602,-2.7777707904628093,-0.9954645037651062,-0.056494876742362976,0.07654207199811935,3.4388794898986816,-0.05220048129558563,0.41664546728134155
5.141919851303101,-0.13006848096847534,0.6962816715240479,-0.3746371269226074,0.043402218888984344,-1.65194346318956,-2.7036515160821604,-0.9957706332206726,-0.043388593941926956,0.0809817686676979,3.980760097503662,0.22290468215942383,0.2592780590057373
5.161905765533447,-0.4708687663078308,0.6120414733886719,-0.10454380512237549,0.032701598769143275,-1.635441739016879,-2.624744590792212,-0.9973777532577515,-0.032695770263671875,0.06456585973501205,3.8831164836883545,1.6514054536819458,0.29704535007476807
5.184416770935059,-0.37918204069137573,0.4700133204460144,-0.045619841665029526,0.01928515624103102,-1.5983584194043796,-2.552799597558956,-0.9994344711303711,-0.0192839615046978,0.027553481981158257,3.345050096511841,2.112997531890869,0.6996991038322449
5.20417594909668,-0.11092305183410645,0.3956233561038971,-0.03657686710357666,0.0013667494059075454,-1.5579649646676121,-2.4923187702940597,-0.9999167323112488,-0.0013667489401996136,-0.012830997817218304,2.6868093013763428,1.9520816802978516,1.011462926864624
5.221660852432251,-0.07779556512832642,0.3700807988643646,-0.021991364657878876,-0.01737123753610007,-1.5196987553103964,-2.4441399367368346,-0.9985440373420715,0.01737036369740963,-0.05106762796640396,2.1424429416656494,1.9471807479858398,1.0090456008911133
5.240059852600098,-0.044267117977142334,0.2982940077781677,0.02844948321580887,-0.04004983362552866,-1.4778688162347897,-2.4053979314658407,-0.9948868751525879,0.04003912955522537,-0.09271940588951111,1.5590510368347168,2.0240225791931152,1.5423719882965088
5.264408826828003,0.07143044471740723,0.312915563583374,0.10715317726135254,-0.06967865697882643,-1.4366100773721022,-2.373132992638078,-0.988605797290802,0.06962228566408157,-0.13345928490161896,1.409773349761963,1.9194589853286743,1.6434627771377563
5.282181739807129,0.09784954786300659,0.3898617625236511,0.14154040813446045,-0.09730651719088686,-1.3972033580251149,-2.3384515488235595,-0.9803110957145691,0.09715303033590317,-0.17190535366535187,1.647562026977539,1.7026970386505127,1.6308705806732178
5.301430702209473,0.03233230113983154,0.37464532256126404,0.16598734259605408,-0.12407056631776694,-1.3606779560604594,-2.298031985829238,-0.9704883694648743,0.12375249713659286,-0.20697236061096191,1.7111412286758423,1.485156536102295,1.7254806756973267
5.3209168910980225,-0.11090981960296631,0.2920835614204407,0.2394525408744812,-0.15062404939746196,-1.3261372703103362,-2.258660430205481,-0.959234893321991,0.1500551402568817,-0.23948299884796143,1.4568212032318115,1.4805998802185059,1.7258878946304321
5.341547012329102,-0.24409538507461548,0.2691333293914795,0.3032447099685669,-0.17756861935021026,-1.2898771033637313,-2.224526311256624,-0.9456934928894043,0.1766369491815567,-0.2728796899318695,1.1574242115020752,1.6174120903015137,1.739781141281128
5.361343860626221,-0.2736240029335022,0.23516538739204407,0.39211633801460266,-0.20664026318007744,-1.2494677075841432,-2.1931752745166646,-0.9286313652992249,0.2051728069782257,-0.3091084957122803,0.9084646105766296,1.7525545358657837,1.8872151374816895
5.380295753479004,-0.26782673597335815,0.17264078557491302,0.4272453486919403,-0.23716917368843024,-1.2077658961538336,-2.1639671639534512,-0.9086564183235168,0.23495198786258698,-0.34516823291778564,0.7592005729675293,1.7211663722991943,1.9218443632125854
5.401149749755859,-0.29415273666381836,0.09406578540802002,0.43872708082199097,-0.26987010641319276,-1.1669737217591571,-2.1363686638420454,-0.8862825036048889,0.26660624146461487,-0.3787142038345337,0.5641464591026306,1.6749448776245117,2.1000943183898926
5.42103385925293,-0.295473575592041,0.03385645151138306,0.44878003001213074,-0.3039790758941082,-1.1234009826630307,-2.104850764516833,-0.8602423667907715,0.29931920766830444,-0.4127844274044037,0.7638048529624939,1.7939679622650146,2.2527737617492676
5.441208839416504,-0.26613134145736694,-0.0004722476005554199,0.45480117201805115,-0.3371615189492514,-1.0770276855615675,-2.069409457549088,-0.8309755921363831,0.3308097720146179,-0.447263240814209,0.7179062962532043,1.7144668102264404,2.2019412517547607
5.463958740234375,-0.21617567539215088,-0.11081528663635254,0.46724435687065125,-0.36919100684639233,-1.0329457295011226,-2.0363477964416457,-0.8009446859359741,0.36086106300354004,-0.47777286171913147,0.372335284948349,1.5105667114257812,2.143129348754883
5.479076862335205,-0.16827011108398438,-0.2177201211452484,0.4530404806137085,-0.404835547787105,-0.9958429922184063,-2.006787836778142,-0.7713813781738281,0.3938676118850708,-0.4998391270637512,0.0778951346874237,1.101616621017456,2.3614144325256348
5.49842381477356,-0.18781375885009766,-0.22856879234313965,0.4281191825866699,-0.4414360285220512,-0.9651194576536714,-1.9754018211175803,-0.7433081269264221,0.4272382855415344,-0.5147433280944824,0.3929790258407593,0.66898512840271,2.1778321266174316
5.517728805541992,-0.2978501319885254,-0.14869418740272522,0.455130934715271,-0.46887878742972633,-0.9372725251018625,-1.9377500202990996,-0.7189651131629944,0.4518863558769226,-0.5280984044075012,0.672468900680542,0.42826491594314575,1.9903391599655151
5.537726879119873,-0.49072378873825073,-0.1369713842868805,0.49804311990737915,-0.487798400970469,-0.915924883735072,-1.9012031300723236,-0.7006214261054993,0.468682199716568,-0.5380210280418396,0.8419432640075684,0.11622368544340134,1.4032056331634521
5.557646751403809,-0.7072175145149231,-0.16618791222572327,0.4985682964324951,-0.4954616301994407,-0.8968499137660492,-1.8701247362398268,-0.6874052882194519,0.47543781995773315,-0.5490291118621826,0.7790088653564453,0.3802725672721863,0.8865920305252075
5.577776908874512,-0.6177406907081604,-0.2286003828048706,0.5560671091079712,-0.4994076189988305,-0.8776765713877228,-1.8506967745623142,-0.6753043532371521,0.478905588388443,-0.5609040856361389,0.28921014070510864,0.5423926711082458,0.5176097750663757
5.597652912139893,-0.31663012504577637,-0.3508637547492981,0.4707629680633545,-0.5057743578649646,-0.863766010248742,-1.8420589197439665,-0.6651051640510559,0.484485000371933,-0.5682513117790222,-0.07568339258432388,0.3591740131378174,0.4698083698749542
5.619485855102539,-0.05817699432373047,-0.36949777603149414,0.41721659898757935,-0.5150288016082155,-0.8609433382032149,-1.838566357265215,-0.660069465637207,0.49255990982055664,-0.5671799182891846,-0.2871984541416168,-0.29082655906677246,0.39524510502815247
5.638787746429443,-0.004204273223876953,-0.41284865140914917,0.43677377700805664,-0.5229901679462983,-0.8768044156041622,-1.8397609968474016,-0.6659465432167053,0.49947282671928406,-0.5541138052940369,-0.25878918170928955,-1.1994268894195557,0.13842999935150146
5.657652854919434,-0.25510984659194946,-0.4459366798400879,0.43248289823532104,-0.5272128171315338,-0.9044091963237604,-1.8436970920753304,-0.679323136806488,0.5031265616416931,-0.5342131853103638,-0.29506927728652954,-1.1758832931518555,-0.034116242080926895
5.679670810699463,-0.5053113102912903,-0.4018697738647461,0.44533771276474,-0.528361504616673,-0.9266950997283282,-1.8528974008259549,-0.690596342086792,0.5041189789772034,-0.5185950994491577,-0.41856786608695984,-0.6583935618400574,-0.37477368116378784
5.697671890258789,-0.2846575975418091,-0.38440561294555664,0.4339931011199951,-0.5255452029698727,-0.9500777393348008,-1.8695081256645323,-0.7036847472190857,0.5016847252845764,-0.5031306147575378,-0.5554082989692688,-0.9921075105667114,-0.7003621459007263
5.7192277908325195,-0.04368644952774048,-0.40160706639289856,0.3926536440849304,-0.517701422627582,-0.9877277492866205,-1.8908057973540888,-0.7253870964050293,0.49488407373428345,-0.47843852639198303,-0.48751384019851685,-1.6786826848983765,-0.9972984790802002
5.740257740020752,-0.09019356966018677,-0.36923035979270935,0.3319522738456726,-0.502527292693837,-1.0329243052431918,-1.910507274755386,-0.7526257038116455,0.4816419184207916,-0.44897186756134033,-0.13543221354484558,-1.7740626335144043,-1.183017373085022
5.7600438594818115,-0.18242353200912476,-0.31354695558547974,0.296446830034256,-0.480558382159221,-1.0716787761753122,-1.9232434018617177,-0.7785597443580627,0.46227437257766724,-0.4244374632835388,0.22505639493465424,-1.5236059427261353,-1.30211341381073
5.779960870742798,-0.10719329118728638,-0.28643786907196045,0.2428443431854248,-0.4537839478254229,-1.1063962615007075,-1.93154112580363,-0.8036038875579834,0.43836966156959534,-0.4025580585002899,0.30693790316581726,-1.6421573162078857,-1.4092698097229004
5.800156831741333,-0.005886971950531006,-0.31643348932266235,0.2138899564743042,-0.4262889135810157,-1.1451724502003748,-1.9406770995571634,-0.8292723894119263,0.41349467635154724,-0.3759382367134094,0.0486794114112854,-1.862511157989502,-1.4361116886138916
5.820254802703857,-0.027327418327331543,-0.3310902714729309,0.18636468052864075,-0.40050386063460675,-1.190678224817623,-1.9572841675961483,-0.855134129524231,0.3898823857307434,-0.3416685461997986,-0.3977178931236267,-1.9864161014556885,-1.5366331338882446
5.839245796203613,-0.08721858263015747,-0.2678099572658539,0.15973764657974243,-0.37490420852744105,-1.2389566459698773,-1.980074884120554,-0.8797767162322998,0.36618340015411377,-0.30315494537353516,-0.6449863314628601,-1.9947335720062256,-1.608751893043518
5.860163927078247,-0.1283310055732727,-0.19316807389259338,0.14330512285232544,-0.3471801630673223,-1.2865897440403518,-2.0034313133613635,-0.9026138782501221,0.34024757146835327,-0.26366642117500305,-0.5906738042831421,-1.9814778566360474,-1.7157964706420898
5.880378723144531,-0.16411054134368896,-0.12541037797927856,0.11859853565692902,-0.3162642754840761,-1.3334730955153906,-2.0249530634256634,-0.9237648248672485,0.31101828813552856,-0.22344160079956055,-0.5791012644767761,-1.9478503465652466,-1.807002067565918
5.900072813034058,-0.21569103002548218,-0.0326923131942749,0.08384902775287628,-0.28227560939980106,-1.3756343030245999,-2.0438432990036444,-0.9421916007995605,0.2785419225692749,-0.1862506866455078,-0.4333573579788208,-1.7153702974319458,-1.8942757844924927
5.919587850570679,-0.19174671173095703,0.01536664366722107,0.05841672420501709,-0.2460659408970212,-1.4119465019198891,-2.0577794462783703,-0.9576674103736877,0.24359029531478882,-0.15341788530349731,-0.2794675827026367,-1.6143850088119507,-1.906137228012085
5.939565896987915,-0.12504655122756958,0.04599030315876007,0.020045384764671326,-0.20981831643907323,-1.446972362955394,-2.068781559329247,-0.9705804586410522,0.2082822024822235,-0.12079913169145584,-0.29543036222457886,-1.6382896900177002,-1.839219093322754
5.958728790283203,-0.08535611629486084,0.06230722367763519,-0.009120337665081024,-0.17503538805196464,-1.4817763592097228,-2.0806761013693884,-0.9808211922645569,0.174142986536026,-0.0875440463423729,-0.5247638821601868,-1.6424933671951294,-1.7553032636642456
5.978616714477539,-0.09431564807891846,0.08715197443962097,0.021740619093179703,-0.1416538111703718,-1.516487728809285,-2.0967667449982517,-0.988524317741394,0.14118055999279022,-0.05373821035027504,-0.8737388849258423,-1.5827267169952393,-1.694366216659546
5.999311923980713,-0.21710747480392456,0.15271684527397156,0.07179689407348633,-0.11001720691268675,-1.549236794988407,-2.123508767087278,-0.9937233924865723,0.10979540646076202,-0.02142753079533577,-1.8187012672424316,-1.1786267757415771,-1.514285922050476
6.0193257331848145,-0.4678112268447876,0.15824130177497864,-0.052832603454589844,-0.07914600597563459,-1.5739409863552025,-2.1637615234359497,-0.9968647360801697,0.07906340062618256,0.003134810598567128,-1.9512238502502441,-0.9883471727371216,-1.5654618740081787
6.039206027984619,-0.5315335988998413,0.33679690957069397,0.03871762752532959,-0.05108847920473518,-1.5915402606688491,-2.209813662378813,-0.9984804391860962,0.05106625705957413,0.02071538381278515,-2.911040782928467,-0.55256587266922,-1.261718988418579
6.0596559047698975,-0.44779688119888306,0.2336989790201187,-0.027829408645629883,-0.023413766973255357,-1.604790951800888,-2.2690645072566844,-0.9991483688354492,0.023411627858877182,0.03397876396775246,-2.9020540714263916,-0.8478899002075195,-1.3543614149093628
6.079240798950195,-0.173026442527771,0.37955376505851746,-0.012335173785686493,0.0013341531212410608,-1.6250436032839215,-2.3252483645202155,-0.998528242111206,-0.0013341527665033937,0.05422063544392586,-2.7547435760498047,-1.158409595489502,-0.9529233574867249
6.099257946014404,-0.2810104489326477,0.5138119459152222,-0.14811360836029053,0.026037138234230175,-1.649942896450066,-2.3665415338905738,-0.99653160572052,-0.026034196838736534,0.07903716713190079,-1.5290247201919556,-1.232724905014038,-1.3034042119979858
6.119097709655762,-0.3707990050315857,0.6627980470657349,-0.2052518129348755,0.05699396249831074,-1.669004355532547,-2.385160298319177,-0.9935656785964966,-0.05696311220526695,0.09789104014635086,-0.7482524514198303,-0.7455906867980957,-1.5902602672576904
6.138924837112427,-0.160724937915802,0.6149464845657349,-0.22881090641021729,0.09102425883819121,-1.6817014493389317,-2.3947127888378805,-0.9897419810295105,-0.09089861810207367,0.11021972447633743,-0.6448410749435425,-0.673888087272644,-1.6356419324874878
6.1591949462890625,0.06512922048568726,0.5584254264831543,-0.2447882890701294,0.12222128131257672,-1.6968145920649322,-2.4057121446678607,-0.9846696853637695,-0.12191721796989441,0.12474741786718369,-0.7844071388244629,-1.0144202709197998,-1.299623966217041
6.179021835327148,0.021615207195281982,0.5244516134262085,-0.32482850551605225,0.14475341927297297,-1.7173321491092264,-2.420270428225692,-0.9789365530014038,-0.14424842596054077,0.14448492228984833,-1.0058764219284058,-1.0945045948028564,-0.7101062536239624
6.198678970336914,-0.13387280702590942,0.4421672821044922,-0.354825496673584,0.15619577525518366,-1.7303876237576505,-2.442128621415218,-0.9752733707427979,-0.1555614322423935,0.15698014199733734,-1.3221184015274048,-0.5064795613288879,-0.14104755222797394
6.218716859817505,-0.11617738008499146,0.4209243059158325,-0.3308464288711548,0.160102293782112,-1.7303392585043944,-2.470532237321328,-0.9746735095977783,-0.1594191938638687,0.15683522820472717,-1.4358712434768677,0.029220521450042725,0.17594271898269653
6.238502025604248,0.024291932582855225,0.5110527276992798,-0.3669757843017578,0.15856694111645614,-1.7226628684200374,-2.4974458954034815,-0.9760892987251282,-0.1579032838344574,0.14938552677631378,-1.1307233572006226,0.26076921820640564,0.38014137744903564
6.258582830429077,0.1401127576828003,0.5340696573257446,-0.429335355758667,0.15210234536457656,-1.7139837241533542,-2.51734963863935,-0.9783391952514648,-0.15151654183864594,0.14105114340782166,-0.7386215925216675,0.28808510303497314,0.5389615893363953
6.278414726257324,0.2182489037513733,0.479115754365921,-0.4691500663757324,0.14168345932196738,-1.7069178673456424,-2.5309457117383136,-0.9808223247528076,-0.1412099003791809,0.13434180617332458,-0.4794121980667114,0.2288692742586136,0.6676503419876099
6.298439979553223,0.24596142768859863,0.4523301124572754,-0.4432804584503174,0.12920298664130098,-1.7005626960390123,-2.5397505851521056,-0.9833272099494934,-0.12884381413459778,0.12832389771938324,-0.1668703258037567,0.3042948544025421,0.657448410987854
6.317692756652832,0.2506257891654968,0.4423303008079529,-0.4296152591705322,0.11648267147287639,-1.6940616838761264,-2.5392589085315604,-0.9856874346733093,-0.11621943861246109,0.12212025374174118,0.3980391323566437,0.32990747690200806,0.607167661190033
6.337814807891846,0.2469332218170166,0.4647136628627777,-0.442405104637146,0.10326380092381801,-1.689649826493794,-2.5252456358523507,-0.9876558780670166,-0.1030803769826889,0.11794224381446838,1.151758074760437,0.26355305314064026,0.5423972010612488
6.35863184928894,0.18446975946426392,0.501976490020752,-0.5046894550323486,0.09029492801084629,-1.6875845237033695,-2.4981904444600747,-0.9891418814659119,-0.09017228335142136,0.11604819446802139,1.642744779586792,0.20335087180137634,0.40261441469192505
6.380250930786133,0.11206704378128052,0.4704217314720154,-0.45824480056762695,0.07998881817336759,-1.6850650743954505,-2.465843430835432,-0.9903019070625305,-0.07990355044603348,0.11365567147731781,1.5222440958023071,0.3687360882759094,0.2744428515434265
6.398458957672119,0.08467769622802734,0.36396339535713196,-0.36442282795906067,0.07146745209034004,-1.6765610194640892,-2.4423048017935636,-0.9918736219406128,-0.07140663266181946,0.10529812425374985,0.9526946544647217,0.6671956777572632,0.3626038432121277
6.418601989746094,0.052060723304748535,0.3151737153530121,-0.3838123083114624,0.05815692291642681,-1.662073369495343,-2.42686211110872,-0.9941534996032715,-0.05812414363026619,0.09099624305963516,0.8033301830291748,0.8948485851287842,0.8588865995407104
6.438786029815674,0.016654551029205322,0.45197391510009766,-0.3983718156814575,0.03558431932886666,-1.6420182218305703,-2.4110582169954466,-0.9968334436416626,-0.03557680919766426,0.07111665606498718,1.0055500268936157,1.1411019563674927,1.1519173383712769
6.458539962768555,-0.0035786032676696777,0.4695928990840912,-0.33658456802368164,0.013401262758374355,-1.6191656261019212,-2.3893567484210094,-0.9987407922744751,-0.013400861993432045,0.048346102237701416,1.293637990951538,1.21683669090271,0.9351712465286255
6.4781928062438965,-0.01229548454284668,0.40320053696632385,-0.27696335315704346,-0.006345399920678647,-1.5945429087991492,-2.360655744469762,-0.9996981024742126,0.006345357280224562,0.023743875324726105,1.6603853702545166,1.2546300888061523,1.0210802555084229
6.499652862548828,-0.07475483417510986,0.32341012358665466,-0.24846506118774414,-0.031254999897634826,-1.5688179913315714,-2.324716392334452,-0.9995098114013672,0.031249910593032837,-0.0019773682579398155,1.9914748668670654,1.2295242547988892,1.4308686256408691
6.51769495010376,-0.22059953212738037,0.30329281091690063,-0.19918817281723022,-0.06132389091229158,-1.5420518548753,-2.2802596802338306,-0.9977080225944519,0.061285462230443954,-0.028686491772532463,2.4057345390319824,1.2552131414413452,1.6231368780136108
6.537664890289307,-0.42778921127319336,0.33844226598739624,-0.10593117028474808,-0.09204655119404463,-1.5108649963871845,-2.2285929809213285,-0.9939790964126587,0.09191662818193436,-0.059641916304826736,2.553626298904419,1.531508207321167,1.66433846950531
6.557113885879517,-0.5964595079421997,0.31634998321533203,0.02627013623714447,-0.12174046324802215,-1.4714857092968907,-2.17791974455499,-0.9877081513404846,0.12143997102975845,-0.09841365367174149,2.12473201751709,1.8226094245910645,1.7347617149353027
6.577669858932495,-0.6499643921852112,0.22144857048988342,0.1472620815038681,-0.15579842315752315,-1.4311452368667643,-2.139600361318568,-0.9782706499099731,0.15516890585422516,-0.13751165568828583,1.2736260890960693,1.6824878454208374,2.141080856323242
6.597649812698364,-0.8116253018379211,0.1720854490995407,0.17389537394046783,-0.19972310425084774,-1.3916546574194748,-2.112807190069557,-0.9644366502761841,0.1983979493379593,-0.17464299499988556,0.6810357570648193,1.75608229637146,2.559814453125
6.617734909057617,-0.9091892242431641,0.1712360680103302,0.22476787865161896,-0.25006312250520285,-1.3522594639954721,-2.091120338994306,-0.9458522796630859,0.247465118765831,-0.2100583016872406,0.48489701747894287,1.7766612768173218,2.7484118938446045
6.637877941131592,-0.811654806137085,0.13806813955307007,0.25911444425582886,-0.3017630717580313,-1.3068985066973238,-2.066683337262423,-0.9217588901519775,0.29720407724380493,-0.24905884265899658,0.5445517897605896,2.0687272548675537,2.890789270401001
6.659776926040649,-0.5094408392906189,0.011285245418548584,0.29816892743110657,-0.35732366682955413,-1.256992701190055,-2.0379284988811617,-0.8910871148109436,0.34976819157600403,-0.2891814410686493,0.48791632056236267,1.9591431617736816,3.228187322616577
6.679317951202393,-0.3740372061729431,-0.08000904321670532,0.35649484395980835,-0.41706885753903383,-1.2083774980434507,-2.004647173637487,-0.8548904061317444,0.4050823152065277,-0.3241461515426636,0.43255558609962463,1.6324135065078735,3.387608766555786
6.698016881942749,-0.4364420175552368,-0.11142322421073914,0.3938622772693634,-0.4739896393156954,-1.1621820753890724,-1.967067249630281,-0.8165028691291809,0.45643970370292664,-0.35353323817253113,0.6351205706596375,1.4063260555267334,3.1312224864959717
6.71901798248291,-0.497078537940979,-0.15869352221488953,0.44776487350463867,-0.520784457082202,-1.1140089379996672,-1.9227786428896276,-0.7784952521324158,0.4975607395172119,-0.3825945258140564,0.9329556226730347,1.2957004308700562,2.7689437866210938
6.738659858703613,-0.4249950647354126,-0.22628527879714966,0.49554017186164856,-0.5566898461539854,-1.0644330316641804,-1.8738461383657365,-0.7424701452255249,0.5283787250518799,-0.4117693603038788,1.1308138370513916,1.1838299036026,2.3669309616088867
6.757692813873291,-0.27826786041259766,-0.32180798053741455,0.5283939838409424,-0.5820026491202089,-1.016471413919968,-1.824838625026868,-0.7102727890014648,0.549697995185852,-0.43970978260040283,1.1373237371444702,0.9517614245414734,1.9092158079147339
6.777060031890869,-0.14995479583740234,-0.39231330156326294,0.5158984661102295,-0.597842792343411,-0.9754892220689805,-1.779797201416215,-0.6843652725219727,0.5628607273101807,-0.46349966526031494,1.1723777055740356,0.6262741088867188,1.4802603721618652
6.797699928283691,-0.06372129917144775,-0.41541463136672974,0.5093395709991455,-0.6047072972667725,-0.9424553542932312,-1.7376717367997894,-0.6655420064926147,0.5685213208198547,-0.48356738686561584,1.3282768726348877,0.3214031159877777,1.0767171382904053
6.817698955535889,-0.02584528923034668,-0.491955041885376,0.5039958357810974,-0.6025232866229165,-0.9157983010167022,-1.696932454323316,-0.6533998250961304,0.5667232275009155,-0.5018901228904724,1.4238837957382202,0.0068891169503331184,0.8019459843635559
6.837701797485352,-0.04434329271316528,-0.5496503710746765,0.54539954662323,-0.598105840124461,-0.8972294489268681,-1.6620082383445671,-0.6459185481071472,0.5630781650543213,-0.51549232006073,1.090914011001587,-0.032842494547367096,0.6463296413421631
6.857818841934204,-0.10093778371810913,-0.5970150828361511,0.594774067401886,-0.5966680585817804,-0.8816083868353792,-1.6371231702658875,-0.6384116411209106,0.5618893504142761,-0.5260331630706787,0.57692950963974,0.20320865511894226,0.5409790277481079
6.877702713012695,-0.0875774621963501,-0.6433774828910828,0.649702787399292,-0.600258452055528,-0.8686217272171234,-1.6241762895783451,-0.6299824118614197,0.5648557543754578,-0.532973051071167,0.04232550784945488,0.31150850653648376,0.4024725556373596
6.897665977478027,-0.043814778327941895,-0.6590363383293152,0.6540305018424988,-0.6069717991216976,-0.8622800338050264,-1.6219208429120575,-0.6236962080001831,0.5703827738761902,-0.5344777703285217,-0.3027108609676361,0.17009685933589935,0.22658242285251617
6.91800594329834,-0.06164950132369995,-0.6565125584602356,0.6460127830505371,-0.6148254546137086,-0.8636406037642985,-1.6283212278288668,-0.620998203754425,0.5768159627914429,-0.5307020545005798,-0.6125709414482117,0.07835114002227783,0.01369835902005434
6.937779903411865,-0.1040220856666565,-0.6759921908378601,0.6351243257522583,-0.6221033712600164,-0.8707306838021377,-1.6436561351671084,-0.6215181350708008,0.5827457904815674,-0.523567259311676,-0.8040589690208435,0.09416348487138748,-0.2672508955001831
6.957754850387573,-0.0721178650856018,-0.6460850834846497,0.5918772220611572,-0.6270128882439614,-0.884108610293525,-1.6671259978539672,-0.626246452331543,0.5867284536361694,-0.5133860111236572,-0.9573992490768433,-0.10831790417432785,-0.5797116160392761
6.977731704711914,-0.023005962371826172,-0.57994145154953,0.5334919691085815,-0.6264892727042279,-0.9075619794646916,-1.6962262209711252,-0.6383557915687561,0.5863043665885925,-0.49874767661094666,-0.7881775498390198,-0.5833075046539307,-0.9486462473869324
6.997252941131592,-0.06176912784576416,-0.504981279373169,0.474204421043396,-0.615988684461145,-0.9423521600078214,-1.7262128747657834,-0.6602615714073181,0.5777657628059387,-0.4798348546028137,-0.5141582489013672,-1.131364345550537,-1.3682705163955688
7.017834901809692,-0.20460939407348633,-0.4462469220161438,0.46740126609802246,-0.5956955216722418,-0.9850464574996065,-1.7564689601836156,-0.6897693276405334,0.5610846281051636,-0.4576050937175751,-0.4693294167518616,-1.3487457036972046,-1.7080714702606201
7.03781270980835,-0.36958378553390503,-0.4482121467590332,0.5347750186920166,-0.5719895929549677,-1.0304602823434141,-1.7935506147279543,-0.7210381627082825,0.5413060188293457,-0.43254104256629944,-0.9094749093055725,-1.1315150260925293,-1.9381688833236694
7.056731700897217,-0.4358900189399719,-0.4404655694961548,0.5435361862182617,-0.5478986465764675,-1.0775113784351174,-1.8419886651488606,-0.7518541216850281,0.5208946466445923,-0.40420812368392944,-1.446327805519104,-1.0781444311141968,-2.199763298034668
7.077686786651611,-0.4192984104156494,-0.32141056656837463,0.44089972972869873,-0.520253698261154,-1.1345697192932784,-1.8990313020814178,-0.7864358425140381,0.497100293636322,-0.36661985516548157,-1.6520335674285889,-1.8263190984725952,-2.481247901916504
7.097702980041504,-0.6782569885253906,-0.1377367079257965,0.37730199098587036,-0.4846772132185506,-1.2043908497847595,-1.9577433644082625,-0.8260918259620667,0.4659227728843689,-0.3169991970062256,-1.6728938817977905,-2.115777015686035,-2.840989351272583
7.117686748504639,-1.15168297290802,0.01527586579322815,0.4426305294036865,-0.4378173165336032,-1.263844837366135,-2.0151079444942583,-0.8633469343185425,0.42396366596221924,-0.27365460991859436,-1.7087180614471436,-1.2402429580688477,-3.304553270339966
7.137701988220215,-0.9419168829917908,0.08054846525192261,0.38597190380096436,-0.38260621748116624,-1.307966182720432,-2.075439092666428,-0.8958364725112915,0.3733395040035248,-0.24102860689163208,-2.089857339859009,-0.99143385887146,-3.4411580562591553
7.157773017883301,-0.42061835527420044,0.17895174026489258,0.19924503564834595,-0.3302054422548309,-1.3560416055952216,-2.136417361807081,-0.9242455959320068,0.3242373764514923,-0.20159482955932617,-2.117265224456787,-1.7014586925506592,-2.992913246154785
7.177701950073242,-0.3728101849555969,0.2692667841911316,0.01653045415878296,-0.28297173151642735,-1.4074071243042985,-2.1856024287370297,-0.9474413394927979,0.2792104184627533,-0.15619409084320068,-1.5802199840545654,-1.8999943733215332,-2.5817155838012695
7.197700023651123,-0.47106385231018066,0.26993921399116516,-0.06544806063175201,-0.23926469397992886,-1.4518747198033752,-2.2200516997246003,-0.9646510481834412,0.23698833584785461,-0.11526171863079071,-1.1560081243515015,-1.6543532609939575,-2.1952571868896484
7.2177019119262695,-0.40205490589141846,0.2975761890411377,-0.10836917161941528,-0.20263272226962406,-1.4898464978416954,-2.245934675953334,-0.9763326048851013,0.2012488842010498,-0.07920704036951065,-1.0618826150894165,-1.5838936567306519,-1.7226253747940063
7.23769998550415,-0.32129043340682983,0.3679579496383667,-0.06614160537719727,-0.17269408739385453,-1.524136202306111,-2.272080403976771,-0.9840533137321472,0.1718369871377945,-0.04594940319657326,-1.4152997732162476,-1.3509454727172852,-1.4442462921142578
7.257699012756348,-0.3139376640319824,0.3437236547470093,-0.08375847339630127,-0.14471119987743297,-1.5530500961974847,-2.3012412356659855,-0.9893917441368103,0.14420665800571442,-0.01755981706082821,-1.3091670274734497,-1.0787988901138306,-1.4135966300964355
7.277698993682861,-0.23788481950759888,0.40255939960479736,-0.14311575889587402,-0.11737853241584541,-1.5765310517460263,-2.3299068158273193,-0.9931027889251709,0.11710918694734573,0.005695233587175608,-1.5213546752929688,-0.959086537361145,-1.3410218954086304
7.297698974609375,-0.13731878995895386,0.4024368226528168,-0.18325746059417725,-0.08852348872946833,-1.5988634172043525,-2.360557606472393,-0.9956921339035034,0.08840791881084442,0.02795352227985859,-1.592185378074646,-0.9072569012641907,-1.4623322486877441
7.317699909210205,-0.03703266382217407,0.4479118287563324,-0.20565855503082275,-0.05793418813225099,-1.6190074738067715,-2.3901627616647843,-0.9971624612808228,0.057901784777641296,0.048111625015735626,-1.4431920051574707,-0.8768896460533142,-1.4813823699951172
7.337700843811035,0.04663741588592529,0.4987810552120209,-0.2519327402114868,-0.026078472728175005,-1.6371772836158742,-2.4158566723610133,-0.9974583387374878,0.026075517758727074,0.06630966812372208,-1.3103909492492676,-0.8581064939498901,-1.5640183687210083
7.357712745666504,0.11187344789505005,0.5391620397567749,-0.32011187076568604,0.007622180646629577,-1.6557529336303285,-2.437524761392882,-0.9963644742965698,-0.007622106932103634,0.08485198765993118,-1.1108676195144653,-0.9828972816467285,-1.6061652898788452
7.377699851989746,0.1593543291091919,0.5915877819061279,-0.3987894058227539,0.040710979219875446,-1.6766119704221325,-2.4562925244112113,-0.9935829043388367,-0.040699735283851624,0.10553078353404999,-1.119287371635437,-1.1504871845245361,-1.50436532497406
7.3977038860321045,0.1572486162185669,0.6183953285217285,-0.4726543426513672,0.07268291756869263,-1.6988927292250167,-2.475275438807441,-0.9891882538795471,-0.07261893898248672,0.12740908563137054,-1.1018540859222412,-1.1162023544311523,-1.4289482831954956
7.417708873748779,0.1549288034439087,0.6687749028205872,-0.5002999305725098,0.10141323370511378,-1.7173443884902235,-2.491630493802439,-0.9841981530189514,-0.10123948752880096,0.14527380466461182,-0.9124110341072083,-0.8515380024909973,-1.153742790222168
7.437737941741943,0.15207362174987793,0.7377525568008423,-0.5460153818130493,0.12311887897203516,-1.7300118920535013,-2.5055815435157767,-0.9798781871795654,-0.1228080689907074,0.15734364092350006,-0.8005639314651489,-0.5728038549423218,-0.8027315139770508
7.457706928253174,0.1498510241508484,0.785741925239563,-0.5994042158126831,0.13906449640747617,-1.7368434366853849,-2.5187836196822158,-0.9767249226570129,-0.13861669600009918,0.163689523935318,-0.7534924745559692,-0.2803308367729187,-0.5595855116844177
7.477705955505371,0.16602832078933716,0.8169597387313843,-0.6252061128616333,0.14931635902696305,-1.7379217505642612,-2.5317433530665814,-0.9750950336456299,-0.14876213669776917,0.16449755430221558,-0.6868038177490234,-0.03604663163423538,-0.20995864272117615
7.497700929641724,0.18792790174484253,0.8034080266952515,-0.6327162981033325,0.1511972471453363,-1.735359234040089,-2.544768772744621,-0.9752357602119446,-0.15062183141708374,0.16195222735404968,-0.6242671608924866,0.07494904100894928,0.2430492788553238
7.517706871032715,0.15982282161712646,0.7989084720611572,-0.6568887233734131,0.1437944091334835,-1.7320543800389159,-2.5560998918102014,-0.976839542388916,-0.1432993859052658,0.15890301764011383,-0.2727261185646057,0.0942154973745346,0.6553583741188049
7.5376996994018555,0.06811916828155518,0.8463134765625,-0.6972968578338623,0.1272966329274387,-1.7296503892298747,-2.5569936510500826,-0.9794198870658875,-0.1269531100988388,0.1569068729877472,0.458829402923584,0.11389022320508957,0.9640025496482849
7.557590007781982,-0.06490862369537354,0.8557512760162354,-0.6718599796295166,0.10447636774530149,-1.7283704927042152,-2.546085260579394,-0.9822258353233337,-0.10428640246391296,0.15606725215911865,0.9140028953552246,0.1292392611503601,1.0817159414291382
7.577723026275635,-0.29318463802337646,0.7391367554664612,-0.5667535066604614,0.07956796304722677,-1.7259561626415185,-2.5320727895405466,-0.9848610162734985,-0.07948403060436249,0.1540490835905075,0.7075322270393372,0.36004745960235596,1.1932291984558105
7.597651958465576,-0.6232846975326538,0.6478496193885803,-0.42648863792419434,0.05275077820308236,-1.7110276493895105,-2.526808480505187,-0.9888063669204712,-0.05272631719708443,0.1395777463912964,0.30134013295173645,1.197417974472046,1.4152499437332153
7.617706775665283,-0.7588818073272705,0.6271875500679016,-0.33596718311309814,0.019538049801170083,-1.6805951229807357,-2.523856566452394,-0.9937885403633118,-0.019536806270480156,0.10955740511417389,0.49054327607154846,1.781995415687561,1.8546257019042969
7.637697696685791,-0.5890454649925232,0.6846737265586853,-0.26830124855041504,-0.02135203580463169,-1.6436372845316436,-2.513107869265369,-0.9971209764480591,0.02135041356086731,0.07275997847318649,0.9591622352600098,1.8295612335205078,2.107895612716675
7.657697916030884,-0.43296587467193604,0.5970420837402344,-0.11999154090881348,-0.06759066336669517,-1.6083936661997025,-2.492779922021396,-0.9970116019248962,0.06753920763731003,0.037502653896808624,1.3081932067871094,1.6396945714950562,2.4371654987335205
7.677696704864502,-0.493954598903656,0.46118244528770447,-0.004815101623535156,-0.12068378706800517,-1.5728339917235152,-2.463173885379757,-0.9927244782447815,0.12039104849100113,0.0020228426437824965,1.7898061275482178,1.6446866989135742,2.78263521194458
7.697791814804077,-0.5731062293052673,0.39579468965530396,0.05597436800599098,-0.1772139129306925,-1.5335633214193725,-2.4193280329542644,-0.9836564064025879,0.17628781497478485,-0.03664141893386841,2.4582858085632324,1.5759239196777344,2.8814618587493896
7.717703819274902,-0.5870323777198792,0.34750646352767944,0.09989709407091141,-0.2310670640695372,-1.4913977655911022,-2.3589132012159895,-0.9703558683395386,0.22901636362075806,-0.07720717042684555,3.1431798934936523,1.4043915271759033,2.8504977226257324
7.737707853317261,-0.6252620816230774,0.27484485507011414,0.1592254489660263,-0.27999249950819727,-1.4449562025424483,-2.283196963639894,-0.9534581899642944,0.27634844183921814,-0.12062067538499832,3.58203387260437,1.3791927099227905,2.7560839653015137
7.757701873779297,-0.6524072289466858,0.1838361918926239,0.30515992641448975,-0.3215866633981662,-1.3904438820823057,-2.2008453243517048,-0.933347225189209,0.3160722851753235,-0.17018061876296997,3.4924514293670654,1.6561894416809082,2.5820107460021973
7.777696847915649,-0.5856766700744629,0.06275361776351929,0.47059565782546997,-0.3582680469329414,-1.327960601587802,-2.12305161355903,-0.9090285897254944,0.3506527841091156,-0.2251885086297989,2.8650996685028076,1.9962748289108276,2.5828640460968018
7.797696828842163,-0.48992908000946045,-0.07733279466629028,0.5519973039627075,-0.39560005153025357,-1.2615694950913534,-2.05661054989561,-0.8789979219436646,0.3853619694709778,-0.28081804513931274,2.0735771656036377,2.1671946048736572,2.738612651824951
7.817698955535889,-0.42246633768081665,-0.16977643966674805,0.5650641918182373,-0.43836637636235787,-1.1957297082809477,-2.0005889804583097,-0.8425025343894958,0.42446088790893555,-0.33169621229171753,1.3503295183181763,2.1586740016937256,2.9978411197662354
7.837707042694092,-0.4109715223312378,-0.19321265816688538,0.556403398513794,-0.48501647966814965,-1.1307673273597645,-1.9507677423854872,-0.8003932237625122,0.46622294187545776,-0.37683790922164917,0.9552962183952332,2.1317715644836426,3.045064687728882
7.857697010040283,-0.3969379663467407,-0.18681997060775757,0.57380211353302,-0.5311286726377666,-1.0647860714016375,-1.9016757671400983,-0.7541850805282593,0.5065068602561951,-0.41791829466819763,0.7992866039276123,2.0779197216033936,3.017975330352783
7.877696990966797,-0.3785930275917053,-0.2338528037071228,0.6245945692062378,-0.5745640752401213,-0.997408568486758,-1.850875172727546,-0.7051777243614197,0.5434688925743103,-0.4553745687007904,0.674187183380127,1.9974271059036255,2.935438394546509
7.897740840911865,-0.38691240549087524,-0.2998809218406677,0.6765613555908203,-0.6146347354016324,-0.9297211565234417,-1.7996104874876697,-0.6547746062278748,0.57666015625,-0.48860353231430054,0.531252384185791,1.9217846393585205,2.7975974082946777
7.917749881744385,-0.4082125425338745,-0.35937732458114624,0.7171415686607361,-0.6515277616819218,-0.8617687822622321,-1.748794802841158,-0.6035215258598328,0.6064019203186035,-0.5177243947982788,0.36300128698349,1.8806504011154175,2.6555771827697754
7.9376959800720215,-0.40345191955566406,-0.43151217699050903,0.7368988990783691,-0.6854084846377582,-0.794387424346433,-1.6992054309122908,-0.5523129105567932,0.6329892873764038,-0.5424713492393494,0.20719723403453827,1.7789185047149658,2.485753059387207
7.957695960998535,-0.3655508756637573,-0.5097651481628418,0.7574064135551453,-0.7167276478267646,-0.7301151442204135,-1.652407157675103,-0.5028573870658875,0.6569209694862366,-0.561773419380188,-0.000332860741764307,1.6425870656967163,2.259425163269043
7.977696895599365,-0.3232481777667999,-0.5938990712165833,0.7570976614952087,-0.7452743366974081,-0.6716262704318938,-1.6106602994676473,-0.45730000734329224,0.6781734228134155,-0.5752891898155212,-0.17610196769237518,1.4048898220062256,1.9703800678253174
7.997699737548828,-0.2980934977531433,-0.6312724351882935,0.7066261768341064,-0.7700669896846623,-0.6219810870805097,-1.574558668238004,-0.4182608723640442,0.6961833238601685,-0.5834265947341919,-0.1710570603609085,1.092775583267212,1.6206237077713013
8.017697811126709,-0.2819065451622009,-0.6441499590873718,0.6635257005691528,-0.7883386909564014,-0.5828179868047538,-1.543789730484323,-0.38803061842918396,0.7091829776763916,-0.5886355042457581,-0.10842747241258621,0.6441659331321716,1.2149865627288818
8.037696838378906,-0.2988646626472473,-0.6687876582145691,0.668441891670227,-0.8010084866245991,-0.5594611092931668,-1.5230827858145555,-0.3693787455558777,0.7180583477020264,-0.5898743271827698,-0.19862742722034454,0.25797325372695923,0.6740390062332153
8.057755947113037,-0.34335437417030334,-0.7163729667663574,0.7066248655319214,-0.8108709293168977,-0.5531441081639356,-1.5185809626117404,-0.36190688610076904,0.7248874306678772,-0.5861414074897766,-0.4881949722766876,0.0852295458316803,0.1266833245754242
8.07770586013794,-0.3570982813835144,-0.7924076318740845,0.7447359561920166,-0.8214517347934273,-0.5616353987862194,-1.5312868716327588,-0.3627656102180481,0.7321354746818542,-0.5765230059623718,-0.8931028842926025,-0.04061999171972275,-0.29353776574134827
8.097694873809814,-0.3389471173286438,-0.8112848997116089,0.6738843321800232,-0.8330188276610073,-0.5886627606335911,-1.561630694544097,-0.3734857439994812,0.7399653196334839,-0.5594280958175659,-1.1491594314575195,-0.510218620300293,-0.832807719707489
8.11771297454834,-0.3677825629711151,-0.7215754389762878,0.5484664440155029,-0.8391143777808434,-0.6427982937413056,-1.6094434661778483,-0.4004974663257599,0.7440516948699951,-0.5347792506217957,-1.13253653049469,-1.4006273746490479,-1.4528026580810547
8.137697696685791,-0.5693210363388062,-0.5396629571914673,0.4597749710083008,-0.8309564365757548,-0.7207465984742504,-1.668718709338119,-0.44491538405418396,0.7385765314102173,-0.5065125226974487,-0.7342132925987244,-1.8122401237487793,-2.1827340126037598
8.157732963562012,-0.8119181394577026,-0.4245176911354065,0.5082059502601624,-0.8049304083131851,-0.7997401840885469,-1.736099733671797,-0.49711811542510986,0.7207823991775513,-0.48305943608283997,-0.6653450727462769,-1.101401925086975,-2.933867931365967
8.17769479751587,-0.6455485820770264,-0.46298980712890625,0.552786111831665,-0.7699060600832581,-0.8737705161078982,-1.8136705495068266,-0.5505115985870361,0.6960678100585938,-0.4608975648880005,-1.1076843738555908,-1.0407618284225464,-3.257049560546875
8.197711944580078,-0.3759978413581848,-0.4578072428703308,0.4380515217781067,-0.7347173914442026,-0.9605418152766267,-1.8974033966912673,-0.6080873012542725,0.6703774929046631,-0.4252340793609619,-1.5474226474761963,-1.9500514268875122,-3.2811052799224854
8.217697858810425,-0.5581539273262024,-0.34854280948638916,0.21169248223304749,-0.6941222187250193,-1.0567423538532548,-1.9785393848972441,-0.6692783236503601,0.6397110223770142,-0.3779369294643402,-1.4381568431854248,-2.1292998790740967,-3.4516172409057617
8.23770785331726,-0.8131999373435974,-0.2101420760154724,0.1688987910747528,-0.6419431189004796,-1.140683097691575,-2.0507892997416493,-0.7279834747314453,0.5987528562545776,-0.33396831154823303,-1.3059877157211304,-1.8080980777740479,-3.840975284576416
8.257693767547607,-0.7574711441993713,-0.10072767734527588,0.136398047208786,-0.5775573511575396,-1.2161617460680216,-2.119153863939855,-0.7856654524803162,0.5459791421890259,-0.29092368483543396,-1.4634250402450562,-1.9100799560546875,-4.216989994049072
8.277693748474121,-0.6526167392730713,-0.008304178714752197,0.11006297171115875,-0.5070134619493439,-1.291227516599415,-2.185528441799372,-0.8402574062347412,0.4855685830116272,-0.2412274181842804,-1.7395944595336914,-2.137965202331543,-4.255068302154541
8.297720909118652,-0.7548819184303284,0.06668046116828918,0.08802652359008789,-0.4336624025776713,-1.3616062238554965,-2.2486701652265326,-0.8876504898071289,0.4201970100402832,-0.18844455480575562,-1.9533898830413818,-2.0037946701049805,-4.2284393310546875
8.317770004272461,-0.7625110149383545,0.1722395122051239,0.04660439491271973,-0.35881772556359115,-1.4223222237516848,-2.3076399904374614,-0.9260113835334778,0.3511675000190735,-0.13850799202919006,-2.0323517322540283,-1.8416955471038818,-4.114704132080078
8.337694883346558,-0.6027575731277466,0.30715057253837585,-0.06648766994476318,-0.2838497718566873,-1.4757666266995066,-2.3577623652842736,-0.9556531310081482,0.28005343675613403,-0.09108980000019073,-1.729956030845642,-1.9436759948730469,-3.9105732440948486
8.357710838317871,-0.4618849754333496,0.47181224822998047,-0.16372263431549072,-0.20993272597915066,-1.524986234096454,-2.3927826293816317,-0.9770189523696899,0.2083941102027893,-0.0447886660695076,-1.0700185298919678,-2.0978455543518066,-3.7216854095458984
