timestamp,acceleration_x,acceleration_y,acceleration_z,attitude_pitch,attitude_roll,attitude_yaw,gravity_x,gravity_y,gravity_z,rotation_x,rotation_y,rotation_z
0.0,-0.2086501121520996,0.341904878616333,-0.04437762498855591,-0.14132266609176905,-1.4648587264366693,1.86142755131332,-0.9844803810119629,0.14085271954536438,-0.10468540340662003,-0.9417325854301453,-0.014241526834666729,0.005732433404773474
0.020103931427001953,-0.15895771980285645,0.2819027304649353,-0.0029259920120239258,-0.14118855421029294,-1.4660916516205615,1.8415752401111174,-0.9846275448799133,0.140719935297966,-0.10347351431846619,-1.0580317974090576,0.1626143753528595,-0.20765532553195953
0.03962111473083496,-0.027968227863311768,0.21413342654705048,0.02434486150741577,-0.13817352386477338,-1.465528581389466,1.8165203907473912,-0.9849865436553955,0.1377342790365219,-0.10407201200723648,-1.4029849767684937,0.22502610087394714,-0.3424188196659088
0.06001687049865723,0.06458336114883423,0.180787593126297,0.01532340794801712,-0.1337280333651535,-1.4662930534620642,1.784227761964592,-0.9856649041175842,0.13332980871200562,-0.10338182747364044,-1.7182285785675049,0.137746661901474,-0.4230844974517822
0.08001399040222168,0.1064954400062561,0.22407092154026031,-0.013331308960914612,-0.12843951843915605,-1.4690871624436521,1.7479161131223948,-0.9866378307342529,0.12808667123317719,-0.1006975769996643,-1.7605628967285156,0.04859282821416855,-0.46789681911468506
0.10033893585205078,0.11535388231277466,0.28126874566078186,-0.050738051533699036,-0.12229514709567758,-1.4731753116861483,1.7142517245726852,-0.9878057837486267,0.12199053168296814,-0.09673810005187988,-1.4838078022003174,-0.024486886337399483,-0.4649233818054199
0.11979508399963379,0.11795258522033691,0.3131583631038666,-0.08160161226987839,-0.11573446305715922,-1.4774445605442346,1.6875734588526057,-0.9889852404594421,0.11547626554965973,-0.09259264171123505,-1.1028542518615723,-0.07241428643465042,-0.44003331661224365
0.14001011848449707,0.12773746252059937,0.31013259291648865,-0.10572993010282516,-0.10935096489995072,-1.481739874733433,1.668125186623844,-0.9900878667831421,0.10913316905498505,-0.08840756118297577,-0.8013124465942383,-0.14161261916160583,-0.3685767650604248
0.16002202033996582,0.127730131149292,0.29416507482528687,-0.1300370693206787,-0.1041094434014924,-1.4870872405972648,1.6518064410385138,-0.991102933883667,0.10392147302627563,-0.08315864950418472,-0.7999386787414551,-0.2139105200767517,-0.3084639608860016
0.18001794815063477,0.11064308881759644,0.25905629992485046,-0.19510293006896973,-0.09955227209070408,-1.4935594274083575,1.6355151664554353,-0.9920822978019714,0.09938791394233704,-0.0767780989408493,-0.7720750570297241,-0.2620168924331665,-0.2649821937084198
0.19914603233337402,0.1073465347290039,0.24933531880378723,-0.21768534183502197,-0.09634897673595666,-1.500746337198412,1.619170775418061,-0.9929209351539612,0.09619997441768646,-0.06966809183359146,-0.849079430103302,-0.29105937480926514,-0.1892431378364563
0.22008013725280762,0.07451409101486206,0.28271666169166565,-0.26912057399749756,-0.09368677383569259,-1.5080886055211167,1.6029106068215782,-0.993657648563385,0.09354978054761887,-0.06239181011915207,-0.6839327216148376,-0.2942560315132141,-0.18654899299144745
0.23996901512145996,0.05434751510620117,0.35142016410827637,-0.3234992027282715,-0.09084336868122185,-1.5145940571948038,1.593179502178733,-0.9943041801452637,0.09071847051382065,-0.05594106391072273,-0.2391059845685959,-0.2634851932525635,-0.14519263803958893
0.2600209712982178,0.0610959529876709,0.34765827655792236,-0.35066550970077515,-0.08905910829914347,-1.519671557510084,1.5930844656969045,-0.9947354793548584,0.08894142508506775,-0.05089997500181198,0.21280772984027863,-0.2505732774734497,-0.0277849193662405
0.27958202362060547,0.0666583776473999,0.294212281703949,-0.35942476987838745,-0.08945188550725579,-1.5236738550588391,1.6004361669908729,-0.9948963522911072,0.08933264017105103,-0.04691670462489128,0.5037519931793213,-0.21415109932422638,0.09339884668588638
0.3000061511993408,0.0676310658454895,0.28131741285324097,-0.3684094548225403,-0.09110779107787266,-1.526532260426047,1.6135759532187623,-0.9948771595954895,0.09098180383443832,-0.04406609386205673,0.8317132592201233,-0.17927327752113342,0.10890962183475494
0.32187795639038086,0.07138866186141968,0.27018028497695923,-0.37356656789779663,-0.09199473175406427,-1.527786026687994,1.6345359854231725,-0.9948505163192749,0.09186502546072006,-0.04281522333621979,1.2526527643203735,-0.14899322390556335,0.06771111488342285
0.34232211112976074,0.08537536859512329,0.22985883057117462,-0.34662294387817383,-0.09172665529536579,-1.5274377332286406,1.6627560015941607,-0.9948602318763733,0.09159807860851288,-0.043162792921066284,1.5206305980682373,-0.0771619975566864,0.03212806209921837
0.3599851131439209,0.09773373603820801,0.1435007005929947,-0.30730289220809937,-0.09155147756027106,-1.5256611175512216,1.6931446662692677,-0.9947978854179382,0.0914236381649971,-0.044930923730134964,1.4418342113494873,-0.02869299426674843,0.0924459919333458
0.3799588680267334,0.10269612073898315,0.10208393633365631,-0.27377569675445557,-0.09301168990220526,-1.523350144908454,1.7186716865784144,-0.9945570826530457,0.09287764132022858,-0.04722337797284126,1.0982695817947388,0.013658636249601841,0.16422508656978607
0.4000418186187744,0.09457528591156006,0.11769775301218033,-0.24950850009918213,-0.09596572979277712,-1.5208447593114083,1.7379752019859132,-0.9941573143005371,0.09581849724054337,-0.049701061099767685,0.8426540493965149,0.0651862770318985,0.22878216207027435
0.4200119972229004,0.07143789529800415,0.16060277819633484,-0.23578327894210815,-0.10047621327761833,-1.5171753803646524,1.7542706621197564,-0.9935264587402344,0.10030724108219147,-0.05332494527101517,0.7860760688781738,0.13520725071430206,0.30079442262649536
0.43975400924682617,0.035272836685180664,0.197922021150589,-0.21943587064743042,-0.10603328276848352,-1.5120827388850684,1.7709987534452618,-0.9926702380180359,0.1058347076177597,-0.05835029482841492,0.846343457698822,0.20865315198898315,0.3502958118915558
0.460007905960083,0.014851272106170654,0.20021018385887146,-0.18151015043258667,-0.11263463245958946,-1.505816621854984,1.788811072553136,-0.9915663003921509,0.11239662766456604,-0.06452252715826035,0.8909638524055481,0.20102879405021667,0.4297635555267334
0.4800078868865967,-0.03988927602767944,0.20229442417621613,-0.18212807178497314,-0.12086033208862744,-1.4999686577610063,1.8087022536775568,-0.9902164340019226,0.12056630849838257,-0.07025223970413208,1.0629937648773193,0.1576099395751953,0.5209346413612366
0.5000178813934326,-0.11166900396347046,0.22207646071910858,-0.17196130752563477,-0.12978910624501036,-1.4934806010292898,1.8333889071680585,-0.9886268973350525,0.1294250190258026,-0.07658907771110535,1.3039480447769165,0.1964634209871292,0.5353482961654663
0.5200908184051514,-0.12172096967697144,0.22469377517700195,-0.11655550450086594,-0.13820300270127786,-1.4858178240230893,1.8618866022894687,-0.9868910908699036,0.13776347041130066,-0.0840669795870781,1.442520260810852,0.13591593503952026,0.5589575171470642
0.5400559902191162,-0.15411323308944702,0.24491150677204132,-0.09415333718061447,-0.1472058812483115,-1.4801460079790905,1.8943122487875927,-0.9851231575012207,0.14667481184005737,-0.08954714983701706,1.7036080360412598,-0.009761114604771137,0.6099689602851868
0.5601370334625244,-0.2653953433036804,0.3009204864501953,-0.07013678550720215,-0.155377146804084,-1.4747437128121528,1.9332007022341966,-0.9833992123603821,0.154752716422081,-0.09474963694810867,2.084242105484009,-0.022091638296842575,0.5341536998748779
0.5800621509552002,-0.3300079107284546,0.3056136965751648,-0.0647156834602356,-0.1603744359288324,-1.4668176398801507,1.9804382010024546,-0.9818359613418579,0.1596878468990326,-0.10245953500270844,2.48688006401062,0.07006926834583282,0.4379887580871582
0.5999879837036133,-0.22666007280349731,0.2736188769340515,-0.021935462951660156,-0.16347919300485647,-1.4558638963738597,2.033076317541615,-0.9801576137542725,0.16275198757648468,-0.11315055191516876,2.59635066986084,0.1755782961845398,0.45196205377578735
0.619966983795166,-0.048052310943603516,0.1871328055858612,0.035335198044776917,-0.16864597515496102,-1.442691947296593,2.0856383561859966,-0.9777349829673767,0.16784769296646118,-0.12594182789325714,2.553483486175537,0.20857129991054535,0.6885173320770264
0.6399469375610352,0.0635061264038086,0.18305295705795288,0.07680056989192963,-0.17667517500846303,-1.429395918653374,2.137899126955018,-0.9746085405349731,0.1757574826478958,-0.13873592019081116,2.3994479179382324,0.2007938027381897,0.7535214424133301
0.6597721576690674,0.10766243934631348,0.13108327984809875,0.09036719799041748,-0.1871925368320189,-1.4162585673596624,2.186817697213725,-0.9708216786384583,0.18610121309757233,-0.1512344479560852,2.10904860496521,0.1581047624349594,1.0197627544403076
0.6799638271331787,0.08213865756988525,0.1311081349849701,0.11157900094985962,-0.20189520457432406,-1.404586074056526,2.229726722984046,-0.9661871194839478,0.2005264014005661,-0.16208554804325104,1.9162689447402954,0.18727019429206848,1.0436817407608032
0.7000248432159424,0.02791053056716919,0.1922055035829544,0.09245216846466064,-0.21418298937512212,-1.3907304055350407,2.2738099859034437,-0.9613516926765442,0.2125491499900818,-0.17500218749046326,2.1466636657714844,0.27969253063201904,0.9004274010658264
0.7199490070343018,0.058114707469940186,0.1918002814054489,0.1334051489830017,-0.22242862475699704,-1.3741537293246717,2.3213897841339777,-0.9565674662590027,0.22059907019138336,-0.19056454300880432,2.2230775356292725,0.33350738883018494,0.7927069664001465
0.7399439811706543,0.09595298767089844,0.1432124674320221,0.2008061408996582,-0.22852237870856743,-1.3568130358057116,2.3668132596815465,-0.9517879486083984,0.22653856873512268,-0.20683328807353973,1.9517385959625244,0.39336174726486206,0.6992987990379333
0.760077953338623,0.09409642219543457,0.12128464877605438,0.24580717086791992,-0.23352369811661802,-1.339184865518371,2.404584402583764,-0.9468796253204346,0.23140700161457062,-0.22331570088863373,1.5276849269866943,0.49865347146987915,0.60854572057724
0.780048131942749,0.09283995628356934,0.1459442377090454,0.2670995593070984,-0.23925106464256712,-1.3219047830336794,2.432910821052198,-0.9415795207023621,0.23697508871555328,-0.2393132895231247,1.0264180898666382,0.5372622013092041,0.5837135910987854
0.7999589443206787,0.0774572491645813,0.18071188032627106,0.27077940106391907,-0.24634812574153617,-1.305282540604282,2.453685295379214,-0.9358253479003906,0.24386397004127502,-0.2544829547405243,0.7651503682136536,0.5836775898933411,0.6241813898086548
0.8200161457061768,0.07358723878860474,0.18499085307121277,0.2861253023147583,-0.2557141856043234,-1.2897100349697488,2.470283299064466,-0.9295138120651245,0.2529364228248596,-0.268379271030426,0.546680212020874,0.5609058737754822,0.7005602121353149
0.8400208950042725,0.06766992807388306,0.18244856595993042,0.3178348243236542,-0.2668118807492802,-1.2751202772892298,2.4836333882481467,-0.9227573275566101,0.26365748047828674,-0.2810763418674469,0.39097538590431213,0.5455743074417114,0.7221994400024414
0.8599798679351807,0.07236886024475098,0.1936885118484497,0.33429381251335144,-0.27839973101768517,-1.2616673204990396,2.4955806560396274,-0.9159204363822937,0.2748173475265503,-0.2925151288509369,0.38580888509750366,0.4726952016353607,0.7235418558120728
0.8800151348114014,0.06447184085845947,0.20204594731330872,0.3289889395236969,-0.2893241366283192,-1.249923676310203,2.508952293108992,-0.909518837928772,0.2853045165538788,-0.3022859990596771,0.5220094919204712,0.3149280250072479,0.7111549377441406
0.9000880718231201,0.04358619451522827,0.20667949318885803,0.3233056664466858,-0.29844851925102683,-1.2400291483915589,2.526255359774796,-0.9039835333824158,0.29403766989707947,-0.3104119300842285,0.7456404566764832,0.17708227038383484,0.6869252324104309
0.9200279712677002,0.01825815439224243,0.19589269161224365,0.34438809752464294,-0.30615139440674904,-1.2316675384661566,2.5470043945620904,-0.8991938233375549,0.30139124393463135,-0.31719687581062317,0.8631203174591064,0.057414282113313675,0.6984362602233887
0.9400370121002197,-0.014441251754760742,0.16766899824142456,0.3426095247268677,-0.3133878216990284,-1.224335119359047,2.5699373185027174,-0.894769012928009,0.3082832098007202,-0.3230324685573578,0.9435418248176575,-0.011006142012774944,0.7240635752677917
0.9599740505218506,-0.027261435985565186,0.14417806267738342,0.3382883071899414,-0.3208475157256099,-1.2174959636070517,2.5939695540425376,-0.8903563618659973,0.31537094712257385,-0.32833951711654663,0.9394826292991638,-0.06585465371608734,0.7576479315757751
0.9800209999084473,-0.02679961919784546,0.1082351803779602,0.3388848304748535,-0.3290842543346382,-1.211944027525607,2.6181363119528274,-0.8860574960708618,0.3231765627861023,-0.3323540687561035,0.9324382543563843,-0.15078268945217133,0.8161584734916687
1.0000078678131104,-0.05771136283874512,0.08610963821411133,0.3117407262325287,-0.3380310891456872,-1.2071805670939932,2.6431079252981364,-0.8817264437675476,0.33163025975227356,-0.3355291187763214,0.9726090431213379,-0.18826986849308014,0.8436939120292664
1.020028829574585,-0.07946723699569702,0.07176238298416138,0.2831173539161682,-0.34639358400296527,-1.2025152415520834,2.6697598060852474,-0.8775335550308228,0.3395078182220459,-0.33862876892089844,1.0825960636138916,-0.246587336063385,0.8411101698875427
1.040013074874878,-0.10440361499786377,0.06417080760002136,0.2556415796279907,-0.3538582201122745,-1.1986632318560133,2.698884562583489,-0.873837411403656,0.3465195596218109,-0.34107550978660583,1.2136147022247314,-0.372676819562912,0.8516930341720581
1.060006856918335,-0.1950395703315735,0.04571866989135742,0.25708842277526855,-0.3609317700956354,-1.1977738961560624,2.7303302535059375,-0.871229350566864,0.35314610600471497,-0.34095069766044617,1.2499430179595947,-0.6970929503440857,0.8823314905166626
1.0800578594207764,-0.5010731816291809,0.045858800411224365,0.2902536988258362,-0.36793493334333577,-1.2027014507883274,2.7600755374107817,-0.8705698847770691,0.3596893548965454,-0.3357553482055664,1.0491796731948853,-0.6852669715881348,0.7076361775398254
1.1000111103057861,-0.7682531476020813,0.0053053200244903564,0.36525383591651917,-0.3715467707679884,-1.2023330238692416,2.7786623871718152,-0.8692284822463989,0.36305710673332214,-0.3356059491634369,0.36487704515457153,0.06551064550876617,0.27498486638069153
1.120131015777588,-0.33953750133514404,-0.1587289273738861,0.3538103401660919,-0.3777469695866989,-1.194885726736764,2.7785984614388233,-0.8645945191383362,0.368827223777771,-0.34123700857162476,-0.5866379141807556,0.5869080424308777,0.3848229646682739
1.1400411128997803,0.13935142755508423,-0.21845883131027222,0.2155030369758606,-0.3958950608334251,-1.189196840214905,2.7657114227667656,-0.8562856316566467,0.385634183883667,-0.3436005115509033,-1.0446406602859497,0.2834256589412689,0.8436329364776611
1.1600348949432373,0.3651370406150818,-0.16787096858024597,0.05620598793029785,-0.4205616787307243,-1.1965652112362233,2.757354292570053,-0.8496798872947693,0.40827324986457825,-0.33370229601860046,-0.4495956599712372,-0.7136461138725281,1.1374714374542236
1.1800048351287842,0.2907784581184387,-0.10075125098228455,-0.0070600807666778564,-0.4428937787038632,-1.213606820567501,2.769828042547689,-0.8464882373809814,0.42855581641197205,-0.31590735912323,0.7084958553314209,-1.4176174402236938,1.331115961074829
1.2000179290771484,-0.04446321725845337,-0.14771625399589539,0.02148723602294922,-0.45921942379625824,-1.2282850180829301,2.8022008032812407,-0.8443307876586914,0.44324854016304016,-0.3010587692260742,1.3778233528137207,-1.3341511487960815,1.1011029481887817
1.2200090885162354,-0.3334193825721741,-0.20201995968818665,0.08796438574790955,-0.4648420736738632,-1.2313314171004979,2.840063233010836,-0.8428807258605957,0.4482816457748413,-0.29765063524246216,1.5640121698379517,-0.6382521986961365,0.5793350338935852
1.2399640083312988,-0.2892153263092041,-0.27047058939933777,0.144370436668396,-0.46316955454997255,-1.2243173079421763,2.873774899830114,-0.8414762020111084,0.44678595662117004,-0.3038094937801361,1.2493315935134888,-0.29190313816070557,0.313462495803833
1.2600338459014893,-0.13098204135894775,-0.3774452805519104,0.13915976881980896,-0.461459426206808,-1.2225132923629385,2.894821721249078,-0.8416436314582825,0.4452553689479828,-0.3055873215198517,0.587921142578125,-0.4948805570602417,0.1732538789510727
1.280012845993042,-0.11755901575088501,-0.3921947777271271,0.0435253381729126,-0.461333751202826,-1.2300942621207864,2.902338539112787,-0.843988835811615,0.44514283537864685,-0.2992168366909027,0.08678178489208221,-0.5577164888381958,0.027193710207939148
1.3001289367675781,-0.10068517923355103,-0.29472148418426514,-0.04723292589187622,-0.4594600021897409,-1.2415080609445668,2.9009651170446347,-0.8481369018554688,0.4434641897678375,-0.289833664894104,-0.03770624101161957,-0.5575324296951294,-0.2558428645133972
1.3200609683990479,-0.011934876441955566,-0.20250362157821655,-0.14301583170890808,-0.4520239557412688,-1.2533793452410762,2.9018397064869963,-0.8546268939971924,0.43678709864616394,-0.28076645731925964,0.4261332154273987,-0.6588745713233948,-0.3798300325870514
1.340034008026123,0.01825946569442749,-0.1321018636226654,-0.1705254316329956,-0.4405914133294078,-1.259301049905159,2.9162417433471135,-0.8609718680381775,0.4264744818210602,-0.2772131562232971,1.1154108047485352,-0.49831491708755493,-0.2891308665275574
1.3600490093231201,0.0014017224311828613,-0.12601196765899658,-0.2015494704246521,-0.42737067725709665,-1.2579593168087964,2.9396729415084697,-0.8658884167671204,0.41447940468788147,-0.2800789475440979,1.1875718832015991,-0.4067934453487396,-0.3569294810295105
1.3800139427185059,0.03566378355026245,-0.17157521843910217,-0.22828391194343567,-0.4153651425847744,-1.2587849091853034,2.9525482407638295,-0.8707925081253052,0.4035240411758423,-0.28087130188941956,0.08140432089567184,-0.1165967509150505,-0.2412118762731552
1.400015115737915,0.0719488263130188,-0.2189880907535553,-0.3038519024848938,-0.41782223383371325,-1.264435704602792,2.9399033211501715,-0.8714178204536438,0.4057709872722626,-0.27564629912376404,-0.9469945430755615,0.03376922756433487,0.024737222120165825
1.4200141429901123,0.045862674713134766,0.05446377396583557,-0.4596940279006958,-0.4204458303481972,-1.2727548449733588,2.9167463743152755,-0.8726601600646973,0.4081674814224243,-0.2680738866329193,-0.994876503944397,0.034560009837150574,-0.4224531054496765
1.4401979446411133,0.06738388538360596,0.1882668137550354,-0.47162172198295593,-0.4140046165404009,-1.2804509939924968,2.898794552913019,-0.8771982789039612,0.4022788405418396,-0.2620971202850342,-0.36380696296691895,-0.10096088796854019,-0.6156601309776306
1.460103988647461,0.14424854516983032,0.043793678283691406,-0.34781792759895325,-0.40228758283317223,-1.2879823656973313,2.894064483112274,-0.883613109588623,0.3915243148803711,-0.2567810118198395,0.2965305745601654,-0.5274102687835693,-0.6338441967964172
1.4800069332122803,0.20318186283111572,0.09993425011634827,-0.2788032293319702,-0.38649980236109277,-1.2992695264055925,2.904829251581242,-0.8922993540763855,0.3769487142562866,-0.2484184354543686,1.117510199546814,-0.9797471165657043,-0.6120269894599915
1.5000078678131104,0.17737466096878052,0.1935405135154724,-0.26998281478881836,-0.3651160161017033,-1.310915442728814,2.9353164362239204,-0.9027165174484253,0.3570576608181,-0.24002690613269806,2.2331342697143555,-1.2760591506958008,-0.7290056347846985
1.5200068950653076,0.1881939172744751,0.21011286973953247,-0.20444777607917786,-0.33776144865511376,-1.3193348219281185,2.987583425837408,-0.9138257503509521,0.3313758671283722,-0.23476119339466095,3.138446569442749,-1.3478367328643799,-0.6277441382408142
1.5400431156158447,0.22907406091690063,0.17311257123947144,-0.10226820409297943,-0.3113874269333029,-1.3250852031193063,3.05260852581927,-0.9233183860778809,0.30637964606285095,-0.23154829442501068,3.4018125534057617,-1.2806109189987183,-0.4148190915584564
1.5600090026855469,0.22449326515197754,0.16289451718330383,-0.06792221963405609,-0.2890826268001306,-1.3301412244483612,3.1183008623640105,-0.9308835864067078,0.28507304191589355,-0.22844921052455902,3.1875569820404053,-1.1708767414093018,-0.25334879755973816
1.5800058841705322,0.16977620124816895,0.16157636046409607,-0.04775850474834442,-0.27159025285014937,-1.3359945229861858,-3.106561730776549,-0.9369118213653564,0.26826372742652893,-0.2241225689649582,2.649749279022217,-1.04048752784729,-0.12774544954299927
1.600024938583374,0.09090203046798706,0.14778479933738708,-0.034654855728149414,-0.2589698213647286,-1.3435785504888633,-3.0590675241665353,-0.9418084025382996,0.2560848593711853,-0.2177560031414032,2.1618998050689697,-0.9545271992683411,-0.05070595070719719
1.6200659275054932,0.015127122402191162,0.20680098235607147,-0.04657581448554993,-0.24992489153699307,-1.351231131024894,-3.0181047517176554,-0.9456692337989807,0.2473311871290207,-0.21103830635547638,1.9496275186538696,-0.857755720615387,0.053825557231903076
1.6400070190429688,-0.015982985496520996,0.25489217042922974,-0.03259734809398651,-0.24355663901802957,-1.3586211623888216,-2.9789551616367342,-0.9487234354019165,0.24115581810474396,-0.2043716162443161,1.9353358745574951,-0.8532950282096863,0.14233525097370148
1.6600158214569092,-0.0333935022354126,0.2738112211227417,-0.010134369134902954,-0.23915863159917425,-1.366107964104496,-2.9378972617241077,-0.951256275177002,0.23688529431819916,-0.19747674465179443,2.0832064151763916,-0.8665557503700256,0.24595694243907928
1.6800158023834229,-0.03925669193267822,0.2852672338485718,0.009404301643371582,-0.23588081856293505,-1.3724795479496343,-2.892422008522649,-0.9532512426376343,0.2336995005607605,-0.1915636956691742,2.342792272567749,-0.8503984212875366,0.31302395462989807
1.700089931488037,-7.444620132446289e-05,0.2789479196071625,0.039691388607025146,-0.23310623826330273,-1.377267057143793,-2.8408695489789006,-0.9547900557518005,0.2310008555650711,-0.18712180852890015,2.6472482681274414,-0.8397063612937927,0.4034936726093292
1.7200348377227783,0.03370171785354614,0.2687368392944336,0.07674729824066162,-0.231541271419084,-1.3810845131231164,-2.782965805931271,-0.9558513760566711,0.22947794198989868,-0.18354354798793793,2.926137685775757,-0.8851417899131775,0.507439911365509
1.7400050163269043,0.008433699607849121,0.26376545429229736,0.10060369968414307,-0.2305976850093387,-1.3845341788336167,-2.7196930502144836,-0.9566912055015564,0.2285594344139099,-0.18028511106967926,3.1537363529205322,-0.9017941951751709,0.5404713749885559
1.7600159645080566,-0.04651612043380737,0.2610667943954468,0.13088776171207428,-0.22924771764886764,-1.3865752750675897,-2.652730822188433,-0.9573596119880676,0.22724498808383942,-0.17838838696479797,3.281096935272217,-0.8218488097190857,0.5237131714820862
1.7800548076629639,-0.07849794626235962,0.24214935302734375,0.17402847111225128,-0.2273330049501947,-1.3864149142284448,-2.5855197537249137,-0.9577568173408508,0.22537995874881744,-0.1786213219165802,3.172353744506836,-0.6932271122932434,0.4872937798500061
1.8000061511993408,-0.088478684425354,0.21544018387794495,0.22755350172519684,-0.22546046928639848,-1.385208213646674,-2.5231936396386225,-0.9579538106918335,0.22355520725250244,-0.17985449731349945,2.816906690597534,-0.5792556405067444,0.44825464487075806
1.820007085800171,-0.11718481779098511,0.1903989315032959,0.2696772813796997,-0.22410033577017932,-1.3826126984604206,-2.4690663745454593,-0.9577816128730774,0.22222928702831268,-0.1823970079421997,2.418459415435791,-0.3542960584163666,0.4003860056400299
1.8400049209594727,-0.1091986894607544,0.18482528626918793,0.2850341200828552,-0.22315007248369362,-1.3768301380952515,-2.422362019349797,-0.9569176435470581,0.22130268812179565,-0.18797296285629272,2.0975828170776367,-0.1279715597629547,0.37304022908210754
1.8600060939788818,-0.07175463438034058,0.19751717150211334,0.289153516292572,-0.22277807813361097,-1.3700982567573483,-2.381427375605399,-0.9557111859321594,0.22093988955020905,-0.19442692399024963,1.8238602876663208,-0.1403101533651352,0.36544784903526306
1.8800280094146729,-0.10738879442214966,0.2192811220884323,0.3143685460090637,-0.2225696580162215,-1.3647327490255432,-2.3466329969070516,-0.9546992182731628,0.22073662281036377,-0.19956137239933014,1.5040658712387085,-0.04413222521543503,0.2908415198326111
1.9000170230865479,-0.11600226163864136,0.19713060557842255,0.3582954406738281,-0.22218881745961125,-1.3567885565441609,-2.3191389823792807,-0.9531658291816711,0.22036516666412354,-0.20715714991092682,1.12807035446167,0.2178218811750412,0.24639113247394562
1.9200150966644287,-0.001267552375793457,0.17529447376728058,0.37748247385025024,-0.22395768669358268,-1.3466575385688362,-2.2992484018866803,-0.9506367444992065,0.2220901995897293,-0.21671591699123383,0.7490805983543396,0.30742892622947693,0.3652229607105255
1.9401049613952637,0.09672123193740845,0.17595522105693817,0.3542054295539856,-0.23010760877453976,-1.3382962504952294,-2.283948820743902,-0.947444498538971,0.2280822992324829,-0.2243378609418869,0.6289350986480713,0.14528262615203857,0.5645685791969299
1.9600508213043213,0.09531867504119873,0.1995854377746582,0.3096669316291809,-0.23946422500587808,-1.3335642503006333,-2.2666890164934452,-0.9442566633224487,0.23718217015266418,-0.2283070981502533,0.8302432298660278,-0.06556534767150879,0.7149516344070435
1.980017900466919,0.03119349479675293,0.2198217809200287,0.2896674871444702,-0.24895910431961826,-1.3299557712138173,-2.2430241499498207,-0.9411971569061279,0.2463952898979187,-0.23116534948349,1.1878604888916016,-0.14013004302978516,0.7310277223587036
2.000005006790161,0.0017230510711669922,0.21949663758277893,0.2974453568458557,-0.2562445739953371,-1.3256623641481806,-2.2124351384260055,-0.938429594039917,0.25344952940940857,-0.2347622513771057,1.5047335624694824,-0.19455653429031372,0.6935568451881409
2.020051956176758,0.01618272066116333,0.19295459985733032,0.30808398127555847,-0.2617450869715899,-1.3213510340607517,-2.176690491359916,-0.9360435009002686,0.2587665915489197,-0.23845814168453217,1.6897728443145752,-0.30352768301963806,0.6951441764831543
2.0400989055633545,0.014785051345825195,0.16145175695419312,0.31219470500946045,-0.2671922213897306,-1.3191066878502453,-2.139047760661533,-0.9341270327568054,0.2640243470668793,-0.24020376801490784,1.6968140602111816,-0.4475739598274231,0.721387505531311
2.0600099563598633,-0.031848132610321045,0.14906606078147888,0.30103743076324463,-0.2724436875752422,-1.318261775875616,-2.10121753196369,-0.9325682520866394,0.2690857946872711,-0.24064315855503082,1.7124804258346558,-0.47279447317123413,0.6926881670951843
2.080008029937744,-0.04722803831100464,0.15116837620735168,0.28993064165115356,-0.27688611137330005,-1.317723903207408,-2.0629842113273886,-0.9312723278999329,0.2733616828918457,-0.24084308743476868,1.7504857778549194,-0.5254506468772888,0.6595464944839478
2.1000568866729736,-0.0378650426864624,0.1426616907119751,0.28040122985839844,-0.2807825066821749,-1.318591828101711,-2.0241978964264034,-0.9304423928260803,0.2771075963973999,-0.23976707458496094,1.8034636974334717,-0.6376037001609802,0.6434628367424011
2.120007038116455,-0.051509857177734375,0.15365928411483765,0.2834533452987671,-0.283137797581017,-1.3192524912711339,-1.979996975971858,-0.9299659132957458,0.27936989068984985,-0.2389892190694809,2.3861584663391113,-0.6343579292297363,0.649569034576416
2.1400930881500244,-0.07339423894882202,0.23511645197868347,0.238888680934906,-0.28178132896441055,-1.3149981944823899,-1.9188339832288752,-0.9293065667152405,0.2780671715736389,-0.2430390566587448,3.2941319942474365,-0.6887415051460266,0.6769697070121765
2.1600680351257324,-0.049600839614868164,0.19167789816856384,0.2790972590446472,-0.27682528995928396,-1.3106268013862692,-1.8466736017418741,-0.9295556545257568,0.27330318093299866,-0.2474505752325058,3.404320240020752,-0.8725224137306213,0.615422248840332
2.1800079345703125,-0.028307616710662842,0.021567970514297485,0.3479805886745453,-0.2733107143469788,-1.3114918442065693,-1.781131990862886,-0.9306921362876892,0.2699207365512848,-0.24689115583896637,2.733288288116455,-0.9748773574829102,0.6886081099510193
2.2000060081481934,-0.0384257435798645,-0.047907352447509766,0.33402252197265625,-0.2755955161831767,-1.3172516544233799,-1.7289503636551464,-0.931499183177948,0.27212002873420715,-0.24137113988399506,2.160874366760254,-1.0179380178451538,0.7996882796287537
2.2199981212615967,-0.057491183280944824,0.01858237385749817,0.2617132067680359,-0.2805866152445461,-1.3250578440159595,-1.6827390400131892,-0.9320260286331177,0.2769193649291992,-0.2337590754032135,2.100064516067505,-1.035868763923645,0.759151041507721
2.239971876144409,-0.03911566734313965,0.05548018217086792,0.2317928671836853,-0.2841751698311869,-1.3330134745396345,-1.6357793005079029,-0.9328844547271729,0.28036579489707947,-0.22610138356685638,2.1958158016204834,-1.076235294342041,0.6784026622772217
2.2600560188293457,-0.01918894052505493,-0.01110944151878357,0.2541196942329407,-0.28708569731572897,-1.3413399463358449,-1.5887436149487657,-0.9339360594749451,0.28315839171409607,-0.21813945472240448,2.1005239486694336,-1.0570026636123657,0.6502813100814819
2.2800090312957764,-0.02996218204498291,-0.07249009609222412,0.2685146927833557,-0.290566050547279,-1.3487559980156836,-1.5455682389336995,-0.9345611333847046,0.28649458289146423,-0.2109890878200531,1.8710745573043823,-0.9162701964378357,0.609028697013855
2.3000338077545166,-0.01711893081665039,-0.09363779425621033,0.2520213723182678,-0.2942939429357696,-1.3544307849886945,-1.5069024257616115,-0.9346938133239746,0.2900642156600952,-0.2054515928030014,1.6764733791351318,-0.7869715690612793,0.5582126379013062
2.3200438022613525,0.017805635929107666,-0.10343793034553528,0.23204338550567627,-0.2979673094060492,-1.359807786269895,-1.4719040383776079,-0.9347367882728577,0.2935777008533478,-0.20019829273223877,1.5274544954299927,-0.7961480021476746,0.5098040699958801
2.3400380611419678,0.01091986894607544,-0.11556637287139893,0.2096869945526123,-0.3013666343124073,-1.366476430298889,-1.4393812938651531,-0.9350684285163879,0.2968255281448364,-0.1937568485736847,1.462052583694458,-0.8042500615119934,0.4653245508670807
2.3600080013275146,-0.034732043743133545,-0.11399111151695251,0.19420963525772095,-0.30417639409636454,-1.3722251166649704,-1.40827097461591,-0.935345470905304,0.2995074689388275,-0.18821299076080322,1.3897078037261963,-0.7021970748901367,0.39790329337120056
2.38002610206604,-0.07012498378753662,-0.11908659338951111,0.19870613515377045,-0.30619116172407995,-1.3767691690922494,-1.379919663488731,-0.9355971813201904,0.3014291524887085,-0.18384410440921783,1.1908859014511108,-0.6008419990539551,0.3350386619567871
2.400015115737915,-0.10288506746292114,-0.15229067206382751,0.23139095306396484,-0.3085615055042468,-1.3808952838990554,-1.3586028438880078,-0.9356434345245361,0.3036884069442749,-0.17984677851200104,0.7219637632369995,-0.4140603840351105,0.2944033443927765
2.42000412940979,-0.11522960662841797,-0.21699073910713196,0.2656949758529663,-0.31298775948421353,-1.3832971814073471,-1.3480298604050853,-0.9347429275512695,0.30790260434150696,-0.17734666168689728,0.19456836581230164,-0.15145735442638397,0.3521333634853363
2.4404428005218506,-0.049754559993743896,-0.2550133168697357,0.2508302927017212,-0.3216580878659373,-1.3840031689927819,-1.3471942185892123,-0.9322095513343811,0.3161400556564331,-0.1761842668056488,-0.26187488436698914,-0.00872816238552332,0.5233697295188904
2.460437059402466,0.011379241943359375,-0.2684735059738159,0.19433969259262085,-0.3347166801047793,-1.3872072107783848,-1.3534105790989739,-0.9286308884620667,0.3285015821456909,-0.17242811620235443,-0.522162675857544,-0.10065426677465439,0.623049259185791
2.480109930038452,0.004656970500946045,-0.3193153738975525,0.14913694560527802,-0.3486602689785682,-1.3929427161561443,-1.3624721752571718,-0.9250062108039856,0.34163898229599,-0.1662725806236267,-0.5467405319213867,-0.16627837717533112,0.5924638509750366
2.500092029571533,-0.035976946353912354,-0.3744417130947113,0.14235316216945648,-0.3623450785147619,-1.399543528102791,-1.3724286574373934,-0.9213901162147522,0.3544680178165436,-0.15935148298740387,-0.6176102757453918,-0.14836230874061584,0.60636305809021
2.5201518535614014,-0.09762167930603027,-0.36232152581214905,0.13440996408462524,-0.37554230974464325,-1.4055562747508823,-1.3836830454224003,-0.9176371097564697,0.36677709221839905,-0.15302568674087524,-0.6340378522872925,-0.03485395014286041,0.49911487102508545
2.5400660037994385,-0.1633874773979187,-0.3195060193538666,0.10130542516708374,-0.3851729384487366,-1.4099280810535955,-1.3954850231766525,-0.9147680401802063,0.3757193982601166,-0.14843980967998505,-0.5912103652954102,0.05307359993457794,0.2595503032207489
2.560011148452759,-0.2050570845603943,-0.2821599841117859,0.04984581470489502,-0.3898451041016216,-1.4130846032770563,-1.4064036595625495,-0.913488507270813,0.3800451457500458,-0.1452743113040924,-0.4806250333786011,-0.007372702471911907,0.06138770654797554
2.5800230503082275,-0.2877066731452942,-0.2545062303543091,0.01442025601863861,-0.39142411403536087,-1.4180379099333873,-1.4155218157696003,-0.9136026501655579,0.38150519132614136,-0.1406562775373459,-0.38852548599243164,-0.10241949558258057,-0.038187336176633835
2.6001949310302734,-0.4265132546424866,-0.2196711301803589,0.02824944257736206,-0.39086363847449856,-1.4218075910408334,-1.4243765198393101,-0.9143375754356384,0.3809870481491089,-0.13724298775196075,-0.46397969126701355,0.07703849673271179,-0.15108110010623932
2.6200201511383057,-0.465684175491333,-0.19278305768966675,0.04379849135875702,-0.38789265486952684,-1.423123389711343,-1.437728593956746,-0.9156330823898315,0.3782384693622589,-0.1362057626247406,-0.7259387373924255,0.30354177951812744,-0.30851471424102783
2.6399948596954346,-0.34089046716690063,-0.17043107748031616,-0.021102488040924072,-0.3843535112256479,-1.4236925178300857,-1.4566841285702579,-0.9170288443565369,0.37495988607406616,-0.1358799785375595,-0.941586971282959,0.33952009677886963,-0.28169897198677063
2.6684610843658447,-0.061728060245513916,-0.10822239518165588,-0.1787489503622055,-0.3814762302689422,-1.4265812519407775,-1.4976851954180723,-0.9184812307357788,0.3722909986972809,-0.1333848387002945,-0.8201135396957397,0.2968302369117737,-0.1295585036277771
2.687340021133423,0.0263863205909729,-0.10931730270385742,-0.15525425970554352,-0.38135718303104565,-1.427705312719394,-1.515914301003327,-0.918674647808075,0.3721804916858673,-0.13235867023468018,-0.8830880522727966,0.2880071997642517,-0.11903465539216995
2.708441972732544,0.053707122802734375,-0.14156097173690796,-0.1319761723279953,-0.3821812436128125,-1.4291436386337384,-1.536430510038547,-0.9185600280761719,0.37294521927833557,-0.1309938281774521,-1.0217472314834595,0.35705530643463135,-0.04823607951402664
2.728247880935669,0.03527212142944336,-0.1507491171360016,-0.11739039421081543,-0.3855244852179082,-1.4285701437547265,-1.560560275715299,-0.9172454476356506,0.3760451674461365,-0.13134312629699707,-1.304621696472168,0.6332454681396484,0.07550007849931717
2.748173952102661,0.01707327365875244,-0.08350065350532532,-0.1337990164756775,-0.39438030686037373,-1.4223744333094117,-1.5942612185253018,-0.9130846261978149,0.3842361271381378,-0.1365257352590561,-1.97251558303833,1.2039862871170044,0.30923929810523987
2.767954111099243,0.0011796951293945312,-0.0072179436683654785,-0.222259521484375,-0.40698679751643946,-1.4153596731076519,-1.6424493741091566,-0.9072466492652893,0.395844042301178,-0.1421661674976349,-2.5359835624694824,1.3335344791412354,0.20457682013511658
2.788084030151367,0.016087770462036133,0.08964735269546509,-0.2763311266899109,-0.41689185964158,-1.410246133252294,-1.6955599969594963,-0.9025927782058716,0.4049204885959625,-0.146169513463974,-2.3416337966918945,1.2648407220840454,0.013832508586347103
2.807974100112915,0.03650963306427002,0.11529183387756348,-0.2697716951370239,-0.4216591201189204,-1.404886705714417,-1.7415190614561147,-0.8998823761940002,0.4092748165130615,-0.15068426728248596,-1.881453514099121,1.158553123474121,-0.1947888731956482
2.828015089035034,0.07774484157562256,0.050258636474609375,-0.18202412128448486,-0.4229809565081938,-1.3981728285889377,-1.779221373507541,-0.8983167409896851,0.4104805290699005,-0.15662947297096252,-1.5576545000076294,1.0736433267593384,-0.2185591459274292
2.848172903060913,0.10391372442245483,0.018553197383880615,-0.12585444748401642,-0.4237818418195351,-1.3914086805822188,-1.8111816327311678,-0.8969131112098694,0.41121068596839905,-0.16264350712299347,-1.3703192472457886,0.9129838943481445,-0.23402181267738342
2.867708921432495,0.09035348892211914,-0.029607832431793213,-0.0641026645898819,-0.42341830158697336,-1.3866571555004257,-1.8402259652195263,-0.8962770700454712,0.4108792841434479,-0.16693070530891418,-1.2723346948623657,0.7456187605857849,-0.2668175995349884
2.8875648975372314,0.0801127552986145,-0.06284049153327942,0.013568103313446045,-0.42242990545611364,-1.385357505606095,-1.8691823230975626,-0.8964579701423645,0.4099779725074768,-0.16817019879817963,-1.3001466989517212,0.5916145443916321,-0.31058087944984436
2.9078638553619385,0.06582486629486084,-0.053593575954437256,0.07579024136066437,-0.4209748035072291,-1.3856535975287916,-1.8967912413527297,-0.8970931768417358,0.40865033864974976,-0.16801439225673676,-1.134671926498413,0.5289263725280762,-0.29265329241752625
2.925879955291748,0.0309906005859375,-0.020843297243118286,0.0834423303604126,-0.4189808482258436,-1.3847243170588692,-1.9197589470243686,-0.897735595703125,0.4068296551704407,-0.16899839043617249,-0.9114577770233154,0.5139014720916748,-0.2944694459438324
2.9466798305511475,0.00023740530014038086,-0.013343244791030884,0.08023624122142792,-0.41616769572454154,-1.3826689098197937,-1.9394595590558785,-0.8985071778297424,0.40425822138786316,-0.1710566133260727,-0.8459707498550415,0.4972781240940094,-0.3233909010887146
2.9675519466400146,-0.01116645336151123,-0.023784220218658447,0.07441170513629913,-0.41290445962239625,-1.3814279199701187,-1.960074599192751,-0.8995848298072815,0.40127137303352356,-0.17241889238357544,-0.9736528992652893,0.45132845640182495,-0.34289640188217163
2.987407922744751,-0.003999650478363037,-0.03210026025772095,0.06414592266082764,-0.4106067483644525,-1.382446596272381,-1.983571302636892,-0.900663435459137,0.39916571974754333,-0.17167462408542633,-1.090781569480896,0.3877953886985779,-0.2757796049118042
3.0075340270996094,-0.014045357704162598,-0.01479339599609375,0.03456281125545502,-0.40970462195392265,-1.3849045363544945,-2.0079662393642557,-0.9014363288879395,0.3983384072780609,-0.1695268303155899,-1.070199728012085,0.34512364864349365,-0.23968715965747833
3.0273101329803467,-0.02834796905517578,0.01288577914237976,0.012714341282844543,-0.40893968919586526,-1.386808687436044,-2.0304164786468593,-0.9020566344261169,0.39763668179512024,-0.16786572337150574,-0.9193854331970215,0.36332592368125916,-0.20923814177513123
3.046293020248413,-0.014798104763031006,0.00891578197479248,-0.028453990817070007,-0.4085435699055837,-1.386705479429652,-2.0485237234842377,-0.9021940231323242,0.3972731828689575,-0.1679876297712326,-0.7022343873977661,0.35219329595565796,-0.13080967962741852
3.066969156265259,-0.0013868212699890137,-0.006186395883560181,-0.05888541042804718,-0.40850604569818605,-1.3853443527893077,-2.0617952081164543,-0.901979386806488,0.39723876118659973,-0.1692182570695877,-0.4991423487663269,0.3214641511440277,-0.08906897157430649
3.086216926574707,-0.009446561336517334,-0.022096604108810425,-0.08353187143802643,-0.40850088863999484,-1.3825397238209942,-2.0711873469671622,-0.9015032052993774,0.3972340226173401,-0.17174768447875977,-0.36238330602645874,0.33001554012298584,-0.08834540843963623
3.1052258014678955,-0.012402534484863281,-0.04476162791252136,-0.10550083220005035,-0.40757620772028014,-1.3789898259561273,-2.0785690309498666,-0.9012480974197388,0.3963852524757385,-0.17501680552959442,-0.28911882638931274,0.3257283568382263,-0.12135777622461319
3.127103090286255,0.019966542720794678,-0.06309854984283447,-0.15196990966796875,-0.40617595513607785,-1.3755084375442588,-2.0841821335552324,-0.9011768698692322,0.39509931206703186,-0.17826084792613983,-0.21090388298034668,0.2055061012506485,-0.14086373150348663
3.147042989730835,0.027405977249145508,-0.049048542976379395,-0.1832560896873474,-0.40354004252452685,-1.3746386311881744,-2.089235189226386,-0.9020397663116455,0.3926765024662018,-0.17924697697162628,-0.15291140973567963,0.050603870302438736,-0.20040163397789001
3.1651840209960938,0.030091047286987305,-0.052192509174346924,-0.2012980431318283,-0.39906530247884414,-1.3757988040334348,-2.092520827534817,-0.9039618372917175,0.3885572552680969,-0.1785389930009842,-0.08735770732164383,-0.06757833808660507,-0.2862411439418793
3.186138868331909,0.06606525182723999,-0.03984105587005615,-0.175115704536438,-0.3934834475065293,-1.379072845440127,-2.094575769489555,-0.9066567420959473,0.38340798020362854,-0.17598901689052582,0.03003566898405552,-0.21434904634952545,-0.2860451340675354
3.206127882003784,0.07310181856155396,-0.01246863603591919,-0.16353841125965118,-0.38731438551405956,-1.3853236596159393,-2.093761560462326,-0.9100465178489685,0.37770310044288635,-0.17075121402740479,0.15459570288658142,-0.48627883195877075,-0.3223455846309662
3.228234052658081,0.05679166316986084,0.01643308997154236,-0.1463102549314499,-0.3795793750109206,-1.3965930286355142,-2.0905265448242876,-0.9147627949714661,0.37052983045578003,-0.16098648309707642,0.3298555612564087,-0.7359922528266907,-0.35662758350372314
3.248114824295044,0.05185931921005249,0.045131534337997437,-0.2000090479850769,-0.37090739058892913,-1.4087870695046911,-2.0798141810534747,-0.919794499874115,0.36246126890182495,-0.15033279359340668,0.8379472494125366,-0.8662860989570618,-0.333082377910614
3.2666280269622803,0.08972269296646118,0.1051531434059143,-0.22949551045894623,-0.36052242054735445,-1.4228607390707646,-2.060098216954433,-0.9254922270774841,0.3527631163597107,-0.13792084157466888,1.238250970840454,-1.0288114547729492,-0.36434829235076904
3.286531925201416,0.1350858211517334,0.13257810473442078,-0.2083573341369629,-0.35156327103621954,-1.4392549806353747,-2.0318967048099523,-0.9307249188423157,0.3443658947944641,-0.12313985824584961,1.4361988306045532,-1.5073050260543823,-0.17645876109600067
3.305424928665161,-0.002129673957824707,0.12893036007881165,-0.1546781063079834,-0.3452977643966653,-1.4595361052007232,-2.00271962938175,-0.9351567029953003,0.33847686648368835,-0.10447719693183899,1.3750966787338257,-1.4250528812408447,-0.1694391965866089
3.326589822769165,-0.16079586744308472,0.07451748847961426,-0.1701560616493225,-0.33746024056474616,-1.4766943034489468,-1.9818599055074202,-0.9394237995147705,0.33109164237976074,-0.08866354823112488,0.4620213806629181,-1.0502114295959473,-0.36390331387519836
3.346323013305664,0.007824301719665527,0.06001552939414978,-0.09167558699846268,-0.3317964018131862,-1.4933330278615575,-1.985483004327544,-0.9426236152648926,0.3257419764995575,-0.07316514104604721,-0.6288301944732666,-0.5440791845321655,-0.1893596351146698
3.3662240505218506,0.21419882774353027,0.22564297914505005,-0.09736096858978271,-0.33122251123096447,-1.5052483093706472,-1.9944112525259636,-0.9436147809028625,0.32519933581352234,-0.061940811574459076,0.16993850469589233,-0.4210861623287201,0.05050551891326904
3.3861520290374756,0.219526469707489,0.6036766767501831,-0.1931091547012329,-0.33011235056661375,-1.5068889134201056,-1.9690216375787548,-0.9440748691558838,0.32414931058883667,-0.06041565164923668,2.210346221923828,-0.5892128944396973,-0.07624700665473938
3.406205892562866,0.10662883520126343,0.5572106838226318,-0.06444990634918213,-0.3219329306042833,-1.5019906799385352,-1.9124343520438438,-0.9463810324668884,0.31640076637268066,-0.06521931290626526,2.8772459030151367,-0.7438274621963501,-0.3832486867904663
3.426492929458618,0.048098087310791016,0.19886767864227295,0.15374594926834106,-0.30792870278408035,-1.5002709995247998,-1.8609098105654158,-0.9505943655967712,0.30308541655540466,-0.06715235114097595,1.995216727256775,-0.6203500032424927,-0.6415101885795593
3.4460208415985107,0.08896541595458984,0.13261058926582336,0.20943397283554077,-0.29299607958236873,-1.5010353563336625,-1.8311147484480068,-0.9550542831420898,0.28882190585136414,-0.06673380732536316,1.0261210203170776,-0.38553863763809204,-0.6181434988975525
3.4677419662475586,0.2490038275718689,0.2293163239955902,0.1769160032272339,-0.2807666358230918,-1.5040741001663422,-1.8157163995505377,-0.9587053060531616,0.2770923376083374,-0.06406204402446747,0.6290075182914734,-0.3957808017730713,-0.48711612820625305
3.4863789081573486,0.39332717657089233,0.29915666580200195,0.14943665266036987,-0.27229577909217384,-1.5098207002225559,-1.8025305154300912,-0.9613661170005798,0.26894333958625793,-0.05869266018271446,0.7655593752861023,-0.5338463187217712,-0.28500327467918396
3.506016969680786,0.4596133232116699,0.34714964032173157,0.13443535566329956,-0.2667192478495133,-1.515541573427801,-1.78151632078961,-0.9631685614585876,0.26356810331344604,-0.053273871541023254,1.3586779832839966,-0.6347662806510925,-0.1624763011932373
3.5254738330841064,0.46802639961242676,0.3452461361885071,0.08095651865005493,-0.2629367136230024,-1.5224305355877903,-1.7475082210272137,-0.964501678943634,0.2599174380302429,-0.046685293316841125,1.8976972103118896,-0.9680282473564148,-0.046067945659160614
3.5458171367645264,0.37176060676574707,0.29566532373428345,0.06781226396560669,-0.2600512814878533,-1.5340431777456855,-1.7063172242944338,-0.9657242298126221,0.25713011622428894,-0.035509396344423294,2.0268027782440186,-1.2138210535049438,-0.1175999566912651
3.5658648014068604,0.23450565338134766,0.2717097997665405,0.08946627378463745,-0.2547015556034561,-1.5489367540324273,-1.6660593205608913,-0.9675074219703674,0.25195661187171936,-0.021152667701244354,1.8574678897857666,-1.291388988494873,-0.31429702043533325
3.585690975189209,0.12813174724578857,0.26138246059417725,0.11187291145324707,-0.24597325358212738,-1.564712528979954,-1.6306275393807421,-0.9698830246925354,0.24350039660930634,-0.005900645162910223,1.6301047801971436,-1.1653507947921753,-0.5126628279685974
3.605512857437134,0.08137130737304688,0.25303915143013,0.06918549537658691,-0.2346427247010604,-1.5794700979742815,-1.5976911163289613,-0.9725608825683594,0.23249551653862,0.008435982279479504,1.580431580543518,-1.1149801015853882,-0.6150554418563843
3.6252338886260986,0.08096826076507568,0.2799989879131317,0.04080057144165039,-0.22189370382637427,-1.5937783414637379,-1.564185002924685,-0.9752248525619507,0.2200772911310196,0.022416578605771065,1.7119401693344116,-1.059287428855896,-0.6940556168556213
3.6452701091766357,0.11296689510345459,0.29859650135040283,-0.014738082885742188,-0.2097589869585157,-1.6066212742929162,-1.5262928172469168,-0.9774535894393921,0.20822417736053467,0.03503221273422241,1.9653701782226562,-1.0378848314285278,-0.6166707277297974
3.6642749309539795,0.15444719791412354,0.280656099319458,-0.042307015508413315,-0.20094871747817555,-1.6186152779256457,-1.4837984675263418,-0.9787576198577881,0.19959904253482819,0.04683886840939522,2.162431478500366,-1.042885422706604,-0.42897433042526245
3.6855719089508057,0.17879587411880493,0.23506668210029602,-0.06751000881195068,-0.19724000989666335,-1.6303088183600856,-1.43863601866351,-0.9788752794265747,0.19596360623836517,0.0583241768181324,2.206683874130249,-1.025037169456482,-0.18667379021644592
3.705803155899048,0.17904865741729736,0.17505986988544464,-0.04548001289367676,-0.1977629639971658,-1.641485044281832,-1.395363064390645,-0.9780598878860474,0.19647638499736786,0.06925319135189056,2.0181853771209717,-0.9008470773696899,-0.05480125546455383
3.7259719371795654,0.1802113652229309,0.12219363451004028,-0.0353173166513443,-0.20009221326512694,-1.6487621383577347,-1.3568281380044869,-0.9770709276199341,0.19875970482826233,0.07633285969495773,1.7974128723144531,-0.5844966173171997,0.005101407878100872
3.744486093521118,0.2641834020614624,0.06726841628551483,-0.035612933337688446,-0.203730302768955,-1.6507643028072903,-1.321647871255289,-0.976189136505127,0.20232388377189636,0.07823070138692856,1.702907681465149,-0.344618022441864,0.0959804356098175
3.7651278972625732,0.338076114654541,0.04366561770439148,-0.07117819041013718,-0.2090593783304309,-1.6491921089278003,-1.286736141739917,-0.9752222299575806,0.2075398564338684,0.07661031931638718,1.7792407274246216,-0.23341603577136993,0.1427723616361618
3.785346031188965,0.3530682921409607,0.030571147799491882,-0.11007487773895264,-0.2143214665251836,-1.6457747313356326,-1.2502720992392173,-0.9743757247924805,0.21268446743488312,0.07319434732198715,1.7893725633621216,-0.20993779599666595,0.10859888792037964
3.805027961730957,0.33161652088165283,-0.026692166924476624,-0.08566844463348389,-0.21847425395645848,-1.6431398415517697,-1.2164016548756509,-0.9736759066581726,0.21674039959907532,0.07056228071451187,1.5158517360687256,-0.24039530754089355,0.05761364474892616
3.8247649669647217,0.268974244594574,-0.02919343113899231,-0.043259985744953156,-0.22077125404345124,-1.6406327501726992,-1.1888598379253408,-0.973350465297699,0.21898221969604492,0.06808603554964066,1.1887261867523193,-0.055127885192632675,-0.023163828998804092
3.845202922821045,0.23579281568527222,0.02488979697227478,0.011224854737520218,-0.22085884484422055,-1.6328804979072415,-1.167469937694716,-0.9738298058509827,0.21906769275665283,0.06053721532225609,0.9362627267837524,0.3603802025318146,-0.09792128950357437
3.8637888431549072,0.25826209783554077,0.002261608839035034,0.0060884952545166016,-0.22049859295624097,-1.6207626570051326,-1.1500641946079557,-0.9745707511901855,0.21871617436408997,0.04873628914356232,0.7754285335540771,0.38573968410491943,-0.0307582039386034
3.8846728801727295,0.2336406111717224,-0.01875486969947815,-0.011775616556406021,-0.22167676209660803,-1.6113147363036235,-1.1357241769379827,-0.9747294187545776,0.21986566483974457,0.03951611369848251,0.6194232702255249,0.2544402480125427,0.08069571852684021
3.9037179946899414,0.137812077999115,-0.020111262798309326,0.01535307988524437,-0.22372463672788565,-1.6034426086929519,-1.1251831708225846,-0.9745582938194275,0.22186297178268433,0.031827010214328766,0.372982382774353,0.33858445286750793,0.06764763593673706
3.924818992614746,0.10256117582321167,-0.031220465898513794,0.08689665794372559,-0.2239288468968317,-1.5940558129172762,-1.1222377211151546,-0.9747686386108398,0.22206208109855652,0.022676708176732063,-0.0783490389585495,0.5393457412719727,-0.05966450273990631
3.9444990158081055,0.18907177448272705,-0.055593863129615784,0.12619566917419434,-0.22302657166179035,-1.5830890104868327,-1.1267822985943412,-0.9751588702201843,0.22118224203586578,0.01198792364448309,-0.3019651472568512,0.5999526381492615,0.024929115548729897
3.964367151260376,0.2348266839981079,-0.02342677116394043,0.07053601741790771,-0.22512208070889114,-1.575544870999538,-1.1319547196603224,-0.9747559428215027,0.22322537004947662,0.004628706257790327,-0.13410329818725586,0.25358423590660095,0.14555634558200836
3.984496831893921,0.08280295133590698,0.03484956920146942,0.02712404727935791,-0.2272797157710442,-1.5718361674613157,-1.1312353748159265,-0.974282443523407,0.22532802820205688,0.0010130988666787744,0.18536342680454254,0.16872437298297882,0.043868742883205414
4.004382848739624,-0.05070382356643677,0.02161334455013275,0.08177274465560913,-0.2267073030451297,-1.5652519218327248,-1.1264792289911805,-0.9743969440460205,0.22477030754089355,-0.0054025063291192055,0.22183947265148163,0.3992849886417389,-0.09101899713277817
4.024650812149048,-0.016125023365020752,-0.03556588292121887,0.15218394994735718,-0.22492710819194098,-1.5550247749822461,-1.1235860697296856,-0.9746890664100647,0.2230353057384491,-0.015373633243143559,0.039433833211660385,0.5073532462120056,-0.04124058783054352
4.044082880020142,0.04238492250442505,-0.0733039528131485,0.18609249591827393,-0.22550949366815956,-1.5458275043398366,-1.1250385400687088,-0.9743764400482178,0.22360298037528992,-0.02433408983051777,-0.1744598150253296,0.4569912552833557,0.10134825855493546
4.062978982925415,-0.018429040908813477,-0.0767374187707901,0.16175121068954468,-0.22882990250126112,-1.5379593505997222,-1.1286625987482306,-0.9734074473381042,0.22683808207511902,-0.03197525069117546,-0.14552131295204163,0.45661431550979614,0.18801210820674896
4.0831379890441895,-0.08718478679656982,-0.0441826730966568,0.15652531385421753,-0.23248965292772128,-1.5286805738545732,-1.1308785387767608,-0.9722329378128052,0.2304009050130844,-0.04097054898738861,-0.0672498568892479,0.4706226587295532,0.13819877803325653
4.103003978729248,-0.11924082040786743,-0.05627553164958954,0.16246074438095093,-0.23364264219843503,-1.52009608045987,-1.1302071189553642,-0.9715794920921326,0.23152272403240204,-0.049301568418741226,0.14842917025089264,0.37515389919281006,-0.0014126551104709506
4.124112844467163,-0.15865933895111084,-0.06789106130599976,0.1465473771095276,-0.2324073854936212,-1.5123359563970857,-1.1244021629322205,-0.9714524149894714,0.23032085597515106,-0.05685625225305557,0.4210575222969055,0.2783752381801605,-0.10349008440971375
4.142985105514526,-0.1938956379890442,-0.07353360950946808,0.173700213432312,-0.22911251003090832,-1.5048854177019533,-1.114604290804747,-0.9717538356781006,0.22711332142353058,-0.06414208561182022,0.5074294209480286,0.2337009757757187,-0.14713352918624878
4.163939952850342,-0.21605104207992554,-0.106021448969841,0.1989467740058899,-0.2261071788428406,-1.4980323925554473,-1.1052874124699794,-0.9719677567481995,0.2241854965686798,-0.07084927707910538,0.4266526401042938,0.2364029437303543,-0.07988836616277695
4.182950973510742,-0.21580249071121216,-0.09434670209884644,0.20895367860794067,-0.22491555415136408,-1.4910222510212103,-1.0967419672443046,-0.9717127084732056,0.22302404046058655,-0.07768233865499496,0.44893333315849304,0.29655221104621887,0.034612253308296204
4.203685998916626,-0.21256208419799805,-0.03131571412086487,0.1687188744544983,-0.22629645348128208,-1.4825404124849277,-1.0846700207434306,-0.9707114100456238,0.22436994314193726,-0.0858941525220871,0.7390567660331726,0.24567526578903198,0.19567130506038666
4.224313020706177,-0.2751700282096863,0.006786942481994629,0.11114752292633057,-0.22859724450224275,-1.4750042801976038,-1.0657966818315647,-0.9695199728012085,0.22661148011684418,-0.09315741807222366,1.0912892818450928,0.14624027907848358,0.17134012281894684
4.24042010307312,-0.34831660985946655,-0.0014116764068603516,0.12058568745851517,-0.22830435101329918,-1.4644369364269785,-1.040390465328967,-0.9685474038124084,0.22632619738578796,-0.10340431332588196,1.3287982940673828,0.34803083539009094,0.05218334496021271
4.264302015304565,-0.2848578095436096,-0.03944231569766998,0.2002469301223755,-0.22508440357187814,-1.4505468098064995,-1.014353832211804,-0.9677361845970154,0.2231886386871338,-0.11693397164344788,1.2189072370529175,0.448862224817276,-0.05997086688876152
4.283541917800903,-0.2472919225692749,-0.1285524219274521,0.19535094499588013,-0.22153123485201767,-1.4372868058159045,-0.9911187907362953,-0.9668805003166199,0.21972370147705078,-0.12986025214195251,1.1233153343200684,0.32121050357818604,-0.02333136647939682
4.303520917892456,-0.35815393924713135,-0.07518529891967773,0.03845185041427612,-0.21638095221413828,-1.4284113485940146,-0.9648352897800141,-0.9667972922325134,0.21469637751579285,-0.13859528303146362,1.4605876207351685,-0.004795738495886326,-0.1541137546300888
4.323532819747925,-0.4923223853111267,0.039314910769462585,0.027036920189857483,-0.20608296081637978,-1.424838235327468,-0.9358953245656064,-0.9684320092201233,0.20462732017040253,-0.14236287772655487,1.451384425163269,-0.20415829122066498,-0.4527609646320343
4.342464923858643,-0.606731653213501,-0.001171797513961792,0.03165024518966675,-0.19196967425609107,-1.425282229120793,-0.9137964575683115,-0.9712560176849365,0.1907927542924881,-0.14233750104904175,0.7870675325393677,-0.2789735198020935,-0.6383468508720398
4.3638739585876465,-0.6027753949165344,-0.06456565856933594,0.062248170375823975,-0.1782088407476449,-1.4300724118307746,-0.9093009821669491,-0.9744341373443604,0.17726705968379974,-0.13803859055042267,-0.15931543707847595,-0.2699669599533081,-0.579630970954895
4.383478879928589,-0.5500865578651428,-0.1297629177570343,0.04110234975814819,-0.1712945446360992,-1.4375579366275555,-0.9196104136424106,-0.9766315817832947,0.1704580932855606,-0.1309003382921219,-0.6434162855148315,-0.31816351413726807,-0.24731916189193726
4.403317928314209,-0.5400204062461853,-0.049186334013938904,-0.032145798206329346,-0.17016938543283988,-1.4476432160811228,-0.9316708981300372,-0.978091835975647,0.1693492829799652,-0.12106774002313614,-0.43341225385665894,-0.5112428665161133,-0.055531758815050125
4.423145055770874,-0.5665267705917358,0.07580703496932983,-0.051344990730285645,-0.16954137021591006,-1.4601145110029692,-0.9358544163729297,-0.9796310663223267,0.16873031854629517,-0.10887228697538376,0.050630439072847366,-0.617764413356781,-0.05653129890561104
4.442602872848511,-0.6017941832542419,0.036896660923957825,-0.04665215313434601,-0.169046477104694,-1.4698288415869034,-0.9288433385041931,-0.9807254672050476,0.16824249923229218,-0.09935925155878067,0.5997961163520813,-0.45384347438812256,0.06720969825983047
4.462863922119141,-0.5762686133384705,-0.005172103643417358,-0.02570890635251999,-0.17042458277467123,-1.4761751509646008,-0.9152619443431154,-0.9811043739318848,0.16960079967975616,-0.09311129152774811,0.6082707047462463,-0.4267164468765259,0.22901585698127747
4.483812093734741,-0.48617249727249146,-0.13712607324123383,0.006966240704059601,-0.17605906927419612,-1.4849299909633997,-0.9080877448891722,-0.9809142351150513,0.17515093088150024,-0.0844351276755333,0.01288475189357996,-0.5726882815361023,0.36025527119636536
4.50298285484314,-0.483691930770874,-0.13005724549293518,0.0399513840675354,-0.18331301010657117,-1.4981003625608476,-0.9119508932779231,-0.9806482791900635,0.1822880655527115,-0.0714150220155716,-0.3941424787044525,-0.655547022819519,0.3021032512187958
4.522046804428101,-0.49023735523223877,-0.06318476796150208,0.03879301995038986,-0.18853680947647458,-1.512629819007474,-0.9191239960554867,-0.9806184768676758,0.18742182850837708,-0.05710356682538986,-0.29050058126449585,-0.6431401968002319,0.1904996633529663
4.541785001754761,-0.48000621795654297,-0.01395733654499054,0.03971577063202858,-0.19206156543521635,-1.5249265199916004,-0.9226843868229252,-0.98058021068573,0.19088295102119446,-0.04501059651374817,-0.07372879236936569,-0.5230861306190491,0.15454073250293732
4.562915086746216,-0.46632081270217896,0.030811607837677002,0.017819762229919434,-0.19503183296524867,-1.5345041997590674,-0.9215386896569038,-0.9803955554962158,0.193797767162323,-0.035596270114183426,0.1947530210018158,-0.4695291519165039,0.17561477422714233
4.582675933837891,-0.4371674060821533,0.0522727370262146,0.007629990577697754,-0.19950586429830422,-1.5421941523721348,-0.9146851961827942,-0.9797637462615967,0.1981850266456604,-0.028031017631292343,0.4201974868774414,-0.39175233244895935,0.305431991815567
4.601609945297241,-0.44134461879730225,0.005932852625846863,0.021650075912475586,-0.20723240696323939,-1.5459728287541565,-0.9066674621684147,-0.9783025979995728,0.20575231313705444,-0.02428988181054592,0.32397517561912537,-0.16728124022483826,0.46739500761032104
4.621879816055298,-0.4082496762275696,-0.001997709274291992,0.023109257221221924,-0.21757751285346785,-1.5471268669971665,-0.9013403729605527,-0.9761497378349304,0.2158648818731308,-0.023109253495931625,0.13995379209518433,-0.039634592831134796,0.5821457505226135
4.642431974411011,-0.362817645072937,-0.022308647632598877,0.048173725605010986,-0.2301141434310131,-1.5456855459652967,-0.8993662321261858,-0.973333477973938,0.22808866202831268,-0.02444630116224289,0.05962521210312843,0.11741068959236145,0.6846875548362732
4.661796808242798,-0.3071746230125427,-0.03471130132675171,0.033928871154785156,-0.24453866989738982,-1.5426172969474086,-0.8974363149113033,-0.969864010810852,0.24210874736309052,-0.02733706310391426,0.06476382166147232,0.13156209886074066,0.756234884262085
4.68250584602356,-0.25362515449523926,-0.05270034074783325,0.08182507753372192,-0.2595063770482364,-1.5393980876866733,-0.8974813123119304,-0.9660403728485107,0.256603479385376,-0.030341938138008118,-0.1180567815899849,0.215225487947464,0.7414072155952454
4.702654123306274,-0.1973915696144104,-0.09785959124565125,0.11561155319213867,-0.2747340759546721,-1.5340921055955377,-0.9024604116259572,-0.9618492126464844,0.27129098773002625,-0.03531978651881218,-0.42149287462234497,0.44488129019737244,0.7653302550315857
4.722497940063477,-0.10435450077056885,-0.08674386143684387,0.13555091619491577,-0.2908867750190475,-1.5267817413994822,-0.9145311065940744,-0.957062304019928,0.28680184483528137,-0.04215192422270775,-0.799129843711853,0.6115992069244385,0.8201338052749634
4.742112874984741,-0.047093868255615234,-0.06349590420722961,0.14967834949493408,-0.3090538584560468,-1.5197366436324644,-0.9335320866523621,-0.95138019323349,0.30415746569633484,-0.048619430512189865,-1.114586353302002,0.6751371026039124,0.8926984667778015
4.761929988861084,-0.07468754053115845,-0.032219260931015015,0.1652325987815857,-0.3279367747127743,-1.5131002192527623,-0.957044064229425,-0.9451335668563843,0.3220904469490051,-0.054591115564107895,-1.1760426759719849,0.732573926448822,0.8806723952293396
4.781906843185425,-0.08796697854995728,-8.186697959899902e-05,0.1573379635810852,-0.3469675715849166,-1.5061843846374297,-0.979340117912435,-0.9384459853172302,0.3400476574897766,-0.060719337314367294,-1.03159761428833,0.6850477457046509,0.8937413692474365
4.801054000854492,-0.08185780048370361,0.015657097101211548,0.1463739275932312,-0.365863738543009,-1.4991194519217421,-0.9976704033390369,-0.9314174056053162,0.35775598883628845,-0.0668756514787674,-0.805307149887085,0.6904848217964172,0.8759207129478455
4.820997953414917,-0.040324628353118896,-0.005184262990951538,0.1257394552230835,-0.38439272864402096,-1.489568449523455,-1.0110863895898143,-0.9239698648452759,0.37499624490737915,-0.07521761208772659,-0.5829115509986877,0.7367973327636719,0.8811557292938232
4.84199595451355,0.012052059173583984,0.010091900825500488,0.0790022611618042,-0.40238176592606345,-1.4791866581399826,-1.0196717536220035,-0.9162726998329163,0.3916109800338745,-0.08417504280805588,-0.36324402689933777,0.6306747794151306,0.8555776476860046
4.860038995742798,0.007938683032989502,-0.01640060544013977,0.05797719955444336,-0.420064175559248,-1.4679454790990132,-1.024335848504871,-0.9082378149032593,0.40781906247138977,-0.09374380856752396,-0.26278507709503174,0.6979778409004211,0.8640877604484558
4.881608009338379,0.0386543869972229,-0.041780441999435425,0.038153767585754395,-0.4383774161892578,-1.4543628940874946,-1.027201712895197,-0.8993111848831177,0.4244708716869354,-0.10518564283847809,-0.20170807838439941,0.7775208950042725,0.9577176570892334
4.899982929229736,0.039886653423309326,-0.046010345220565796,0.035311564803123474,-0.45912754788989774,-1.438542065219097,-1.0277613084015271,-0.8886111378669739,0.44316616654396057,-0.11821264773607254,-0.08184391260147095,0.8240152597427368,1.117946982383728
4.921592950820923,-0.0065386295318603516,-0.061293959617614746,0.002741768956184387,-0.4830955480942994,-1.4194217575898627,-1.0236122682610254,-0.8754345774650574,0.46452268958091736,-0.133540078997612,0.09792178869247437,0.9176087975502014,1.3415446281433105
4.941753149032593,-0.045724570751190186,0.044685810804367065,-0.05562394857406616,-0.5102672769149619,-1.3961195915907028,-1.015864157903784,-0.8593353033065796,0.48841050267219543,-0.15165142714977264,0.14784292876720428,1.032455325126648,1.3750853538513184
4.960565805435181,-0.10686063766479492,0.12710517644882202,-0.20046710968017578,-0.5358887656607138,-1.3710787784862877,-1.0057734682602444,-0.8427243232727051,0.5106053948402405,-0.1705808788537979,0.21169675886631012,0.9792690873146057,1.3787693977355957
4.98145604133606,-0.05834639072418213,-0.03021782636642456,-0.14028309285640717,-0.5639586585311362,-1.3440899120031726,-0.9950255607665571,-0.8235200047492981,0.5345360040664673,-0.18996290862560272,0.06246984004974365,1.1859419345855713,1.576704502105713
5.001482963562012,0.0038356781005859375,-0.06380969285964966,-0.07758772373199463,-0.5948402358062252,-1.3134828187159797,-0.9861271983555332,-0.8009700775146484,0.5603764653205872,-0.21077285706996918,-0.024398785084486008,1.3702713251113892,1.5664373636245728
5.020409822463989,0.06561827659606934,-0.02096778154373169,-0.07618767023086548,-0.622466133934614,-1.2793133222759623,-0.9746578365308768,-0.7781732082366943,0.5830405354499817,-0.23347419500350952,0.19705799221992493,1.4077904224395752,1.3185737133026123
5.0411460399627686,0.13411873579025269,-0.04833310842514038,-0.030617594718933105,-0.6428519669391166,-1.2406553703603747,-0.9578159980823401,-0.7571656107902527,0.5994805693626404,-0.25946730375289917,0.47665321826934814,1.4381673336029053,1.0911775827407837
5.061247110366821,0.229839026927948,-0.1532275676727295,0.025975942611694336,-0.6582569418226543,-1.1979361433418563,-0.9356048997131381,-0.7367055416107178,0.611738920211792,-0.2881677448749542,0.6093057990074158,1.463736891746521,0.9903626441955566
5.0801098346710205,0.31008654832839966,-0.1303209662437439,0.08441069722175598,-0.6701123736716458,-1.154678896019533,-0.9123712957194621,-0.7168705463409424,0.6210740804672241,-0.31680208444595337,0.6057279706001282,1.4548686742782593,0.8031241297721863
5.101207971572876,0.3734506368637085,-0.1447656750679016,0.1351424753665924,-0.6792893935071163,-1.1124907701728208,-0.8921230800924652,-0.6977303624153137,0.6282402873039246,-0.3442184031009674,0.4253455102443695,1.5049126148223877,0.6969939470291138
5.120094060897827,0.4118368625640869,-0.14077919721603394,0.16014152765274048,-0.6866216029291585,-1.0730580040276012,-0.8768602890940698,-0.6795523762702942,0.6339280009269714,-0.36924800276756287,0.3406955599784851,1.4831589460372925,0.5304635167121887
5.140948057174683,0.47300297021865845,-0.11252230405807495,0.15377694368362427,-0.6917256555192223,-1.0343201578582888,-0.8612412754580796,-0.661952555179596,0.6378671526908875,-0.39362987875938416,0.47044605016708374,1.3950917720794678,0.5126665830612183
5.161005973815918,0.48907774686813354,-0.1497037410736084,0.16710063815116882,-0.6941396724967559,-0.9953594043953263,-0.843197272934816,-0.6448241472244263,0.6397244334220886,-0.4182755649089813,0.5588608384132385,1.3543891906738281,0.4215899109840393
5.180873155593872,0.5117234587669373,-0.15928983688354492,0.22381913661956787,-0.6935688103600829,-0.9564452742256513,-0.8249864856179726,-0.6283616423606873,0.6392855644226074,-0.44325584173202515,0.6234768033027649,1.4229142665863037,0.3348710536956787
5.20002293586731,0.5080732703208923,-0.1229286789894104,0.2340816855430603,-0.690953026060483,-0.9146114708410281,-0.8045703858740212,-0.6105970740318298,0.6372718811035156,-0.4701657295227051,0.8497298955917358,1.4473259449005127,0.4163907766342163
5.221279859542847,0.472609281539917,-0.09312635660171509,0.16621685028076172,-0.6869180404618704,-0.8701011789661737,-0.7796532686989097,-0.5910327434539795,0.6341572403907776,-0.4985227882862091,0.8403581380844116,1.4284695386886597,0.4281329810619354
5.239171981811523,0.4052433967590332,-0.13735973834991455,0.20146286487579346,-0.6830145151816298,-0.8297849777718209,-0.7612553193196233,-0.5722813606262207,0.6311341524124146,-0.5236064195632935,0.47433385252952576,1.4590959548950195,0.22441011667251587
5.261323928833008,0.4044871926307678,-0.20172661542892456,0.20837706327438354,-0.681625383867702,-0.7951558690714029,-0.7515210018684401,-0.5544352531433105,0.6300560235977173,-0.543719470500946,0.18461483716964722,1.3545047044754028,0.20248860120773315
5.280547857284546,0.41265881061553955,-0.14625144004821777,0.17742919921875,-0.6818294152554986,-0.7669980944514573,-0.7450245145310488,-0.5388184189796448,0.6302144527435303,-0.5590210556983948,0.22979773581027985,1.06184983253479,0.1727166771888733
5.299998044967651,0.3547002673149109,-0.11241620779037476,0.15718263387680054,-0.6784845838864587,-0.7393770986799768,-0.7346431427734871,-0.5245916247367859,0.6276139616966248,-0.5752429366111755,0.5224471688270569,1.1020756959915161,0.17318223416805267
5.320966958999634,0.30758875608444214,-0.14630162715911865,0.16711121797561646,-0.6715599511623962,-0.7108950311221076,-0.7243541967692024,-0.5108205080032349,0.6222079396247864,-0.5932281613349915,0.5456552505493164,1.0694847106933594,-0.02283165603876114
5.340489149093628,0.31984496116638184,-0.18144309520721436,0.12415492534637451,-0.6620263335598912,-0.6872654578495927,-0.7161898070483,-0.5004022121429443,0.6147163510322571,-0.6096895933151245,0.5884687304496765,0.7658079862594604,-0.0991712287068367
5.360731840133667,0.2977573871612549,-0.1153913140296936,0.0678868293762207,-0.649191137545594,-0.6701159486373963,-0.7069925130288691,-0.4947330951690674,0.6045423150062561,-0.6243138909339905,0.9124810695648193,0.41044214367866516,-0.13005317747592926
5.380708932876587,0.2259148359298706,-0.04691040515899658,0.04879075288772583,-0.6311738017073941,-0.6551006657003368,-0.6942160845806439,-0.4918603003025055,0.5900928378105164,-0.6402062177658081,1.0572549104690552,0.4204545319080353,-0.17461444437503815
5.400007963180542,0.2122158706188202,-0.19230562448501587,0.12701362371444702,-0.615194071866896,-0.6384272254027991,-0.6848970002719508,-0.4866757094860077,0.5771170258522034,-0.6558069586753845,0.6339893937110901,0.6898532509803772,-0.16705657541751862
5.421442985534668,0.3025291860103607,-0.28049319982528687,0.10965627431869507,-0.6080458925302894,-0.6230604773306453,-0.6821834045616089,-0.4789360463619232,0.5712646842002869,-0.6665410995483398,0.08738690614700317,0.640381395816803,-0.0815662294626236
5.440438985824585,0.34192392230033875,-0.19059717655181885,0.03279590606689453,-0.6064771515465947,-0.6145690775744314,-0.6834334774326265,-0.47377511858940125,0.5699763894081116,-0.6713151931762695,0.10074776411056519,0.2611633241176605,-0.13336220383644104
5.4602720737457275,0.2152746021747589,0.006666004657745361,-0.07760053873062134,-0.599625225702714,-0.61212926411675,-0.6839148773913303,-0.4743688404560089,0.5643331408500671,-0.6756495833396912,0.43204623460769653,0.09354636818170547,-0.29693299531936646
5.480007886886597,0.13157698512077332,0.006442129611968994,-0.06255918741226196,-0.5876353676381177,-0.6130532309064836,-0.6866477423753861,-0.4788517355918884,0.5543946027755737,-0.680696427822113,0.3625417649745941,-0.09591677039861679,-0.5942292213439941
5.500202894210815,0.22107285261154175,-0.03458738327026367,0.052202582359313965,-0.5752356837343418,-0.6249634690482294,-0.69512625336239,-0.49090927839279175,0.5440325736999512,-0.680467963218689,0.23242300748825073,-0.6459389925003052,-0.5980772972106934
5.520087957382202,0.26246845722198486,-0.14212697744369507,0.28894102573394775,-0.571144147997246,-0.6429693662129715,-0.6992883922403886,-0.5044118165969849,0.5405949354171753,-0.6732946634292603,-0.254772424697876,-0.8474838733673096,0.11251436918973923
5.540119886398315,0.07578921318054199,-0.004024088382720947,0.19083338975906372,-0.5868273002185349,-0.6664867606648335,-0.7034300321922206,-0.5147997736930847,0.5537219047546387,-0.6545022130012512,-1.1352819204330444,-1.0915418863296509,0.6676328778266907
5.560713052749634,-0.158574640750885,0.2250499725341797,-0.05215716361999512,-0.608059340411937,-0.6882131594537853,-0.7054675626684862,-0.5213112235069275,0.5712757110595703,-0.6339390277862549,-0.43928173184394836,-1.185472011566162,0.31489527225494385
5.580013036727905,-0.19391262531280518,0.4453912377357483,-0.08035421371459961,-0.6089094680945438,-0.7020763248429183,-0.6945185981437407,-0.5297354459762573,0.5719732642173767,-0.6262803077697754,0.9008892774581909,-1.021574854850769,0.47066450119018555
5.600028991699219,-0.15857338905334473,0.30217933654785156,-0.01736384630203247,-0.5963432520562651,-0.713204760586218,-0.6701754359838593,-0.541331946849823,0.5616206526756287,-0.6257330179214478,1.0954092741012573,-1.3714673519134521,0.22208581864833832
5.6201019287109375,-0.15703296661376953,0.0683983564376831,0.0067901611328125,-0.5835274939032093,-0.7266107636974033,-0.6468491839534017,-0.554408073425293,0.5509711503982544,-0.623748779296875,1.0481172800064087,-1.3291188478469849,0.4586372971534729
5.64006781578064,-0.14647024869918823,0.07919573783874512,-0.03295010328292847,-0.5766021702412452,-0.7401344655520693,-0.6217462816895462,-0.5653522610664368,0.5451785922050476,-0.6189969778060913,0.8810426592826843,-1.4078460931777954,0.5172092318534851
5.6600501537323,-0.23283874988555908,0.15817183256149292,-0.15119165182113647,-0.5645852944949233,-0.7544626370821578,-0.5939739232941821,-0.5786084532737732,0.5350655317306519,-0.6155625581741333,1.6802722215652466,-1.4847382307052612,0.4443095922470093
5.680040121078491,-0.32239586114883423,0.15930068492889404,-0.11499148607254028,-0.5434665330389503,-0.7623721844604289,-0.5582233988409991,-0.591132640838623,0.5171061754226685,-0.6190020442008972,1.8956395387649536,-1.1729813814163208,0.30406442284584045
5.6999499797821045,-0.3333245515823364,-0.07899549603462219,-0.038475751876831055,-0.5216977659894017,-0.7647475998002751,-0.5241915425352848,-0.6002539396286011,0.4983527660369873,-0.6255715489387512,1.615234613418579,-0.8090478181838989,0.3154895007610321
5.720020055770874,-0.2530781626701355,-0.18060052394866943,0.02814793586730957,-0.5056457220343514,-0.7655971726592316,-0.49641669150978535,-0.6062510013580322,0.48437246680259705,-0.6307479739189148,1.224128007888794,-0.74619460105896,0.3450082242488861
5.739949941635132,-0.1921478509902954,-0.19855421781539917,0.08378767967224121,-0.49673090222225197,-0.7679979911239511,-0.47419677498490864,-0.6107391119003296,0.4765540659427643,-0.6323716640472412,0.7698639035224915,-0.5446250438690186,0.44658365845680237
5.760169982910156,-0.1582222580909729,-0.1811145842075348,0.06536155939102173,-0.4947720004484772,-0.770602604493603,-0.4578641036807091,-0.6130332350730896,0.4748310148715973,-0.6314473748207092,0.4400103688240051,-0.5040295124053955,0.4177815318107605
5.780041933059692,-0.12665343284606934,-0.11406674981117249,0.061701834201812744,-0.49418175327923614,-0.7734354600603022,-0.4440364500893311,-0.6150152683258057,0.4743114709854126,-0.6299086213111877,0.45285651087760925,-0.426845520734787,0.419743150472641
5.800034999847412,-0.1125403642654419,-0.10055211186408997,0.055872321128845215,-0.49254119933611196,-0.7755273061741368,-0.43089869500684563,-0.6168755292892456,0.4728665351867676,-0.6291755437850952,0.5088159441947937,-0.42365381121635437,0.26218998432159424
5.820032835006714,-0.10348910093307495,-0.08696243166923523,0.054758667945861816,-0.48718722534491243,-0.7779874241683375,-0.4187337010694085,-0.6201894879341125,0.46814221143722534,-0.6294504404067993,0.5918776988983154,-0.3854052424430847,0.13834010064601898
5.840039014816284,-0.09283286333084106,-0.1424846649169922,0.07373368740081787,-0.4810791391662643,-0.7809057835648955,-0.4091466004809861,-0.6240251064300537,0.4627360999584198,-0.6296571493148804,0.41194862127304077,-0.3532279133796692,0.04526906833052635
5.860068082809448,-0.09111011028289795,-0.18668979406356812,0.05030810832977295,-0.4775027624074664,-0.7854105073549499,-0.4040220807917768,-0.6280213594436646,0.4595626890659332,-0.628005862236023,0.18092526495456696,-0.34822359681129456,0.021672308444976807
5.880039930343628,-0.13508617877960205,-0.15482282638549805,0.025006651878356934,-0.47601836672154496,-0.7910204944409926,-0.40221036872945404,-0.6320189237594604,0.45824384689331055,-0.6249517202377319,0.042112186551094055,-0.2623984217643738,-0.017819980159401894
5.899449110031128,-0.21520400047302246,-0.15641659498214722,0.01356208324432373,-0.47585438947886644,-0.7951280815255557,-0.40398469636892514,-0.6346343159675598,0.45809808373451233,-0.6224030256271362,-0.12714265286922455,-0.07019933313131332,-0.10962655395269394
5.920063018798828,-0.2508046627044678,-0.13933065533638,0.01553964614868164,-0.476494047086826,-0.7966888858426157,-0.40932717551684816,-0.6353952884674072,0.45866659283638,-0.6212067604064941,-0.2779747247695923,0.15679998695850372,-0.1601761132478714
5.9400341510772705,-0.24812114238739014,-0.1344141662120819,0.025933027267456055,-0.4801170854260647,-0.7960741719589154,-0.41839437795649015,-0.6338216066360474,0.4618830382823944,-0.6204307079315186,-0.5557739734649658,0.3074985146522522,-0.1448519080877304
5.959998846054077,-0.24072706699371338,-0.12283101677894592,0.03815716505050659,-0.4880280315094666,-0.7949881131506386,-0.43224247453685505,-0.6305192708969116,0.46888503432273865,-0.6185404658317566,-0.8720371127128601,0.4589065909385681,-0.16075429320335388
5.9800169467926025,-0.2098149061203003,-0.12126114964485168,0.05938887596130371,-0.4993105138835344,-0.7939208976540119,-0.45099434475594113,-0.6260462999343872,0.4788203537464142,-0.615464985370636,-1.0806883573532104,0.5137462615966797,-0.17601042985916138
6.000037908554077,-0.18715566396713257,-0.10466289520263672,0.06254875659942627,-0.5130272883323713,-0.7932913804604397,-0.4718588608447846,-0.6209192872047424,0.4908170700073242,-0.6111937761306763,-1.2199079990386963,0.5604779720306396,-0.173143669962883
6.020010948181152,-0.20428800582885742,-0.0844343900680542,0.07065188884735107,-0.5266405695081602,-0.7933427100811551,-0.49568682053470664,-0.6161312460899353,0.5026319622993469,-0.6064184308052063,-1.1631580591201782,0.6423231959342957,-0.26838311553001404
6.040009021759033,-0.22323250770568848,-0.058615028858184814,0.06347769498825073,-0.5389147955149228,-0.7913842069121427,-0.519237896799206,-0.6105077862739563,0.5132048726081848,-0.6032421588897705,-1.1696052551269531,0.7493445873260498,-0.3046964406967163
6.05997896194458,-0.2359093427658081,-0.07336825132369995,0.08862495422363281,-0.5507775008401825,-0.7883018192713431,-0.5452942985469053,-0.6042853593826294,0.5233498811721802,-0.6007862091064453,-1.2792340517044067,0.93094402551651,-0.4009939432144165
6.080060958862305,-0.16783815622329712,-0.10867953300476074,0.12950152158737183,-0.564465430648219,-0.7846388572736205,-0.5751021106440635,-0.5969628095626831,0.5349642634391785,-0.5978700518608093,-1.4851123094558716,0.9829095602035522,-0.4083092510700226
6.100013017654419,-0.08304119110107422,-0.12649190425872803,0.147452712059021,-0.5809758248697312,-0.7840087258592912,-0.608067291476736,-0.5902681350708008,0.5488399267196655,-0.591910719871521,-1.6541308164596558,0.8608060479164124,-0.3826889097690582
6.120008945465088,-0.0544772744178772,-0.1401277780532837,0.18617242574691772,-0.6001664025717897,-0.7876309953360349,-0.6441174540379104,-0.584835410118103,0.5647798180580139,-0.5822295546531677,-1.8568462133407593,0.8243274688720703,-0.3892137110233307
6.140008926391602,-0.062214434146881104,-0.17400842905044556,0.2200360894203186,-0.622197059539937,-0.7947648793479725,-0.6855530676706202,-0.5799517035484314,0.5828219056129456,-0.5691877603530884,-2.1089727878570557,0.8618879914283752,-0.43507981300354004
6.160027980804443,-0.06365901231765747,-0.1610841155052185,0.23529160022735596,-0.6457003471902717,-0.8040957306278851,-0.7322770622506424,-0.575211226940155,0.6017579436302185,-0.5540934801101685,-2.1775169372558594,0.9888895750045776,-0.5005568265914917
6.180047035217285,-0.04340285062789917,-0.10963845252990723,0.23406004905700684,-0.6676335804839796,-0.8111654346903943,-0.7791046170581762,-0.5694053769111633,0.6191294193267822,-0.5407922863960266,-2.037461042404175,1.127768635749817,-0.49118515849113464
6.200016021728516,-0.027481675148010254,-0.03823810815811157,0.2343968152999878,-0.6860666688129232,-0.817804693047145,-0.8254089583004056,-0.5645593404769897,0.6334987282752991,-0.5291050672531128,-1.8838222026824951,1.1244666576385498,-0.6716391444206238
6.220016956329346,-0.03497886657714844,-0.004037141799926758,0.20468056201934814,-0.6994241567313257,-0.8268174882669483,-0.8744868892836237,-0.5630283355712891,0.6437771320343018,-0.5182182192802429,-1.7933000326156616,1.1217739582061768,-0.9024552702903748
6.240016937255859,-0.06319594383239746,0.014273405075073242,0.15986371040344238,-0.7082106632415254,-0.837408100776788,-0.9251768069203986,-0.5642606616020203,0.6504757404327393,-0.5084202885627747,-1.6502840518951416,1.1210194826126099,-1.0630269050598145
6.260032892227173,-0.09258407354354858,0.018108606338500977,0.14753711223602295,-0.7113620738800381,-0.8480340625956131,-0.9762333736213554,-0.5680910348892212,0.6528661251068115,-0.5010374784469604,-1.5002481937408447,1.125548243522644,-1.271976351737976
6.279989957809448,-0.07573479413986206,0.05549967288970947,0.18201836943626404,-0.7113527402963326,-0.8613191529362274,-1.0307683328943902,-0.5747015476226807,0.6528590321540833,-0.49345025420188904,-1.5831435918807983,1.1080187559127808,-1.453593134880066
6.300034999847412,-0.07437574863433838,0.14202946424484253,0.1670626401901245,-0.7070334960707705,-0.8784730874123096,-1.0897447890706828,-0.5852463841438293,0.6495811939239502,-0.485315203666687,-1.5283550024032593,1.0337542295455933,-1.7518459558486938
6.319965124130249,-0.08432239294052124,0.20358264446258545,0.14667898416519165,-0.6962663152107943,-0.8942496169483305,-1.1472892726047093,-0.5982490181922913,0.6413575410842896,-0.48037347197532654,-1.2084869146347046,1.1189048290252686,-1.8034698963165283
6.3399739265441895,-0.04412323236465454,0.14358937740325928,0.15193778276443481,-0.6843473494098747,-0.9051326110243706,-1.1998048920835716,-0.6094107031822205,0.6321674585342407,-0.4785216450691223,-1.3069723844528198,1.0981372594833374,-1.6673399209976196
6.360038995742798,-0.009266912937164307,0.14018094539642334,0.13172009587287903,-0.675993820086598,-0.9201806756241337,-1.2548933429636324,-0.6207226514816284,0.6256728768348694,-0.47247937321662903,-1.541588544845581,0.876071035861969,-1.629736065864563
6.380019903182983,-0.01632523536682129,0.2400379180908203,0.07922497391700745,-0.6684812154497687,-0.9379971232976605,-1.309770632856472,-0.6328141093254089,0.6197947859764099,-0.46411269903182983,-1.4100921154022217,0.7951851487159729,-1.5364515781402588
6.400018930435181,-0.016070783138275146,0.2882234454154968,0.0544816255569458,-0.6601306248534633,-0.9519668574102048,-1.3583218677397217,-0.6434293389320374,0.6132200360298157,-0.4582139253616333,-1.2335119247436523,0.7908075451850891,-1.3829758167266846
6.420006036758423,0.014223933219909668,0.2783111333847046,0.048123568296432495,-0.6524576947046039,-0.9640017610546292,-1.402940794882532,-0.6527431607246399,0.6071410775184631,-0.4531070590019226,-1.243664264678955,0.7397988438606262,-1.2838225364685059
6.440015077590942,0.050649285316467285,0.2638248801231384,0.029795587062835693,-0.6463723159468509,-0.9759051583463606,-1.446439206113345,-0.661138117313385,0.6022945046424866,-0.4473676383495331,-1.2673059701919556,0.7029725313186646,-1.1975438594818115
6.460018873214722,0.10786855220794678,0.24901717901229858,0.004184305667877197,-0.640392138278203,-0.9877647092526809,-1.4881767615439425,-0.669391930103302,0.5975099205970764,-0.4414707124233246,-1.190710186958313,0.6020060181617737,-1.1537022590637207
6.480018854141235,0.1750267744064331,0.2428053617477417,-0.004605740308761597,-0.6340341666430103,-1.0003848922838117,-1.5270238510446408,-0.6780937314033508,0.5923996567726135,-0.435030460357666,-1.0815166234970093,0.4585985541343689,-1.077776312828064
6.500011920928955,0.20061665773391724,0.22241288423538208,-0.0303286612033844,-0.6272787826544891,-1.012446731873227,-1.5615166687632047,-0.6866700649261475,0.5869437456130981,-0.4289303719997406,-0.9109267592430115,0.36977583169937134,-0.9878950119018555
6.520058870315552,0.23088586330413818,0.21440845727920532,-0.05798530578613281,-0.6202026495017251,-1.0236611071516537,-1.5914779148845024,-0.6949666738510132,0.5812000632286072,-0.4233531653881073,-0.7783078551292419,0.25630882382392883,-0.8838798999786377
6.5400450229644775,0.2558169364929199,0.1910133957862854,-0.08621984720230103,-0.6141445017465611,-1.033489689879803,-1.6169882202089993,-0.7021059989929199,0.5762595534324646,-0.41829678416252136,-0.7449055910110474,0.24986840784549713,-0.7110366821289062
6.560019016265869,0.27058106660842896,0.19739526510238647,-0.11834084987640381,-0.610746060105944,-1.0423472967482152,-1.6412156379622815,-0.707470715045929,0.5734788179397583,-0.4130465090274811,-0.8420196175575256,0.32956698536872864,-0.5904343128204346
6.58002781867981,0.2739377021789551,0.21632319688796997,-0.20959770679473877,-0.6138513534351041,-1.0491993672278161,-1.6703189761733266,-0.7087368965148926,0.5760199427604675,-0.4072999358177185,-1.3187493085861206,0.6113707423210144,-0.3817787766456604
6.6000189781188965,0.2663998603820801,0.23967576026916504,-0.3483392596244812,-0.6202604001074332,-1.0538748290595426,-1.7029413092553227,-0.7074092626571655,0.581247091293335,-0.40214893221855164,-1.245939016342163,0.7622042298316956,-0.372073233127594
6.620097875595093,0.2816290855407715,0.24353653192520142,-0.32644200325012207,-0.6237522465012542,-1.0549782444429343,-1.7288996949669486,-0.706082820892334,0.5840849280357361,-0.40036463737487793,-0.7700955271720886,0.6278437376022339,-0.3622616231441498
6.640055894851685,0.2886245846748352,0.10400122404098511,-0.20022010803222656,-0.6224104123256593,-1.0532984801696639,-1.7445372388470082,-0.7060897946357727,0.5829952359199524,-0.40193748474121094,-0.27610617876052856,0.4139789640903473,-0.42024970054626465
6.660011053085327,0.2956194281578064,-0.000878453254699707,-0.0817115306854248,-0.617206477637651,-1.0533076373529506,-1.7539691363676,-0.7087205648422241,0.5787593126296997,-0.40342646837234497,-0.1753343790769577,0.15766258537769318,-0.4299340844154358
6.6800079345703125,0.2814174294471741,-0.09440851211547852,-0.02333986759185791,-0.6096968745780708,-1.0565538936760719,-1.7613633315993538,-0.7137904763221741,0.5726189613342285,-0.4032500982284546,-0.014162752777338028,-0.05975663661956787,-0.5223482847213745
6.700012922286987,0.26137828826904297,-0.10509234666824341,0.008560419082641602,-0.599333107537555,-1.0639514395311511,-1.7692104305855756,-0.7219038009643555,0.5640919208526611,-0.4008180797100067,-0.02781876176595688,-0.23500791192054749,-0.7266587615013123
6.720011949539185,0.24080127477645874,-0.16781985759735107,0.023430466651916504,-0.5851885909699083,-1.075152860912523,-1.7787739214653875,-0.7332939505577087,0.5523566007614136,-0.396462082862854,-0.007571414578706026,-0.34075093269348145,-0.8689385056495667
6.740006923675537,0.24979329109191895,-0.25758588314056396,0.045126914978027344,-0.5698518349237086,-1.089581651419396,-1.7900763612349415,-0.7463600635528564,0.5395073294639587,-0.38971617817878723,-0.09995844215154648,-0.5052618980407715,-0.9598143100738525
6.760052919387817,0.22765827178955078,-0.2625938057899475,0.029030412435531616,-0.5524631573216776,-1.1091907707582092,-1.8045584897978084,-0.762143075466156,0.5247855186462402,-0.379128098487854,-0.2329515814781189,-0.7270615100860596,-1.156899094581604
6.7800281047821045,0.15397101640701294,-0.2019243836402893,0.018720805644989014,-0.5330212294076643,-1.1371330134435067,-1.8250199647181768,-0.7815497517585754,0.5081377625465393,-0.3619062602519989,-0.5733939409255981,-0.9468852281570435,-1.390798568725586
6.800059080123901,0.036611974239349365,-0.158308207988739,0.02614063024520874,-0.5108342565074454,-1.1717777369227889,-1.8563043352800337,-0.8038085699081421,0.4889051616191864,-0.33891531825065613,-0.9664870500564575,-0.9427815675735474,-1.7300246953964233
6.8200109004974365,0.017944276332855225,-0.0972975492477417,0.030885159969329834,-0.4862433395734709,-1.2077274910111744,-1.8940619062520585,-0.8264617323875427,0.4673079550266266,-0.3139815330505371,-1.227593183517456,-0.8539374470710754,-1.7603232860565186
6.840008020401001,0.08380967378616333,-0.04158380627632141,0.03404662013053894,-0.4617317871074551,-1.2442958890405877,-1.9368877345844775,-0.847985029220581,0.4454992115497589,-0.28714418411254883,-1.511038899421692,-0.9090108275413513,-1.8437533378601074
6.860008001327515,0.12924164533615112,0.005789339542388916,-0.007133752107620239,-0.4357747729098123,-1.2837861267830204,-1.9803940610279696,-0.8694607019424438,0.4221128821372986,-0.25662970542907715,-1.3665821552276611,-1.1392446756362915,-1.8174755573272705
6.8800208568573,0.07276242971420288,0.1282983124256134,-0.07125937938690186,-0.40655161024817704,-1.3221219593859963,-2.013701206055729,-0.8902367949485779,0.3954443633556366,-0.22605814039707184,-0.6670421361923218,-1.3489744663238525,-1.8645203113555908
6.900063991546631,-0.04041457176208496,0.2345479428768158,-0.16910532116889954,-0.36811589258726807,-1.3544692370970548,-2.0240716526946927,-0.9112607836723328,0.3598581850528717,-0.2002641260623932,0.6282042860984802,-1.4734381437301636,-2.07806658744812
6.9200451374053955,-0.06059622764587402,0.3055952489376068,-0.1306290626525879,-0.32246169816902154,-1.3788632400668974,-2.008226189638012,-0.931041955947876,0.3169023394584656,-0.1809248924255371,1.7164413928985596,-1.4963551759719849,-2.0986487865448
6.940039873123169,-0.05232346057891846,0.35006284713745117,-0.09662580490112305,-0.274400478226262,-1.3984829793321243,-1.972799404092582,-0.948332667350769,0.2709698975086212,-0.16504713892936707,2.428999185562134,-1.5139505863189697,-2.009700059890747
6.960013151168823,-0.0958297848701477,0.4131235182285309,-0.13084904849529266,-0.22778780142061317,-1.417118806981425,-1.9261653491214061,-0.962687611579895,0.2258230298757553,-0.14911919832229614,2.757033586502075,-1.5042732954025269,-1.870285153388977
6.980017900466919,-0.139349102973938,0.44760382175445557,-0.17992383241653442,-0.18549239068892276,-1.4359011051463755,-1.873562537926873,-0.9739169478416443,0.18443049490451813,-0.13217945396900177,2.932997703552246,-1.44041907787323,-1.5526024103164673
7.000010013580322,-0.1890028715133667,0.4881090521812439,-0.193311408162117,-0.15190938542975807,-1.453547441429422,-1.8194649708140145,-0.9816973209381104,0.15132580697536469,-0.1156332865357399,2.679394483566284,-1.2210897207260132,-1.1218928098678589
7.020012140274048,-0.22237563133239746,0.47471922636032104,-0.09577597677707672,-0.1290167194626588,-1.4683230525466606,-1.7764860214263865,-0.9864867925643921,0.12865909934043884,-0.10144386440515518,1.7496798038482666,-0.8312782049179077,-0.6656241416931152
7.04000997543335,-0.22635823488235474,0.418967068195343,-0.07296132296323776,-0.11892599592349701,-1.4767262464379705,-1.7502086349874546,-0.9885464310646057,0.11864585429430008,-0.09326792508363724,1.077682375907898,-0.3246392607688904,-0.06119872257113457
7.0600199699401855,-0.16517120599746704,0.4468030333518982,-0.13328807055950165,-0.12316450629728062,-1.4761304187110258,-1.728617554367326,-0.9879812002182007,0.1228533536195755,-0.09380853176116943,1.10750412940979,0.06712629646062851,0.6659431457519531
7.080102920532227,-0.058345258235931396,0.4376358985900879,-0.1655629277229309,-0.1395068234262472,-1.4700599109413075,-1.700994498018222,-0.9852643609046936,0.13905474543571472,-0.09958909451961517,1.4874370098114014,0.15445703268051147,1.205185890197754
7.100008010864258,0.01865285634994507,0.3435133695602417,-0.13955916464328766,-0.1646762333485496,-1.4613293078353444,-1.6649657797483763,-0.9805670380592346,0.1639329493045807,-0.10777056962251663,1.7106139659881592,0.16759546101093292,1.6611663103103638
7.120010137557983,0.04552179574966431,0.24680258333683014,-0.0644412562251091,-0.196600127069274,-1.4518391754982156,-1.627510186594134,-0.9738054275512695,0.19533608853816986,-0.1163906455039978,1.6753250360488892,0.08627869188785553,1.9234049320220947
7.140010118484497,0.028098583221435547,0.21080484986305237,-0.053929030895233154,-0.23192738883676167,-1.4409627486803342,-1.587078679401787,-0.965034008026123,0.22985373437404633,-0.12600260972976685,1.7534053325653076,0.07407297939062119,1.99159836769104
7.1600189208984375,-0.00901859998703003,0.1807621419429779,-0.007264241576194763,-0.26620318196344933,-1.429439286631604,-1.5441065044885818,-0.9551537036895752,0.2630702555179596,-0.13592424988746643,1.9635087251663208,0.020481742918491364,1.9801868200302124
7.180016994476318,-0.05231153964996338,0.14911317825317383,0.005232110619544983,-0.2982356423025165,-1.414631949344922,-1.4945776752037614,-0.9442245960235596,0.2938341796398163,-0.14866472780704498,2.252281665802002,0.06306613236665726,1.848989486694336
7.20002007484436,-0.04416447877883911,0.1126566231250763,0.042500197887420654,-0.3248666140518799,-1.396650110863199,-1.4400572227604087,-0.9333593249320984,0.3191823661327362,-0.16420429944992065,2.432774066925049,0.013297156430780888,1.6257272958755493
7.220018148422241,-0.04216742515563965,0.07635819911956787,0.05266581475734711,-0.34598492026498767,-1.3784521194072508,-1.3820731270088698,-0.9233936071395874,0.339123398065567,-0.17983262240886688,2.582096815109253,-0.13792964816093445,1.425372838973999
7.239988088607788,-0.1382044553756714,0.07154056429862976,0.04273350536823273,-0.36091107823624374,-1.3607779926988002,-1.320658595556923,-0.9150181412696838,0.35312676429748535,-0.19504673779010773,2.7849929332733154,-0.21683503687381744,1.1651633977890015
7.26006007194519,-0.2654975652694702,0.08714863657951355,0.0462317019701004,-0.368082520538577,-1.3413866609608271,-1.2565239856027688,-0.9085747003555298,0.35982704162597656,-0.2121710479259491,2.879110813140869,-0.11013343185186386,0.8404912948608398
7.279713869094849,-0.28164398670196533,0.0573805570602417,0.1284094750881195,-0.3690456933847777,-1.3190022234508576,-1.1959180245161818,-0.9032621383666992,0.3607255518436432,-0.23236767947673798,2.5279533863067627,0.176682710647583,0.638333261013031
7.3000099658966064,-0.19570541381835938,-0.028541862964630127,0.22995728254318237,-0.3702568138264914,-1.2946508600038436,-1.1478003218053403,-0.8969154357910156,0.3618548512458801,-0.2541729807853699,1.7383558750152588,0.5219638347625732,0.6781984567642212
7.320019006729126,-0.12160074710845947,-0.09169244766235352,0.2692263722419739,-0.3778240501637983,-1.2701125552164172,-1.117387770812336,-0.8877682089805603,0.368898868560791,-0.27528414130210876,0.7717656493186951,0.8100777268409729,0.8688244819641113
7.340039014816284,-0.07985818386077881,-0.12699970602989197,0.23856550455093384,-0.3944258114849878,-1.2467697419821313,-1.1027753367953392,-0.8751741647720337,0.38427814841270447,-0.29393965005874634,0.05032462999224663,0.9626255631446838,1.1401662826538086
7.360010862350464,-0.052468955516815186,-0.12550106644630432,0.23223227262496948,-0.41937925486029975,-1.2249403002752008,-1.098028298318366,-0.8592589497566223,0.4071935713291168,-0.30962488055229187,-0.40717101097106934,1.0284981727600098,1.3449885845184326
7.380095958709717,-0.034274160861968994,-0.11603215336799622,0.24066999554634094,-0.4492948136599398,-1.2046501167107853,-1.0979051430736904,-0.8410462737083435,0.43433043360710144,-0.32248759269714355,-0.5921649932861328,0.9901797771453857,1.4547187089920044
7.400017976760864,-0.034408628940582275,-0.1279708445072174,0.24609816074371338,-0.4809556397609492,-1.186114434131702,-1.0975829226037441,-0.8217620253562927,0.4626266062259674,-0.3326917886734009,-0.5049988031387329,0.8348273038864136,1.4992159605026245
7.4200119972229,-0.06301629543304443,-0.14425739645957947,0.2506260275840759,-0.5110995270771498,-1.1687536401390115,-1.0926287173078044,-0.8026605844497681,0.48913654685020447,-0.3412937819957733,-0.21413014829158783,0.659349799156189,1.4282277822494507
7.440006971359253,-0.12277597188949585,-0.16582131385803223,0.2630263566970825,-0.5353605166547795,-1.151541207706405,-1.080968191112049,-0.7855950593948364,0.5101511478424072,-0.3501235246658325,0.12426959723234177,0.48800259828567505,1.1854863166809082
7.460009813308716,-0.15501868724822998,-0.23328804969787598,0.31131982803344727,-0.5526320589913936,-1.1361305150262635,-1.0677683563645104,-0.7719985246658325,0.5249292850494385,-0.35842376947402954,0.14127571880817413,0.39081743359565735,0.8482630848884583
7.480005979537964,-0.13477331399917603,-0.32059675455093384,0.3415711522102356,-0.5644873237783167,-1.1249115703293306,-1.0600521228168707,-0.762260377407074,0.5349827408790588,-0.3643525242805481,-0.07850537449121475,0.30794379115104675,0.5015160441398621
7.499343156814575,-0.08591556549072266,-0.36389851570129395,0.34099268913269043,-0.5721787256306045,-1.1210437346513813,-1.0606538583536473,-0.7571172714233398,0.5414650440216064,-0.3654983341693878,-0.2781713902950287,0.10391272604465485,0.18257243931293488
7.5199689865112305,-0.08438396453857422,-0.3504486680030823,0.3069624900817871,-0.5759138777607836,-1.1243223919741516,-1.0672851791806608,-0.7564821243286133,0.5446015000343323,-0.3621383011341095,-0.3746148943901062,-0.06003982201218605,-0.10387180000543594
7.5400121212005615,-0.11888271570205688,-0.3188117742538452,0.3011041581630707,-0.5741619408313227,-1.1321632687616163,-1.0792108029292071,-0.7601609826087952,0.5431312918663025,-0.35660043358802795,-0.4574994444847107,-0.05010569468140602,-0.4769299626350403
7.560009956359863,-0.11924129724502563,-0.33263713121414185,0.30743277072906494,-0.5675258485859074,-1.1422742848315548,-1.0968015238952382,-0.7669891715049744,0.5375474095344543,-0.35038629174232483,-0.6358196139335632,-0.013882976956665516,-0.7291610836982727
7.580009937286377,-0.10978829860687256,-0.3614434599876404,0.3132786750793457,-0.5591671003088841,-1.1558368930354175,-1.1212861612672227,-0.7757555246353149,0.5304803252220154,-0.3417515754699707,-0.9275325536727905,-0.04870247468352318,-0.8701200485229492
7.600028038024902,-0.16850346326828003,-0.34481579065322876,0.29052820801734924,-0.5505731097910208,-1.1739532576838994,-1.1526568834730098,-0.785994827747345,0.5231757164001465,-0.32939228415489197,-1.1783493757247925,-0.13670441508293152,-0.9749877452850342
7.620018005371094,-0.32527780532836914,-0.3027820587158203,0.31269484758377075,-0.541222762992728,-1.1974716467182087,-1.19103348582444,-0.7980437278747559,0.5151844024658203,-0.312588095664978,-1.5627444982528687,-0.1541346311569214,-1.162672758102417
7.640017032623291,-0.49908220767974854,-0.3026673197746277,0.40721988677978516,-0.5295574135524149,-1.2222751906464397,-1.2426529591308086,-0.811144232749939,0.5051514506340027,-0.29473209381103516,-2.2371387481689453,0.3663816452026367,-1.4882739782333374
7.660045862197876,-0.41855090856552124,-0.33676865696907043,0.44802889227867126,-0.5180481824766376,-1.2448956920946346,-1.31200001794772,-0.8230567574501038,0.49518537521362305,-0.27815279364585876,-3.0597946643829346,0.7587903738021851,-1.5233219861984253
7.6800501346588135,-0.18959802389144897,-0.26815900206565857,0.3521353602409363,-0.5105750308871723,-1.2715952585694368,-1.3941251473994065,-0.8337021470069885,0.48867902159690857,-0.2571646571159363,-3.390564203262329,0.5567476749420166,-1.4112004041671753
7.700103044509888,-0.11159878969192505,-0.15265068411827087,0.217961847782135,-0.5015739456103161,-1.3008872292275955,-1.4741639696162951,-0.8450815081596375,0.4808062016963959,-0.2338004857301712,-3.0297152996063232,0.4333447515964508,-1.4568980932235718
7.720014810562134,-0.05673825740814209,-0.09827941656112671,0.14462816715240479,-0.48588693101814084,-1.3249605188567584,-1.5423151726184303,-0.8576751947402954,0.4669928252696991,-0.21520006656646729,-2.385573625564575,0.39315569400787354,-1.5857394933700562
7.740013837814331,0.030297458171844482,-0.10454615950584412,0.13360381126403809,-0.46487539860667765,-1.3438165065933467,-1.59647706404384,-0.870949923992157,0.4483114182949066,-0.2011544555425644,-1.8487499952316284,0.19193294644355774,-1.5742794275283813
7.760059118270874,0.014503240585327148,-0.13587376475334167,0.2021295428276062,-0.4428057871734966,-1.3614566677480993,-1.642026470861417,-0.8838270306587219,0.42847633361816406,-0.1877709925174713,-1.7969536781311035,0.06145305559039116,-1.4775774478912354
7.780010938644409,-0.16341906785964966,-0.22096088528633118,0.30596935749053955,-0.42195444024736894,-1.380463491315361,-1.6934890819270558,-0.8958154916763306,0.4095442593097687,-0.17259229719638824,-2.4641239643096924,0.27172037959098816,-1.529720425605774
7.80009388923645,-0.3752751350402832,-0.25394126772880554,0.39779865741729736,-0.40176294133281615,-1.3973895747803502,-1.762715378493767,-0.9065700173377991,0.39104151725769043,-0.15880025923252106,-3.4485554695129395,0.8406710624694824,-1.5828406810760498
7.820016145706177,-0.449573814868927,-0.111136794090271,0.3825889229774475,-0.38208459261846145,-1.4089773770125833,-1.8507799682917965,-0.9157673120498657,0.372855544090271,-0.1494956612586975,-4.177261829376221,1.2923692464828491,-1.7728909254074097
7.840019941329956,-0.34857016801834106,0.08592012524604797,0.2994035482406616,-0.35784059645421923,-1.417426142323036,-1.9482350994604536,-0.9256609082221985,0.3502524197101593,-0.14309251308441162,-4.383955001831055,1.343652367591858,-2.008840322494507
7.86001992225647,-0.20411080121994019,0.18605059385299683,0.23379004001617432,-0.3318797607988908,-1.4243291356601733,-2.0481892867801594,-0.9353087544441223,0.32582077383995056,-0.1379801332950592,-4.573122501373291,1.3685619831085205,-1.9374452829360962
7.880018949508667,-0.1357177495956421,0.19238916039466858,0.20288515090942383,-0.3078259034459376,-1.4278681491367542,-2.1496752651285616,-0.9432770609855652,0.3029874563217163,-0.13574649393558502,-4.557339668273926,1.4106569290161133,-1.871896743774414
7.900008916854858,-0.07462358474731445,0.2780154049396515,0.16179996728897095,-0.2818540036198428,-1.4293607782905051,-2.2436496350210544,-0.9509501457214355,0.2781369686126709,-0.13540223240852356,-3.9504549503326416,1.2105062007904053,-1.940513014793396
7.920020818710327,0.008603036403656006,0.35427409410476685,0.13684004545211792,-0.25296857076166135,-1.430049741307484,-2.3217996021930216,-0.9586000442504883,0.25027915835380554,-0.13581770658493042,-3.1194310188293457,0.8020099401473999,-1.957647442817688
7.94002103805542,0.028989136219024658,0.3665955364704132,0.11741995811462402,-0.22153100476026863,-1.4316867846788253,-2.3824127599981386,-0.9661381840705872,0.21972346305847168,-0.13527274131774902,-2.2594714164733887,0.4789901077747345,-1.961943507194519
7.96002197265625,-0.0015444159507751465,0.40797996520996094,0.08031123876571655,-0.18701083175887478,-1.4335461383123087,-2.4258580133885412,-0.9733243584632874,0.18592268228530884,-0.13443414866924286,-1.5254980325698853,0.25302034616470337,-2.044219732284546
7.980021953582764,0.01813983917236328,0.45248520374298096,0.07247339189052582,-0.1490642006618576,-1.4352525729580772,-2.4564994110291205,-0.9798403382301331,0.14851278066635132,-0.13363060355186462,-0.9992367029190063,0.07358970493078232,-2.1031501293182373
8.000011920928955,0.06401282548904419,0.45255592465400696,0.05034707486629486,-0.11018218606149495,-1.4392887754252741,-2.4794517497636535,-0.9853538870811462,0.10995938628911972,-0.13033369183540344,-0.7840505838394165,-0.18819059431552887,-2.0428175926208496
8.02002215385437,0.06847506761550903,0.47443538904190063,-0.00806223601102829,-0.07282443981399993,-1.4476834002480132,-2.4992136582044537,-0.989800751209259,0.07276009023189545,-0.12247668206691742,-0.7147998213768005,-0.4579783082008362,-1.9113810062408447
8.040050983428955,0.05599886178970337,0.5247377157211304,-0.06221151351928711,-0.03790871731109963,-1.459941430718752,-2.5177236476207847,-0.9931479096412659,0.03789963945746422,-0.11054851859807968,-0.7051169872283936,-0.6708917617797852,-1.7814337015151978
8.060009956359863,0.0634424090385437,0.5688992738723755,-0.10355967283248901,-0.00527376320893971,-1.4759857630310238,-2.5343073770224342,-0.995495080947876,0.005273738875985146,-0.09466727077960968,-0.6097418665885925,-0.8733661770820618,-1.607387900352478
8.07987093925476,0.07707071304321289,0.5805386304855347,-0.13277339935302734,0.022618140305279973,-1.4943541158034226,-2.5477973691136038,-0.9968246817588806,-0.02261621132493019,-0.07634825259447098,-0.4798184335231781,-0.9735609292984009,-1.288400411605835
8.100013017654419,0.07413053512573242,0.591635525226593,-0.14570403099060059,0.04428667894726644,-1.5132107884527335,-2.5569679960100733,-0.9973635077476501,-0.044272202998399734,-0.057497281581163406,-0.2355639636516571,-0.9082008004188538,-0.9054746031761169
8.120010137557983,0.07613325119018555,0.6336967945098877,-0.17724913358688354,0.058290314887219925,-1.5293352682797459,-2.5598356181584467,-0.9974435567855835,-0.05825731158256531,-0.04137878119945526,-0.028448279947042465,-0.7011512517929077,-0.5437048077583313
8.140025854110718,0.11128079891204834,0.6701529622077942,-0.2183501124382019,0.06642672796025514,-1.5407235514536757,-2.560630491974402,-0.9973434209823608,-0.06637788563966751,-0.0300019308924675,-0.023952452465891838,-0.47089239954948425,-0.27968794107437134
8.160011053085327,0.17578887939453125,0.6534544229507446,-0.29743868112564087,0.06931186640566789,-1.5492730277480806,-2.5598603112261444,-0.9973678588867188,-0.06925638020038605,-0.02146996185183525,0.11801404505968094,-0.398070752620697,0.0015313505427911878
8.180009126663208,0.20876628160476685,0.6107475757598877,-0.3612571358680725,0.06558271708897469,-1.5579409951368566,-2.555882216051865,-0.9977678060531616,-0.06553571671247482,-0.012827342376112938,0.2677627503871918,-0.47342821955680847,0.38080400228500366
8.200017929077148,0.1478685736656189,0.5673015117645264,-0.38223421573638916,0.05503066801283397,-1.5692238545009234,-2.5494570853106264,-0.9984850287437439,-0.05500289797782898,-0.001570091350004077,0.38140204548835754,-0.6121723055839539,0.6457781791687012
8.220092058181763,-0.03592711687088013,0.590221643447876,-0.4205530881881714,0.041328952740924095,-1.5812175151348782,-2.5385887026478655,-0.9990919828414917,-0.04131718724966049,0.010412102565169334,0.7449028491973877,-0.472484827041626,0.6901548504829407
8.239982843399048,-0.1670515537261963,0.6142851114273071,-0.41822195053100586,0.027511812963618407,-1.5874597914372535,-2.5201155786857625,-0.9994828701019287,-0.027508342638611794,0.016656389459967613,1.0957266092300415,-0.1048305481672287,0.6860952973365784
8.260010957717896,-0.115059494972229,0.5256529450416565,-0.3401303291320801,0.011538778733781199,-1.5884189319563338,-2.497897292932373,-0.9997780919075012,-0.011538522318005562,0.017620518803596497,1.0995315313339233,0.0037300162948668003,0.9163801670074463
8.28001093864441,-0.1068759560585022,0.4534878134727478,-0.32441914081573486,-0.01025750982281334,-1.5880730735306197,-2.4769082089039323,-0.9997982382774353,0.010257329791784286,0.017274979501962662,1.0848923921585083,0.05448427051305771,1.2126694917678833
8.300060987472534,-0.1746286153793335,0.465817391872406,-0.3643326759338379,-0.036418462633271205,-1.5843388202076518,-2.453167124863887,-0.999245285987854,0.036410413682460785,0.013533100485801697,1.404676079750061,0.27043673396110535,1.341323733329773
