timestamp,acceleration_x,acceleration_y,acceleration_z,attitude_pitch,attitude_roll,attitude_yaw,gravity_x,gravity_y,gravity_z,rotation_x,rotation_y,rotation_z
0.0,-0.091949462890625,0.4763409197330475,-0.07888835668563843,-0.12115374171936655,-1.2341082207854284,2.072596437417649,-0.936935544013977,0.12085757404565811,-0.3279414176940918,-1.1311750411987305,-1.3820838928222656,-3.2067103385925293
0.02170705795288086,-0.07641535997390747,0.5036928057670593,-0.10890588164329529,-0.06673024485369289,-1.265178643918833,2.0376967172977585,-0.9515388011932373,0.06668072938919067,-0.30021265149116516,-0.48847368359565735,-1.4138215780258179,-3.0606374740600586
0.03943800926208496,-0.06224101781845093,0.5453173518180847,-0.183479905128479,-0.010560506341252327,-1.2945063689816718,2.0164796479005127,-0.9620205760002136,0.010560310445725918,-0.27277302742004395,0.03540521115064621,-1.4490725994110107,-2.942401885986328
0.05904388427734375,-0.03403669595718384,0.5745923519134521,-0.23586933314800262,0.04627330049822619,-1.3230099563281736,2.005391815227326,-0.9684200286865234,-0.046256788074970245,-0.24499602615833282,0.31840619444847107,-1.427075982093811,-2.8355300426483154
0.07764601707458496,-0.03224426507949829,0.5748195648193359,-0.20929738879203796,0.10178968666572658,-1.3494977795451188,1.9995249886093254,-0.9705633521080017,-0.10161399841308594,-0.2183605581521988,0.3593030273914337,-1.2732990980148315,-2.691429376602173
0.10018014907836914,-0.048496127128601074,0.6360670328140259,-0.19303154945373535,0.15376209642546979,-1.3716455603782984,1.9944126065457806,-0.968670129776001,-0.15315692126750946,-0.1955028772354126,0.20668447017669678,-1.0246689319610596,-2.494523763656616
0.12085103988647461,-0.04077833890914917,0.7418755888938904,-0.19944880902767181,0.20091187226698765,-1.3884051783103952,1.988185924282736,-0.9636314511299133,-0.1995629370212555,-0.17773309350013733,0.09449233114719391,-0.7833023071289062,-2.2386672496795654
0.1390838623046875,-0.020841360092163086,0.8146874308586121,-0.2568393349647522,0.2418113342595831,-1.4009906040997082,1.9839141790516905,-0.956942081451416,-0.23946166038513184,-0.16407425701618195,0.2508242428302765,-0.6058878302574158,-1.8344005346298218
0.1590108871459961,-0.0027660727500915527,0.9208636283874512,-0.29891669750213623,0.2740428938498683,-1.4125024006402438,1.9861641010891669,-0.9506489634513855,-0.27062568068504333,-0.1517515629529953,0.48403382301330566,-0.5132099986076355,-1.2951951026916504
0.17970991134643555,-0.0066114068031311035,0.9358772039413452,-0.3054349422454834,0.2951550592692746,-1.4240064175141984,1.9945355432425897,-0.9464678764343262,-0.2908882200717926,-0.13993848860263824,0.5944070816040039,-0.42363911867141724,-0.6530518531799316
0.19872713088989258,-0.0077585577964782715,0.9179598093032837,-0.2841416001319885,0.30297543245759373,-1.4350424546124008,2.006476608129138,-0.9456717371940613,-0.2983614206314087,-0.12917308509349823,0.6804057359695435,-0.3388150632381439,0.02549470029771328
0.21984505653381348,-0.04043656587600708,0.9591072797775269,-0.3311305046081543,0.2978419961690849,-1.4478861167945793,2.0255016479655024,-0.9487602114677429,-0.29345789551734924,-0.11720310151576996,1.1246051788330078,-0.4286598861217499,0.7023472189903259
0.24005508422851562,-0.27226054668426514,0.9752224683761597,-0.36875635385513306,0.2815553525128707,-1.4646464534112915,2.057293165356489,-0.955217719078064,-0.27785009145736694,-0.10177880525588989,1.7136039733886719,-0.2597987949848175,1.2363159656524658
0.25861096382141113,-0.5151983499526978,0.8977155685424805,-0.3622261881828308,0.2567433370597379,-1.475616568596813,2.1010648602900286,-0.9628443717956543,-0.25393199920654297,-0.09192103892564774,2.22054386138916,0.2860895097255707,1.6691296100616455
0.27864885330200195,-0.24433475732803345,0.7769233584403992,-0.36040258407592773,0.22263629175246777,-1.4796692099753381,2.1529346614711375,-0.9712721705436707,-0.22080160677433014,-0.0887550488114357,2.469066619873047,0.5012947916984558,2.2105209827423096
0.2992091178894043,-0.009136676788330078,0.6358150243759155,-0.29758453369140625,0.17759492024760978,-1.4780898075652749,2.2086991193047822,-0.9800450801849365,-0.17666283249855042,-0.0911177545785904,2.5756800174713135,0.7635024785995483,2.75764536857605
0.31970787048339844,-0.04301196336746216,0.5543708801269531,-0.21991896629333496,0.12334798375174584,-1.4689664068215607,2.2671939870943563,-0.9872615337371826,-0.12303543835878372,-0.10088169574737549,2.6832082271575928,1.0027191638946533,3.193866491317749
0.33867692947387695,-0.1851348876953125,0.4520200192928314,-0.15656006336212158,0.06316125092270475,-1.4528619131210443,2.330521756510902,-0.991073727607727,-0.06311926245689392,-0.11742661893367767,2.9761691093444824,1.1678855419158936,3.4704692363739014
0.3577430248260498,-0.38569706678390503,0.372810035943985,-0.08951973915100098,0.0010754162178489405,-1.4300545802820697,2.4019939687082164,-0.990111768245697,-0.0010754159884527326,-0.14027750492095947,3.270545721054077,1.337390422821045,3.5943498611450195
0.38067197799682617,-0.5806828141212463,0.24596251547336578,0.01520867645740509,-0.05967594069516343,-1.39775705096622,2.476855904790784,-0.9833126068115234,0.05964052677154541,-0.17187054455280304,3.1165530681610107,1.6376745700836182,3.56923508644104
0.397381067276001,-0.6341126561164856,0.11551094055175781,0.10121870040893555,-0.11759378694920775,-1.3558578705095494,2.5467300273644513,-0.9702423810958862,0.11732295155525208,-0.21181431412696838,2.5819013118743896,1.8733245134353638,3.446856737136841
0.417525053024292,-0.6164770722389221,0.032871827483177185,0.19819852709770203,-0.17213964650579916,-1.3053256591150502,2.608414623130923,-0.9507073760032654,0.17129077017307281,-0.25848588347435,2.036128044128418,2.0945286750793457,3.2816014289855957
0.43738603591918945,-0.574964165687561,-0.029214859008789062,0.29692983627319336,-0.22400033959399357,-1.250957998991895,2.6614634804252226,-0.925570011138916,0.22213178873062134,-0.3065580427646637,1.4361035823822021,2.217552423477173,3.2058022022247314
0.4574718475341797,-0.5460986495018005,-0.12023812532424927,0.33766281604766846,-0.27620241663745215,-1.1938725014929932,2.7055992901664463,-0.8945600390434265,0.27270397543907166,-0.3541117310523987,0.8232800960540771,2.401453971862793,3.181110143661499
0.4775090217590332,-0.5114583969116211,-0.1744907796382904,0.3916724920272827,-0.33001523988867226,-1.1338318832130125,2.7433819785102402,-0.857148289680481,0.3240574598312378,-0.40035465359687805,0.3838670253753662,2.4344518184661865,3.2018275260925293
0.4974980354309082,-0.42324644327163696,-0.22570648789405823,0.4252115488052368,-0.38432934718239165,-1.0735310400953708,2.779079816958414,-0.8147754073143005,0.374937504529953,-0.44222497940063477,0.19463928043842316,2.3455982208251953,3.157578229904175
0.5174210071563721,-0.39735978841781616,-0.28195828199386597,0.44373613595962524,-0.43556993840206515,-1.01325258303845,2.8172341274012633,-0.7693273425102234,0.42192718386650085,-0.47970104217529297,0.2888198792934418,2.1370339393615723,3.0428974628448486
0.5375380516052246,-0.37170058488845825,-0.34888848662376404,0.4672839045524597,-0.4803199842136498,-0.953712609096152,2.860874060455947,-0.7232854962348938,0.4620629847049713,-0.5131822824478149,0.4755508005619049,1.9006811380386353,2.85638165473938
0.557563066482544,-0.35458606481552124,-0.43073731660842896,0.515429675579071,-0.5173867613730345,-0.8954341936964663,2.9077288114477926,-0.6783271431922913,0.49461063742637634,-0.5433531403541565,0.5650185346603394,1.6681078672409058,2.5745739936828613
0.5777029991149902,-0.2953280210494995,-0.47967976331710815,0.5389042496681213,-0.5466290762835138,-0.8419193283141367,2.953224917048248,-0.63722825050354,0.5198104977607727,-0.5689793229103088,0.5061855912208557,1.3687949180603027,2.200201988220215
0.5974578857421875,-0.2529258131980896,-0.5184308290481567,0.584159255027771,-0.5701007848605079,-0.7969820824664525,2.9922320181807764,-0.6021310687065125,0.539716899394989,-0.5883401036262512,0.2954399287700653,1.0623286962509155,1.7892305850982666
0.6174211502075195,-0.22482407093048096,-0.5521162152290344,0.618923544883728,-0.5895743444725836,-0.7623827640619752,3.022204065338106,-0.5740498900413513,0.5560072660446167,-0.6011012196540833,0.06007274240255356,0.7471048831939697,1.387279748916626
0.6374380588531494,-0.1937236785888672,-0.5640212297439575,0.6419881582260132,-0.6056365914306041,-0.7387103316336957,3.0426045819072667,-0.5535755753517151,0.5692855715751648,-0.6078389883041382,-0.12934181094169617,0.4499787390232086,0.9807190299034119
0.6574859619140625,-0.19017213582992554,-0.5460017323493958,0.6100341081619263,-0.6182397716877044,-0.7266258342655967,3.0534938418364455,-0.5413800477981567,0.5796016454696655,-0.6090728044509888,-0.2181033343076706,0.1330917626619339,0.5281426310539246
0.6774139404296875,-0.2223932147026062,-0.5364193916320801,0.541927695274353,-0.624846633322822,-0.7263705157501894,3.0550726104810395,-0.5386694073677063,0.5849729180335999,-0.606334924697876,-0.15263761579990387,-0.20514538884162903,-0.0010759159922599792
0.6974358558654785,-0.2549702525138855,-0.5055362582206726,0.43009018898010254,-0.6222724101361777,-0.737442564433176,3.0486242237437464,-0.5463603734970093,0.5828831195831299,-0.6014463305473328,-0.014737130142748356,-0.49277594685554504,-0.5532204508781433
0.7174649238586426,-0.30178946256637573,-0.49359673261642456,0.373205304145813,-0.6112090600304426,-0.7577610955486094,3.0337301354271746,-0.562865138053894,0.5738580226898193,-0.5948696732521057,-0.037956856191158295,-0.7188878059387207,-1.0931243896484375
0.7374119758605957,-0.3663378357887268,-0.4822102189064026,0.37719881534576416,-0.5945694566393336,-0.7903682957245703,3.006587641620415,-0.5886641144752502,0.5601521730422974,-0.5828415155410767,-0.37375709414482117,-0.9723774790763855,-1.682557463645935
0.7574160099029541,-0.5712509751319885,-0.3845940828323364,0.48587650060653687,-0.5746728554536059,-0.834960561168323,2.9631499607655982,-0.6222000122070312,0.5435602068901062,-0.5633910894393921,-0.9266802668571472,-1.0839262008666992,-2.242370367050171
0.7774229049682617,-0.5717170834541321,-0.3208796977996826,0.4696046710014343,-0.5538230151032136,-0.8896357004505956,2.9035579626115933,-0.6607201099395752,0.5259426236152649,-0.535568356513977,-1.5403625965118408,-1.221035361289978,-2.5856893062591553
0.7974190711975098,-0.3838047385215759,-0.2949696183204651,0.32577934861183167,-0.5328053286764125,-0.9515619835288932,2.833627247069068,-0.7014461159706116,0.5079517960548401,-0.4999583661556244,-1.8889381885528564,-1.3340458869934082,-2.701899290084839
0.8175029754638672,-0.23918694257736206,-0.2146880030632019,0.19345557689666748,-0.5083156664307211,-1.0138057155266063,2.763666214015164,-0.7415261268615723,0.48670655488967896,-0.4617966115474701,-1.760235071182251,-1.432877540588379,-2.6905181407928467
0.8375039100646973,-0.14649087190628052,-0.13516443967819214,0.12225985527038574,-0.4785551488956474,-1.073430497193407,2.7018639695543722,-0.7801144123077393,0.460497111082077,-0.4235140383243561,-1.4516568183898926,-1.5962605476379395,-2.6339313983917236
0.8574819564819336,-0.17207938432693481,-0.09475624561309814,0.08720582723617554,-0.443689627143927,-1.1292910088892454,2.64960334995651,-0.8165681958198547,0.4292747676372528,-0.38592708110809326,-1.171826720237732,-1.6442744731903076,-2.609705924987793
0.8774130344390869,-0.22156697511672974,-0.08657485246658325,0.06426891684532166,-0.4048731307653916,-1.1808448910243354,2.60521620656548,-0.8501493334770203,0.39390215277671814,-0.349409818649292,-0.9863471984863281,-1.6881688833236694,-2.588960647583008
0.8974609375,-0.2625805735588074,-0.05351337790489197,0.027040719985961914,-0.3631388976057925,-1.2289085817590177,2.566599674687173,-0.8806843161582947,0.35521018505096436,-0.31340232491493225,-0.8864937424659729,-1.6699053049087524,-2.600478410720825
0.9174129962921143,-0.260972797870636,-0.022814542055130005,0.011174917221069336,-0.3189350850772835,-1.2732708732607374,2.532088952413629,-0.9078505635261536,0.3135555386543274,-0.2783714830875397,-0.7999951839447021,-1.601128101348877,-2.6298911571502686
0.9374129772186279,-0.21293604373931885,0.04464295506477356,-0.019594013690948486,-0.2719284335568206,-1.3122723913072392,2.5033032835778095,-0.9312443733215332,0.26858949661254883,-0.24625977873802185,-0.5603823065757751,-1.4552042484283447,-2.6469829082489014
0.9574251174926758,-0.13131451606750488,0.10020478069782257,-0.08199584484100342,-0.2230200302461828,-1.345251650411416,2.480825296978331,-0.9505337476730347,0.22117586433887482,-0.2180986851453781,-0.43967726826667786,-1.302562952041626,-2.615180015563965
0.9774179458618164,-0.05449330806732178,0.1334541141986847,-0.08055466413497925,-0.17494734476592233,-1.3741389555605599,2.459225319457398,-0.9657552242279053,0.1740562915802002,-0.1924097239971161,-0.6849483251571655,-1.166541337966919,-2.5311121940612793
0.9974119663238525,-0.02405548095703125,0.1542689949274063,-0.07530337572097778,-0.12941716881560067,-1.4004669397270098,2.430986609195203,-0.9772874116897583,0.1290562003850937,-0.16808946430683136,-1.3000789880752563,-1.0470186471939087,-2.4576704502105713
1.0174140930175781,-0.0504075288772583,0.1798941195011139,-0.06455288827419281,-0.08680116618169192,-1.42478005622987,2.3893610399894567,-0.9856337904930115,0.0866922065615654,-0.14495018124580383,-2.135544776916504,-0.9321984052658081,-2.4141411781311035
1.0374109745025635,-0.1244167685508728,0.23762670159339905,-0.04428769648075104,-0.045775524630696875,-1.445389443051178,2.3341247246008567,-0.9911077618598938,0.04575954005122185,-0.1249474361538887,-2.7158045768737793,-0.7820647954940796,-2.403684377670288
1.0575370788574219,-0.17643475532531738,0.3524932861328125,-0.06455951929092407,-0.00442505929599103,-1.4612006701579086,2.273932028918137,-0.9939908385276794,0.004425044637173414,-0.10937533527612686,-2.7196240425109863,-0.6514358520507812,-2.4072155952453613
1.0774049758911133,-0.15751516819000244,0.48224949836730957,-0.11324959248304367,0.037693604685175526,-1.472775327315959,2.2177954202123495,-0.9944929480552673,-0.03768467903137207,-0.09779460728168488,-2.430114507675171,-0.6072027087211609,-2.3575398921966553
1.0974421501159668,-0.09956049919128418,0.5733740329742432,-0.17800676822662354,0.0789950937589633,-1.4818224920541738,2.16845079583871,-0.9929385185241699,-0.07891295850276947,-0.08857940882444382,-2.083509683609009,-0.5899701714515686,-2.1953213214874268
1.117361068725586,-0.01794743537902832,0.6372113823890686,-0.24310940504074097,0.11681653235656402,-1.489578976768878,2.128057648355248,-0.9899110794067383,-0.11655103415250778,-0.08057519793510437,-1.586061716079712,-0.5829198360443115,-1.8936563730239868
1.137411117553711,0.05168747901916504,0.6959559321403503,-0.3301314115524292,0.14880552223613933,-1.4972170336649653,2.0999090682390076,-0.9862731099128723,-0.14825695753097534,-0.07270052284002304,-0.9190171957015991,-0.5504859089851379,-1.5134435892105103
1.1574091911315918,0.06459558010101318,0.7743983864784241,-0.37911003828048706,0.17440535956973488,-1.5059923737862078,2.0877043061930727,-0.9827628135681152,-0.17352254688739777,-0.06377621740102768,-0.11719352006912231,-0.5254688262939453,-1.1213091611862183
1.1774601936340332,0.030739009380340576,0.8182550668716431,-0.41466987133026123,0.19292372479580117,-1.5165380657604532,2.0907619271205204,-0.9800036549568176,-0.19172918796539307,-0.05322553589940071,0.4937060475349426,-0.4737999141216278,-0.7172616124153137
1.1975059509277344,-0.04226106405258179,0.815385639667511,-0.4395142197608948,0.203848962156246,-1.5276693640508052,2.104422585359976,-0.9783841371536255,-0.202440083026886,-0.042220912873744965,0.8631649613380432,-0.3683983385562897,-0.3075654208660126
1.2174091339111328,-0.09869217872619629,0.7900798320770264,-0.43968671560287476,0.20653842880254353,-1.537744177302303,2.1238533918817724,-0.9782121777534485,-0.20507313311100006,-0.0323437936604023,1.0418343544006348,-0.2757234275341034,0.11416704207658768
1.2374110221862793,-0.1945556402206421,0.7857331037521362,-0.45569270849227905,0.20079117527797105,-1.5473010062865533,2.1464680062273698,-0.9796388149261475,-0.19944466650485992,-0.023021163418889046,1.1715104579925537,-0.18914733827114105,0.5171694159507751
1.2574381828308105,-0.4523025155067444,0.8020869493484497,-0.46284395456314087,0.1878330281677475,-1.5528240699143523,2.1731847857038993,-0.9822526574134827,-0.18673047423362732,-0.01765519753098488,1.462451696395874,0.2112922966480255,0.8377444744110107
1.2774090766906738,-0.5715492963790894,0.7674981355667114,-0.4512289762496948,0.16748044619092534,-1.547809611240314,2.204884801246608,-0.9857475161552429,-0.16669857501983643,-0.022663090378046036,1.5344635248184204,0.8276122212409973,1.2923896312713623
1.2974090576171875,-0.2920147180557251,0.5875442624092102,-0.35992759466171265,0.1370450952905025,-1.531542303218073,2.2333841859152668,-0.989861011505127,-0.136616513133049,-0.0388759970664978,1.169920802116394,1.1758277416229248,1.852921962738037
1.3174638748168945,-0.00957798957824707,0.4676995277404785,-0.2788431644439697,0.0952391100263955,-1.5092033498585533,2.254652235003647,-0.9935808181762695,-0.095095194876194,-0.06127510592341423,0.7450186610221863,1.269317626953125,2.4008758068084717
1.3375091552734375,-0.012603163719177246,0.38488662242889404,-0.24689429998397827,0.044279161527099695,-1.484307380411888,2.271204595970246,-0.99528568983078,-0.044264692813158035,-0.08629649132490158,0.6209635734558105,1.325549840927124,2.7821407318115234
1.3574190139770508,-0.18380308151245117,0.3230103850364685,-0.218209370970726,-0.011676164412655197,-1.4573492554389502,2.292427005001763,-0.9935040473937988,0.011675898917019367,-0.11319616436958313,0.9909633994102478,1.3799009323120117,2.9760966300964355
1.3774070739746094,-0.33711928129196167,0.23488710820674896,-0.1639501452445984,-0.06828180513659293,-1.4275432058739013,2.3240605317829535,-0.9874505400657654,0.06822875887155533,-0.14243100583553314,1.3998031616210938,1.4593656063079834,3.027881622314453
1.397407054901123,-0.43733060359954834,0.14000974595546722,-0.034540534019470215,-0.12291858093236728,-1.3922965482401608,2.363055133673802,-0.9766862392425537,0.12260928750038147,-0.17621377110481262,1.5202226638793945,1.6058146953582764,2.9590163230895996
1.4174079895019531,-0.40927594900131226,0.05327904224395752,0.10000976920127869,-0.17487535945453586,-1.3526304282507062,2.4035499052883664,-0.9614060521125793,0.17398540675640106,-0.21313834190368652,1.346429467201233,1.6334264278411865,2.897381544113159
1.4374651908874512,-0.3620506525039673,-0.008102267980575562,0.18282774090766907,-0.22510167970975653,-1.3116578063600934,2.4412450685088776,-0.9422250986099243,0.22320547699928284,-0.2497832179069519,1.0743907690048218,1.6971156597137451,2.8754286766052246
1.4575519561767578,-0.3011931777000427,-0.066255122423172,0.2503088414669037,-0.27525363172538064,-1.2689190991892882,2.477063540825044,-0.918838620185852,0.2717910408973694,-0.28612110018730164,0.9006730914115906,1.6804474592208862,2.92093563079834
1.477410078048706,-0.2523699402809143,-0.08842247724533081,0.2903496325016022,-0.3257993202623439,-1.2250222193645317,2.5141518867845885,-0.891322135925293,0.3200661540031433,-0.3210960030555725,0.8694261908531189,1.611340045928955,3.016550302505493
1.497474193572998,-0.2651969790458679,-0.11259123682975769,0.2965877950191498,-0.37663621853687795,-1.1797568679541497,2.555064249313,-0.8597117066383362,0.36779454350471497,-0.3544337749481201,0.8784726858139038,1.5307894945144653,3.1223995685577393
1.5174040794372559,-0.3439251780509949,-0.13219398260116577,0.32511430978775024,-0.4274736938319461,-1.131553061471796,2.6000167868075477,-0.8236316442489624,0.41457316279411316,-0.3869886100292206,0.8626514077186584,1.5211491584777832,3.2120678424835205
1.5366449356079102,-0.3841731548309326,-0.16032761335372925,0.36294227838516235,-0.4775600120029652,-1.0799475718448506,2.649363175288761,-0.7832616567611694,0.45961353182792664,-0.4186367988586426,0.8570780754089355,1.4840673208236694,3.2635486125946045
1.5574719905853271,-0.4261912703514099,-0.18618619441986084,0.4110845625400543,-0.5256596532645101,-1.0248956367297795,2.702723208077367,-0.7392750382423401,0.5017837285995483,-0.44909414649009705,0.8291911482810974,1.4575419425964355,3.241278886795044
1.5773658752441406,-0.43972474336624146,-0.25365185737609863,0.47617626190185547,-0.5691666592486873,-0.9663560447270851,2.760465905377651,-0.6931030750274658,0.5389302968978882,-0.4787091314792633,0.9879067540168762,1.3923081159591675,3.091935396194458
1.5974068641662598,-0.43490493297576904,-0.28428882360458374,0.507243812084198,-0.6033455173277676,-0.9032489029757301,2.824915131771942,-0.6466838717460632,0.5674004554748535,-0.5097614526748657,1.3125197887420654,1.3490946292877197,2.8338918685913086
1.6174039840698242,-0.4007200598716736,-0.31996190547943115,0.5015918016433716,-0.6246630900374418,-0.8370186611718052,2.894142456919724,-0.6024080514907837,0.5848240256309509,-0.5432177186012268,1.6190112829208374,1.2964272499084473,2.4455924034118652
1.6374709606170654,-0.35280144214630127,-0.3948062062263489,0.5079414248466492,-0.6341576084157151,-0.772089268288991,2.9615109799119517,-0.5619935393333435,0.5924991369247437,-0.5771552324295044,1.5819671154022217,1.235671877861023,2.0303425788879395
1.6574091911315918,-0.2809540629386902,-0.5029801726341248,0.5621553659439087,-0.6386787607838503,-0.7150563983130427,3.0177229070136593,-0.5264190435409546,0.596135139465332,-0.6062226891517639,1.0938585996627808,1.123758316040039,1.607848882675171
1.6774060726165771,-0.21833717823028564,-0.5716695189476013,0.62016361951828,-0.6439844535634932,-0.6722978487376136,3.056304116070644,-0.49804776906967163,0.6003866195678711,-0.6256872415542603,0.4709991216659546,0.8314633369445801,1.1359615325927734
1.6974048614501953,-0.23232635855674744,-0.6036128401756287,0.604752779006958,-0.6513977013225034,-0.6466050675768192,3.076444277481226,-0.47911474108695984,0.6062985062599182,-0.6347057223320007,-0.02907773107290268,0.5507704019546509,0.6007115840911865
1.7174038887023926,-0.27522069215774536,-0.6181881427764893,0.5262367725372314,-0.6578068886079093,-0.6359200569054011,3.0806639414814208,-0.4699881076812744,0.6113828420639038,-0.6366493105888367,-0.2557832598686218,0.2544827461242676,0.058064915239810944
1.737457036972046,-0.2699646055698395,-0.6180439591407776,0.4479600191116333,-0.660268658926309,-0.6409274016462048,3.070499223947893,-0.4722687304019928,0.6133290529251099,-0.6330795884132385,-0.4324224591255188,-0.14356431365013123,-0.5874627232551575
1.7574050426483154,-0.3913485109806061,-0.5883564949035645,0.47362351417541504,-0.6568807457171592,-0.665500554032255,3.041921743166329,-0.4889616072177887,0.6106497049331665,-0.622915506362915,-0.6909481883049011,-0.5753180980682373,-1.437646508216858
1.7774159908294678,-0.48549211025238037,-0.5371912717819214,0.5291157960891724,-0.6464373102195221,-0.7118499048776726,2.9925553429876826,-0.5214354395866394,0.6023463606834412,-0.6043874025344849,-1.0247530937194824,-1.0389539003372192,-2.225858211517334
1.797224998474121,-0.42168235778808594,-0.5012663006782532,0.4295990467071533,-0.631091995527789,-0.775020159913247,2.9260351771705615,-0.5649510025978088,0.5900267958641052,-0.576800525188446,-1.46046781539917,-1.2748371362686157,-2.696871519088745
1.817406177520752,-0.31448274850845337,-0.44890594482421875,0.24557751417160034,-0.6127963675047868,-0.8449827540313903,2.8504001612590435,-0.6118631362915039,0.5751572251319885,-0.5429712533950806,-1.6971839666366577,-1.29643976688385,-2.8399505615234375
1.8374881744384766,-0.216835618019104,-0.32821887731552124,0.11665469408035278,-0.5905966633216692,-0.9138110601876737,2.7746105013985027,-0.6577067375183105,0.5568566918373108,-0.5072796940803528,-1.7014659643173218,-1.321547508239746,-2.8521387577056885
1.8574328422546387,-0.16925287246704102,-0.24892741441726685,0.06775891780853271,-0.5649945527332285,-0.9803523078103382,2.7018220572496423,-0.7015967965126038,0.5354112386703491,-0.47020941972732544,-1.7703524827957153,-1.328614592552185,-2.8164937496185303
1.87739896774292,-0.24551647901535034,-0.19139087200164795,0.04141891002655029,-0.5361366084097225,-1.0428646158737245,2.631500110158001,-0.7426428198814392,0.5108184814453125,-0.4330662786960602,-1.784298300743103,-1.233745813369751,-2.806427478790283
1.897413969039917,-0.32575100660324097,-0.1365891695022583,0.06098836660385132,-0.5037051448980059,-1.1000171997577843,2.5643162829591484,-0.7805265188217163,0.4826738238334656,-0.39724621176719666,-1.7847023010253906,-1.1571505069732666,-2.8563077449798584
1.9174599647521973,-0.37950223684310913,-0.0729047954082489,0.07107537984848022,-0.4664867162627847,-1.1523254764731865,2.5004371120169306,-0.8160850405693054,0.4497511684894562,-0.36294540762901306,-1.709633708000183,-1.0874680280685425,-2.961678981781006
1.937417984008789,-0.3524489998817444,-0.0075920820236206055,0.049025386571884155,-0.4228355561076031,-1.199139818894248,2.441489219238286,-0.8496690988540649,0.41034793853759766,-0.33117562532424927,-1.5007274150848389,-1.0616130828857422,-3.122023105621338
1.957406997680664,-0.24583017826080322,0.08313301205635071,0.0043874382972717285,-0.372914361628876,-1.240075131258295,2.3902350018947187,-0.8808026313781738,0.36433103680610657,-0.3024067282676697,-1.2238272428512573,-1.032796859741211,-3.1691699028015137
1.9774150848388672,-0.13329732418060303,0.15459933876991272,-0.030812054872512817,-0.3201566374831682,-1.274721372736841,2.347468059165524,-0.9078862071037292,0.3147152364253998,-0.27694234251976013,-1.0139559507369995,-0.9837498068809509,-3.078033208847046
1.9974050521850586,-0.02693408727645874,0.19905057549476624,-0.06762698292732239,-0.2681403451093535,-1.3051752727014454,2.309622183020497,-0.9304481744766235,0.26493868231773376,-0.25312793254852295,-1.060713768005371,-0.9585298299789429,-2.942380905151367
2.0174379348754883,0.024493694305419922,0.23197367787361145,-0.09522268176078796,-0.21845977911856854,-1.333214928903076,2.2725119582081166,-0.9488101005554199,0.21672627329826355,-0.22975890338420868,-1.1977280378341675,-0.9433711767196655,-2.7738747596740723
2.0364830493927,0.025867104530334473,0.33029407262802124,-0.11450344324111938,-0.17200236367939511,-1.358343510309991,2.23659318686902,-0.963092565536499,0.17115551233291626,-0.20774680376052856,-1.1790051460266113,-0.860986053943634,-2.549870014190674
2.0574090480804443,-0.004377424716949463,0.4092977046966553,-0.15308243036270142,-0.1284699699992678,-1.3795658984682408,2.20535512568824,-0.9736805558204651,0.12811687588691711,-0.18850073218345642,-0.9619880318641663,-0.7984410524368286,-2.3486735820770264
2.077404022216797,-0.03835856914520264,0.4587195813655853,-0.19104044139385223,-0.08747347230045169,-1.3975500276692416,2.180369349349437,-0.9812643527984619,0.08736196160316467,-0.17172189056873322,-0.7499385476112366,-0.7099403738975525,-2.163987874984741
2.0974020957946777,-0.07252335548400879,0.50862717628479,-0.18399678170681,-0.04812357224180708,-1.4120559533060568,2.1611313697003136,-0.986284077167511,0.04810500144958496,-0.15789154171943665,-0.5172170400619507,-0.6138663291931152,-2.0250110626220703
2.117457866668701,-0.04396021366119385,0.5257183313369751,-0.18665647506713867,-0.011727041140864715,-1.4237222770943256,2.144882009691219,-0.9891362190246582,0.011726772412657738,-0.14653433859348297,-0.5942137241363525,-0.5062240958213806,-1.8158015012741089
2.137484073638916,0.024429023265838623,0.5146816968917847,-0.17471057176589966,0.01973364267998712,-1.4326480114079905,2.1259495734670617,-0.9902799725532532,-0.019732361659407616,-0.13768251240253448,-0.8377751111984253,-0.4118060767650604,-1.5635309219360352
2.1574058532714844,0.10333818197250366,0.5494014620780945,-0.18636088073253632,0.04532764972703837,-1.4397538532141971,2.1037980542796535,-0.9904080033302307,-0.04531212896108627,-0.13053354620933533,-0.988497257232666,-0.37725359201431274,-1.2650021314620972
2.1774258613586426,0.10655009746551514,0.5699102282524109,-0.20725858211517334,0.06511918492652179,-1.445553918762738,2.082829280308974,-0.9900645613670349,-0.0650731697678566,-0.1246504932641983,-0.7587915658950806,-0.31768515706062317,-0.9647354483604431
2.197402000427246,0.049645066261291504,0.6365368366241455,-0.24203096330165863,0.08024166810987832,-1.450564488730376,2.0715661360533706,-0.9895864725112915,-0.08015558868646622,-0.11955644935369492,-0.13601866364479065,-0.26160016655921936,-0.6745901703834534
2.2174019813537598,-0.00041365623474121094,0.6659884452819824,-0.26441526412963867,0.09097964908849898,-1.455266743090053,2.073507617235489,-0.9892257452011108,-0.09085419028997421,-0.11479602009057999,0.3998897969722748,-0.21181057393550873,-0.3669368624687195
2.2375741004943848,0.030764520168304443,0.6119558215141296,-0.2462848424911499,0.0961125195483126,-1.461625397842671,2.0833734088690323,-0.9894590973854065,-0.09596461057662964,-0.10845136642456055,0.6052130460739136,-0.38568612933158875,-0.042022302746772766
2.2574081420898438,-0.11820077896118164,0.6088128685951233,-0.24078404903411865,0.09609754918922567,-1.4735772474122715,2.0982728335603293,-0.9906860589981079,-0.09594970941543579,-0.0966181755065918,0.8975793123245239,-0.6513500809669495,0.16158649325370789
2.277401924133301,-0.5598214268684387,0.6621232628822327,-0.2920114994049072,0.09502073482061323,-1.4862890320301034,2.1217941209942275,-0.9919366240501404,-0.09487780928611755,-0.08402600139379501,1.4715532064437866,-0.2828540503978729,0.20526403188705444
2.2974090576171875,-0.6712765097618103,0.6648368835449219,-0.37705010175704956,0.09120227633539653,-1.4891497267703193,2.157545689237973,-0.9925267100334167,-0.09107589721679688,-0.0812169760465622,1.9930022954940796,0.27266421914100647,0.518203616142273
2.3174009323120117,-0.248845636844635,0.6013453006744385,-0.28046900033950806,0.07944088550973145,-1.4840468993281781,2.1996487508502645,-0.9930979013442993,-0.07935735583305359,-0.08636743575334549,2.0067942142486572,0.5803576707839966,1.0437179803848267
2.3374791145324707,-0.003983616828918457,0.4925011396408081,-0.16362667083740234,0.05608338953233889,-1.4730975500878978,2.2374167627989117,-0.9936665892601013,-0.05605399236083031,-0.0973900705575943,1.5008198022842407,0.7842627167701721,1.64168119430542
2.357400894165039,-0.018963396549224854,0.3532354533672333,-0.12451504170894623,0.020351109888469443,-1.456406371718276,2.267099197202152,-0.9932588934898376,-0.02034970559179783,-0.11411701887845993,1.1761388778686523,0.9658437371253967,2.2019665241241455
2.3774008750915527,-0.08892148733139038,0.35277923941612244,-0.0987408310174942,-0.023443633992152983,-1.4364305298655908,2.2973011381543986,-0.9907143712043762,0.023441486060619354,-0.13392506539821625,1.3261688947677612,0.990497350692749,2.5097672939300537
2.397402048110962,-0.21738803386688232,0.2540944814682007,-0.057175636291503906,-0.07022776436060481,-1.4145666866842985,2.3335700705652878,-0.9853861331939697,0.07017005234956741,-0.15521135926246643,1.606458067893982,1.0417827367782593,2.638286828994751
2.4173989295959473,-0.3666176199913025,0.1778033971786499,0.035967424511909485,-0.11700379996989727,-1.3876489252494095,2.3775334449666823,-0.9765526056289673,0.11673702299594879,-0.18088002502918243,1.9386188983917236,1.1823134422302246,2.6737003326416016
2.4374749660491943,-0.3240160346031189,0.1317923218011856,0.16411371529102325,-0.1619753198059484,-1.356248506175043,2.428647257709759,-0.9642835855484009,0.1612679809331894,-0.2101188451051712,2.085932970046997,1.1895803213119507,2.706244945526123
2.4574010372161865,-0.252735435962677,0.025638267397880554,0.24210914969444275,-0.20499683911242753,-1.3227343819594388,2.4811099563488868,-0.9490928053855896,0.20356406271457672,-0.24038483202457428,1.9284356832504272,1.1931763887405396,2.6599924564361572
2.477400064468384,-0.15104466676712036,-0.09149762988090515,0.31094875931739807,-0.24629337746539823,-1.2889846632811544,2.530561819663739,-0.9315664768218994,0.24381087720394135,-0.2697041630744934,1.6490572690963745,1.0780969858169556,2.60091495513916
2.4974000453948975,-0.10572415590286255,-0.1442369520664215,0.3373151123523712,-0.2866664132777752,-1.2566541893244978,2.5766992101570976,-0.9122506976127625,0.2827562391757965,-0.29639095067977905,1.463871717453003,0.981381356716156,2.5532424449920654
2.517404079437256,-0.16736751794815063,-0.1773708164691925,0.384041428565979,-0.32462897866065316,-1.2231584007431828,2.6221546650917475,-0.8910737037658691,0.3189571797847748,-0.32288411259651184,1.4255809783935547,0.9612743258476257,2.4604320526123047
2.536983013153076,-0.0821220874786377,-0.22005245089530945,0.4254102110862732,-0.35913143666294983,-1.1899561987475005,2.668249102558498,-0.8691262006759644,0.3514612019062042,-0.34798699617385864,1.4180326461791992,0.8163142800331116,2.315183401107788
2.5566821098327637,-0.0580560564994812,-0.2733573317527771,0.4485663175582886,-0.389022274834111,-1.1579014343567162,2.7148629865364065,-0.8475226759910583,0.37928393483161926,-0.3712804615497589,1.438507080078125,0.6714007258415222,2.1229395866394043
2.5773820877075195,-0.03732877969741821,-0.2841295599937439,0.4559450149536133,-0.4136375072792246,-1.1280022233827143,2.7611510353286466,-0.8273563981056213,0.40194272994995117,-0.392331063747406,1.3962504863739014,0.5377612709999084,1.8832807540893555
2.5974349975585938,-0.08065372705459595,-0.3431919813156128,0.47623127698898315,-0.4341232583948005,-1.1008132225633336,2.802813673423014,-0.8088726997375488,0.42061513662338257,-0.4108625650405884,1.0936017036437988,0.47540944814682007,1.6371772289276123
2.6174001693725586,-0.026919186115264893,-0.38835734128952026,0.4879119396209717,-0.45256876162858134,-1.0783735490553095,2.835546086084534,-0.7924779653549194,0.4372771382331848,-0.4251677989959717,0.6973894834518433,0.38090431690216064,1.363084077835083
2.637408971786499,-0.0016279220581054688,-0.358097106218338,0.44961249828338623,-0.46852697710023955,-1.060828153953047,2.859445268531365,-0.7787066698074341,0.4515725076198578,-0.43554383516311646,0.44429755210876465,0.31712302565574646,1.0806740522384644
2.6573991775512695,0.008787930011749268,-0.33709660172462463,0.4021797180175781,-0.48166605273398244,-1.0473875943942796,2.877019441930622,-0.7675771117210388,0.463256299495697,-0.44296637177467346,0.2692304253578186,0.22691288590431213,0.848608136177063
2.677448034286499,-0.04053974151611328,-0.30559608340263367,0.3472919464111328,-0.49288349972785345,-1.03808507656629,2.888696369880267,-0.7588988542556763,0.47316813468933105,-0.44742006063461304,0.05835126340389252,0.15795300900936127,0.6368362903594971
2.697399139404297,-0.12212997674942017,-0.25893011689186096,0.27630341053009033,-0.5030908459861465,-1.033104562872896,2.894399295239971,-0.7524733543395996,0.48213571310043335,-0.44869711995124817,-0.14676883816719055,0.08120868355035782,0.49034667015075684
2.717427968978882,-0.1622217297554016,-0.2601136267185211,0.20663166046142578,-0.5123553364186715,-1.031673504737116,2.8957551113289215,-0.7479650974273682,0.4902314841747284,-0.4474610686302185,-0.17622219026088715,0.01141806785017252,0.37949326634407043
2.737398147583008,-0.19823771715164185,-0.20091447234153748,0.11944770812988281,-0.5191315535045192,-1.030633929174204,2.8975962049976984,-0.7446334958076477,0.49612629413604736,-0.44651976227760315,0.0013232766650617123,-0.003633675165474415,0.2564550042152405
2.7574009895324707,-0.3409044146537781,-0.11976602673530579,0.14031386375427246,-0.5193926615893282,-1.0298989424716245,2.901920409342907,-0.744193971157074,0.49635300040245056,-0.4470002055168152,0.3086002469062805,-0.12263738363981247,-0.08923513442277908
2.7774338722229004,-0.5928508639335632,0.017905384302139282,0.2460145354270935,-0.511668232278205,-1.03212884551283,2.9035344480205416,-0.7484577894210815,0.4896325170993805,-0.44729316234588623,0.07250271737575531,-0.17533814907073975,-0.46758440136909485
2.7973949909210205,-0.4460068345069885,-0.11282262206077576,0.13106298446655273,-0.5054035530863435,-1.0425190721535447,2.892738902511459,-0.7556991577148438,0.48416057229042053,-0.44102996587753296,-0.5292911529541016,-0.32466593384742737,-0.49250948429107666
2.817486047744751,-0.12610489130020142,-0.09131035208702087,-0.06172215938568115,-0.5049880573782412,-1.0572935967245607,2.8758937377126093,-0.7623077034950256,0.48379698395729065,-0.4299159348011017,-0.6238524317741394,-0.3059610426425934,-0.2554072141647339
2.837411880493164,0.13874268531799316,0.009613335132598877,-0.13859090209007263,-0.5075504675462736,-1.0680587173369225,2.865865189200241,-0.7658026814460754,0.4860379695892334,-0.4210861325263977,-0.23311260342597961,-0.26691341400146484,0.054165665060281754
2.85739803314209,0.1623924970626831,0.017047405242919922,-0.11823046207427979,-0.5099055879827399,-1.071874149808718,2.866627275174291,-0.7663964629173279,0.48809483647346497,-0.41761237382888794,0.1558433473110199,-0.11923244595527649,0.1550748646259308
2.877397060394287,0.04485958814620972,-0.028387516736984253,-0.05979698896408081,-0.5105284987066712,-1.070518602052913,2.872043692354586,-0.7655627727508545,0.48863843083381653,-0.4185049831867218,0.15479348599910736,-0.02639775536954403,0.11446522921323776
2.8974251747131348,0.006553471088409424,-0.11404794454574585,-0.029419898986816406,-0.5119079113640467,-1.0711167636706045,2.8725264957190184,-0.7652205228805542,0.489841490983963,-0.41772356629371643,-0.19855068624019623,-0.07519219070672989,0.025901444256305695
2.9173970222473145,0.06018465757369995,-0.13328951597213745,-0.018163621425628662,-0.5147634555362072,-1.0772037651803539,2.8656102636404452,-0.766514241695404,0.4923289716243744,-0.41239359974861145,-0.4064479172229767,-0.19537808001041412,-0.05009390413761139
2.937412977218628,0.1422176957130432,-0.0642317533493042,-0.026360899209976196,-0.5165388705970874,-1.0862294133427293,2.857537339799088,-0.7694302797317505,0.4938735365867615,-0.40505072474479675,-0.23740129172801971,-0.28586357831954956,-0.12198003381490707
2.957401990890503,0.21977847814559937,-0.06187942624092102,-0.020929723978042603,-0.514449019912789,-1.0929426414890668,2.855864569288592,-0.7730469107627869,0.4920552670955658,-0.40035006403923035,0.22065354883670807,-0.2940935790538788,-0.11176734417676926
2.977431058883667,0.2937169671058655,-0.0821869969367981,-0.0014910697937011719,-0.5092138533876621,-1.0950147439866489,2.86285163751403,-0.7761542201042175,0.4874909818172455,-0.39992183446884155,0.4988035261631012,-0.2539573311805725,-0.0574735589325428
2.9973978996276855,0.32651442289352417,-0.09167319536209106,0.032202720642089844,-0.5049667859049174,-1.095519778431936,2.871257331624701,-0.7781899571418762,0.48377835750579834,-0.40047353506088257,0.30133065581321716,-0.2111320048570633,0.03003598377108574
3.017397880554199,0.34262192249298096,-0.12335163354873657,0.10546976327896118,-0.5049158520371915,-1.0988524021047807,2.8741619652750976,-0.7795422077178955,0.48373380303382874,-0.397889107465744,-0.087561696767807,-0.2706226706504822,0.06713385134935379
3.037436008453369,0.3258320689201355,-0.1389366090297699,0.15569883584976196,-0.5079585410475541,-1.1072501992990307,2.869727237798055,-0.7815359234809875,0.4863945543766022,-0.3906688392162323,-0.32263270020484924,-0.3784152865409851,0.008396998047828674
3.0573959350585938,0.3400561809539795,-0.13606253266334534,0.13376837968826294,-0.5090528501112156,-1.118172891837621,2.865198214494326,-0.785277247428894,0.4873504042625427,-0.3818762004375458,-0.011345846578478813,-0.48602545261383057,-0.07444482296705246
3.0773940086364746,0.3590216040611267,-0.0888437032699585,0.1312386393547058,-0.506197519221663,-1.1277261968043333,2.8682223979593475,-0.7901434898376465,0.48485514521598816,-0.37495195865631104,0.3174176514148712,-0.6218570470809937,-0.0571443997323513
3.09743595123291,0.4086223840713501,-0.13421830534934998,0.15803822875022888,-0.5030017945224132,-1.1382078474567388,2.874613742574226,-0.7954327464103699,0.48205769062042236,-0.3672971725463867,0.2847176790237427,-0.7330741882324219,0.007547748740762472
3.117426872253418,0.44686025381088257,-0.16601482033729553,0.19567561149597168,-0.5016929437940232,-1.1519228205946104,2.8797654736445044,-0.8009710311889648,0.4809105396270752,-0.3566100001335144,0.18363957107067108,-0.910002589225769,0.06239600107073784
3.1373958587646484,0.3923916816711426,-0.18795812129974365,0.19507646560668945,-0.5019900767304105,-1.1694692929987887,2.8825378084842708,-0.8069730997085571,0.48117104172706604,-0.3424457609653473,0.018407229334115982,-0.9410472512245178,0.0627642497420311
3.1573970317840576,0.3696863055229187,-0.2847331166267395,0.18512287735939026,-0.503126135305305,-1.1882087024027543,2.8823627793898114,-0.8127405643463135,0.4821666479110718,-0.3270600140094757,-0.026005681604146957,-0.9211551547050476,0.028869371861219406
3.1774330139160156,0.39474964141845703,-0.29622265696525574,0.209934264421463,-0.5031605636300438,-1.2055450063960262,2.882632315199168,-0.818272590637207,0.4821968078613281,-0.31291571259498596,0.03283129632472992,-0.8234232664108276,-0.02259470336139202
3.1973929405212402,0.3961462378501892,-0.2791081368923187,0.29144400358200073,-0.5023140349117394,-1.2225215544370756,2.8817832294868513,-0.823850154876709,0.481454998254776,-0.29911908507347107,-0.09072239696979523,-0.864544153213501,-0.09879683703184128
3.2174859046936035,0.2710825204849243,-0.25781604647636414,0.2899698317050934,-0.5005843800658848,-1.242144786841182,2.8761677783458794,-0.8303477168083191,0.4799382984638214,-0.28316426277160645,-0.3289027810096741,-0.8245052099227905,-0.22436951100826263
3.237396001815796,0.1747472882270813,-0.3277280032634735,0.20484274625778198,-0.49799032707053476,-1.2641971336267026,2.865114916850602,-0.8375739455223083,0.4776609241962433,-0.2651606798171997,-0.4710654020309448,-0.8661491274833679,-0.32894986867904663
3.257413864135742,-0.002210378646850586,-0.2888125777244568,0.17562246322631836,-0.4935084950259469,-1.28606169179672,2.851743727543053,-0.8452171087265015,0.47371864318847656,-0.2473844587802887,-0.5136916041374207,-0.6403647661209106,-0.4607478380203247
3.277405023574829,-0.16626101732254028,-0.24897339940071106,0.24710744619369507,-0.4857295937956573,-1.302929676034463,2.838156790686059,-0.8527973294258118,0.46685367822647095,-0.2340610772371292,-0.46047642827033997,-0.4469029903411865,-0.6243165135383606
3.297408103942871,-0.21701061725616455,-0.12844237685203552,0.2994360327720642,-0.47541992451280257,-1.3183321531755459,2.82159591498854,-0.8609160780906677,0.4577118456363678,-0.22208915650844574,-0.8028500080108643,-0.32831189036369324,-0.7459591627120972
3.31740403175354,-0.2541334629058838,-0.1302182972431183,0.3606770634651184,-0.4664029913753957,-1.3374019247811482,2.7914076150557943,-0.8689745664596558,0.44967639446258545,-0.20657846331596375,-1.5971760749816895,-0.22437404096126556,-0.7478722333908081
3.337399959564209,-0.13223004341125488,-0.14049404859542847,0.35299527645111084,-0.46103626814228893,-1.3603146946332059,2.74955570344088,-0.8758266568183899,0.44487643241882324,-0.18711687624454498,-1.7613950967788696,-0.18431761860847473,-0.6003351807594299
3.357396125793457,-0.13688558340072632,-0.07615751028060913,0.2792240381240845,-0.4567922261260944,-1.3771218508207905,2.7156850275846667,-0.8806926608085632,0.441071480512619,-0.17273283004760742,-1.070911169052124,-0.0085268784314394,-0.4275161921977997
3.3774309158325195,-0.051591575145721436,0.012122482061386108,0.216264009475708,-0.45257127754552934,-1.3853718677040756,2.698407344609491,-0.8839096426963806,0.4372794032096863,-0.16580305993556976,-0.45850810408592224,-0.0658937618136406,-0.29517021775245667
3.39739990234375,0.023251056671142578,-0.02192056179046631,0.17849035561084747,-0.4492830643394854,-1.3922589653130293,2.689206797970821,-0.8864407539367676,0.4343198537826538,-0.1599660962820053,-0.345571368932724,-0.21868765354156494,-0.18098579347133636
3.4174020290374756,-0.03151249885559082,-0.08313634991645813,0.10336560010910034,-0.4471809050821003,-1.3995794102029488,2.6812119719468384,-0.8884857892990112,0.4324253499507904,-0.15362794697284698,-0.3040521740913391,-0.16335605084896088,-0.15691342949867249
3.4373950958251953,-0.12901043891906738,-0.0320945680141449,0.12727397680282593,-0.4448286785398649,-1.405931289932974,2.6741385012199164,-0.8904446363449097,0.4303032457828522,-0.14814786612987518,-0.3443503975868225,-0.1585286259651184,-0.18780267238616943
3.457376003265381,-0.2339833378791809,-0.06247740983963013,0.21516335010528564,-0.44255073757175,-1.4134344416985511,2.661605235537876,-0.8924968838691711,0.42824587225914,-0.1416158676147461,-0.7547802925109863,-0.021143337711691856,-0.20825335383415222
3.477506160736084,-0.24778437614440918,-0.05567747354507446,0.19164085388183594,-0.44048092174761444,-1.4205127789348098,2.6429316788030586,-0.8943513035774231,0.42637452483177185,-0.13542738556861877,-0.6907840371131897,0.0699777826666832,-0.25805434584617615
3.4974451065063477,-0.1154901385307312,0.022998124361038208,0.049303486943244934,-0.43623277474957645,-1.4222308919770061,2.6372026462470455,-0.8963660001754761,0.42252805829048157,-0.13415749371051788,0.3130590319633484,-0.029148533940315247,-0.23375515639781952
3.5177180767059326,-0.19097870588302612,0.04968690872192383,0.004449605941772461,-0.4300281999228671,-1.418865847158139,2.6520145989787203,-0.8984836935997009,0.41689643263816833,-0.1375671774148941,0.9810786247253418,-0.2578304409980774,-0.1816057562828064
3.537461996078491,-0.43500739336013794,-0.01997026801109314,0.07719153165817261,-0.4235755136470477,-1.415940530133271,2.672939794550794,-0.9007166028022766,0.4110226035118103,-0.14060692489147186,0.8998070955276489,-0.30870410799980164,-0.14214491844177246
3.557432174682617,-0.4969618320465088,-0.03108304738998413,0.13848042488098145,-0.42035216193498215,-1.4167306943837927,2.685415045008692,-0.9021319150924683,0.408081978559494,-0.1400977522134781,0.2257111817598343,-0.23369200527668,-0.0037996857427060604
3.5773940086364746,-0.45333343744277954,-0.06131017208099365,0.1494702696800232,-0.4210035340828559,-1.4204195608605026,2.685101029877656,-0.90237957239151,0.4086765646934509,-0.13672910630702972,-0.1493655890226364,-0.12008349597454071,0.05153624340891838
3.597349166870117,-0.4025188088417053,0.0022985339164733887,0.027994826436042786,-0.42248088437863396,-1.4232798691727446,2.682700502248836,-0.9021687507629395,0.4100244641304016,-0.13405856490135193,-0.0734282061457634,-0.0773293748497963,0.0600341260433197
3.6174001693725586,-0.37362611293792725,-0.030466169118881226,-0.022137627005577087,-0.4237739475821217,-1.425451921348362,2.6818660295038055,-0.901932418346405,0.4112035036087036,-0.13202179968357086,-0.031621623784303665,-0.07760270684957504,0.05535358563065529
3.637338161468506,-0.4117412567138672,-0.05886676907539368,0.036843642592430115,-0.42453182854033655,-1.426765806559232,2.6810609314514156,-0.9017965793609619,0.41189420223236084,-0.13079190254211426,-0.05921134725213051,-0.03080812469124794,0.015799762681126595
3.6573500633239746,-0.35284239053726196,-0.007365494966506958,0.0806092768907547,-0.4248132806235887,-1.4287063011686865,2.6789474010015204,-0.9019336700439453,0.41215065121650696,-0.12902526557445526,-0.12780843675136566,-0.07851643860340118,-0.016330715268850327
3.677340030670166,-0.3593522310256958,-0.0267697274684906,0.04334203898906708,-0.4237866363399708,-1.4316863382981662,2.6781996641411663,-0.9027329683303833,0.41121506690979004,-0.12639553844928741,0.1602407544851303,-0.1911943405866623,-0.07751865684986115
3.6974000930786133,-0.36294853687286377,0.00515371561050415,-0.014229685068130493,-0.42073969960210755,-1.43208075871612,2.687278309430976,-0.9040191769599915,0.40843576192855835,-0.12621210515499115,0.6855194568634033,-0.20819871127605438,-0.09559700638055801
3.7174201011657715,-0.2882874608039856,0.025080323219299316,0.013611242175102234,-0.4166661276992906,-1.4297456656860816,2.703986852132207,-0.905362069606781,0.40471407771110535,-0.12855561077594757,0.8056136965751648,-0.22312287986278534,-0.11592867225408554
3.737391948699951,-0.23419392108917236,0.006601065397262573,0.0677400678396225,-0.41176656078705665,-1.4284637170855536,2.719299138951079,-0.9071484804153442,0.4002288579940796,-0.12999583780765533,0.6595035791397095,-0.26064255833625793,-0.18596482276916504
3.757500171661377,-0.27515339851379395,0.0030704140663146973,0.04471224546432495,-0.40479032242490565,-1.4289315787423063,2.7319704275975507,-0.9099510908126831,0.39382603764533997,-0.1299630105495453,0.5933619737625122,-0.2766057252883911,-0.33176976442337036
3.777484893798828,-0.28383809328079224,-0.002783536911010742,0.02452923357486725,-0.39608530893022315,-1.4322080413912666,2.7395616615594083,-0.9137328267097473,0.38580968976020813,-0.12744967639446259,0.13897110521793365,-0.3622422516345978,-0.42372071743011475
3.7974770069122314,-0.25800108909606934,-0.034172505140304565,0.05158513784408569,-0.38793049058133156,-1.4413406450490673,2.734877987540063,-0.9179481267929077,0.37827348709106445,-0.11950191855430603,-0.36530280113220215,-0.3460371792316437,-0.4243593215942383
3.817431926727295,-0.25579971075057983,0.01195421814918518,0.0018520951271057129,-0.3807711411652368,-1.4498722115405738,2.7283802395694394,-0.9215990900993347,0.3716364800930023,-0.11198995262384415,-0.019114287570118904,-0.23953577876091003,-0.337533175945282
3.837393045425415,-0.2362629771232605,0.11611190438270569,-0.07055013626813889,-0.3745155385496826,-1.452385384541008,2.733221056193946,-0.9241679906845093,0.3658216893672943,-0.10994593799114227,0.4733535647392273,-0.17888200283050537,-0.2324737012386322
3.8574869632720947,-0.1684064269065857,0.04373037815093994,-0.05258762836456299,-0.3692678636885491,-1.452378303204064,2.7437246361441723,-0.9260608553886414,0.36093273758888245,-0.11017777770757675,0.5391154885292053,-0.21085867285728455,-0.17253378033638
3.877471923828125,-0.09956514835357666,0.043501704931259155,-0.03549027442932129,-0.36442913871333915,-1.4535779107273157,2.7552592604019974,-0.9279160499572754,0.3564159870147705,-0.10926976799964905,0.6071814298629761,-0.29198503494262695,-0.17860174179077148
3.8974790573120117,-0.1235271692276001,0.0008231401443481445,-0.03322809189558029,-0.3578554324839238,-1.4546202828156585,2.7696949553915924,-0.9303364157676697,0.35026633739471436,-0.10857170820236206,0.8504290580749512,-0.28852126002311707,-0.3215242326259613
3.917386054992676,-0.07959127426147461,0.0032961666584014893,-0.006773963570594788,-0.3480487906413998,-1.454441384759491,2.788431921995163,-0.9336841106414795,0.3410642445087433,-0.10913170129060745,0.9694241881370544,-0.3443256616592407,-0.44179508090019226
3.945763111114502,0.009111404418945312,-0.09415355324745178,0.0032333582639694214,-0.32358712453802413,-1.4601996531220007,2.8198544277181767,-0.9423086643218994,0.31796956062316895,-0.10464320331811905,0.5171952843666077,-0.3899514675140381,-0.49225282669067383
3.965847969055176,-0.020734190940856934,-0.1271122694015503,0.02451504021883011,-0.3154542006768716,-1.463392898917275,2.826231328909469,-0.9451777338981628,0.3102482855319977,-0.10190748423337936,0.07620516419410706,-0.0003745872527360916,-0.16344723105430603
3.9769320487976074,-0.020734190940856934,-0.1271122694015503,0.02451504021883011,-0.3154542006768716,-1.463392898917275,2.826231328909469,-0.9451777338981628,0.3102482855319977,-0.10190748423337936,0.07620516419410706,-0.0003745872527360916,-0.16344723105430603
4.005773067474365,0.03191608190536499,0.208778977394104,-0.16568845510482788,-0.3082082320349313,-1.4606833111901425,2.825293929990417,-0.9471078515052795,0.3033517897129059,-0.10471244901418686,-0.13428451120853424,0.10041096806526184,-0.11199047416448593
4.025429964065552,0.010089755058288574,0.10099181532859802,-0.12336212396621704,-0.3066703595042825,-1.4597083188143176,2.8242159117855494,-0.9474678039550781,0.30188602209091187,-0.10568741708993912,0.16002115607261658,0.06700507551431656,-0.04398106783628464
4.045618057250977,-0.061577796936035156,0.1671229898929596,-0.1413106471300125,-0.30356729287875867,-1.4584861758198189,2.8334010680038166,-0.9482643604278564,0.29892629384994507,-0.10694976150989532,0.7062053680419922,-0.19132180511951447,-0.10257646441459656
4.063822984695435,-0.16590052843093872,-0.06103873252868652,-0.03582221269607544,-0.30017609938133244,-1.457555694673512,2.850230118976099,-0.9491661190986633,0.2956884503364563,-0.10794597864151001,1.0136405229568481,-0.19428351521492004,-0.09636437892913818
4.088365077972412,-0.29078954458236694,-0.012201011180877686,-0.033492445945739746,-0.29536174337824345,-1.4568939006898738,2.8742147042096824,-0.9504978656768799,0.29108595848083496,-0.10873465240001678,1.180389642715454,-0.39835497736930847,-0.09208869934082031
4.105902194976807,-0.3214235305786133,-0.13508552312850952,0.14067518711090088,-0.29109576565273093,-1.4594577434166853,2.8924777475557355,-0.9519988298416138,0.2870020568370819,-0.10643436014652252,0.5755833983421326,-0.2906847298145294,-0.06151304766535759
4.125427961349487,-0.4065929055213928,0.0681333839893341,0.11249977350234985,-0.28895951469615894,-1.4628841640980574,2.8988122084452854,-0.9529653191566467,0.2849550247192383,-0.10323759913444519,0.1635354608297348,-0.10214560478925705,0.055129002779722214
4.145385980606079,-0.4862945079803467,0.1623445749282837,0.030552685260772705,-0.2939581934187273,-1.4651665307268653,2.895984151971976,-0.9517701864242554,0.2897428870201111,-0.10091087967157364,-0.5208375453948975,0.01078316941857338,0.4258659780025482
4.165279865264893,-0.4671779274940491,0.14399847388267517,0.06568814069032669,-0.3070627439508921,-1.468346197170013,2.8810217769021738,-0.9482274055480957,0.30226007103919983,-0.09748733788728714,-1.015073537826538,0.09320622682571411,0.7415119409561157
4.1851279735565186,-0.37343740463256836,0.20722779631614685,0.05571937561035156,-0.3275435938588572,-1.4731806153343507,2.857602870106564,-0.9423280954360962,0.3217181861400604,-0.09227931499481201,-1.3926737308502197,0.1499968022108078,1.0725898742675781
4.204965114593506,-0.31564217805862427,0.20497259497642517,0.07427453994750977,-0.35472721473508634,-1.4793570476174238,2.829031350609672,-0.9338238835334778,0.3473345637321472,-0.08562695980072021,-1.4729435443878174,0.17496687173843384,1.3900096416473389
4.224917888641357,-0.31104177236557007,0.2272748351097107,-0.00306808203458786,-0.38763025590435213,-1.4855835249806288,2.8043271271060215,-0.9224482774734497,0.3779955506324768,-0.07879520952701569,-1.0588996410369873,0.09056828171014786,1.6894220113754272
4.245100975036621,-0.24534177780151367,0.20041346549987793,-0.04299682378768921,-0.42528226120402196,-1.4905881381355204,2.7911446538158167,-0.9079939126968384,0.41257792711257935,-0.07298512756824493,-0.46859920024871826,-0.06424251943826675,1.9560092687606812
4.265160083770752,-0.1830187439918518,0.1490136981010437,0.04294741898775101,-0.4663047396374723,-1.494027043587978,2.788921380885464,-0.8906049728393555,0.4495886266231537,-0.06850573420524597,-0.1110648363828659,-0.186351478099823,2.107454299926758
4.284767150878906,-0.151261568069458,0.11311674118041992,0.09831512719392776,-0.5090841086997612,-1.4982444943594628,2.790372737434627,-0.8708942532539368,0.48737770318984985,-0.06329607218503952,-0.14213022589683533,-0.2966850996017456,2.1839373111724854
4.304614067077637,-0.11937510967254639,0.06443434953689575,0.09421741962432861,-0.5531245125306744,-1.5068110302182447,2.788181056112262,-0.8491461277008057,0.525348424911499,-0.054407138377428055,-0.31947949528694153,-0.4529130160808563,2.2005255222320557
4.324665069580078,-0.10891610383987427,0.00800412893295288,0.04241890460252762,-0.5962522725827756,-1.517699475295237,2.7860880343926873,-0.8262798190116882,0.5615453720092773,-0.043914131820201874,0.01529641728848219,-0.4765491187572479,2.085696220397949
4.34451699256897,-0.03889572620391846,0.02640080451965332,0.08979231119155884,-0.6360678520176998,-1.5189970185053987,2.7986003788167357,-0.8033589720726013,0.594036877155304,-0.04165069758892059,0.7500976324081421,-0.3813447654247284,1.9623644351959229
4.364513874053955,0.06277626752853394,-0.1163758635520935,0.025823820382356644,-0.6726089812171024,-1.5102003392960015,2.823724463691388,-0.780763566493988,0.6230288743972778,-0.047369133681058884,1.012934923171997,-0.2779073715209961,1.803130865097046
4.3844640254974365,0.13178539276123047,-0.20312148332595825,-0.006296277046203613,-0.7054454579344321,-1.4973878635021591,2.8529037047955845,-0.7592726349830627,0.648373007774353,-0.055837374180555344,0.9256129264831543,-0.2965582311153412,1.6309685707092285
4.404408931732178,0.15352469682693481,-0.32132911682128906,0.02360403537750244,-0.7348361651659674,-1.489287028972182,2.8746439656470812,-0.7394775152206421,0.6704655885696411,-0.060408130288124084,0.49657002091407776,-0.3350774049758911,1.4392937421798706
4.423712968826294,0.20112240314483643,-0.3969060778617859,0.06608033180236816,-0.7604103405928634,-1.4865081293987146,2.8885934441193513,-0.7219812870025635,0.6892188191413879,-0.06099902465939522,0.3766815662384033,-0.33719274401664734,1.1883213520050049
4.444264888763428,0.2473035454750061,-0.4192044734954834,0.08509533852338791,-0.7798685660469202,-1.4823309731897574,2.9043174018703986,-0.7082259058952332,0.7031859755516052,-0.06281740963459015,0.6357296705245972,-0.3177163302898407,0.8407202959060669
4.46321702003479,0.28609246015548706,-0.4202951192855835,0.09627848863601685,-0.7916219591950708,-1.4716211297745678,2.9287832931538578,-0.6992394924163818,0.711493968963623,-0.0695754736661911,0.9346078634262085,-0.343801885843277,0.5005683302879333
4.484530925750732,0.3148495554924011,-0.4387805461883545,0.11390270292758942,-0.7968136008685212,-1.460579058803408,2.9545371459215666,-0.6947475671768188,0.715132474899292,-0.07688476145267487,0.7423747777938843,-0.3898485600948334,0.22255754470825195
4.50407600402832,0.34518861770629883,-0.49678897857666016,0.12386966496706009,-0.7981820899578104,-1.4601995588677317,2.967535600647702,-0.6937451958656311,0.7160883545875549,-0.07704033702611923,0.09243607521057129,-0.465433269739151,0.040855519473552704
4.524072170257568,0.3192076086997986,-0.48024535179138184,0.12534356117248535,-0.7980246698466984,-1.476661646682865,2.957238045147799,-0.6950316429138184,0.7159784436225891,-0.0656205266714096,-0.6850317716598511,-0.3506759703159332,-0.08872996270656586
4.54555606842041,0.2703325152397156,-0.38715022802352905,0.05525219440460205,-0.7948369755881792,-1.4990814154732806,2.93381356196381,-0.6986010670661926,0.7137494087219238,-0.05018617585301399,-0.7443166375160217,-0.22052790224552155,-0.37778186798095703
4.564320087432861,0.2673611044883728,-0.2696789503097534,-0.030269261449575424,-0.7853276321096025,-1.5148753073181662,2.9184227633987225,-0.7060512900352478,0.7070568799972534,-0.03952431678771973,-0.305026113986969,-0.28190580010414124,-0.5980539917945862
4.580821990966797,0.2578619718551636,-0.24405860900878906,-0.06113511323928833,-0.773016469095523,-1.5280121920917933,2.9087716400390518,-0.7151527404785156,0.6982976198196411,-0.030615873634815216,-0.38336318731307983,-0.33597531914711,-0.6435872912406921
4.603265047073364,0.15559029579162598,-0.07329708337783813,-0.03655135631561279,-0.7607675577766337,-1.5429306544476569,2.8965700548696653,-0.7240260243415833,0.6894776225090027,-0.02018069662153721,-0.3875902593135834,-0.28597569465637207,-0.5845562219619751
4.623810052871704,0.11643105745315552,0.000935971736907959,-0.06234925985336304,-0.7497036383534339,-1.5505955278502659,2.8916487184410333,-0.7317417860031128,0.6814218759536743,-0.014783780090510845,0.21250370144844055,-0.12699536979198456,-0.5512945652008057
4.642794132232666,0.10168039798736572,0.020868003368377686,-0.11991220712661743,-0.7374669020160107,-1.5391173829389981,2.910706063588905,-0.7398030757904053,0.6724151372909546,-0.023444022983312607,0.9735645651817322,-0.04804960638284683,-0.5514938235282898
4.663655042648315,0.08303874731063843,-0.14637750387191772,-0.06261849403381348,-0.7244855479284704,-1.5274984262247926,2.9301914095534984,-0.7481389045715332,0.6627503037452698,-0.03241310268640518,0.5715430974960327,-0.11339621245861053,-0.7134981751441956
4.682726860046387,0.07364761829376221,-0.09767472743988037,0.02117597684264183,-0.7070990271170761,-1.5237375390509031,2.943471820762194,-0.7594083547592163,0.6496310234069824,-0.03576324135065079,0.5692474246025085,-0.39360788464546204,-0.9915003180503845
4.703537940979004,0.09417396783828735,-0.12479668855667114,0.025926347821950912,-0.6839921258030572,-1.522876719196975,2.961371461472098,-0.7741668224334717,0.6318921446800232,-0.037126194685697556,0.9588810801506042,-0.6616764664649963,-1.2040643692016602
4.723474979400635,0.05853158235549927,-0.0725703239440918,0.01871669292449951,-0.6599564935125158,-1.5211646441281792,2.987114235295209,-0.7890462279319763,0.6130824685096741,-0.039193879812955856,1.064705729484558,-0.7470502853393555,-1.038092851638794
4.743464946746826,-0.08367782831192017,-0.0019083023071289062,0.03870368003845215,-0.6426519881767264,-1.5249667557204134,3.004247368562244,-0.7996688485145569,0.5993204712867737,-0.03667416051030159,0.34941649436950684,-0.6370431780815125,-0.6713017225265503
4.763498067855835,-0.20046627521514893,0.20258629322052002,-0.01796013116836548,-0.6310412520445331,-1.5342017620303001,3.0071007215833196,-0.8068733215332031,0.5899857878684998,-0.02954036556184292,-0.03416923061013222,-0.4839540421962738,-0.4642253518104553
4.78230094909668,-0.16226732730865479,0.2192952036857605,-0.0876002311706543,-0.6238214000598765,-1.54802756468755,2.999806297383091,-0.8114418387413025,0.5841410756111145,-0.018478719517588615,-0.5101278424263,-0.48144713044166565,-0.29523327946662903
4.803160190582275,-0.210318922996521,0.21300792694091797,-0.13180696964263916,-0.6185681687837855,-1.5639059900689105,2.98864810432511,-0.8146901726722717,0.5798692107200623,-0.005613578483462334,-0.2242998629808426,-0.4553864002227783,-0.2520243525505066
4.823199033737183,-0.26024842262268066,0.2008081078529358,-0.159437358379364,-0.6142770805201082,-1.5697487443452613,2.991851169909321,-0.8171901702880859,0.5763679146766663,-0.0008560743881389499,0.4581995904445648,-0.27590417861938477,-0.1770879328250885
4.843255043029785,-0.29011011123657227,0.12237024307250977,-0.13615798950195312,-0.6121779668044159,-1.5679298563934743,3.003054291216204,-0.8183952569961548,0.5746512413024902,-0.0023459121584892273,0.2786754369735718,-0.20075064897537231,-0.030128860846161842
4.863119125366211,-0.33977198600769043,0.09450346231460571,-0.19981563091278076,-0.6118289024107532,-1.5709850932203973,3.0045726431507442,-0.8185990452766418,0.5743655562400818,0.0001545240229461342,-0.06244361400604248,-0.2058398574590683,-0.0019782448653131723
4.881489038467407,-0.3357306122779846,0.10631132125854492,-0.20041608810424805,-0.6119437707347103,-1.5763417354935383,3.0039776595529477,-0.8185206055641174,0.5744596123695374,0.004539077635854483,0.10287138819694519,-0.24911072850227356,0.009498963132500648
4.902215003967285,-0.40507054328918457,0.11527794599533081,-0.20200765132904053,-0.6120625838066707,-1.5755835572683234,3.01269139991289,-0.818455696105957,0.574556827545166,0.003918165806680918,0.6208405494689941,-0.17353536188602448,0.0525854155421257
4.922891139984131,-0.380734920501709,0.17257636785507202,-0.21086937189102173,-0.6139632413418945,-1.5690330000682866,3.0306003760114884,-0.8173699378967285,0.5761114358901978,-0.0014412917662411928,0.8040010333061218,-0.13324670493602753,0.18754832446575165
4.942766189575195,-0.5119356513023376,0.27130162715911865,-0.1907023787498474,-0.6202111495866048,-1.5593181728125183,3.0475545146184215,-0.8137022852897644,0.5812069773674011,-0.009340210817754269,0.5447954535484314,0.10342175513505936,0.4780856966972351
4.962718963623047,-0.49630987644195557,0.24309325218200684,-0.1281406283378601,-0.6317469635086581,-1.5481771434854603,3.0600649746110657,-0.8067907094955444,0.5905554294586182,-0.018252059817314148,0.5148029327392578,0.3000098168849945,0.6841135025024414
4.982643127441406,-0.5184182524681091,0.19803369045257568,-0.14859652519226074,-0.6468827923572873,-1.5318812830681106,3.0750755136494567,-0.7973626255989075,0.6027019023895264,-0.03104507364332676,0.6699796915054321,0.4359119236469269,0.8540797233581543
5.0040459632873535,-0.4659114480018616,0.17887336015701294,-0.16003727912902832,-0.6644332872994656,-1.5090683203067288,3.0955509381080213,-0.7857670187950134,0.6166130900382996,-0.04856553301215172,0.8447496891021729,0.6007204055786133,1.0000402927398682
5.022835969924927,-0.40259385108947754,0.1364554762840271,-0.11457758396863937,-0.6843577712901849,-1.47974636307873,3.1198826336033703,-0.7716156840324402,0.6321755051612854,-0.07045037299394608,0.8802066445350647,0.8285917043685913,1.136931300163269
5.042344093322754,-0.31604552268981934,0.0876266360282898,-0.05219077318906784,-0.7055563164891747,-1.4460452486056299,-3.1393059492823836,-0.7553351521492004,0.648457407951355,-0.094720758497715,0.6825166940689087,1.0091488361358643,1.1590906381607056
5.062559127807617,-0.19106340408325195,-0.0020216703414916992,0.017828062176704407,-0.7257596594147183,-1.4123357311056741,-3.1209619691728157,-0.7386241555213928,0.6637038588523865,-0.11803240329027176,0.4480438232421875,1.1565269231796265,1.0301398038864136
5.082350015640259,-0.028181076049804688,-0.07983070611953735,0.10370106995105743,-0.7418747437382773,-1.37616265449636,-3.104423334098096,-0.7232838273048401,0.6756711602210999,-0.14258037507534027,0.5220060348510742,1.3395593166351318,0.7501063346862793
5.102614879608154,0.17664676904678345,-0.12814033031463623,0.14047688245773315,-0.750269804352426,-1.336915582707373,-3.085533304887748,-0.7115894556045532,0.6818361282348633,-0.1695294976234436,0.6633582711219788,1.3038349151611328,0.3273436725139618
5.122233867645264,0.3633776307106018,-0.28119438886642456,0.23065730929374695,-0.7488012863549293,-1.302443387920859,-3.0689885866999247,-0.7062885761260986,0.6807611584663391,-0.19421927630901337,0.4620952904224396,0.9470334053039551,-0.14016039669513702
5.141312122344971,0.46661996841430664,-0.3044784665107727,0.23041462898254395,-0.74066505098026,-1.2864267323687852,-3.0660033469550667,-0.7083802819252014,0.6747788786888123,-0.20705333352088928,-0.043082378804683685,0.49101021885871887,-0.5893140435218811
5.162026882171631,0.390002965927124,-0.2530568242073059,0.23581422865390778,-0.7266134211794629,-1.2892781890552398,-3.078730301202673,-0.7180059552192688,0.6643422245979309,-0.20764639973640442,-0.4191763997077942,0.07360891252756119,-1.0150099992752075
5.181979179382324,0.3606935143470764,-0.1648591160774231,0.23160338401794434,-0.7062361128342045,-1.3044569469255853,-3.097730538386999,-0.7339845895767212,0.6489747762680054,-0.20024648308753967,-0.3669878840446472,-0.3408786356449127,-1.3072866201400757
5.201865196228027,0.2253018021583557,-0.1254289150238037,0.1823733001947403,-0.6805403521126487,-1.3254526679293714,-3.114692067498487,-0.7539578676223755,0.6292130947113037,-0.18878188729286194,-0.22559118270874023,-0.6551597714424133,-1.504929542541504
5.221863031387329,0.02966153621673584,-0.03126215934753418,0.09326165914535522,-0.6512715285620889,-1.3491742180154722,-3.126042975276203,-0.7758621573448181,0.6061981320381165,-0.17481979727745056,0.037140581756830215,-0.9734705686569214,-1.5152665376663208
5.241888999938965,-0.2211998701095581,0.14366459846496582,-0.026683151721954346,-0.6223470434024637,-1.3719386994434932,-3.132620213773457,-0.7965004444122314,0.5829437375068665,-0.1605115681886673,0.0037307743914425373,-0.9010748267173767,-1.4033063650131226
5.262047052383423,-0.3224467635154724,0.10002654790878296,-0.005422651767730713,-0.596606854783205,-1.3930339938922853,-3.139209881866399,-0.8142110705375671,0.5618387460708618,-0.14628009498119354,-0.014352062717080116,-0.8254038691520691,-1.2323001623153687
5.281790018081665,-0.36516880989074707,0.1119920015335083,0.014485999941825867,-0.5735958876790253,-1.4102385663438481,3.1405224663842897,-0.8291520476341248,0.5426559448242188,-0.1342826634645462,0.13139507174491882,-0.6954368948936462,-1.0918009281158447
5.302332878112793,-0.37504303455352783,0.0780712366104126,-0.03761442005634308,-0.5523589503902191,-1.4227950741669277,3.1404871802524204,-0.841982901096344,0.5246968269348145,-0.12553243339061737,0.16734734177589417,-0.571351945400238,-1.0106256008148193
5.320792198181152,-0.3281232714653015,-0.004874169826507568,-0.04284423589706421,-0.5326337035154581,-1.4337489218973702,3.139885189439341,-0.8533953428268433,0.5078039765357971,-0.11769338697195053,0.03455525264143944,-0.48733076453208923,-0.949828028678894
5.341701030731201,-0.29440736770629883,-0.07298535108566284,-0.019227638840675354,-0.5144112268193282,-1.445007824189512,3.1349861925485207,-0.8637044429779053,0.4920223653316498,-0.10922075062990189,-0.21246296167373657,-0.4008186459541321,-0.9294450283050537
5.361742973327637,-0.26154565811157227,-0.08588194847106934,-0.0068007707595825195,-0.4965385103380447,-1.4573614994674717,3.1248046268566925,-0.8735862374305725,0.4763849377632141,-0.09952233731746674,-0.46755337715148926,-0.33524391055107117,-0.9595070481300354
5.381602048873901,-0.22398054599761963,-0.11634308099746704,0.013797342777252197,-0.4781516614915873,-1.470445423719751,3.109632111479278,-0.8833804130554199,0.4601389169692993,-0.08894679695367813,-0.654039740562439,-0.253114253282547,-1.0135315656661987
5.400516986846924,-0.17836785316467285,-0.12362369894981384,0.023659594357013702,-0.45848874910182014,-1.4822724012639028,3.0929765498688044,-0.8932111859321594,0.44259342551231384,-0.07927775382995605,-0.6083736419677734,-0.196320578455925,-1.088241457939148
5.421241998672485,-0.12407994270324707,-0.06930533051490784,-0.02647501230239868,-0.4371454163162638,-1.492703289456371,3.078730339305005,-0.9032028913497925,0.4233550429344177,-0.07067759335041046,-0.5416709780693054,-0.191721111536026,-1.1607327461242676
5.44142484664917,-0.16259914636611938,-0.05190226435661316,-0.035770297050476074,-0.4143334063724736,-1.5020356223016935,3.063387654334417,-0.9132218956947327,0.4025798439979553,-0.06289292871952057,-0.694932222366333,-0.11621614545583725,-1.2050538063049316
5.461297988891602,-0.08311259746551514,-0.037171751260757446,0.017134252935647964,-0.3914367111148411,-1.50974875725401,3.045477595401463,-0.9226400256156921,0.38151684403419495,-0.05639500543475151,-0.7701879143714905,0.049845706671476364,-1.1981277465820312
5.481528043746948,0.023144125938415527,0.020208358764648438,0.07299286127090454,-0.36930942482970036,-1.5145690416110724,3.027659604842131,-0.9311031699180603,0.36097151041030884,-0.052408646792173386,-0.7553680539131165,0.09318696707487106,-1.097625970840454
5.499216079711914,0.11999320983886719,0.015847444534301758,0.09598691016435623,-0.349582107527412,-1.5187917026740225,3.010348137818173,-0.9382457733154297,0.34250521659851074,-0.04883715510368347,-0.7591440677642822,0.10394240915775299,-0.979945957660675
5.52042818069458,0.0907556414604187,0.07003402709960938,0.07629090547561646,-0.33183558372934957,-1.522589197229881,2.9930296015125113,-0.9443477988243103,0.3257790207862854,-0.0455595962703228,-0.8030365705490112,0.10311656445264816,-0.8849554657936096
5.541146993637085,0.10503464937210083,0.04641661047935486,0.013649344444274902,-0.3153998125753398,-1.526281304307901,2.974049744850446,-0.9497308135032654,0.31019657850265503,-0.04230523481965065,-0.8988699316978455,0.11294655501842499,-0.8540780544281006
5.561221122741699,0.16545063257217407,0.04156067967414856,-0.02426547184586525,-0.29865973991349526,-1.5297097092134535,2.95575283760223,-0.9549253582954407,0.2942395508289337,-0.0392567478120327,-0.7517011165618896,0.09812571108341217,-0.9113122820854187
5.582528114318848,0.2386217713356018,0.07332411408424377,0.001934591680765152,-0.27995853463762405,-1.5329243698534025,2.940814778952984,-0.9603778123855591,0.2763158082962036,-0.036388788372278214,-0.6202629208564758,-0.004791262559592724,-1.0253081321716309
5.600427150726318,0.29077887535095215,0.0722828209400177,0.01247972622513771,-0.25852939060044056,-1.5382475633078194,2.9277500912567684,-0.9662549495697021,0.2556591033935547,-0.03146151453256607,-0.582788348197937,-0.18246476352214813,-1.1623947620391846
5.6210551261901855,0.3020280599594116,0.10383695363998413,-0.052489280700683594,-0.23409545539129667,-1.5471848926853284,2.914498486295059,-0.9724534749984741,0.23196320235729218,-0.022965289652347565,-0.6466728448867798,-0.3766196072101593,-1.3230633735656738
5.640827178955078,0.2747756242752075,0.159157857298851,-0.09955596923828125,-0.20622287452880578,-1.5600787030260115,2.8991879024962453,-0.9787551760673523,0.20476427674293518,-0.010490331798791885,-0.8057765960693359,-0.5962883830070496,-1.483079195022583
5.66063117980957,0.26112401485443115,0.22693368792533875,-0.11237919330596924,-0.17550090626874013,-1.577132872843302,2.8819944218993454,-0.9846196174621582,0.17460137605667114,0.006239171139895916,-0.8018104434013367,-0.7725398540496826,-1.589072346687317
5.68057918548584,0.277102530002594,0.3109934329986572,-0.2340536117553711,-0.1436166097184827,-1.5956973473307368,2.872922665059268,-0.989398181438446,0.14312341809272766,0.02464211918413639,0.0055242665112018585,-0.9403485059738159,-1.577001690864563
5.700515031814575,0.33913034200668335,0.37505990266799927,-0.5344827175140381,-0.11404828871301687,-1.6140882806127508,2.8871462337796547,-0.9925728440284729,0.11380121111869812,0.04299728199839592,1.2992950677871704,-1.0734145641326904,-1.4079630374908447
5.720480918884277,0.38457268476486206,0.3670852780342102,-0.7731163501739502,-0.09069586417706098,-1.6325203478649815,2.92416520628734,-0.9939935803413391,0.0905715748667717,0.061431314796209335,2.145447254180908,-1.1072341203689575,-1.1271120309829712
5.740566968917847,0.30141884088516235,0.37504544854164124,-0.7373119592666626,-0.07414967590990551,-1.6498536119023224,2.9710227883907856,-0.9941374659538269,0.07408174872398376,0.07875795662403107,2.304826498031616,-0.9683660864830017,-0.8623305559158325
5.760792970657349,0.15916943550109863,0.3380412757396698,-0.6405161619186401,-0.06234395734887874,-1.6617486346973853,3.014021201344045,-0.9939322471618652,0.0623035803437233,0.0906505361199379,1.7859469652175903,-0.48200830817222595,-0.6921371221542358
5.780313968658447,0.08391141891479492,0.29276418685913086,-0.5679444074630737,-0.05218438752621418,-1.6632597566895313,3.0412770985287527,-0.9943729043006897,0.052160706371068954,0.09220604598522186,0.8014888167381287,0.11860444396734238,-0.5655128359794617
5.800290107727051,0.10131371021270752,0.3718429207801819,-0.5045596361160278,-0.04346924512231576,-1.6548955297745624,3.047967498090948,-0.9955246448516846,0.04345555603504181,0.08392076939344406,-0.1642274111509323,0.6096435785293579,-0.33272841572761536
5.820096969604492,0.06631404161453247,0.41412270069122314,-0.48989856243133545,-0.039607751639113106,-1.6377322820928355,3.0396088565633104,-0.9969781637191772,0.039597395807504654,0.06683353334665298,-0.6192333102226257,1.051524043083191,0.04383077472448349
5.8392040729522705,0.006956279277801514,0.4097473621368408,-0.45240724086761475,-0.04462842398777829,-1.6128423287332991,3.025435773263843,-0.9981215000152588,0.044613610953092575,0.041991766542196274,-0.7587797045707703,1.4240880012512207,0.534228503704071
5.860069036483765,-0.011405587196350098,0.3430302143096924,-0.36076676845550537,-0.05951651728720294,-1.5824477542690951,3.009282964317003,-0.9981616735458374,0.059481386095285416,0.011630535125732422,-0.8095147013664246,1.6340020895004272,0.9814190864562988
5.879939079284668,-0.05376112461090088,0.2847660481929779,-0.24104899168014526,-0.08289787147923461,-1.5491963769042714,2.9927938190730523,-0.9963335990905762,0.08280295878648758,-0.021524103358387947,-0.8641862273216248,1.7606439590454102,1.3272769451141357
5.8998870849609375,-0.1436396837234497,0.22397349774837494,-0.12768924236297607,-0.11304383116152285,-1.5141954844327787,2.9755967380983144,-0.9920263290405273,0.11280322074890137,-0.056209564208984375,-0.967182993888855,1.8425246477127075,1.5840858221054077
5.919820070266724,-0.2569688558578491,0.15880842506885529,0.007573902606964111,-0.14740411659443034,-1.4781481565318393,2.9590292329252836,-0.9849135875701904,0.14687089622020721,-0.09151242673397064,-0.8611531853675842,1.9656463861465454,1.6858760118484497
5.939879894256592,-0.3453189730644226,0.1101604700088501,0.10376673936843872,-0.18215068171981688,-1.4388041822507638,2.950196546497344,-0.9749020934104919,0.1811450868844986,-0.12943194806575775,-0.3874030113220215,2.123137950897217,1.6559261083602905
5.959618091583252,-0.33353596925735474,0.04777008295059204,0.22504007816314697,-0.21438163667420895,-1.3953193899311036,2.950799093921618,-0.9621031880378723,0.21274326741695404,-0.1705813705921173,-0.0964861586689949,2.1953678131103516,1.5408196449279785
5.979676008224487,-0.24584901332855225,-0.0619092732667923,0.3371596336364746,-0.24335068204977303,-1.3515924731732738,2.955155802639463,-0.9473121762275696,0.24095593392848969,-0.21104562282562256,-0.11044689267873764,2.042285680770874,1.3886686563491821
5.998752117156982,-0.2489643692970276,-0.15831509232521057,0.41709065437316895,-0.26945903421312917,-1.312149502785959,2.9554082139459243,-0.931852400302887,0.26621001958847046,-0.24654309451580048,-0.5353348851203918,1.942375659942627,1.1398000717163086
6.020135879516602,-0.327869713306427,-0.2552153468132019,0.6091439127922058,-0.29211259909607906,-1.2768438115398402,2.945414010976519,-0.91656094789505,0.2879759669303894,-0.27746352553367615,-0.995341956615448,1.884207844734192,0.7634355425834656
6.039534091949463,-0.19897836446762085,-0.34665432572364807,0.7599238157272339,-0.3100643460248072,-1.2462016041471562,2.9258350422033703,-0.9025842547416687,0.30511990189552307,-0.3037164509296417,-1.3473542928695679,1.6921288967132568,0.3956540822982788
6.05952787399292,0.12890034914016724,-0.44619426131248474,0.7326998710632324,-0.3245100586194228,-1.2268574451392302,2.8979046660619825,-0.892297625541687,0.3188444674015045,-0.31959855556488037,-1.6392626762390137,1.0896748304367065,0.10448765009641647
6.079531192779541,0.31187301874160767,-0.4054514169692993,0.5506513118743896,-0.33665573182958713,-1.2216944230209124,2.8631470431789996,-0.8869310617446899,0.3303323984146118,-0.3228527307510376,-1.8682876825332642,0.5997756719589233,-0.07778938859701157
6.09933614730835,0.2520707845687866,-0.3737064301967621,0.4014054536819458,-0.34738728070175373,-1.2273581421101611,2.8229202205672146,-0.8853563666343689,0.34044232964515686,-0.3166123032569885,-2.0558035373687744,0.2164274901151657,-0.20941907167434692
6.1187520027160645,0.14017432928085327,-0.3750942349433899,0.4007876217365265,-0.3558543686514825,-1.2413983434040539,2.779152317712914,-0.8869547247886658,0.3483913242816925,-0.3032075762748718,-2.088468313217163,-0.07308261096477509,-0.3497457802295685
6.139657020568848,-0.0013998746871948242,-0.35248398780822754,0.4094780385494232,-0.36079497369560465,-1.2595391462945766,2.7336681355200283,-0.8906596899032593,0.3530181348323822,-0.28653791546821594,-2.1531381607055664,-0.1173241063952446,-0.5196467638015747
6.160659074783325,-0.03830397129058838,-0.3709193170070648,0.42656606435775757,-0.3626413498134462,-1.2801990931645728,2.6840069963438316,-0.8957629203796387,0.3547450304031372,-0.2678898274898529,-2.3849594593048096,-0.17709529399871826,-0.6941004991531372
6.178992986679077,-0.04518336057662964,-0.30700916051864624,0.3992410898208618,-0.36100300478839514,-1.3042658395098432,2.6272325993456196,-0.9025095701217651,0.35321277379989624,-0.24640898406505585,-2.6843364238739014,-0.2164405733346939,-0.9246182441711426
6.199141979217529,-0.029813289642333984,-0.2324182391166687,0.320300817489624,-0.3548874275009338,-1.3320545475178869,2.5639457853478476,-0.9110895395278931,0.3474847972393036,-0.22174419462680817,-2.89567232131958,-0.3697899878025055,-1.15297532081604
6.219005107879639,-0.0006246566772460938,-0.19317883253097534,0.23948001861572266,-0.34333228541463073,-1.3640551343955847,2.497121633598631,-0.9215861558914185,0.3366267681121826,-0.193291574716568,-2.963261842727661,-0.5273815393447876,-1.374266505241394
6.239066123962402,0.006992638111114502,-0.1680874526500702,0.15277661383152008,-0.32549212268241223,-1.3980997008147207,2.431273485625829,-0.933399498462677,0.3197751045227051,-0.16281679272651672,-2.7592966556549072,-0.7204657793045044,-1.554599404335022
6.259253025054932,0.02254164218902588,-0.09977614879608154,0.047996580600738525,-0.30077826458448026,-1.4307808931498227,2.374652358409439,-0.9457595348358154,0.2962636351585388,-0.13329310715198517,-2.110419750213623,-0.762191116809845,-1.737710952758789
6.278990983963013,0.0036420226097106934,0.015592753887176514,-0.062317900359630585,-0.2686482092849637,-1.456041272434781,2.3368415673858123,-0.957789421081543,0.265428364276886,-0.11039619147777557,-1.0642898082733154,-0.6944789290428162,-1.897279143333435
6.298725128173828,0.05212569236755371,0.10347822308540344,-0.10037023574113846,-0.23182956106710606,-1.4744752520309168,2.31986109212097,-0.9687366485595703,0.22975851595401764,-0.09359939396381378,-0.2759045660495758,-0.7320782542228699,-1.937760829925537
6.318663120269775,0.09211605787277222,0.09127172827720642,-0.1078537181019783,-0.19361182168089888,-1.4910107317049968,2.3140048132854902,-0.9781941771507263,0.19240447878837585,-0.07821183651685715,-0.03450524061918259,-0.7884560823440552,-1.9307321310043335
6.337663173675537,0.07131034135818481,0.10587495565414429,-0.11469906568527222,-0.15570929517934057,-1.5082148880303494,2.309534305037034,-0.9859679937362671,0.1550808548927307,-0.06178397312760353,-0.1665322631597519,-0.8548731207847595,-1.8896005153656006
6.35892391204834,0.022266805171966553,0.15203040838241577,-0.1320430040359497,-0.11891003059290312,-1.5268098084702937,2.3012983329381345,-0.9919782280921936,0.11863000690937042,-0.04366183280944824,-0.44306057691574097,-0.8887089490890503,-1.8388535976409912
6.378748893737793,-0.0423089861869812,0.20103350281715393,-0.16785907745361328,-0.08325760903902892,-1.5462002779488195,2.2898743657333824,-0.9962349534034729,0.08316145092248917,-0.024508384987711906,-0.528553307056427,-0.9260820150375366,-1.7708481550216675
6.398501873016357,-0.10891920328140259,0.2772607207298279,-0.262658953666687,-0.04877791400421166,-1.5647867482334972,2.280247716354441,-0.9987925887107849,0.048758573830127716,-0.006002394482493401,-0.3601289689540863,-0.8579682111740112,-1.6939786672592163
6.418349027633667,-0.13784217834472656,0.35400334000587463,-0.3061918020248413,-0.016007724816468734,-1.5807249941572543,2.274603066056762,-0.9998226761817932,0.016007041558623314,0.009927233681082726,-0.2428915947675705,-0.7184023857116699,-1.5808014869689941
6.438427925109863,-0.08396875858306885,0.3831854462623596,-0.30477190017700195,0.014350477369172162,-1.5943839930650745,2.270018098801664,-0.9996189475059509,-0.01434998493641615,0.023583052679896355,-0.28684622049331665,-0.65507972240448,-1.4461168050765991
6.457455158233643,-0.03433316946029663,0.4178049862384796,-0.3252885341644287,0.041932278959754946,-1.607230387858357,2.264583589663698,-0.9984580874443054,-0.04191999137401581,0.036393988877534866,-0.3327863812446594,-0.662997841835022,-1.2948962450027466
6.47814416885376,-0.09007936716079712,0.4643213450908661,-0.35531580448150635,0.06675736607004937,-1.6204111968366695,2.2596973506522673,-0.9965448379516602,-0.0667077898979187,0.04948405176401138,-0.2318112701177597,-0.6834491491317749,-1.1744228601455688
6.498128890991211,-0.19310104846954346,0.5206571817398071,-0.4433166980743408,0.08902731172186634,-1.6338042015641263,2.2578218419899123,-0.9940632581710815,-0.08890975266695023,0.06271683424711227,-0.0948890820145607,-0.6643640398979187,-1.049286127090454
6.51806902885437,-0.2681335210800171,0.5440574884414673,-0.5032939910888672,0.1090010244417891,-1.6470806670687606,2.2578342340976265,-0.9911744594573975,-0.10878530889749527,0.07575809955596924,-0.058454543352127075,-0.6823902130126953,-0.9429454803466797
6.5382080078125,-0.3492889404296875,0.5858578681945801,-0.5489252805709839,0.12641650509407015,-1.6612920674159561,2.258306938533383,-0.987960934638977,-0.12608006596565247,0.08965112268924713,0.0029679390136152506,-0.7144649624824524,-0.8136052489280701
6.558096885681152,-0.5820992588996887,0.6996067762374878,-0.5738661289215088,0.1405907084116147,-1.672883924950945,2.263900079655489,-0.9849783778190613,-0.1401280164718628,0.10090485960245132,0.4757109582424164,-0.2788870632648468,-0.6273497939109802
6.578134059906006,-0.6036523580551147,0.7837891578674316,-0.5704351663589478,0.14771382464837016,-1.6739071617678662,2.2802016151343767,-0.9838569164276123,-0.14717723429203033,0.1018073633313179,1.003366231918335,0.36866533756256104,-0.22381269931793213
6.597382068634033,-0.22274303436279297,0.7482351660728455,-0.5311548709869385,0.14365675070892134,-1.6631831524003382,2.299363705968083,-0.9854786396026611,-0.14316314458847046,0.09130516648292542,0.7914092540740967,0.8897277116775513,0.42986470460891724
6.617568016052246,0.1916341781616211,0.5467877388000488,-0.45012426376342773,0.1264241781156771,-1.6435590537822768,2.306241143848633,-0.9893944263458252,-0.12608766555786133,0.0721183568239212,0.025042854249477386,1.0436687469482422,1.1912091970443726
6.637463092803955,0.40552592277526855,0.45224112272262573,-0.44902610778808594,0.09617290401962413,-1.6223325899987593,2.2997426366604725,-0.9940575361251831,-0.09602472186088562,0.05127541348338127,-0.3746853768825531,0.9760324954986572,1.801029086112976
6.657167911529541,0.18977689743041992,0.43091362714767456,-0.45785415172576904,0.056630555392628484,-1.6014431185244253,2.2924188029219157,-0.9979282021522522,-0.05660029128193855,0.03059287555515766,-0.0892152488231659,1.0729821920394897,2.139315605163574
6.677312850952148,-0.03674733638763428,0.4133128523826599,-0.4460185766220093,0.012678433439505404,-1.5786290435224009,2.297798471818822,-0.9998891949653625,-0.012678094208240509,0.00783200841397047,0.7607950568199158,1.1949304342269897,2.2247180938720703
6.6973371505737305,-0.12830626964569092,0.38746342062950134,-0.3630959391593933,-0.03177715488751645,-1.5536796643773099,2.321581346024397,-0.9993488788604736,0.03177180886268616,-0.01710718683898449,1.5361608266830444,1.286091923713684,2.2305359840393066
6.717371940612793,-0.22944140434265137,0.29109591245651245,-0.2523355484008789,-0.07535418574437841,-1.524277176631506,2.3570181430437427,-0.9960836172103882,0.07528289407491684,-0.04637041687965393,1.7939802408218384,1.4769424200057983,2.2442851066589355
6.737385988235474,-0.3344525694847107,0.1935490369796753,-0.09810948371887207,-0.11844956153664334,-1.488457599400282,2.394724176212529,-0.9896290302276611,0.1181727722287178,-0.08166944235563278,1.6567010879516602,1.735896110534668,2.3012173175811768
6.758887052536011,-0.40649259090423584,0.10638561844825745,0.04838164150714874,-0.1626101089006222,-1.4452066985204326,2.430030372701345,-0.9790359735488892,0.16189442574977875,-0.1236073300242424,1.337501049041748,2.0077733993530273,2.4165539741516113
6.778195858001709,-0.4193631410598755,0.029516220092773438,0.14445321261882782,-0.20884563365609898,-1.397404417577486,2.459596482799721,-0.9636021852493286,0.20733074843883514,-0.16877561807632446,0.8396776914596558,2.2013702392578125,2.5864038467407227
6.797620058059692,-0.398298978805542,-0.04732814431190491,0.20815545320510864,-0.25874759375314577,-1.3470445436943637,2.4821644436483723,-0.9426130056381226,0.2558700442314148,-0.21450303494930267,0.3335881233215332,2.3110952377319336,2.7537989616394043
6.818643093109131,-0.35480213165283203,-0.10808679461479187,0.2713428735733032,-0.31277720988285723,-1.2961122541205603,2.4994493098395925,-0.915812611579895,0.30770227313041687,-0.25808292627334595,-0.00818571262061596,2.296074390411377,2.889523983001709
6.837372064590454,-0.3470132350921631,-0.1561388075351715,0.29062944650650024,-0.3684110684067009,-1.244422171821169,2.5176317515772273,-0.883653998374939,0.360133558511734,-0.2990979850292206,0.07472535967826843,2.273695707321167,2.920337438583374
6.85739803314209,-0.3552713394165039,-0.22313839197158813,0.2494903802871704,-0.4191915263584864,-1.1882112840944279,2.545737477925402,-0.8473807573318481,0.4070221185684204,-0.34099724888801575,0.6601296067237854,2.2910187244415283,2.725465774536133
6.877367973327637,-0.3219524621963501,-0.28155195713043213,0.28421449661254883,-0.4578250469777924,-1.1250420178787985,2.5882351194207085,-0.8093647360801697,0.4419981837272644,-0.38673824071884155,1.2328459024429321,2.1975157260894775,2.3549532890319824
6.897355079650879,-0.26049357652664185,-0.37336355447769165,0.43943095207214355,-0.4843330967757043,-1.0611315438253197,2.635228094325491,-0.7725112438201904,0.4656182527542114,-0.4317709803581238,1.1492851972579956,2.0745325088500977,1.9276072978973389
6.917383193969727,-0.28331971168518066,-0.5057344436645508,0.6026996374130249,-0.5052094027622508,-1.0033981681510442,2.6716970246801295,-0.7379510998725891,0.48399069905281067,-0.47029909491539,0.4822200834751129,1.9864856004714966,1.5218501091003418
6.937381982803345,-0.26544642448425293,-0.6226894855499268,0.7581302523612976,-0.5271718374863057,-0.9562543232781427,2.690874496201768,-0.7061112523078918,0.5030911564826965,-0.49830353260040283,-0.3166322708129883,1.745271921157837,1.2344791889190674
6.957370042800903,-0.13570725917816162,-0.6678780913352966,0.8085185885429382,-0.5519920351553268,-0.9244372938059185,2.694412181670353,-0.6797224879264832,0.5243844389915466,-0.5128337144851685,-0.8469038605690002,1.2541093826293945,0.9325751662254333
6.977372169494629,-0.1330210566520691,-0.6583295464515686,0.7458876371383667,-0.5751369560303045,-0.9074150524427723,2.6875682164906225,-0.6611531972885132,0.5439497232437134,-0.5167157649993896,-0.969241738319397,0.8341774344444275,0.5336875319480896
6.997369050979614,-0.19089168310165405,-0.6480262279510498,0.6723732948303223,-0.5911642309346974,-0.9022423705083419,2.674621622196483,-0.6515461206436157,0.5573280453681946,-0.5146583914756775,-0.8401551246643066,0.4012834429740906,0.04889490827918053
7.016700029373169,-0.23824399709701538,-0.6090485453605652,0.6320473551750183,-0.5975284667355669,-0.9082500682380195,2.657381304972915,-0.6518164873123169,0.5626009106636047,-0.5085426568984985,-0.6843999028205872,-0.037392884492874146,-0.42527103424072266
7.037203073501587,-0.27906882762908936,-0.5809769630432129,0.5946978330612183,-0.5953760808342695,-0.9253984271660959,2.635373269929137,-0.6614067554473877,0.5608201622962952,-0.4980180859565735,-0.6635096073150635,-0.41523241996765137,-0.8430193066596985
7.057374000549316,-0.33315587043762207,-0.5578497052192688,0.5200451016426086,-0.5871117650712182,-0.9536656253626506,2.6067938205980554,-0.6789749264717102,0.5539587736129761,-0.481791228055954,-0.8076072335243225,-0.8336207270622253,-1.2476682662963867
7.077404022216797,-0.5768404006958008,-0.48612672090530396,0.5143383145332336,-0.5729476007954278,-0.9946815336721233,2.567266780562232,-0.7046691179275513,0.5421112775802612,-0.45777392387390137,-1.1811268329620361,-1.067812204360962,-1.8019367456436157
7.097556114196777,-0.815567672252655,-0.43211036920547485,0.5742639899253845,-0.5526682473856239,-1.045784452702747,2.5147021213465544,-0.736495316028595,0.5249601006507874,-0.42660456895828247,-1.5056729316711426,-1.247728705406189,-2.241769790649414
7.117434024810791,-0.6063528060913086,-0.38606446981430054,0.4701075851917267,-0.5252226784252402,-1.1038766697488431,2.4557530497387816,-0.7725992798805237,0.501405656337738,-0.389464795589447,-1.6433093547821045,-1.5429959297180176,-2.5641865730285645
7.1373748779296875,-0.31351739168167114,-0.3484961688518524,0.28650280833244324,-0.491783986738909,-1.1654574531146134,2.3949960512016344,-0.8100636005401611,0.4721992015838623,-0.3475988805294037,-1.7245181798934937,-1.629544734954834,-2.6877262592315674
7.157394886016846,-0.09213709831237793,-0.2501552700996399,0.10875609517097473,-0.4524972008322169,-1.2240649176675593,2.341240295478012,-0.8458359837532043,0.4372127652168274,-0.30562490224838257,-1.2098615169525146,-1.8072470426559448,-2.72135853767395
7.1774680614471436,-0.06006133556365967,-0.10868251323699951,0.03950375318527222,-0.4059831609390854,-1.2761298030287238,2.3051653787087734,-0.8791172504425049,0.3949221968650818,-0.26681384444236755,-0.46411383152008057,-1.857961893081665,-2.763223886489868
7.197390079498291,-0.21484631299972534,-0.10255905985832214,0.08127821981906891,-0.3535460373047585,-1.3213571230444814,2.28404045748753,-0.9091161489486694,0.34622669219970703,-0.23159247636795044,-0.10427727550268173,-1.8852607011795044,-2.837115526199341
7.217355966567993,-0.33164459466934204,-0.10041025280952454,0.03407278656959534,-0.297912755452596,-1.3640733468329065,2.2678716085973134,-0.9355980753898621,0.2935255467891693,-0.19621263444423676,-0.1718941032886505,-1.8788824081420898,-2.9403648376464844
7.237375020980835,-0.3885341286659241,-0.03711336851119995,-0.0452004075050354,-0.24012859210895948,-1.4057938298504635,2.2513520604429793,-0.9581151604652405,0.23782752454280853,-0.15954191982746124,-0.3160892426967621,-1.8551315069198608,-3.041306734085083
7.256662845611572,-0.3459736704826355,0.058144643902778625,-0.09240292757749557,-0.1806754948669504,-1.4455526262579066,2.234775942241556,-0.9760173559188843,0.17969411611557007,-0.12288321554660797,-0.4336141049861908,-1.7716087102890015,-3.0705478191375732
7.277441024780273,-0.24987757205963135,0.12617990374565125,-0.12067294120788574,-0.1214942655478821,-1.48189662584949,2.2173553835905815,-0.9887089729309082,0.12119559198617935,-0.0881282240152359,-0.6706843972206116,-1.5996962785720825,-2.9909021854400635
7.297371864318848,-0.15706020593643188,0.17307236790657043,-0.15165084600448608,-0.06468944152059132,-1.5138471605351187,2.1956588752421693,-0.9962906837463379,0.06464433670043945,-0.05679934099316597,-1.1049189567565918,-1.3863383531570435,-2.8264822959899902
7.3173699378967285,-0.09449964761734009,0.23656709492206573,-0.17252695560455322,-0.011525817792564704,-1.5406495950065686,2.1653727067554804,-0.9994794130325317,0.011525562964379787,-0.030140168964862823,-1.7055145502090454,-1.1856342554092407,-2.606400966644287
7.337375164031982,-0.051432132720947266,0.3187491297721863,-0.19376057386398315,0.03715674035148858,-1.5621889155120372,2.125057742882278,-0.9992729425430298,-0.03714819252490997,-0.008601365610957146,-2.187154769897461,-1.0114327669143677,-2.3352274894714355
7.35745096206665,-0.06111806631088257,0.43057090044021606,-0.24910879135131836,0.08112678696754992,-1.5783989851310336,2.080580704354147,-0.9966822266578674,-0.08103782683610916,0.007577580399811268,-2.1776928901672363,-0.8714597821235657,-2.060201644897461
7.377418041229248,-0.06972956657409668,0.5476787686347961,-0.3020113706588745,0.12026464638697601,-1.5911108509879575,2.041243378223216,-0.9925721883773804,-0.11997494846582413,0.02016640640795231,-1.763258457183838,-0.7877934575080872,-1.788851261138916
7.397367000579834,-0.09146171808242798,0.5963701009750366,-0.3283693790435791,0.1541546140082529,-1.6021798352922685,2.012411573333288,-0.9876552224159241,-0.15354479849338531,0.03100626729428768,-1.184029221534729,-0.7101115584373474,-1.5167508125305176
7.417367935180664,-0.09278601408004761,0.6575518250465393,-0.336018443107605,0.1824267785202532,-1.6126141983734295,1.9943917445967934,-0.9825467467308044,-0.1814166158437729,0.041111983358860016,-0.7389261722564697,-0.6397460699081421,-1.2464991807937622
7.437368869781494,-0.03912162780761719,0.6656441688537598,-0.3288991451263428,0.20515082609553095,-1.6230591144953932,1.9828221801807995,-0.9776936769485474,-0.20371483266353607,0.05114356800913811,-0.5625048875808716,-0.6316103339195251,-0.9561005234718323
7.457395076751709,0.01409900188446045,0.6660207509994507,-0.3382061719894409,0.2213987052397596,-1.6326737221044991,1.9702755605560318,-0.973724365234375,-0.21959440410137177,0.060328543186187744,-0.8226051926612854,-0.5927342772483826,-0.5925031900405884
7.477366924285889,0.04505056142807007,0.631234884262085,-0.37247514724731445,0.2312989116487208,-1.639457977536711,1.9522463496102684,-0.9710758924484253,-0.22924204170703888,0.06678064912557602,-0.8909580111503601,-0.4939383864402771,-0.2936035692691803
7.497369050979614,0.016707420349121094,0.7255648970603943,-0.37978923320770264,0.23542402718423033,-1.6451942637767132,1.9400587541713052,-0.9697257280349731,-0.23325534164905548,0.07227899879217148,-0.2715844213962555,-0.38470426201820374,-0.04461299628019333
7.5173680782318115,-0.04660826921463013,0.8119664788246155,-0.5116826295852661,0.23394010933788614,-1.6530155434219387,1.9418923263383698,-0.9694746136665344,-0.23181208968162537,0.07988954335451126,0.45997071266174316,-0.3833944797515869,0.1706320196390152
7.537365913391113,-0.08511245250701904,0.7793024182319641,-0.5648103952407837,0.22728386919202528,-1.6648955026018077,1.9571662605040672,-0.969971776008606,-0.2253320813179016,0.09154389798641205,1.0485543012619019,-0.4700932502746582,0.3523922860622406
7.557371139526367,-0.24338102340698242,0.7542001008987427,-0.5875191688537598,0.2164421203829504,-1.680263424301467,1.9831864181524776,-0.9708217978477478,-0.21475611627101898,0.10669957846403122,1.624390959739685,-0.469269722700119,0.45132511854171753
7.577320098876953,-0.5362430214881897,0.7944203615188599,-0.6347579956054688,0.2022602545425365,-1.6935734111085614,2.0212869153794015,-0.9722409844398499,-0.20088401436805725,0.1199723482131958,2.2262654304504395,0.007664341479539871,0.5415892601013184
7.597419023513794,-0.608479917049408,0.7211380004882812,-0.644953727722168,0.18309681950289702,-1.6941791544664904,2.0666244820128106,-0.9758096933364868,-0.18207550048828125,0.1210128515958786,2.31719708442688,0.7752553820610046,0.8476635217666626
7.617369174957275,-0.2881249785423279,0.5732887983322144,-0.5360875129699707,0.1567083111859237,-1.6789900115276808,2.1054138469754813,-0.9819709658622742,-0.15606769919395447,0.10665956139564514,1.7048221826553345,1.353783369064331,1.3540936708450317
7.637366056442261,0.0015567541122436523,0.4286566972732544,-0.4206697940826416,0.1207990304756574,-1.6512419768066011,2.1263598207496264,-0.9895024299621582,-0.1205054521560669,0.07977332919836044,0.684856116771698,1.6929489374160767,2.0335254669189453
7.657428979873657,0.024472177028656006,0.303078830242157,-0.3718067407608032,0.07365321857569843,-1.614886593038973,2.1279579864329867,-0.9963198304176331,-0.07358664274215698,0.04395649582147598,-0.14791570603847504,1.9449959993362427,2.624746084213257
7.6773681640625,-0.1390392780303955,0.25811347365379333,-0.33783817291259766,0.017284866666241034,-1.5737656513812983,2.120502141441036,-0.9998464584350586,-0.017284005880355835,0.0029688773211091757,-0.34163060784339905,2.1103243827819824,3.0044946670532227
7.697367191314697,-0.30066508054733276,0.23072361946105957,-0.30931854248046875,-0.04439166801040089,-1.5306231049111114,2.1198384247720785,-0.9982089400291443,0.04437708854675293,-0.040122855454683304,0.2499544322490692,2.1887967586517334,3.1447792053222656
7.7173850536346436,-0.46668708324432373,0.20709457993507385,-0.21029692888259888,-0.10644555829109552,-1.4840772832782931,2.136134082526054,-0.9906036257743835,0.10624465346336365,-0.08612018823623657,0.9341709017753601,2.3237316608428955,3.150996208190918
7.737367153167725,-0.5511147379875183,0.11217664182186127,-0.05982017517089844,-0.1667475062587117,-1.4312906627166828,2.1651185530909793,-0.9765495657920837,0.16597585380077362,-0.1371249109506607,1.1446260213851929,2.409243106842041,3.1225969791412354
7.756597995758057,-0.561964750289917,0.00420987606048584,0.08396604657173157,-0.22472769686140878,-1.3763480678539644,2.196220917394282,-0.9564831256866455,0.22284092009067535,-0.18836654722690582,0.8398280739784241,2.4599156379699707,3.101141929626465
7.777368068695068,-0.5475817322731018,-0.08209040760993958,0.19380755722522736,-0.28251956781306287,-1.3206277801542998,2.222869541525347,-0.9304609298706055,0.2787761986255646,-0.2377527356147766,0.42173415422439575,2.446995258331299,3.115971088409424
7.797366142272949,-0.5294150710105896,-0.1323973834514618,0.2602415680885315,-0.3406375582850688,-1.2644900779872956,2.247231980998695,-0.8986703753471375,0.3340880870819092,-0.2842130661010742,0.2622853219509125,2.4160313606262207,3.1209962368011475
7.817499160766602,-0.5045763850212097,-0.16691026091575623,0.3248386085033417,-0.3974453316293764,-1.2069652188800832,2.2746734687859327,-0.8616955876350403,0.3870640695095062,-0.32811909914016724,0.30926233530044556,2.3343560695648193,3.0940730571746826
7.837376117706299,-0.48942601680755615,-0.22482606768608093,0.36404871940612793,-0.45107302040000957,-1.1478952361748156,2.307494363192456,-0.8206937313079834,0.4359314739704132,-0.36935871839523315,0.3994717299938202,2.239807605743408,3.0136642456054688
7.85738205909729,-0.4960848093032837,-0.2880103290081024,0.417648047208786,-0.5001289421005148,-1.0865292426833029,2.3452604351870256,-0.7766203284263611,0.4795386791229248,-0.40853846073150635,0.4627847373485565,2.157900333404541,2.8828821182250977
7.877366065979004,-0.42114782333374023,-0.3518957495689392,0.4640539884567261,-0.5436051793405348,-1.0243006470758602,2.3868976223906166,-0.7311960458755493,0.5172248482704163,-0.4447821378707886,0.5550346970558167,1.9917116165161133,2.689833879470825
7.897413015365601,-0.3682504892349243,-0.39552533626556396,0.4962235987186432,-0.5792495717351965,-0.9617662412697177,2.433323691382281,-0.6864065527915955,0.5473960638046265,-0.47875216603279114,0.8051893711090088,1.7901359796524048,2.4498391151428223
7.917367935180664,-0.3427807092666626,-0.41049277782440186,0.5207768082618713,-0.605123738289438,-0.8995845367687593,2.484589627864076,-0.6440204977989197,0.5688638687133789,-0.5114994049072266,1.0497560501098633,1.5779948234558105,2.173570156097412
7.937366962432861,-0.3412010073661804,-0.46340733766555786,0.5317039489746094,-0.6213157642433024,-0.8397011144050424,2.5369593295948367,-0.6053169965744019,0.5821055173873901,-0.5429038405418396,1.1766289472579956,1.4003349542617798,1.8378134965896606
7.957391977310181,-0.3146435618400574,-0.4904189109802246,0.5853129625320435,-0.6293940796700915,-0.7847903175263995,2.5861016775369565,-0.5712665319442749,0.5886550545692444,-0.5719614624977112,1.139660358428955,1.2020416259765625,1.494983434677124
7.977365970611572,-0.24940752983093262,-0.5261616110801697,0.6252099275588989,-0.6326527800118255,-0.7394665269521322,2.6271702079704733,-0.5434697270393372,0.5912861824035645,-0.5958367586135864,0.8899896144866943,0.9069755673408508,1.1369402408599854
7.9973649978637695,-0.23916923999786377,-0.5653308033943176,0.6496649980545044,-0.6340913242658354,-0.7070135726786484,2.6564507118064604,-0.5232972502708435,0.5924457311630249,-0.6125097870826721,0.5873958468437195,0.6222966313362122,0.7279218435287476
8.017364978790283,-0.26571011543273926,-0.5785693526268005,0.6442249417304993,-0.6334778456526581,-0.6877520958670215,2.6729880417648424,-0.5116336941719055,0.5919513702392578,-0.622755765914917,0.3289025127887726,0.3423730134963989,0.270133912563324
8.037410020828247,-0.2612907886505127,-0.5794705152511597,0.6152269840240479,-0.6304153866816719,-0.6812995869091243,2.677244747961796,-0.5087440609931946,0.5894803404808044,-0.6274492144584656,0.15680108964443207,0.06529869884252548,-0.19972719252109528
8.05736494064331,-0.23958444595336914,-0.5801560282707214,0.5563449859619141,-0.6233673310174217,-0.6867529830813989,2.6708055464251266,-0.5147796273231506,0.5837724804878235,-0.6278628706932068,0.041875481605529785,-0.26513728499412537,-0.6505036950111389
8.077364921569824,-0.3098623752593994,-0.5783433318138123,0.5043721199035645,-0.6136137084442088,-0.7063223530652302,2.651125041339062,-0.5306375622749329,0.5758256912231445,-0.6219715476036072,-0.36406660079956055,-0.525834858417511,-1.2380926609039307
8.097401142120361,-0.5097111463546753,-0.5150994658470154,0.6081349849700928,-0.6016121818918235,-0.74170945035066,2.612960513250368,-0.5569393038749695,0.5659723281860352,-0.6078603267669678,-0.8236338496208191,-0.8463491797447205,-1.9062254428863525
8.117362976074219,-0.49098914861679077,-0.4672009348869324,0.6227114200592041,-0.58709787513137,-0.7941269764237452,2.5565743922751176,-0.593819260597229,0.5539472103118896,-0.5835420489311218,-1.4093073606491089,-1.2727138996124268,-2.4418294429779053
8.137364864349365,-0.35861802101135254,-0.4981929063796997,0.4757038354873657,-0.5714732190977142,-0.863212190618457,2.484048157971839,-0.6391847133636475,0.5408717393875122,-0.5467181205749512,-1.9806383848190308,-1.6359447240829468,-2.8023550510406494
8.157428979873657,-0.35827720165252686,-0.43491172790527344,0.3119749426841736,-0.5516572825588585,-0.9413297427625497,2.4014991715794194,-0.6884299516677856,0.5240994095802307,-0.5013821721076965,-2.2226181030273438,-1.7540947198867798,-3.0915915966033936
8.177366971969604,-0.33443278074264526,-0.32524630427360535,0.22011512517929077,-0.5229354448343058,-1.0199997979982793,2.317705213807578,-0.7382296919822693,0.4994254410266876,-0.4534219205379486,-2.1462302207946777,-1.8303180932998657,-3.297799587249756
8.197365045547485,-0.3041398525238037,-0.23727306723594666,0.1485859453678131,-0.48412917753722384,-1.0954867401237358,2.2396890561182627,-0.7869704365730286,0.46543779969215393,-0.40502506494522095,-1.911141037940979,-1.9430574178695679,-3.442657232284546
8.217418193817139,-0.36513471603393555,-0.14791804552078247,0.07220768928527832,-0.436841659785049,-1.1655268881409167,2.1702460333007956,-0.8326955437660217,0.42307981848716736,-0.35724180936813354,-1.7293448448181152,-1.9664263725280762,-3.492903709411621
