timestamp,acceleration_x,acceleration_y,acceleration_z,attitude_pitch,attitude_roll,attitude_yaw,gravity_x,gravity_y,gravity_z,rotation_x,rotation_y,rotation_z
0.0,0.13885825872421265,-0.00980156660079956,0.0318169891834259,-0.8240791460693575,-0.8547289673740882,-1.110437885341137,-0.5124086737632751,0.7339226007461548,-0.44586417078971863,0.5303446650505066,0.15379834175109863,-0.13623903691768646
0.020029067993164062,0.07843101024627686,-0.0883333683013916,0.0563109815120697,-0.8204841564789837,-0.8481271092884408,-1.105254666364921,-0.5114296674728394,0.7314760684967041,-0.45097944140434265,0.057170525193214417,0.1210814043879509,-0.014183701947331429
0.039972782135009766,0.03848141431808472,0.056880295276641846,0.07459777593612671,-0.819305193697852,-0.8469618594196898,-1.107594883172673,-0.5115496516227722,0.7306716442108154,-0.45214593410491943,-0.05711750313639641,0.17824599146842957,-0.1214769259095192
0.059970855712890625,0.04089212417602539,0.031586408615112305,0.05938825011253357,-0.8189176371343431,-0.8459196240009241,-1.1115376001272654,-0.5112900733947754,0.7304069995880127,-0.4528665542602539,-0.1521209478378296,0.19451701641082764,-0.09307975322008133
0.0794668197631836,0.044651925563812256,-0.0009359121322631836,0.04868578910827637,-0.8198650758843243,-0.8461680324713162,-1.1168155590001345,-0.5108842849731445,0.7310537695884705,-0.452280730009079,-0.13320183753967285,0.17367635667324066,-0.06021958217024803
0.10000896453857422,0.014488458633422852,0.04875832796096802,0.02689594030380249,-0.8198256147000245,-0.843634541869362,-1.1181530867056468,-0.5097582340240479,0.731026828289032,-0.4535926878452301,0.04958369582891464,0.18364553153514862,-0.010362565517425537
0.1200108528137207,0.0011546015739440918,0.03316611051559448,0.04416891932487488,-0.8191069878665678,-0.8386547516477516,-1.11664015743447,-0.5078837275505066,0.7305362820625305,-0.4564765691757202,0.06072893366217613,0.19559817016124725,0.017439795657992363
0.1399688720703125,-0.000260770320892334,0.0014922618865966797,0.05860084295272827,-0.8190574577919262,-0.8337703622801688,-1.1155889001294836,-0.5056749582290649,0.7305024862289429,-0.45897623896598816,0.011491052806377411,0.21670478582382202,0.02100079320371151
0.1600480079650879,-0.012187480926513672,0.009277582168579102,0.0520627498626709,-0.8190301101162141,-0.8289428768272872,-1.1149965059851983,-0.5034680366516113,0.7304838299751282,-0.46142545342445374,0.024284161627292633,0.2152012437582016,0.0034841476008296013
0.17969608306884766,-0.006634056568145752,-0.0048937201499938965,0.03070133924484253,-0.8188007221078449,-0.82455148247665,-1.1143676376710587,-0.5015599727630615,0.7303271293640137,-0.46374571323394775,0.05448963865637779,0.18055760860443115,-0.009699070826172829
0.1999988555908203,-6.270408630371094e-05,-0.015813171863555908,0.033040851354599,-0.8183231169619669,-0.8208716718070752,-1.1135368165647075,-0.5001051425933838,0.7300007939338684,-0.46582579612731934,0.058408789336681366,0.14624206721782684,-0.007841592654585838
0.2193129062652588,-0.0014840960502624512,-0.029749512672424316,0.038735926151275635,-0.8171703698811297,-0.818013763538228,-1.1127123552252183,-0.4993857145309448,0.7292124629020691,-0.46782824397087097,0.09381642937660217,0.10574807971715927,-0.023246759548783302
0.2392749786376953,0.0049092769622802734,-0.017927467823028564,0.026349157094955444,-0.8152596261196428,-0.8158815581549121,-1.1114334595934114,-0.49940088391304016,0.7279036641120911,-0.46984580159187317,0.15225760638713837,0.043499890714883804,-0.051930513232946396
0.260084867477417,-0.004516154527664185,-0.0029981136322021484,3.167986869812012e-05,-0.8117632183858466,-0.8125230148702233,-1.107815900931237,-0.4996647536754608,0.7255017757415771,-0.47326764464378357,0.3301162123680115,0.04335873946547508,-0.03736754506826401
0.28241682052612305,-0.024760186672210693,0.028334200382232666,-0.004548519849777222,-0.8050381392674126,-0.8048029686453018,-1.098949005452751,-0.4995012879371643,0.7208570837974548,-0.4804825186729431,0.620830237865448,0.09389719367027283,0.00024557881988584995
0.30338478088378906,-0.026103109121322632,0.022040963172912598,-0.01313289999961853,-0.7967394003365568,-0.7930845914055724,-1.0854320962887682,-0.49808207154273987,0.7150806188583374,-0.4904833734035492,0.5790404081344604,0.0794210433959961,0.03676389902830124
0.31995582580566406,0.0019910335540771484,-0.02468430995941162,-0.040571749210357666,-0.7907157067468288,-0.7847293307473518,-1.0744275215375634,-0.49700143933296204,0.7108568549156189,-0.49766671657562256,0.3695213496685028,-0.03086613118648529,0.07545019686222076
0.33994483947753906,0.0008617937564849854,0.0019071698188781738,-0.03233689069747925,-0.7874733203833092,-0.781020693334989,-1.0673842594095684,-0.49677249789237976,0.7085726261138916,-0.501140832901001,0.22958052158355713,-0.08295543491840363,0.05529104918241501
0.35997676849365234,-0.009554177522659302,-0.0015472173690795898,-0.019910156726837158,-0.7855158941464607,-0.7791824709442211,-1.06233063285323,-0.49682411551475525,0.7071900367736816,-0.5030390620231628,0.1616821140050888,-0.08218063414096832,0.06430311501026154
0.3799910545349121,-0.013841241598129272,-0.0022324323654174805,-0.018584251403808594,-0.7842197423020588,-0.7771503432896378,-1.058023866983985,-0.4964432120323181,0.7062730193138123,-0.5047006607055664,0.1621355414390564,-0.030337493866682053,0.05492984503507614
0.3999900817871094,-0.011440962553024292,0.0035681724548339844,-0.01519709825515747,-0.7825367041623073,-0.7743389697633473,-1.0536867416130224,-0.4958527684211731,0.705080509185791,-0.5069433450698853,0.18264810740947723,-0.004719395190477371,0.05776079371571541
0.42006993293762207,-0.0021828114986419678,-0.005444705486297607,-0.03169506788253784,-0.780680912251627,-0.7711842317920433,-1.04877186459143,-0.4951622486114502,0.7037633061408997,-0.5094425678253174,0.1865045428276062,-0.03115437552332878,0.05844737961888313
0.4399909973144531,0.007249951362609863,-0.005755364894866943,-0.022884011268615723,-0.7790145607676168,-0.7692324085063277,-1.0444227675913442,-0.49498191475868225,0.7025785446166992,-0.511249840259552,0.14634163677692413,-0.0764952301979065,0.0465569943189621
0.46000003814697266,0.009460657835006714,-0.013060271739959717,-0.011963844299316406,-0.7779159044743735,-0.7692834862170688,-1.0417422809317816,-0.4955447018146515,0.701796293258667,-0.5117787718772888,0.06892329454421997,-0.11521421372890472,0.019618822261691093
0.48001909255981445,0.01108965277671814,-0.013103723526000977,-0.009978771209716797,-0.7776342316045675,-0.7707972501921527,-1.0405659290354814,-0.4964565336704254,0.7015956044197083,-0.5111698508262634,0.028636669740080833,-0.09901820123195648,0.024160051718354225
0.49999284744262695,-0.001871645450592041,0.0022748708724975586,0.01578497886657715,-0.7768453708000537,-0.7705379412158899,-1.0385834834525547,-0.49670934677124023,0.7010332345962524,-0.5116955637931824,0.09093499928712845,-0.02822898142039776,0.032013263553380966
0.5200819969177246,0.01216229796409607,-0.001052558422088623,-0.009821176528930664,-0.7756706721169585,-0.7689355833880585,-1.036063035816116,-0.49646106362342834,0.7001950740814209,-0.5130822658538818,0.09180033206939697,-0.014561017975211143,0.01246355939656496
0.5399909019470215,0.021381229162216187,-0.01590210199356079,-0.010503530502319336,-0.7744570495347105,-0.7678212931996921,-1.0340794448929485,-0.49647894501686096,0.6993280649185181,-0.5142461657524109,0.08524422347545624,-0.032318707555532455,-1.9380822777748108e-05
0.5600578784942627,0.026591122150421143,-0.007468044757843018,-0.01818060874938965,-0.7732466007620584,-0.7677600251579779,-1.0326484097937154,-0.4970349073410034,0.6984623074531555,-0.5148851275444031,0.06044432148337364,-0.06312970817089081,-0.013298114761710167
0.5799918174743652,0.02876719832420349,-0.011536478996276855,-0.012519419193267822,-0.7719176826662941,-0.7683340409373215,-1.0314109868605084,-0.49797505140304565,0.6975106596946716,-0.5152668356895447,0.1165776327252388,-0.06402373313903809,-0.013596388511359692
0.6000747680664062,0.031005114316940308,0.0009491443634033203,-0.01341855525970459,-0.7700612207995539,-0.7682082799872558,-1.029263224652886,-0.4988090991973877,0.696179211139679,-0.5162597298622131,0.11351525783538818,-0.08691040426492691,-0.032174333930015564
0.6199908256530762,0.0488886833190918,-0.01929086446762085,-0.02205681800842285,-0.7680959233625911,-0.7693232479056983,-1.0279644279988898,-0.5003352761268616,0.6947669982910156,-0.5166851878166199,0.08399758487939835,-0.13743962347507477,-0.04840869829058647
0.6399979591369629,0.05846834182739258,-0.02806168794631958,-0.01270514726638794,-0.7663112231244982,-0.7722855434110184,-1.0275333623210796,-0.5027280449867249,0.6934822797775269,-0.5160881280899048,0.05597597733139992,-0.20615077018737793,-0.07340805232524872
0.6600289344787598,0.06524759531021118,-0.021767854690551758,-0.0051133036613464355,-0.7642065975392291,-0.7775992040651661,-1.0283494863216722,-0.5064859986305237,0.6919644474983215,-0.5144484043121338,0.05883637070655823,-0.27965080738067627,-0.12531091272830963
0.6799960136413574,0.0740620493888855,-0.011961698532104492,0.004982173442840576,-0.7609217724679809,-0.7840755038553643,-1.0289681901747154,-0.5114094614982605,0.689589262008667,-0.5127640962600708,0.13623102009296417,-0.33580970764160156,-0.15177680552005768
0.6999919414520264,0.09383589029312134,-0.007237672805786133,0.018904030323028564,-0.7566827154965196,-0.7911221524504165,-1.0287062866816046,-0.5170841813087463,0.6865131855010986,-0.5111982226371765,0.15606358647346497,-0.41669273376464844,-0.14632083475589752
0.7201080322265625,0.12663716077804565,-0.009670138359069824,0.0013195276260375977,-0.7522518934498351,-0.7999072115475335,-1.0277630269141451,-0.5237318873405457,0.6832846999168396,-0.5087504982948303,0.20885637402534485,-0.5491774678230286,-0.12588176131248474
0.739995002746582,0.1490282416343689,-0.004051923751831055,0.007066547870635986,-0.7472855598526504,-0.8100913187888505,-1.0248004900113197,-0.5313372611999512,0.6796501278877258,-0.5057237148284912,0.30159473419189453,-0.6800236105918884,-0.08713942021131516
0.7599918842315674,0.16527646780014038,-0.015264332294464111,-0.007663130760192871,-0.7418867561849666,-0.8222127563142752,-1.0203638928579382,-0.5401086211204529,0.6756800413131714,-0.5017362236976624,0.3245331346988678,-0.843001663684845,-0.0902528464794159
0.7799921035766602,0.1700388789176941,-0.021856606006622314,0.0056123435497283936,-0.7360452807167956,-0.8368242165795604,-1.0153440139150536,-0.5503031611442566,0.6713622212409973,-0.49642646312713623,0.34510141611099243,-0.9575950503349304,-0.08571286499500275
0.8000288009643555,0.17098885774612427,-0.03710675239562988,0.010960787534713745,-0.7305091541785849,-0.8538046872275826,-1.010873078536894,-0.5614460110664368,0.6672489643096924,-0.4894458055496216,0.2592757046222687,-1.0470050573349,-0.1088913157582283
0.8218607902526855,0.17226260900497437,-0.05146390199661255,0.01638016104698181,-0.7257850311143602,-0.8738798876185189,-1.0088978626563492,-0.5735687017440796,0.663722813129425,-0.48009470105171204,0.17283177375793457,-1.1141475439071655,-0.14318321645259857
0.8393709659576416,0.1671174168586731,-0.046256184577941895,0.013020813465118408,-0.7227232049562275,-0.8967581968657183,-1.0100801463696378,-0.5859864950180054,0.6614295244216919,-0.46811413764953613,-0.07339105010032654,-1.0826928615570068,-0.18794825673103333
0.859562873840332,0.1550135612487793,-0.06412941217422485,-0.0002243518829345703,-0.721245928982979,-0.9251241950644894,-1.0192810313825589,-0.5998073220252991,0.6603208780288696,-0.45189350843429565,-0.3640972375869751,-1.113867998123169,-0.33606094121932983
0.8799619674682617,0.14201146364212036,-0.031047582626342773,0.03134080767631531,-0.7192148105472357,-0.9556365056147534,-1.0341978987509113,-0.6144082546234131,0.6587941646575928,-0.43415752053260803,-0.4258072078227997,-0.9541571736335754,-0.48721957206726074
0.8999919891357422,0.1374225616455078,-0.026528596878051758,0.0009550154209136963,-0.7160115500826736,-0.9865100973019703,-1.0536193402765244,-0.6292743682861328,0.6563808917999268,-0.41614657640457153,-0.5984233021736145,-0.8961068391799927,-0.6135918498039246
0.9199929237365723,0.16714739799499512,-0.0660356879234314,-0.06046310067176819,-0.7116739846256511,-1.0206700354180913,-1.0776934466674475,-0.6455408930778503,0.6531023383140564,-0.39589667320251465,-0.6403195261955261,-0.9397094249725342,-0.7323610782623291
0.9400088787078857,0.14465969800949097,-0.01903069019317627,-0.06114891171455383,-0.7034913090436253,-1.0542062485467454,-1.0997638536706895,-0.6630770564079285,0.6468840837478638,-0.376656174659729,-0.37332189083099365,-0.9801979064941406,-0.8284209966659546
0.9600028991699219,0.1643475890159607,-0.01131439208984375,-0.0345417857170105,-0.6913739007924076,-1.0845691242716256,-1.1165262021596354,-0.6810864806175232,0.6375961899757385,-0.3599894344806671,-0.2192562073469162,-0.9722630977630615,-0.8613170385360718
0.980043888092041,0.15066713094711304,-0.048095881938934326,0.030122816562652588,-0.6772446748200974,-1.1129006579770013,-1.131575640062045,-0.6990222930908203,0.6266481876373291,-0.3444995880126953,-0.17890579998493195,-0.9097443222999573,-0.9307516813278198
0.999992847442627,0.1507018804550171,-0.06193840503692627,0.04379695653915405,-0.6616036146168738,-1.1392311899751562,-1.146028956647665,-0.7166656851768494,0.6143829226493835,-0.3300365209579468,-0.1526913344860077,-0.8409396409988403,-0.9803143739700317
1.0199968814849854,0.1698840856552124,-0.07746875286102295,0.05435413122177124,-0.6443291011221501,-1.164008877312999,-1.1594799386176569,-0.7342609763145447,0.6006621718406677,-0.3163321912288666,-0.1290757954120636,-0.8397336006164551,-1.0461351871490479
1.0400090217590332,0.16413581371307373,-0.08970010280609131,0.0370766818523407,-0.6249745812415116,-1.1886665178536282,-1.1717585848447187,-0.7524842023849487,0.585076630115509,-0.30241167545318604,-0.04310081899166107,-0.8911212086677551,-1.115110993385315
1.0600481033325195,0.15654593706130981,-0.08425796031951904,0.04713508486747742,-0.6038416727940306,-1.2121620738959953,-1.1815738911671982,-0.7707884907722473,0.567808985710144,-0.28892576694488525,0.053192224353551865,-0.8999271392822266,-1.1629852056503296
1.080002784729004,0.15386813879013062,-0.07496380805969238,0.0688515305519104,-0.5812872065617233,-1.2339426181347695,-1.1893413860659396,-0.7887864112854004,0.5491001605987549,-0.27623364329338074,0.1362786591053009,-0.8205795884132385,-1.164717197418213
1.0999927520751953,0.16431838274002075,-0.0641966462135315,0.10457390546798706,-0.5590885051911142,-1.2509509674753259,-1.193872816709264,-0.804745078086853,0.5304136872291565,-0.2665458917617798,0.19836613535881042,-0.6697609424591064,-1.0611753463745117
1.1199917793273926,0.1688196063041687,-0.04466819763183594,0.028713643550872803,-0.5380613247321977,-1.2659179652803798,-1.1968136094124235,-0.8191034197807312,0.5124722123146057,-0.2577632963657379,0.22485224902629852,-0.6812798380851746,-1.0275624990463257
1.14003586769104,0.161939799785614,-0.032848507165908813,0.03473040461540222,-0.518123529634948,-1.2806026225522233,-1.1988976710174994,-0.8324261903762817,0.4952508211135864,-0.24858224391937256,0.1598285287618637,-0.6723873615264893,-0.9442740082740784
1.1600029468536377,0.1449686884880066,-0.05475899577140808,0.060235023498535156,-0.5002617871149008,-1.2947980137245745,-1.2028857920559055,-0.8442485332489014,0.47965526580810547,-0.2391137182712555,0.0068518128246068954,-0.5379769206047058,-0.8519191741943359
1.1799898147583008,0.1930767297744751,-0.05981844663619995,0.09463146328926086,-0.48587691920169124,-1.3071943769298968,-1.209880365052449,-0.8537212014198303,0.46698397397994995,-0.2304040789604187,-0.19777712225914001,-0.3667595386505127,-0.7085716724395752
1.1999940872192383,0.20970726013183594,-0.040294796228408813,0.09333771467208862,-0.47477061217583144,-1.3161118073249585,-1.2181714836899895,-0.8607082962989807,0.4571344554424286,-0.22407497465610504,-0.2188752293586731,-0.1568821221590042,-0.5460085868835449
1.219998836517334,0.2164705991744995,-0.04236575961112976,0.05998194217681885,-0.467197418331714,-1.3218249311829644,-1.2257141684139554,-0.8653048872947693,0.45038580894470215,-0.22000077366828918,-0.2716728746891022,-0.08474667370319366,-0.37290167808532715
1.2400307655334473,0.1983194351196289,-0.068794846534729,0.06510761380195618,-0.46240185974934706,-1.3264979201957834,-1.2339902897923967,-0.868409276008606,0.44609901309013367,-0.2164747714996338,-0.2916954457759857,-0.017076196148991585,-0.28876128792762756
1.2600407600402832,0.18736326694488525,-0.0557197630405426,0.10659706592559814,-0.45894567928246055,-1.329063410315827,-1.2415107365343168,-0.8704535365104675,0.4430031478404999,-0.21461395919322968,-0.3017238974571228,0.0910223126411438,-0.20745331048965454
1.2800469398498535,0.20721310377120972,-0.08434310555458069,0.12300491333007812,-0.4564088849454797,-1.3291032927366682,-1.2476594842337707,-0.8715503215789795,0.4407274127006531,-0.21484750509262085,-0.12632662057876587,0.1961006075143814,-0.15713629126548767
1.2999987602233887,0.22062146663665771,-0.10484403371810913,0.10270261764526367,-0.4545152361633234,-1.3261215969421873,-1.2491797659588635,-0.8717140555381775,0.4390268325805664,-0.2176470309495926,0.03371863439679146,0.13815076649188995,-0.10193616151809692
1.3199949264526367,0.1668756604194641,-0.11279621720314026,0.05054755508899689,-0.4516496821256544,-1.3247920412228746,-1.2479679945567723,-0.8726404309272766,0.43645039200782776,-0.21911127865314484,0.15600734949111938,-0.07128927856683731,-0.1421661376953125
1.3400068283081055,0.12675148248672485,-0.1189659833908081,0.038927704095840454,-0.44786016126802625,-1.326795410728324,-1.2447588519228234,-0.8746764659881592,0.43303772807121277,-0.21776068210601807,0.20740953087806702,-0.24619363248348236,-0.1667473465204239
1.3600850105285645,0.11735028028488159,-0.1397905945777893,0.09123915433883667,-0.4433748819622691,-1.3295331612806085,-1.2401059544319009,-0.8771464824676514,0.4289904534816742,-0.2158270925283432,0.32261109352111816,-0.21457161009311676,-0.17163126170635223
1.3800368309020996,0.11532449722290039,-0.13173353672027588,0.09804439544677734,-0.4384645288898543,-1.3298772632851839,-1.2333537853191883,-0.8792558312416077,0.42454972863197327,-0.21602526307106018,0.36683189868927,-0.146442711353302,-0.16652902960777283
1.3999919891357422,0.09000587463378906,-0.11686468124389648,0.021746903657913208,-0.43323889446777814,-1.3303226329355815,-1.2268149460610167,-0.8814944624900818,0.4198126494884491,-0.21615903079509735,0.340867817401886,-0.17755331099033356,-0.21433325111865997
1.4199929237365723,-0.0009378790855407715,-0.07281771302223206,0.012932971119880676,-0.42726771560738075,-1.3311253084040786,-1.2199227408535773,-0.8840871453285217,0.41438570618629456,-0.2160426527261734,0.4575214982032776,-0.19678114354610443,-0.20789410173892975
1.440025806427002,-0.08742499351501465,-0.028287112712860107,-0.00929403305053711,-0.42069925397599023,-1.3310514504565545,-1.209733519502177,-0.8866961598396301,0.40839883685112,-0.21674960851669312,0.5838793516159058,-0.20889249444007874,-0.20754145085811615
1.4600157737731934,-0.14129585027694702,0.0011773109436035156,0.03116227686405182,-0.41378959767071233,-1.3293909737779097,-1.199019838885862,-0.8890538811683655,0.4020819664001465,-0.21889105439186096,0.5096766352653503,-0.050908640027046204,-0.23780104517936707
1.4799959659576416,-0.159559428691864,-0.0007385909557342529,0.042767107486724854,-0.4071092609774745,-1.3259707964461478,-1.191143827162203,-0.8908861875534058,0.39595651626586914,-0.22257660329341888,0.3796041011810303,0.04127907752990723,-0.23237815499305725
1.4999938011169434,-0.24924319982528687,0.02716648578643799,0.0016928017139434814,-0.4004091557034297,-1.3245472045763265,-1.1868736460442053,-0.8931212425231934,0.3897951543331146,-0.22448629140853882,0.1809006780385971,-0.062167417258024216,-0.34723079204559326
1.5200037956237793,-0.2715160846710205,0.022402435541152954,0.023660853505134583,-0.3919773059076174,-1.3277173707534051,-1.187104535514153,-0.896986722946167,0.38201650977134705,-0.2224370241165161,-0.0013570748269557953,-0.23567786812782288,-0.4410204589366913
1.5400547981262207,-0.1663135290145874,0.03074011206626892,0.10222287476062775,-0.38206742241199887,-1.3334291191584073,-1.1873375117182674,-0.9018779993057251,0.37283962965011597,-0.2181895673274994,0.269864022731781,-0.3011637330055237,-0.5265421867370605
1.5599908828735352,-0.17468112707138062,0.032063961029052734,0.0732538253068924,-0.36927714304769754,-1.3371953324838626,-1.1815383635314707,-0.9072585701942444,0.36094141006469727,-0.21587763726711273,0.6017195582389832,-0.31617021560668945,-0.5992017388343811
1.5799927711486816,-0.15647321939468384,-0.02649030089378357,0.03778296709060669,-0.35520162711630576,-1.3400430829762482,-1.1684981612261,-0.9127254486083984,0.34777942299842834,-0.2144339233636856,0.8553202748298645,-0.4249509572982788,-0.47327250242233276
1.6001777648925781,-0.1950889229774475,-0.07012727856636047,0.060969725251197815,-0.34358655423296497,-1.342007517904122,-1.1523582352074464,-0.91701740026474,0.336866170167923,-0.21354229748249054,0.7482410073280334,-0.32893529534339905,-0.30621492862701416
1.6199939250946045,-0.1986711025238037,-0.07969236373901367,0.08359868824481964,-0.3358968871536953,-1.345575138615071,-1.1451663609907485,-0.9202711582183838,0.32961606979370117,-0.21084164083003998,0.10116063058376312,-0.2709759473800659,-0.3352624177932739
1.6399917602539062,-0.2032666802406311,-0.08627277612686157,0.05699622631072998,-0.3296531021153237,-1.351614421851378,-1.1483202536161616,-0.9235186576843262,0.32371482253074646,-0.20572353899478912,-0.18103249371051788,-0.2567218840122223,-0.3176310658454895
1.660017967224121,-0.24211066961288452,-0.047028183937072754,0.059236764907836914,-0.3243370031489562,-1.3589229243741614,-1.1540922198900498,-0.9266668558120728,0.31868043541908264,-0.19932764768600464,-0.21760344505310059,-0.27906519174575806,-0.35573163628578186
1.6799938678741455,-0.296375572681427,0.0010466277599334717,0.0408722460269928,-0.31686661323125276,-1.365898294065826,-1.1592680717321513,-0.9303394556045532,0.31159070134162903,-0.19333797693252563,-0.10917995870113373,-0.2594272196292877,-0.4415320158004761
1.6999928951263428,-0.24079859256744385,0.0029742419719696045,0.0823904275894165,-0.30865054337442654,-1.3719759190167427,-1.1628591166517035,-0.9339756369590759,0.3037732243537903,-0.18817953765392303,-0.03515929728746414,-0.23278380930423737,-0.43094128370285034
1.7200450897216797,-0.24765503406524658,-0.020283788442611694,0.06634797155857086,-0.30115189801675596,-1.375405582554743,-1.1635192985196767,-0.9368237257003784,0.2966204583644867,-0.1854122430086136,0.10225295275449753,-0.05262637510895729,-0.32819727063179016
1.7400009632110596,-0.26320523023605347,0.0024257302284240723,0.014751777052879333,-0.2940608824990629,-1.3749320437041477,-1.1612898678890542,-0.9387755393981934,0.2898411750793457,-0.18626053631305695,0.21341165900230408,0.0007189575117081404,-0.33752620220184326
1.7599918842315674,-0.23687827587127686,0.02761179208755493,-0.03149352967739105,-0.2860256895660758,-1.3745760205357014,-1.1566919118327406,-0.9409628510475159,0.28214162588119507,-0.1870427280664444,0.38116076588630676,-0.11200865358114243,-0.36949843168258667
1.7799921035766602,-0.2490556836128235,0.06971454620361328,-0.02526162564754486,-0.27657134024379865,-1.3760655462378648,-1.150123461527631,-0.9438153505325317,0.2730588912963867,-0.18614879250526428,0.3724714517593384,-0.18965010344982147,-0.4540185332298279
1.800015926361084,-0.2791416645050049,0.026103168725967407,-0.017166614532470703,-0.26593008968013226,-1.378944334682599,-1.1465025955533095,-0.9471462368965149,0.26280677318573,-0.18397465348243713,0.17761828005313873,-0.18990975618362427,-0.5212184190750122
1.8200318813323975,-0.22777283191680908,0.03569474816322327,-0.043991923332214355,-0.25508760124087426,-1.3826043273367217,-1.1448636497741738,-0.9505566954612732,0.2523301839828491,-0.18102934956550598,0.21934960782527924,-0.22801338136196136,-0.505196750164032
1.8400487899780273,-0.20513373613357544,0.08744405210018158,-0.0744713693857193,-0.24372774727588722,-1.3869542592816104,-1.1399983799573665,-0.9540919065475464,0.241321861743927,-0.17740538716316223,0.4977222979068756,-0.31989338994026184,-0.5474682450294495
1.8600919246673584,-0.219021737575531,0.1473488211631775,-0.07815337181091309,-0.22961786943328563,-1.391525727077103,-1.1286846363157805,-0.9581481218338013,0.2276054322719574,-0.17363184690475464,0.8139702081680298,-0.3980540931224823,-0.6511934399604797
1.8800299167633057,-0.24144887924194336,0.1518275886774063,-0.013919591903686523,-0.21125141731954836,-1.3969678207625646,-1.1154125264771078,-0.9630342721939087,0.20968365669250488,-0.1691095381975174,0.8331753611564636,-0.4260604977607727,-0.9220985174179077
1.8999989032745361,-0.29772621393203735,-0.1711428314447403,-0.027843013405799866,-0.19853712651867456,-1.399034545394614,-1.09774567226273,-0.9659305810928345,0.19723540544509888,-0.16756100952625275,0.5768218040466309,-0.2796298861503601,0.02193920686841011
1.919994831085205,-0.2832869291305542,-0.03889378905296326,0.04995955526828766,-0.19694861244678774,-1.4015232700442186,-1.0889826594524648,-0.9666520357131958,0.19567784667015076,-0.165209099650383,0.3998522460460663,-0.18607676029205322,-0.09014259278774261
1.9400267601013184,-0.21774983406066895,0.19665758311748505,-0.06499475240707397,-0.19839441277904768,-1.4008207272973257,-1.0800712509758075,-0.9662560224533081,0.19709549844264984,-0.16584016382694244,0.4686792194843292,0.19566679000854492,0.42262932658195496
1.9599957466125488,-0.32941627502441406,0.2930167317390442,-0.23394735157489777,-0.20626071560099762,-1.3922723836303768,-1.0665684933770383,-0.9632474780082703,0.20480132102966309,-0.17381319403648376,0.6760374307632446,0.30709654092788696,0.46099013090133667
1.9800310134887695,-0.3337348699569702,0.2593706250190735,-0.16294614970684052,-0.2150616776516521,-1.3830665940253637,-1.057543647747496,-0.9597983956336975,0.21340768039226532,-0.1823296695947647,-0.27130648493766785,0.3604886829853058,0.5617283582687378
1.9999918937683105,-0.35524994134902954,0.007640168070793152,-0.09143929183483124,-0.22739241326622697,-1.3782759639638893,-1.069926046468178,-0.9562581777572632,0.22543783485889435,-0.1864078938961029,-0.9204514622688293,0.4327104687690735,0.529405951499939
2.0199949741363525,-0.34104079008102417,0.0710395872592926,-0.0830727219581604,-0.2433359505605564,-1.372635629240021,-1.0820116332414917,-0.9515465497970581,0.2409416288137436,-0.19106660783290863,-0.2929145395755768,0.2857423424720764,0.7430561184883118
2.0399527549743652,-0.19469064474105835,0.1166948676109314,0.04468756914138794,-0.258646403704525,-1.3657411503190606,-1.0776759050378086,-0.9464837312698364,0.255772203207016,-0.19684815406799316,0.050569746643304825,0.4403988718986511,0.968883752822876
2.0600900650024414,-0.34164959192276,-0.04616814851760864,-0.1252419352531433,-0.27643636018385176,-1.3568670812954065,-1.0744685168325585,-0.9401040077209473,0.27292904257774353,-0.20424103736877441,-0.11506292223930359,0.38381949067115784,0.6774985790252686
2.07999587059021,-0.333001971244812,0.08615079522132874,-0.09022361040115356,-0.2876418662613455,-1.3496745458694994,-1.0800011083892234,-0.9355680346488953,0.28369176387786865,-0.21031345427036285,-0.6097835898399353,0.5096875429153442,0.3819325864315033
2.0997118949890137,-0.32473212480545044,-0.018602609634399414,-0.10773049294948578,-0.2980189059469836,-1.3419827943730511,-1.093903498889661,-0.9310051798820496,0.2936270236968994,-0.21682384610176086,-0.9878226518630981,0.6480209827423096,0.3496001362800598
2.12001895904541,-0.330955445766449,0.01266363263130188,-0.07065866887569427,-0.30916299267700403,-1.3356284818388042,-1.1161377312058334,-0.926368772983551,0.3042614161968231,-0.22195905447006226,-1.1939475536346436,0.6463679075241089,0.2683061361312866
2.1399917602539062,-0.31553375720977783,0.09392228722572327,-0.06970712542533875,-0.32055109241879387,-1.3301324040455567,-1.1367109197574885,-0.9217100739479065,0.3150896430015564,-0.22620654106140137,-0.982334315776825,0.4787665009498596,0.3778292238712311
2.1599929332733154,-0.2824355959892273,0.09026283025741577,-0.12200747430324554,-0.3327925059192636,-1.3298031715197987,-1.151501021644828,-0.9178207516670227,0.32668358087539673,-0.22557242214679718,-0.6735724806785583,0.05985533446073532,0.5230662822723389
2.180047035217285,-0.3098810911178589,0.062056541442871094,-0.07927894592285156,-0.3475631462291653,-1.333639505659039,-1.1599877041911124,-0.9138891100883484,0.3406076729297638,-0.22089187800884247,-0.4482983350753784,-0.12063702940940857,0.6965591907501221
2.2000041007995605,-0.3474109172821045,0.0522039532661438,-0.06839191913604736,-0.36350962778529744,-1.3372832959055223,-1.164954390644225,-0.9092877507209778,0.3555566966533661,-0.21627596020698547,-0.3559008836746216,-0.060862116515636444,0.7340137362480164
2.2199950218200684,-0.31744229793548584,0.058479636907577515,-0.09754447638988495,-0.37909375634619064,-1.3405370430597987,-1.1706166063601071,-0.9044815301895142,0.3700787127017975,-0.2120257467031479,-0.5730313062667847,-0.07586636394262314,0.6451340913772583
2.240048885345459,-0.30427753925323486,0.01794007420539856,-0.07020765542984009,-0.39385118554818105,-1.3453416773433942,-1.181395682525456,-0.9000682234764099,0.38374757766723633,-0.20643414556980133,-0.7017708420753479,0.010493025183677673,0.6212279796600342
2.260016918182373,-0.28975433111190796,0.01619267463684082,-0.08495794236660004,-0.40907740119790154,-1.3487786361491325,-1.191817806907593,-0.894968569278717,0.3977630138397217,-0.202029287815094,-0.5169508457183838,0.06361661106348038,0.6420732736587524
2.279995918273926,-0.26468366384506226,0.08161437511444092,-0.07454276084899902,-0.42353442362548166,-1.347698616673553,-1.1946376027140786,-0.88904869556427,0.41098514199256897,-0.2017022967338562,-0.05441164970397949,0.16759929060935974,0.7186172604560852
2.299992084503174,-0.24038374423980713,0.05845528841018677,-0.07948969304561615,-0.4371972590019679,-1.3421952153137238,-1.189952268221192,-0.8823732137680054,0.42340201139450073,-0.2053002566099167,0.11240968853235245,0.16373920440673828,0.7129899263381958
2.319993019104004,-0.1879323124885559,-0.0071325600147247314,-0.023571595549583435,-0.4507040345025798,-1.33685212277052,-1.1852324732200474,-0.8756205439567566,0.4355993866920471,-0.2086670845746994,0.019504105672240257,0.15543566644191742,0.6867765784263611
2.3400418758392334,-0.1628599762916565,-0.017280548810958862,-0.04898148775100708,-0.4640214247848245,-1.3319012522628078,-1.1805594754552227,-0.8688631057739258,0.44754791259765625,-0.21160806715488434,0.09582393616437912,0.13551795482635498,0.7339839339256287
2.359998941421509,-0.13290029764175415,-0.03776592016220093,-0.01979997754096985,-0.47747053120050065,-1.3262914865428292,-1.173715616643765,-0.8617438077926636,0.45953407883644104,-0.215002179145813,0.13856323063373566,0.11381009221076965,0.7156524062156677
2.3799989223480225,-0.12313508987426758,-0.045665442943573,0.0005598068237304688,-0.4907921134453801,-1.3212837044151895,-1.1667804625936717,-0.8546481728553772,0.4713246524333954,-0.2177838534116745,0.15700577199459076,0.08008719235658646,0.7240539193153381
2.3999948501586914,-0.11410188674926758,-0.038793742656707764,0.006961405277252197,-0.5029540033842784,-1.3155760510962118,-1.1589851227150865,-0.8477817177772522,0.48201581835746765,-0.22119474411010742,0.19290906190872192,0.10958179086446762,0.6327940225601196
2.4200279712677,-0.06866413354873657,-0.06709662079811096,0.011772885918617249,-0.5140443965003737,-1.309891384994118,-1.1511942288255006,-0.8412936925888062,0.49170297384262085,-0.22461764514446259,0.19176720082759857,0.07833714038133621,0.6065436005592346
2.440001964569092,-0.036260128021240234,-0.07069677114486694,0.04074627161026001,-0.5244303488485045,-1.3047440535584751,-1.1435982725141949,-0.835154116153717,0.5007199645042419,-0.22759005427360535,0.16057188808918,0.06388265639543533,0.5651892423629761
2.4600188732147217,0.0021675825119018555,-0.07226598262786865,0.06590414047241211,-0.5339376154732651,-1.3009858842460225,-1.1377080783144387,-0.8296670317649841,0.5089268088340759,-0.22944779694080353,0.08897995948791504,-0.010605069808661938,0.5063889026641846
2.479991912841797,0.03625684976577759,-0.10122096538543701,0.045626893639564514,-0.5433158387078698,-1.2994478448722033,-1.1322725652768493,-0.8246784210205078,0.5169771909713745,-0.22943416237831116,0.17535504698753357,-0.09086652845144272,0.5523926615715027
2.500004768371582,0.05812340974807739,-0.05975174903869629,0.08952929079532623,-0.5524370538077301,-1.2965880349635954,-1.1230245107194259,-0.8194454312324524,0.5247633457183838,-0.23050513863563538,0.3277212083339691,-0.10045763850212097,0.5393810272216797
2.520045757293701,0.09394580125808716,-0.0832318663597107,0.0943642258644104,-0.5604299015758797,-1.2924915391827685,-1.1117328027816937,-0.8144353628158569,0.531550407409668,-0.23270033299922943,0.36979350447654724,-0.08544246852397919,0.4891209602355957
2.539792060852051,0.11253315210342407,-0.12331998348236084,0.0708179771900177,-0.5673485203327039,-1.288058097668701,-1.100889612817227,-0.8098447322845459,0.5373978614807129,-0.23527714610099792,0.2896713614463806,-0.038096968084573746,0.4327917695045471
2.5600218772888184,0.08389943838119507,-0.12872999906539917,0.08870251476764679,-0.5734859316957462,-1.2837297680062727,-1.093086481904374,-0.8056401610374451,0.5425635576248169,-0.23784182965755463,0.1434062123298645,0.03949378430843353,0.3510330319404602
2.5800328254699707,0.09274625778198242,-0.1120380163192749,0.06648504734039307,-0.5792564420631962,-1.2799194763819852,-1.0883347272377917,-0.8017153739929199,0.5474018454551697,-0.2400079071521759,0.07392875850200653,0.09504128992557526,0.35004928708076477
2.5999908447265625,0.12798649072647095,-0.08962690830230713,0.08222681283950806,-0.5861691571952274,-1.2749992704144677,-1.0844789254494533,-0.7968860864639282,0.5531737208366394,-0.2428407520055771,0.04162424057722092,0.17716632783412933,0.4102237820625305
2.620083808898926,0.12749218940734863,-0.0874704122543335,0.06429959833621979,-0.5935811985239932,-1.268567800100546,-1.0799299336054777,-0.7913715839385986,0.5593332052230835,-0.24673359096050262,0.13727426528930664,0.2007024735212326,0.4141252040863037
2.639993906021118,0.12301498651504517,-0.06703335046768188,0.05742260813713074,-0.6006229440357276,-1.260973035882698,-1.072469685629419,-0.7857041954994202,0.5651565194129944,-0.2515295743942261,0.21574099361896515,0.14415158331394196,0.4379584491252899
2.6600139141082764,0.05723804235458374,-0.08090084791183472,0.09240898489952087,-0.607906890373047,-1.2537710120428802,-1.0653015950414797,-0.7799402475357056,0.5711506009101868,-0.2558915913105011,0.09330963343381882,0.18037819862365723,0.44683873653411865
2.6799960136413574,0.06711089611053467,-0.08801227807998657,0.10388040542602539,-0.6166341456930509,-1.2464935529957584,-1.0603548516144603,-0.7733029723167419,0.5782924890518188,-0.2599624693393707,0.03968854993581772,0.252980500459671,0.5113794803619385
2.699995994567871,0.11541163921356201,-0.06699639558792114,0.05509364604949951,-0.6262564403045225,-1.2384019064350982,-1.054412948291744,-0.7658786177635193,0.5861157178878784,-0.26438313722610474,0.13774506747722626,0.22336499392986298,0.5663143396377563
2.720144748687744,0.11411440372467041,-0.038084983825683594,0.06115707755088806,-0.6361842020343371,-1.2274102947376089,-1.0442553896064088,-0.7574096918106079,0.5941304564476013,-0.2708127200603485,0.30025002360343933,0.2767157554626465,0.652133584022522
2.7400319576263428,0.09856939315795898,-0.08232218027114868,0.05636867880821228,-0.6469286003855111,-1.213483058470256,-1.0312511240490876,-0.7475409507751465,0.6027384400367737,-0.2790858745574951,0.2930803894996643,0.3664579689502716,0.6833728551864624
2.7600960731506348,0.07412046194076538,-0.08683305978775024,0.08166548609733582,-0.6585997553961416,-1.1986058051271888,-1.021162893031475,-0.7367028594017029,0.6120100617408752,-0.28759801387786865,0.028530795127153397,0.48353657126426697,0.6986457109451294
2.7795629501342773,0.1321215033531189,-0.14052504301071167,0.05107185244560242,-0.6714123932029485,-1.1852132854110098,-1.0151249670593165,-0.7254595160484314,0.6220924258232117,-0.29446470737457275,0.006188113708049059,0.496991902589798,0.6680362224578857
2.8001599311828613,0.13343489170074463,-0.0841863751411438,0.024346649646759033,-0.6833142052057402,-1.1708711967838172,-1.0076139822069594,-0.7142912745475769,0.6313666105270386,-0.30193448066711426,0.031182531267404556,0.475902259349823,0.6432269215583801
2.8200929164886475,0.08491289615631104,-0.09542137384414673,0.040866076946258545,-0.6948855720160616,-1.156976434239113,-1.0016703556987403,-0.7032906413078308,0.640297532081604,-0.3088713586330414,-0.10039985179901123,0.5325484871864319,0.6176984906196594
2.840075969696045,0.08389550447463989,-0.10271209478378296,0.047867000102996826,-0.7079246611836093,-1.145352025562132,-1.0010054499940415,-0.6919888257980347,0.650258481502533,-0.31355297565460205,-0.35519155859947205,0.5904309153556824,0.5973667502403259
2.86014986038208,0.1348475217819214,-0.1180843710899353,0.03648987412452698,-0.7220587504105228,-1.1371659123617923,-1.0051613270766908,-0.6809900403022766,0.6609310507774353,-0.3153136372566223,-0.4760935306549072,0.520958423614502,0.5369259715080261
2.8799867630004883,0.16439199447631836,-0.10962283611297607,0.05954810976982117,-0.7344579913688617,-1.1292582802817575,-1.0093265304263732,-0.6710143089294434,0.6701849699020386,-0.3171621561050415,-0.34571969509124756,0.541610062122345,0.5038625001907349
2.8993349075317383,0.1625511646270752,-0.10177016258239746,0.028188079595565796,-0.7462681081900412,-1.118267392144042,-1.0089920302046544,-0.6603235006332397,0.6789034605026245,-0.321034699678421,-0.15311826765537262,0.5530802607536316,0.5550132393836975
2.930360794067383,0.1759682297706604,-0.13406002521514893,0.02583092451095581,-0.7669617679576294,-1.086330602147425,-1.0002968554178808,-0.6371651291847229,0.6939508318901062,-0.33534014225006104,-0.12880952656269073,0.6451818943023682,0.5275737643241882
2.9472179412841797,0.19998621940612793,-0.13539552688598633,0.022361457347869873,-0.7768318716178712,-1.0717971838070068,-0.9971571128885538,-0.6261795163154602,0.7010236382484436,-0.3412701189517975,-0.1264430433511734,0.5970021486282349,0.4486357867717743
2.9675779342651367,0.20573478937149048,-0.11867392063140869,0.0019326508045196533,-0.7856887474707359,-1.0578846215292885,-0.9943513407507522,-0.615936815738678,0.7073122262954712,-0.3468880355358124,-0.1287216693162918,0.6141721606254578,0.43214693665504456
2.9882397651672363,0.16846072673797607,-0.11253982782363892,-0.010712802410125732,-0.7950577439189097,-1.0432593633735758,-0.9926450731388662,-0.6050452589988708,0.7139040231704712,-0.3525073528289795,-0.26489123702049255,0.708928108215332,0.4407263398170471
3.0061898231506348,0.1670016050338745,-0.1088070273399353,-0.01981493830680847,-0.8051634780003715,-1.0287826621177474,-0.9929311863937286,-0.5936679244041443,0.7209439277648926,-0.35748910903930664,-0.24024327099323273,0.7792035937309265,0.4455912411212921
3.028079032897949,0.1568394899368286,-0.06393086910247803,-0.048637449741363525,-0.8138116613919782,-1.009430170196089,-0.9887974051894712,-0.5813390612602234,0.7269100546836853,-0.3655775487422943,0.030913833528757095,0.8350570201873779,0.4441262483596802
3.048543930053711,0.1657414436340332,-0.09653103351593018,-0.016705751419067383,-0.8197068456936197,-0.9855134027019901,-0.9792518830293864,-0.5688482522964478,0.7309458255767822,-0.3770015239715576,0.22572268545627594,0.8735724687576294,0.42074358463287354
3.0679078102111816,0.1627749800682068,-0.12159526348114014,-0.008417308330535889,-0.8232375361632097,-0.9576869730462103,-0.9651546911498405,-0.5560244917869568,0.7333506941795349,-0.39119505882263184,0.3869786262512207,0.87543123960495,0.39089131355285645
3.0879530906677246,0.138840913772583,-0.15493834018707275,-0.07415729761123657,-0.8223215783607637,-0.9266277525632064,-0.9468574664456109,-0.5441449284553528,0.7327277064323425,-0.40867647528648376,0.6511471271514893,0.9132554531097412,0.25486692786216736
3.1080307960510254,0.0914340615272522,-0.1786571741104126,-0.06059342622756958,-0.8161187131904288,-0.8936905350331392,-0.9284541633506,-0.5339237451553345,0.7284924387931824,-0.42921367287635803,0.6399230360984802,1.0374728441238403,0.02798384800553322
3.129405975341797,0.08551311492919922,-0.19183242321014404,0.014606177806854248,-0.8094037389048558,-0.865616102875054,-0.9200252751610312,-0.5253782272338867,0.7238759398460388,-0.44719281792640686,0.17550183832645416,1.1490435600280762,-0.16532835364341736
3.1453990936279297,0.09299105405807495,-0.2072862982749939,0.09730944037437439,-0.8080729015690913,-0.8480784168318733,-0.9280070052724799,-0.5181772112846375,0.7229570746421814,-0.4569742977619171,-0.4970928132534027,1.1812907457351685,-0.3024792969226837
3.1659440994262695,0.08894091844558716,-0.13932150602340698,0.10095459222793579,-0.812719107496745,-0.8406618044274392,-0.949904639606538,-0.5122655630111694,0.7261593341827393,-0.4585595428943634,-0.8986690044403076,1.1246410608291626,-0.3434925079345703
3.187163829803467,0.0830683708190918,-0.05472230911254883,0.07487848401069641,-0.820020340379711,-0.8390509055152442,-0.9763116039298819,-0.5075678825378418,0.7311596870422363,-0.45582932233810425,-0.8711202144622803,0.9534040093421936,-0.31222859025001526
3.2045230865478516,0.05296272039413452,0.046284019947052,0.07123565673828125,-0.8258416663917145,-0.837472181560467,-0.9975451586566838,-0.5036768317222595,0.7351186275482178,-0.4537734389305115,-0.5875102281570435,0.7652979493141174,-0.2228832095861435
3.222568988800049,0.042395949363708496,0.09071534872055054,0.07816958427429199,-0.8298601551478816,-0.8343568038884736,-1.011031660133855,-0.5000681281089783,0.7378369569778442,-0.45335260033607483,-0.36010581254959106,0.5578904151916504,-0.07510422170162201
3.2450380325317383,0.03417232632637024,0.11118423938751221,0.12820136547088623,-0.8332017725074509,-0.8282275982786071,-1.0162055113023385,-0.4954608082771301,0.7400884032249451,-0.45473936200141907,-0.1414068043231964,0.45579710602760315,0.09236368536949158
3.266942024230957,0.03171023726463318,0.11005574464797974,0.11826193332672119,-0.8368383852210454,-0.8190025507685552,-1.0146033774751744,-0.48927557468414307,0.7425291538238525,-0.45744946599006653,-0.057214148342609406,0.3327047824859619,0.23591680824756622
3.2867088317871094,0.028418779373168945,0.07398128509521484,0.07361608743667603,-0.8411125142820421,-0.8114423859367754,-1.0105900452847847,-0.4834969639778137,0.7453852295875549,-0.45894619822502136,-0.03134272247552872,0.13139140605926514,0.2458411604166031
3.3073229789733887,0.011272698640823364,0.07517820596694946,0.048032552003860474,-0.8446342114178739,-0.8064248282384212,-1.0053772064421425,-0.47929027676582336,0.7477282881736755,-0.4595467448234558,0.06135419011116028,-0.006422220263630152,0.25735005736351013
3.326338768005371,0.03132307529449463,0.0826030969619751,0.043037354946136475,-0.8470827928861657,-0.8016328408141903,-0.9973787273214345,-0.4757658839225769,0.7493519186973572,-0.4605635404586792,0.13773533701896667,-0.10581254214048386,0.29880717396736145
3.3461270332336426,0.027778834104537964,0.06711798906326294,0.02364775538444519,-0.8495017360235891,-0.7966680798673489,-0.9867118908973631,-0.47217580676078796,0.7509514689445496,-0.4616512060165405,0.17192381620407104,-0.19303248822689056,0.35790014266967773
3.3663198947906494,-0.009310603141784668,0.07324844598770142,0.010592758655548096,-0.8521685862099364,-0.7920130304285773,-0.9747611367223544,-0.4685947000980377,0.7527098655700684,-0.4624359607696533,0.19548672437667847,-0.21693064272403717,0.3880639970302582
3.3871397972106934,-0.019223690032958984,0.04814869165420532,0.01725175976753235,-0.8555109262908707,-0.7869207829977101,-0.9626707336707581,-0.464449405670166,0.7549061179161072,-0.4630372226238251,0.13264335691928864,-0.21086385846138,0.40985196828842163
3.406141757965088,0.010845094919204712,0.01186603307723999,0.011976808309555054,-0.8600322563512887,-0.7826336036951237,-0.950632365068298,-0.4600485861301422,0.7578635811805725,-0.4625993072986603,0.12934590876102448,-0.28176358342170715,0.4465421438217163
3.4259538650512695,0.01112508773803711,0.015460431575775146,-0.012256145477294922,-0.8632292944685187,-0.7792449312126832,-0.9376675092504358,-0.4567733108997345,0.7599455118179321,-0.4624294638633728,0.25873279571533203,-0.33641868829727173,0.4242130219936371
3.446824073791504,0.03884619474411011,-0.024222493171691895,-0.04308813810348511,-0.8649837342978682,-0.7708538952491828,-0.9170498913253204,-0.451947420835495,0.7610847353935242,-0.465288907289505,0.5613084435462952,-0.445006400346756,0.6046433448791504
3.46818208694458,0.01179090142250061,-0.05134713649749756,-0.08365672826766968,-0.8640113796186805,-0.7604609665359804,-0.8908665977385127,-0.4475972056388855,0.7604536414146423,-0.47049665451049805,0.6686972975730896,-0.472836434841156,0.5489721894264221
3.4899749755859375,-0.06467682123184204,-0.03458923101425171,-0.1278502643108368,-0.8599501386655671,-0.7489792543330889,-0.8650888018680701,-0.44426482915878296,0.7578100562095642,-0.47786256670951843,0.718565821647644,-0.31373608112335205,0.40130937099456787
3.504664897918701,-0.08011749386787415,-0.08112573623657227,-0.12680786848068237,-0.8555604387950014,-0.7369080450000759,-0.8436931668055073,-0.44069546461105347,0.754938542842865,-0.4856492877006531,0.5113908648490906,-0.07144835591316223,0.3205200731754303
3.52500581741333,-0.0810786783695221,-0.09200745820999146,-0.08199691772460938,-0.8537741459528422,-0.72622562596798,-0.8305849511549712,-0.4363774359226227,0.7537659406661987,-0.49133679270744324,0.24459639191627502,0.1415359079837799,0.17464704811573029
3.543132781982422,-0.08090081810951233,-0.09497112035751343,-0.030647635459899902,-0.8535705227314478,-0.7185818415176621,-0.8260373000093761,-0.43271005153656006,0.7536320686340332,-0.4947734773159027,-0.013471635058522224,0.27269622683525085,0.06687156856060028
3.5612869262695312,-0.035941511392593384,-0.06734609603881836,-0.0008578598499298096,-0.8539550658049259,-0.7139619678295217,-0.8274747829237897,-0.4302297532558441,0.7538847923278809,-0.4965480864048004,-0.06581343710422516,0.3600720763206482,-0.10010955482721329
3.5808348655700684,-0.01589450240135193,-0.03130686283111572,0.03965112566947937,-0.8542601278605952,-0.7112191410761428,-0.831326979820547,-0.42871609330177307,0.7540851831436157,-0.4975520670413971,-0.12051834166049957,0.2826822102069855,-0.08004362881183624
3.6008269786834717,-0.009377211332321167,-0.02725851535797119,0.0686926543712616,-0.8566724557129649,-0.7102666950770922,-0.8368840027904709,-0.42705467343330383,0.7556673288345337,-0.49657952785491943,-0.3099227547645569,0.2669840157032013,-0.03533647581934929
3.6202168464660645,-0.016335755586624146,-0.032455265522003174,0.09177199006080627,-0.8626003939998604,-0.7121827549022899,-0.846094094121452,-0.42507049441337585,0.7595365643501282,-0.4923608601093292,-0.514198362827301,0.25094717741012573,-0.015382607467472553
3.640230894088745,-0.019516795873641968,-0.003973782062530518,0.06662476062774658,-0.8708373258370915,-0.7158939878480532,-0.8571489557104434,-0.4227745234966278,0.7648686170578003,-0.4860430359840393,-0.545637845993042,0.2126624584197998,-0.0064362999983131886
3.6604409217834473,-0.033553242683410645,0.01821666955947876,0.036071062088012695,-0.8779193750282539,-0.7199150029513188,-0.8672811298588019,-0.42114344239234924,0.769411563873291,-0.48025432229042053,-0.4138558804988861,0.16969893872737885,-0.01985716074705124
3.680006980895996,-0.02637806534767151,0.009036779403686523,0.004668056964874268,-0.8830862147546068,-0.7232890249247341,-0.8756887421825241,-0.4201246500015259,0.7727015614509583,-0.475844144821167,-0.32006654143333435,0.15019677579402924,-0.03177402913570404
3.7005138397216797,-0.018024832010269165,0.006271302700042725,-0.034101128578186035,-0.8865366427825131,-0.7254242440222213,-0.8822802244623887,-0.4193683862686157,0.774887204170227,-0.4729483723640442,-0.22003749012947083,0.15315856039524078,-0.05088493227958679
3.7240800857543945,-0.014635652303695679,-0.007916033267974854,-0.03923770785331726,-0.8887309359175595,-0.726560812617313,-0.8880948330321945,-0.4187749922275543,0.7762723565101624,-0.47119924426078796,-0.2153378576040268,0.18536096811294556,-0.08016089349985123
3.7440438270568848,-0.00980028510093689,-0.025444507598876953,-0.034446001052856445,-0.8910761029690176,-0.7281930188941693,-0.8955441975354669,-0.4183308482170105,0.7777485847473145,-0.46915504336357117,-0.2758290767669678,0.22373871505260468,-0.1158989891409874
3.762366771697998,0.004581153392791748,-0.02256554365158081,-0.03623056411743164,-0.8939780268242524,-0.7311690480698542,-0.9051386374590769,-0.41821643710136414,0.7795693874359131,-0.4662260413169861,-0.3283933103084564,0.21570974588394165,-0.1362532079219818
3.78324294090271,0.023424208164215088,-0.015488982200622559,-0.021238207817077637,-0.8969369329151632,-0.7355453987509488,-0.9154673346543133,-0.4187031686306,0.7814192175865173,-0.4626789391040802,-0.3170786499977112,0.1537039875984192,-0.14494964480400085
3.8026809692382812,0.026350408792495728,0.004991650581359863,-0.0020782947540283203,-0.8993070213412232,-0.7406938935373066,-0.9252612157548339,-0.4198288321495056,0.7828959822654724,-0.4591490924358368,-0.2719274163246155,0.09607069194316864,-0.14662550389766693
3.8247199058532715,0.027041256427764893,0.012097597122192383,0.017086923122406006,-0.901328233876101,-0.7464836243860381,-0.9342092896745622,-0.4214046895503998,0.7841518521308899,-0.45554813742637634,-0.2635878324508667,0.023056309670209885,-0.12060211598873138
3.8435568809509277,0.026150107383728027,0.01165074110031128,0.026751697063446045,-0.9038964055193913,-0.753202401565664,-0.9425244749024778,-0.42307695746421814,0.785742998123169,-0.4512358605861664,-0.2810318171977997,-0.035542380064725876,-0.07980304211378098
3.86494779586792,0.024609357118606567,0.015867292881011963,0.03205391764640808,-0.9074733269181218,-0.7607428550510137,-0.9504624664067323,-0.42452695965766907,0.7879505157470703,-0.4459942877292633,-0.3095054030418396,-0.08904509991407394,-0.045430008322000504
3.8855769634246826,0.011387467384338379,0.009641408920288086,0.038367509841918945,-0.9117979746753683,-0.7688840346166237,-0.9586040218222279,-0.42577049136161804,0.7906059622764587,-0.44007042050361633,-0.34171390533447266,-0.0818319320678711,-0.02071542851626873
3.9035258293151855,0.002393394708633423,0.007526755332946777,0.015644848346710205,-0.9163112301511143,-0.7768826578708894,-0.9668522467508095,-0.4267709255218506,0.793361485004425,-0.4341018497943878,-0.33495429158210754,-0.058687467128038406,-0.021027464419603348
3.922913074493408,0.004779994487762451,0.010579168796539307,-0.004569411277770996,-0.9204570073609404,-0.7838251197026691,-0.974397585669106,-0.42744848132133484,0.7958784103393555,-0.42879539728164673,-0.2746073305606842,-0.0371699258685112,-0.01617119088768959
3.943324089050293,0.003878265619277954,0.024460971355438232,-0.02761062979698181,-0.9231644450654265,-0.7885397553407668,-0.9797181927523053,-0.42793530225753784,0.7975147366523743,-0.4252549111843109,-0.14301764965057373,-0.006525106728076935,-0.023023663088679314
3.9645190238952637,0.0005602538585662842,0.03329735994338989,-0.0550554096698761,-0.923794500236537,-0.7906217796556084,-0.9824243019619081,-0.4284624755382538,0.7978946566581726,-0.4240094721317291,-0.03093830868601799,0.017387060448527336,-0.047719258815050125
3.984273910522461,0.005250841379165649,0.019438743591308594,-0.037699341773986816,-0.9232946965589411,-0.7910110653842951,-0.9837772584850591,-0.4289112091064453,0.7975932955741882,-0.4241231381893158,-0.0003866320475935936,0.049814511090517044,-0.049333591014146805
4.0050389766693115,0.003068298101425171,0.00017851591110229492,-0.004993140697479248,-0.9228452812450146,-0.7903736550187621,-0.9848844367846891,-0.42889535427093506,0.797322154045105,-0.4246485233306885,-0.007650777231901884,0.09153053164482117,-0.028030414134263992
4.0241379737854,0.012677222490310669,0.0032536983489990234,0.00405120849609375,-0.9228572687429256,-0.788907820311538,-0.9853999064094799,-0.4282657206058502,0.7973293662071228,-0.42527008056640625,-0.032355230301618576,0.07535404711961746,-0.008906504139304161
4.04516077041626,0.01509907841682434,-0.013934850692749023,0.010743141174316406,-0.9232482750448638,-0.7877676827472699,-0.985367812335878,-0.42755943536758423,0.7975652813911438,-0.42553800344467163,-0.019852928817272186,0.0113436384126544,0.011647769249975681
4.061275005340576,0.009115010499954224,-0.00909125804901123,0.011106014251708984,-0.9233891428848999,-0.7876258664938723,-0.9847966086628096,-0.4274194836616516,0.7976502776145935,-0.4255193769931793,0.0060521988198161125,-0.06715942919254303,4.881713539361954e-05
4.085341930389404,0.0019074976444244385,-0.0042452216148376465,0.021558493375778198,-0.9233236028530977,-0.7887818380275008,-0.9842420699885444,-0.42794814705848694,0.7976107001304626,-0.42506182193756104,0.004971128422766924,-0.0836033746600151,0.020228657871484756
4.102872848510742,-0.011087000370025635,-0.001449286937713623,0.02452448010444641,-0.9238237388009144,-0.7898941393604321,-0.9837345257319758,-0.4281372129917145,0.7979122996330261,-0.42430463433265686,-0.026265500113368034,-0.07092326879501343,0.026359964162111282
4.122643947601318,-0.00618356466293335,-0.001407325267791748,0.013156116008758545,-0.9248941043580582,-0.7915924988934884,-0.9840804744529973,-0.42824944853782654,0.7985570430755615,-0.42297661304473877,-0.06533785164356232,-0.07497616112232208,0.020430853590369225
4.14188289642334,-0.013420134782791138,-0.009909093379974365,-0.0025433003902435303,-0.9259892797129378,-0.7941079276386362,-0.9854526088251863,-0.42868801951408386,0.7992157340049744,-0.4212847650051117,-0.06715699285268784,-0.06692897528409958,-0.007109899539500475
4.161891937255859,-0.010531693696975708,-0.005430817604064941,-0.0063201189041137695,-0.9267389601847097,-0.7970604243443745,-0.9876083766981124,-0.4295012950897217,0.7996661067008972,-0.41959843039512634,-0.06828916817903519,-0.043032869696617126,-0.022714219987392426
4.181768894195557,-0.01193767786026001,0.000949561595916748,-0.01287221908569336,-0.9275234150395536,-0.799038089594186,-0.9898153738361082,-0.4298805892467499,0.800136923789978,-0.41831061244010925,-0.07298760861158371,0.03759441524744034,-0.002009183634072542
4.201617956161499,-0.01666879653930664,0.0026245713233947754,-0.010448157787322998,-0.9288532842847745,-0.7997305415238896,-0.9924998630432788,-0.42940664291381836,0.8009338974952698,-0.4172709286212921,-0.13066618144512177,0.11941489577293396,-0.0023532817140221596
4.224487781524658,-0.0005037784576416016,-0.01895684003829956,0.007183462381362915,-0.9318499205362897,-0.8002567079576682,-0.9968452793850449,-0.4279019832611084,0.8027245402336121,-0.41537126898765564,-0.2919948399066925,0.18095353245735168,0.05007651448249817
4.244570970535278,0.0005799531936645508,-0.0459519624710083,0.031110763549804688,-0.9381753024670538,-0.8027923554653198,-1.005223102422536,-0.42529311776161194,0.8064805865287781,-0.4107493758201599,-0.5191071033477783,0.2368534654378891,0.0713629424571991
4.263779878616333,-0.0019600093364715576,-0.03840065002441406,0.024277418851852417,-0.946640382257633,-0.8088383880700027,-1.0186262854373123,-0.42281416058540344,0.8114566802978516,-0.40344294905662537,-0.6463254690170288,0.23976296186447144,0.012893779203295708
4.284290790557861,-0.009273231029510498,-0.03378111124038696,0.0014802813529968262,-0.9548400466899025,-0.8175679209186448,-1.0351531636420295,-0.4214518964290619,0.8162213563919067,-0.39517223834991455,-0.617368221282959,0.23064766824245453,-0.06719513982534409
4.303292751312256,-0.005808591842651367,0.012706875801086426,-0.02203923463821411,-0.9611637950694378,-0.8263902301891202,-1.0513499802539934,-0.4211170971393585,0.8198584914207458,-0.3879338502883911,-0.4910118877887726,0.21740634739398956,-0.09359943121671677
4.32319188117981,0.002573758363723755,0.032796382904052734,-0.022605299949645996,-0.9658275243541325,-0.8324667155101753,-1.0642071345901127,-0.42063409090042114,0.822519838809967,-0.38279011845588684,-0.369168758392334,0.23459945619106293,-0.05150746926665306
4.343425750732422,0.004357248544692993,0.040789008140563965,-0.032694995403289795,-0.9694644595543382,-0.8344750371803425,-1.0724855039495358,-0.41918277740478516,0.8245828747749329,-0.3799331486225128,-0.2177891582250595,0.24641455709934235,-0.0014198836870491505
4.363175868988037,-0.011156588792800903,0.05261588096618652,-0.027952075004577637,-0.9714879748053376,-0.8317948894629661,-1.075702213909643,-0.41692882776260376,0.8257259726524353,-0.37993061542510986,-0.06462794542312622,0.2867898643016815,0.023556629195809364
4.383039951324463,-0.015419751405715942,0.02935689687728882,0.0001189112663269043,-0.9722536125694918,-0.8261531751176164,-1.0761168122100175,-0.41431349515914917,0.8261575698852539,-0.38184794783592224,-0.021898088976740837,0.3045893609523773,0.02115108259022236
4.402901887893677,-0.011875361204147339,0.005181312561035156,0.010232299566268921,-0.9726430228642634,-0.8201269965106276,-1.07602817745571,-0.41176965832710266,0.8263769149780273,-0.38411828875541687,-0.006621385458856821,0.29512840509414673,0.010170837864279747
4.422832012176514,-0.0028719305992126465,-0.008169293403625488,0.014892935752868652,-0.9726415942776464,-0.8145025345586355,-1.0757082755906864,-0.40960368514060974,0.8263761401176453,-0.386429101228714,0.013379206880927086,0.24074752628803253,0.0016796468989923596
4.4436750411987305,0.013682067394256592,-0.02549588680267334,0.016640394926071167,-0.9727367835379028,-0.8104685866495607,-1.0759296556016469,-0.4079844355583191,0.8264297246932983,-0.3880240023136139,-0.040095001459121704,0.17432697117328644,-0.003313063643872738
4.463088035583496,0.014979690313339233,-0.044343650341033936,0.013744235038757324,-0.9733661390849442,-0.8093567975280254,-1.0778740086970082,-0.4071763753890991,0.8267838954925537,-0.38811856508255005,-0.08274362236261368,0.10176248103380203,-0.030452104285359383
4.482879877090454,0.01148003339767456,-0.015444517135620117,0.0018705129623413086,-0.9741006613523483,-0.8110691436111617,-1.0817502671501824,-0.40739986300468445,0.8271968960762024,-0.3870023190975189,-0.12160181254148483,0.05220780521631241,-0.06077110767364502
4.500820875167847,0.013295948505401611,-0.008647143840789795,-0.005423218011856079,-0.9748756695187115,-0.8142909469595827,-1.0866786663970018,-0.4081781506538391,0.8276321291923523,-0.38524749875068665,-0.12718918919563293,0.04962320625782013,-0.06058609113097191
4.523472785949707,0.0021088123321533203,0.01764237880706787,-0.015931129455566406,-0.9756397273580589,-0.8163545669840049,-1.0907743749187002,-0.40851137042045593,0.8280606865882874,-0.38397112488746643,-0.08230767399072647,0.08919991552829742,-0.04306027665734291
4.545546054840088,-0.0029433071613311768,0.03928220272064209,-0.015866100788116455,-0.9757436448936022,-0.8156399953458673,-1.092735519559554,-0.4081742763519287,0.8281189799308777,-0.3842040002346039,-0.015349802561104298,0.1488155722618103,-0.017338043078780174
4.564992904663086,-0.005977213382720947,0.031913697719573975,-0.010961920022964478,-0.975468692058981,-0.8119275536013423,-1.092512997194269,-0.40691035985946655,0.8279647827148438,-0.38587334752082825,0.03267162665724754,0.19103457033634186,0.009709516540169716
4.582417964935303,0.0013200044631958008,0.015300333499908447,-0.005116939544677734,-0.9750546141615164,-0.806683070420543,-1.0907804734782756,-0.4051286280155182,0.8277325630187988,-0.388239324092865,0.04025488346815109,0.19651314616203308,0.01595993898808956
4.602344036102295,0.007979601621627808,-0.002256333827972412,0.0032292604446411133,-0.9745813351126121,-0.8013921001586526,-1.0888601769210347,-0.4033500552177429,0.8274668455123901,-0.39064979553222656,0.05985993146896362,0.18134376406669617,0.017405495047569275
4.620398044586182,0.01249474287033081,-0.0011758804321289062,0.0012415051460266113,-0.974152098794075,-0.7960271898604862,-1.0864146853963548,-0.4015023410320282,0.8272258043289185,-0.39305663108825684,0.0765257179737091,0.15525127947330475,0.03766099736094475
4.643020868301392,0.00014859437942504883,0.000560760498046875,-0.00503915548324585,-0.973722928637413,-0.7900805537751157,-1.083410513759152,-0.3994101285934448,0.8269845843315125,-0.39568716287612915,0.08827922493219376,0.19429099559783936,0.046534352004528046
4.662390947341919,-0.019161909818649292,-0.002894282341003418,-0.008425474166870117,-0.973408866982173,-0.7833722440947315,-1.0802976303837817,-0.3969300389289856,0.826807975769043,-0.3985415995121002,0.04007779434323311,0.2763833701610565,0.03460283204913139
4.682084083557129,-0.020924270153045654,-0.025333702564239502,0.00781261920928955,-0.973614697545747,-0.7774678425671245,-1.0792552380642189,-0.39445051550865173,0.8269237279891968,-0.4007568955421448,-0.02860531210899353,0.28612974286079407,0.019633477553725243
4.702063083648682,-0.016082346439361572,-0.04146265983581543,0.02328592538833618,-0.9747289614691355,-0.7732698223827325,-1.0808385694663711,-0.3921208083629608,0.8275497555732727,-0.4017496109008789,-0.10665172338485718,0.27167847752571106,-0.0032728896476328373
4.720057964324951,-0.019805341958999634,-0.04470556974411011,0.019650578498840332,-0.9762943893275029,-0.7716090705802984,-1.0850755415124003,-0.39054930210113525,0.8284275531768799,-0.40147122740745544,-0.15295787155628204,0.23971670866012573,-0.05592600628733635
4.74187707901001,-0.014026850461959839,-0.028298795223236084,0.018040120601654053,-0.9774877214889123,-0.7727859501136607,-1.0912522358811232,-0.39033108949661255,0.8290953636169434,-0.4003032445907593,-0.18125540018081665,0.16450060904026031,-0.08411446958780289
4.761198997497559,-0.00501289963722229,-0.021170496940612793,0.008439481258392334,-0.9785212640636461,-0.7763410006243081,-1.0984503371824368,-0.3911510705947876,0.8296727538108826,-0.39830148220062256,-0.17624564468860626,0.08816464990377426,-0.10562159866094589
4.781846046447754,0.0011115074157714844,0.0065132975578308105,-0.00034046173095703125,-0.9791152225861032,-0.7811068093388429,-1.1055318586557352,-0.39269790053367615,0.8300042152404785,-0.3960828483104706,-0.1397974044084549,0.04567587003111839,-0.10800980031490326
4.800111770629883,0.00015595555305480957,0.013874590396881104,-0.0035630464553833008,-0.9791579731386194,-0.7855091357435949,-1.1115916665302337,-0.3944126069545746,0.8300280570983887,-0.3943250775337219,-0.10420602560043335,0.03994287922978401,-0.08977939188480377
4.821844100952148,0.007106304168701172,0.017750918865203857,8.189678192138672e-05,-0.979020145165576,-0.78846110358172,-1.1159411827882944,-0.39565613865852356,0.8299511671066284,-0.3932397663593292,-0.08757133781909943,0.04029983654618263,-0.08113332837820053
4.84168004989624,0.017932802438735962,0.008096575736999512,-2.7477741241455078e-05,-0.9789302686352434,-0.7909108974622788,-1.1197094442613478,-0.3966712951660156,0.8299010396003723,-0.39232173562049866,-0.0839231088757515,0.03686755150556564,-0.07449397444725037
4.860814094543457,0.017461836338043213,0.0043351054191589355,0.005690574645996094,-0.9789985815471319,-0.7933948410590974,-1.1235625735618127,-0.3976040184497833,0.8299391269683838,-0.39129531383514404,-0.04953433573246002,0.029438752681016922,-0.06817452609539032
4.880558967590332,0.016797810792922974,0.014745652675628662,-0.003951340913772583,-0.9787999734157197,-0.7949079838863587,-1.12647616507669,-0.39831334352493286,0.8298283219337463,-0.39080870151519775,-0.07840107381343842,0.04948277026414871,-0.06930789351463318
4.899994850158691,0.022959977388381958,0.006646871566772461,-0.0037401318550109863,-0.9790669988006492,-0.7964012770318355,-1.1298795206741323,-0.39873820543289185,0.8299773335456848,-0.39005863666534424,-0.07992995530366898,0.06360027194023132,-0.05652458965778351
4.921344757080078,0.024797827005386353,0.024257421493530273,-0.010790646076202393,-0.9795287994727161,-0.7965348509272945,-1.131871010317015,-0.39851614832878113,0.8302348256111145,-0.38973724842071533,-0.025911832228302956,0.07251245528459549,-0.020274650305509567
4.939995765686035,0.017766356468200684,0.024375498294830322,-0.011051774024963379,-0.9795905662749143,-0.7949929034697404,-1.1319203730653915,-0.3978780210018158,0.8302692174911499,-0.39031529426574707,0.02013227716088295,0.07229798287153244,-0.002522579859942198
4.960608959197998,0.0191841721534729,0.009755492210388184,-0.011439740657806396,-0.9793757117486075,-0.7928289542204227,-1.1308064598665972,-0.39715972542762756,0.8301494717597961,-0.3913007378578186,0.03630581498146057,0.041931554675102234,0.0061743175610899925
4.979994773864746,0.019054442644119263,-0.0003380775451660156,-0.005974829196929932,-0.9790881823117191,-0.7912849991722807,-1.1294579456502936,-0.3967248201370239,0.8299891352653503,-0.39208120107650757,0.043918006122112274,-0.006926534231752157,-0.0020029109437018633
5.001155853271484,0.016363799571990967,-0.008915424346923828,-0.0005669593811035156,-0.978790397100737,-0.7906686019168732,-1.1282505564185428,-0.3966585695743561,0.8298229575157166,-0.39249932765960693,0.03364306688308716,-0.04342435672879219,-0.007662312127649784
5.020163059234619,0.006567835807800293,-0.007449805736541748,0.002300649881362915,-0.9785430075689645,-0.7909581293379568,-1.1275249978778534,-0.3969181776046753,0.8296849131584167,-0.39252883195877075,0.014477986842393875,-0.05704766884446144,-0.011495445854961872
5.040360927581787,0.003096342086791992,-0.0013660788536071777,0.0023345649242401123,-0.9783870860981716,-0.79183164133035,-1.1273792501139956,-0.3973529636859894,0.8295978903770447,-0.39227283000946045,0.0007902053184807301,-0.059379179030656815,-0.023667851462960243
5.061893939971924,0.001998335123062134,0.0063713788986206055,-0.004045814275741577,-0.9780843993487055,-0.7928946787110606,-1.127438861254597,-0.39794865250587463,0.8294287919998169,-0.39202648401260376,0.016390163451433182,-0.05020805075764656,-0.022432314231991768
5.080999851226807,0.006401926279067993,0.01565796136856079,-0.002749800682067871,-0.9774126515737489,-0.7931507765113291,-1.1266632274864163,-0.3984460234642029,0.8290534019470215,-0.39231544733047485,0.05413800850510597,-0.051586855202913284,-0.009744522161781788
5.100028991699219,0.013456195592880249,0.010829150676727295,-0.0020601749420166016,-0.9764434238373598,-0.7929876412786575,-1.1249029940923234,-0.39895421266555786,0.8285109996795654,-0.39294400811195374,0.08186160773038864,-0.08352828025817871,0.0024779876694083214
5.121777057647705,0.016776084899902344,0.004595398902893066,-0.0007985234260559082,-0.9754236817680673,-0.7930703014687579,-1.1225168113899575,-0.3995886743068695,0.8279395699501038,-0.3935038447380066,0.09640298783779144,-0.12353623658418655,0.01237727701663971
5.141986846923828,0.014917701482772827,0.0026779770851135254,0.001032412052154541,-0.974299586467666,-0.7931001952549833,-1.1192880426863931,-0.4002631902694702,0.8273086547851562,-0.39414453506469727,0.11906981468200684,-0.1444522589445114,0.026290040463209152
5.160038948059082,0.006537824869155884,0.007970273494720459,-0.0011534690856933594,-0.973055763301332,-0.792512228014598,-1.1152289214018134,-0.40076392889022827,0.8266092538833618,-0.39510199427604675,0.13312596082687378,-0.13183854520320892,0.02810077741742134
5.181025981903076,-0.004379868507385254,-0.0027220845222473145,0.004377603530883789,-0.9719649059123067,-0.7911803513891619,-1.1110555185771118,-0.40087834000587463,0.8259949088096619,-0.3962690234184265,0.11640717089176178,-0.08619649708271027,0.03177913650870323
5.200548887252808,-0.007600367069244385,-0.00614088773727417,-0.0006645619869232178,-0.9711276020281246,-0.789555550933699,-1.10761584274839,-0.4007248282432556,0.8255226016044617,-0.397406667470932,0.09003322571516037,-0.04899631440639496,0.028296375647187233
5.220040798187256,-0.0020589232444763184,-0.006483733654022217,-0.003522336483001709,-0.9704917126208272,-0.7882805998904544,-1.1051636369634457,-0.40059003233909607,0.8251636028289795,-0.3982873260974884,0.059738971292972565,-0.03273851424455643,0.011990107595920563
5.239995002746582,-0.0009422004222869873,-0.00794440507888794,-0.002780020236968994,-0.9699985074549384,-0.7874108192849336,-1.103482684034915,-0.4005318880081177,0.8248848915100098,-0.398922860622406,0.04787721112370491,-0.023163294419646263,0.007907068356871605
5.259994029998779,-0.002540886402130127,-0.004433631896972656,-0.0007339715957641602,-0.9695372214798887,-0.7865156428086889,-1.1020503764359542,-0.4004437029361725,0.8246240019798279,-0.3995497226715088,0.045747093856334686,-0.0012661628425121307,0.01229766570031643
5.279994010925293,-0.00270235538482666,-0.004927575588226318,0.00029981136322021484,-0.9691429146040177,-0.7855365015625252,-1.1008667580109956,-0.4002822935581207,0.8244009017944336,-0.40017154812812805,0.03206701949238777,0.004092915914952755,0.013388857245445251
5.300051927566528,-0.0028153061866760254,-0.006568193435668945,0.0067217350006103516,-0.9689141538570467,-0.7847690455385715,-1.100083657055674,-0.4001082479953766,0.8242713809013367,-0.4006119966506958,0.01909075677394867,0.004087501205503941,0.010365424677729607
5.3200318813323975,-4.178285598754883e-05,-0.0018582344055175781,0.0005434751510620117,-0.9686536809663588,-0.7841533249803502,-1.0993265331616193,-0.40001317858695984,0.8241239190101624,-0.40101033449172974,0.02015567384660244,-0.0068662576377391815,0.00794642511755228
5.339993953704834,0.0003013312816619873,-0.001988708972930908,-0.0038350820541381836,-0.9683453487760295,-0.7838385392575726,-1.0986673729791008,-0.4000663757324219,0.8239492177963257,-0.40131625533103943,0.02327081188559532,-0.013703923672437668,0.001310262712650001
5.360013961791992,0.002182304859161377,-0.007767617702484131,0.0012903809547424316,-0.9680418924973498,-0.7837511193574077,-1.098272476422103,-0.40020784735679626,0.8237771987915039,-0.40152832865715027,0.009537691250443459,0.000880788778886199,0.0012929310323670506
5.379993915557861,0.0024101734161376953,-0.002271890640258789,-0.0033194422721862793,-0.9677950949199178,-0.7838096286807075,-1.098194079645975,-0.4003746807575226,0.8236373066902161,-0.40164873003959656,0.005425517447292805,0.0034111470449715853,-0.003102137241512537
5.399996757507324,0.006573021411895752,-0.0014933347702026367,-0.004194319248199463,-0.9675793225310341,-0.7837178927543934,-1.0980039933383052,-0.40046343207359314,0.8235148787498474,-0.40181148052215576,0.010285346768796444,-0.009747354313731194,-0.00900852121412754
5.419992923736572,0.00987502932548523,-0.0021969079971313477,0.0008687674999237061,-0.9673669662063559,-0.7839957028794619,-1.0979140247977048,-0.40069839358329773,0.8233944177627563,-0.40182387828826904,0.0025087834801524878,-0.02506851963698864,-0.007662660907953978
5.439992904663086,0.007359802722930908,0.0003039836883544922,0.003984361886978149,-0.9671008594815205,-0.7846420826565732,-1.0977429346886851,-0.4011128544807434,0.8232433795928955,-0.401719868183136,0.019858743995428085,-0.05795935541391373,0.0005401415983214974
5.461778879165649,0.004019439220428467,0.006476998329162598,-0.0030150115489959717,-0.9664143656828529,-0.7852085920449988,-1.0967404057914427,-0.40173977613449097,0.8228534460067749,-0.40189212560653687,0.06673569232225418,-0.08376157283782959,-0.004476688802242279
5.4800028800964355,0.0029525458812713623,0.003178119659423828,-0.004492402076721191,-0.9654534811951802,-0.7851121437215255,-1.0945640644139671,-0.4022597670555115,0.8223070502281189,-0.40248993039131165,0.09491124004125595,-0.09556461870670319,0.009527486748993397
5.621701955795288,0.0007688701152801514,0.009826481342315674,0.004711180925369263,-0.964362927806482,-0.7844069710600399,-1.0916298323140265,-0.40260908007621765,0.8216859698295593,-0.4034079909324646,0.10710182040929794,-0.088661789894104,0.02009451575577259
5.644746780395508,-0.011402726173400879,-0.011324644088745117,-0.0022378861904144287,-0.9603894492533653,-0.7820171387911382,-1.0804736031144646,-0.4039415419101715,0.8194148540496826,-0.4066822826862335,0.04937771335244179,-0.08089228719472885,0.0026002153754234314
5.661518096923828,-0.010648608207702637,-0.005018115043640137,-0.0016839802265167236,-0.9592110429524319,-0.7865914504673,-1.0814396672697568,-0.40648090839385986,0.8187388181686401,-0.4055119752883911,-0.020814182236790657,0.003648168407380581,-0.027375705540180206
5.679959774017334,-0.0144023597240448,0.0059365034103393555,-0.00519445538520813,-0.9590537036408133,-0.7867425194214736,-1.0824183775993053,-0.4066334068775177,0.8186484575271606,-0.4055415391921997,0.004162806086242199,0.05342477932572365,-0.019986499100923538
5.700001955032349,-0.013205170631408691,0.01223832368850708,-0.002922356128692627,-0.9584696197838384,-0.7854002504397314,-1.0824436729906375,-0.4064268171787262,0.8183128833770752,-0.4064251184463501,0.02592349424958229,0.08021564781665802,-0.007623573299497366
5.719994068145752,-0.00341150164604187,-0.0076212286949157715,0.0024681389331817627,-0.9579789302236323,-0.7835724983528064,-1.0820011741148905,-0.405966579914093,0.8180307745933533,-0.4074515998363495,0.026544012129306793,0.0581446997821331,-0.005929270293563604
5.740828037261963,0.001031249761581421,-0.011827707290649414,0.007756412029266357,-0.9574666210702208,-0.7826288952098726,-1.0817657259623679,-0.4058774709701538,0.8177359700202942,-0.4081316888332367,0.009184649214148521,0.023120757192373276,-0.017221389338374138
5.762362003326416,0.006798535585403442,-0.024904310703277588,0.019402503967285156,-0.9572806855114825,-0.7835615018569234,-1.0829333996883352,-0.40636521577835083,0.8176289796829224,-0.407860666513443,-0.041298046708106995,-0.017341002821922302,-0.02742026001214981
5.779995918273926,0.006555527448654175,-0.02280902862548828,0.014161109924316406,-0.957643459801432,-0.7860650417810053,-1.0851264043407034,-0.40717506408691406,0.8178377747535706,-0.40663236379623413,-0.07528023421764374,-0.035203177481889725,-0.03183261677622795
5.79999303817749,-0.0009824037551879883,-0.004121005535125732,0.004974246025085449,-0.958180877809343,-0.7890502541627018,-1.0877405889508807,-0.4080752432346344,0.8181468844413757,-0.4051054120063782,-0.06676783412694931,-0.04256033897399902,-0.033169135451316833
5.820020914077759,-0.001583397388458252,0.010726749897003174,-0.006703495979309082,-0.9585776088708922,-0.7914165916862922,-1.0896680557355665,-0.4088018238544464,0.8183749914169312,-0.4039105176925659,-0.04348134249448776,-0.03529559075832367,-0.015269980765879154
5.839993953704834,-0.002367556095123291,0.010778367519378662,-0.012782752513885498,-0.9587531928345836,-0.7927518399553408,-1.090691704715002,-0.4092383086681366,0.8184758424758911,-0.4032633304595947,-0.016928285360336304,-0.010899526998400688,-0.01358077023178339
5.8600029945373535,-0.0055970847606658936,0.01041877269744873,-0.007511317729949951,-0.9586885425937051,-0.79297422936614,-1.091029267232791,-0.409365713596344,0.818438708782196,-0.4032094478607178,-0.004166350234299898,0.017179423943161964,-0.008342803455889225
5.8799967765808105,-0.0036051571369171143,0.002816140651702881,-0.005189448595046997,-0.9585887678673988,-0.792623512575089,-1.0913197637683452,-0.4092824161052704,0.8183813691139221,-0.40341031551361084,-0.0012910817749798298,0.03950781002640724,-0.010197539813816547
5.899993896484375,0.0013349652290344238,-0.006067514419555664,0.0045608580112457275,-0.9585674596368557,-0.7922433277425265,-1.091944848834567,-0.4091413617134094,0.8183691501617432,-0.4035780727863312,-0.025761336088180542,0.04247554764151573,-0.02020573988556862
5.919993877410889,0.0038910508155822754,-0.017307639122009277,0.0056456029415130615,-0.9585311886974389,-0.7926264067733046,-1.093282172522852,-0.4093170464038849,0.8183482885360718,-0.4034421443939209,-0.031157206743955612,0.024382298812270164,-0.041958607733249664
5.939993858337402,0.0018260478973388672,0.0002974271774291992,0.00484350323677063,-0.9583250803446396,-0.7939049435819733,-1.0952309780692489,-0.40995287895202637,0.8182297945022583,-0.40303677320480347,-0.041521552950143814,0.0018237254116684198,-0.05043216422200203
5.959993839263916,0.0022118687629699707,-0.0008512735366821289,-0.001236557960510254,-0.9578551841433374,-0.7955451232008974,-1.0972050367529547,-0.41088810563087463,0.8179596066474915,-0.40263304114341736,-0.006534593179821968,-0.00753417843952775,-0.061707302927970886
5.9800028800964355,0.0037662088871002197,0.008390843868255615,0.00016617774963378906,-0.9568559983947323,-0.7971215301360788,-1.0987813845650607,-0.4121066927909851,0.8173843622207642,-0.4025556743144989,0.014571517705917358,-0.021294288337230682,-0.06697747111320496
5.999996900558472,0.00651434063911438,0.00437551736831665,-0.0064747631549835205,-0.9556160125431549,-0.7986214757811652,-1.0997773213980906,-0.4134357273578644,0.8166694045066833,-0.4026437997817993,0.031405866146087646,-0.04875955730676651,-0.059226810932159424
6.020063877105713,0.007203102111816406,0.008415758609771729,-0.01751887798309326,-0.9541426203711219,-0.8000853346687873,-1.100028437941811,-0.414887398481369,0.815818190574646,-0.4028759300708771,0.068320631980896,-0.07711903005838394,-0.058780986815690994
6.0400309562683105,0.0084494948387146,0.011336982250213623,-0.011936962604522705,-0.9521549060938399,-0.8009349760573127,-1.0990255868239123,-0.4163932502269745,0.8146671056747437,-0.4036513566970825,0.10225195437669754,-0.08450263738632202,-0.04502248764038086
6.060240983963013,0.006718069314956665,0.005130410194396973,-0.002025783061981201,-0.9501515735642787,-0.8010025519162235,-1.0969336101316907,-0.41759151220321655,0.8135036826133728,-0.4047582149505615,0.11444402486085892,-0.08192870020866394,-0.022850431501865387
6.080034971237183,0.0046389102935791016,-0.005984246730804443,0.01492983102798462,-0.9486945631605657,-0.8008141108432857,-1.09481179731531,-0.4183657467365265,0.8126554489135742,-0.40566158294677734,0.07893737405538559,-0.06957012414932251,-0.008592779748141766
6.100127935409546,0.002910822629928589,-0.02305769920349121,0.025281846523284912,-0.9480121766306945,-0.8010643437683768,-1.093629091764655,-0.418865442276001,0.8122575879096985,-0.40594279766082764,0.005978882312774658,-0.056972745805978775,-0.00703497463837266
6.1200549602508545,-0.0014763474464416504,-0.02590012550354004,0.031111955642700195,-0.9483857932190347,-0.8025236659853205,-1.094394822005566,-0.41923901438713074,0.8124755024909973,-0.4051200747489929,-0.06605318188667297,-0.03891367465257645,-0.012448245659470558
6.140133857727051,0.0003357827663421631,-0.01762378215789795,0.018111586570739746,-0.949370620029107,-0.8055639636197353,-1.097129700224614,-0.41989150643348694,0.8130492568016052,-0.40328913927078247,-0.10537389665842056,-0.047019802033901215,-0.03057282790541649
6.160130977630615,0.0018217861652374268,-0.0002015829086303711,-0.008854269981384277,-0.9503205121294533,-0.8091661658051691,-1.100504662042178,-0.4207823872566223,0.8136019110679626,-0.40124085545539856,-0.09152472764253616,-0.041338659822940826,-0.03388426452875137
6.179996013641357,0.002301841974258423,0.014120221138000488,-0.025659501552581787,-0.9508827352743048,-0.8117636054637599,-1.1029247609091155,-0.4214913845062256,0.8139286637306213,-0.3998318016529083,-0.040159422904253006,-0.015060538426041603,-0.021129164844751358
6.2000041007995605,-0.005438715219497681,0.015305578708648682,-0.020709693431854248,-0.9509696337422215,-0.812683308884771,-1.1041337581138564,-0.4218074083328247,0.8139791488647461,-0.399395227432251,-0.008845910429954529,0.030781961977481842,-0.013261858373880386
6.220025062561035,-0.011027425527572632,0.0075476765632629395,-0.014456391334533691,-0.9508494469171433,-0.8116554835680216,-1.1046297509249006,-0.42146772146224976,0.8139092922210693,-0.39989596605300903,0.013323680497705936,0.11513723433017731,-0.006413310766220093
6.240036964416504,-0.010136604309082031,0.007618844509124756,0.011014461517333984,-0.9502281853290435,-0.8088137532876781,-1.1040391183289333,-0.42069533467292786,0.81354820728302,-0.4014410078525543,0.032401248812675476,0.10530253499746323,-0.00678354362025857
6.259990930557251,0.003996521234512329,-0.020592153072357178,-0.006022274494171143,-0.9501189422465707,-0.8067642638968957,-1.103640994699298,-0.4199358820915222,0.8134846687316895,-0.4023638665676117,-0.021324723958969116,0.06153765320777893,-0.006402214989066124
6.280000925064087,-0.013854533433914185,-0.02626866102218628,-0.008912503719329834,-0.9500143655539796,-0.8069193161632084,-1.1051427589102814,-0.4200596809387207,0.8134238719940186,-0.4023575782775879,-0.0466139130294323,0.04520031809806824,-0.05294633284211159
6.300039768218994,-0.0012488365173339844,-0.0043967366218566895,0.00788310170173645,-0.9497415899987791,-0.8083468487332585,-1.1077908124139386,-0.4207940101623535,0.8132651448249817,-0.4019106924533844,-0.05826309695839882,0.019283853471279144,-0.06402906775474548
6.319997787475586,0.007027179002761841,-0.013772785663604736,0.01651802659034729,-0.9499374042855558,-0.8113490118110048,-1.1115160300889886,-0.42188313603401184,0.8133791089057922,-0.4005358815193176,-0.08445320278406143,-0.018658557906746864,-0.0693044438958168
6.33999490737915,0.0021403133869171143,-0.017319917678833008,0.01539391279220581,-0.9502120501414767,-0.8160997712653602,-1.116619708511699,-0.4236186146736145,0.8135388493537903,-0.39837419986724854,-0.13425686955451965,-0.0462765134871006,-0.11084315180778503
6.36003303527832,0.014934837818145752,-0.012169301509857178,0.007371634244918823,-0.9503024826502358,-0.822365514771469,-1.1228254222622034,-0.42605239152908325,0.8135914206504822,-0.39566195011138916,-0.15033861994743347,-0.08103298395872116,-0.11288929730653763
6.379993915557861,0.015603065490722656,0.0001925826072692871,0.0017381608486175537,-0.9506923297447483,-0.8296883184295792,-1.1297081747668476,-0.42870426177978516,0.8138180375099182,-0.3923172950744629,-0.14904826879501343,-0.09798125177621841,-0.11784133315086365
6.399994850158691,0.009431004524230957,0.00922095775604248,-0.010665178298950195,-0.9512262998762455,-0.8370948817926133,-1.1365790285931492,-0.4312755763530731,0.8141282200813293,-0.3888404667377472,-0.16943107545375824,-0.0965031087398529,-0.11524463444948196
6.420003890991211,0.010830700397491455,0.01052248477935791,-0.01989811658859253,-0.9515336623050263,-0.844542246502969,-1.143041792302084,-0.43397220969200134,0.8143066763877869,-0.3854515552520752,-0.1358168125152588,-0.13221167027950287,-0.10946089029312134
6.440000057220459,0.012503236532211304,0.005968689918518066,-0.01795053482055664,-0.9518083278447325,-0.851961824640167,-1.1484770055929394,-0.43665188550949097,0.8144660592079163,-0.38207387924194336,-0.11768262088298798,-0.17706914246082306,-0.11446604132652283
6.459994792938232,0.007207959890365601,-0.012396752834320068,-0.009893029928207397,-0.9512980033646335,-0.8612088052270156,-1.1548270778705165,-0.4404812753200531,0.8141698241233826,-0.37829047441482544,-0.13420581817626953,-0.24015845358371735,-0.19272500276565552
6.480279922485352,0.012471407651901245,-0.027181684970855713,-0.004748612642288208,-0.9493019725713078,-0.8740645595336531,-1.163860450207539,-0.44655340909957886,0.8130092620849609,-0.37363874912261963,-0.14031177759170532,-0.3306366801261902,-0.324160099029541
6.500004768371582,0.016876786947250366,-0.038558900356292725,0.011531084775924683,-0.9454500470146832,-0.8929031316309363,-1.1778005513461585,-0.45594844222068787,0.8107604384422302,-0.3671218454837799,-0.26115715503692627,-0.43937942385673523,-0.5241876840591431
6.5199949741363525,0.016407012939453125,-0.06318145990371704,0.003821760416030884,-0.9382307128998447,-0.9192731860777167,-1.197471640043148,-0.47011181712150574,0.8065133094787598,-0.3585122525691986,-0.35011762380599976,-0.5186116099357605,-0.7400423884391785
6.539995908737183,0.03427302837371826,-0.08177047967910767,0.02657356858253479,-0.9307136377337735,-0.951155458539898,-1.2230862331802042,-0.48622310161590576,0.8020463585853577,-0.346855491399765,-0.47109726071357727,-0.6402079463005066,-0.8682135343551636
6.559998035430908,0.01754862070083618,-0.10941839218139648,0.0311734676361084,-0.9194284537651749,-0.9930982828067728,-1.257996494566289,-0.5078898072242737,0.7952552437782288,-0.3310849070549011,-0.6773104071617126,-0.6936175227165222,-1.1661202907562256
6.580045938491821,0.03775137662887573,-0.11263197660446167,0.028107941150665283,-0.9069612289101247,-1.0405695524069842,-1.2992226807836003,-0.5315410494804382,0.787635087966919,-0.3116008937358856,-0.8602938652038574,-0.8003727197647095,-1.2163269519805908
6.5999979972839355,0.02741783857345581,-0.07422101497650146,0.014607846736907959,-0.8943506078741353,-1.093492120613414,-1.3456440563500396,-0.5560586452484131,0.779802680015564,-0.2875875234603882,-1.0407650470733643,-0.8739811182022095,-1.2850282192230225
6.619997024536133,-0.013692855834960938,0.02007371187210083,-0.025299936532974243,-0.8820937375281591,-1.1499149708208372,-1.3941237073700734,-0.5800725221633911,0.7720712423324585,-0.2596578896045685,-1.1396193504333496,-1.0280864238739014,-1.148483157157898
6.640091896057129,-0.06640744209289551,0.14453637599945068,-0.03869718313217163,-0.8698724143740542,-1.1994512856265538,-1.4366528484649395,-0.600966215133667,0.7642466425895691,-0.2340230792760849,-0.8692896962165833,-0.704174280166626,-1.0384138822555542
6.659996032714844,-0.08519601821899414,0.09965544939041138,0.004644423723220825,-0.853917794206697,-1.2288593335905074,-1.460990434317053,-0.6189972162246704,0.7538602948188782,-0.22031208872795105,0.005901543889194727,-0.45259207487106323,-0.9911094307899475
6.680064916610718,-0.06654566526412964,0.049011051654815674,0.015450015664100647,-0.842451302000251,-1.2433935171975974,-1.4738155604225351,-0.6302774548530579,0.7462770342826843,-0.2140583097934723,-0.7293473482131958,0.023076994344592094,-0.23027174174785614
6.699995040893555,-0.05708014965057373,0.021497011184692383,-0.05628691613674164,-0.8485275033096926,-1.2533351417582157,-1.4914867820155027,-0.6280547380447388,0.7503077387809753,-0.2063625454902649,-0.5521909594535828,0.3308609127998352,0.21975268423557281
6.719995975494385,-0.05847102403640747,0.16881579160690308,-0.0902082771062851,-0.8560685764266952,-1.2511272999568288,-1.5004329077834937,-0.622208297252655,0.7552717328071594,-0.20596471428871155,-0.1865345537662506,0.5391994118690491,0.39219900965690613
6.739995956420898,0.03026556968688965,0.16432172060012817,-0.040622204542160034,-0.8646680047320063,-1.2372756392643902,-1.4960911691355974,-0.6131361722946167,0.7608798742294312,-0.2124292403459549,0.19449029862880707,0.4758543372154236,0.4174712896347046
6.760007858276367,0.0206223726272583,0.026622653007507324,-0.013183534145355225,-0.8689168803777172,-1.2184111751851585,-1.4828531111352365,-0.6059800982475281,0.7636300921440125,-0.2228393703699112,0.4105601906776428,0.42663368582725525,0.32776781916618347
6.779994964599609,0.009254038333892822,-0.021504759788513184,0.020706236362457275,-0.8737537148238068,-1.198208279844536,-1.467557644053849,-0.5979076623916626,0.7667440176010132,-0.2336883544921875,0.32572340965270996,0.41661328077316284,0.47660285234451294
6.799994945526123,0.0058907270431518555,-0.065940260887146,0.05045308172702789,-0.8809661304301705,-1.1805689047750376,-1.4547802817295443,-0.5885628461837769,0.771354079246521,-0.24208812415599823,0.15933118760585785,0.36381301283836365,0.49103009700775146
6.8200109004974365,0.005457699298858643,-0.050458312034606934,0.04174013435840607,-0.8893132605434797,-1.1671725753454731,-1.4462646761793727,-0.5793254971504211,0.7766393423080444,-0.2474132925271988,0.03160219267010689,0.3188687860965729,0.45531171560287476
6.83999490737915,-0.006064653396606445,-0.029354870319366455,0.023531585931777954,-0.89570818197112,-1.1579458857788105,-1.4414237128720901,-0.5724570155143738,0.780651867389679,-0.2507500946521759,-0.01187119446694851,0.216936394572258,0.23428863286972046
6.8600568771362305,-0.007113635540008545,-0.026110172271728516,0.023398399353027344,-0.8979418240811774,-1.1547852620336077,-1.4410310669826374,-0.5700653791427612,0.782045841217041,-0.25185292959213257,-0.04993823170661926,0.08335746824741364,0.0003509421367198229
6.88003396987915,-0.006290614604949951,-0.027347207069396973,0.022775590419769287,-0.8979925638957041,-1.1550466878410863,-1.4432051969251412,-0.5700949430465698,0.7820774912834167,-0.2516878843307495,-0.08688655495643616,0.0590471588075161,-0.034943193197250366
6.899996757507324,-0.009936869144439697,-0.029693543910980225,0.020653218030929565,-0.8980358165025019,-1.1577269634738894,-1.4477803413829888,-0.5707363486289978,0.7821044325828552,-0.2501453161239624,-0.16385066509246826,0.04354587197303772,-0.06152955815196037
6.9199957847595215,-0.010492444038391113,-0.010049521923065186,-0.0014734119176864624,-0.8988101501418799,-1.1607262819462327,-1.4532519262582333,-0.5709283947944641,0.7825867533683777,-0.24819085001945496,-0.17451240122318268,0.08284329622983932,-0.004408893175423145
6.939997911453247,-0.011211097240447998,0.017703592777252197,-0.022762417793273926,-0.9002128310830809,-1.1620780738380627,-1.4574769117336401,-0.5702556371688843,0.7834591865539551,-0.2469823658466339,-0.11525478959083557,0.10728481411933899,0.015690360218286514
6.960052013397217,-0.004414737224578857,0.03883928060531616,-0.03102165460586548,-0.9007003606104894,-1.1617923650806314,-1.4596525399958342,-0.5698345899581909,0.7837620973587036,-0.24699339270591736,-0.027982786297798157,0.09208101034164429,-0.01927732490003109
6.979997873306274,0.006432533264160156,0.024968385696411133,-0.02353474497795105,-0.9000876156591944,-1.1607447243944018,-1.460258315792144,-0.5700160264968872,0.7833813428878784,-0.24778170883655548,0.009950547479093075,0.065184585750103,-0.03333902359008789
6.999995946884155,0.007760524749755859,-0.0055803656578063965,-0.0015169084072113037,-0.8994993745865484,-1.1597833079998177,-1.4605206079956743,-0.5701994895935059,0.7830156087875366,-0.24851353466510773,-0.010708844289183617,0.06111190468072891,-0.010855521075427532
7.02002477645874,0.000812530517578125,-0.015056908130645752,0.009430304169654846,-0.8998197680786024,-1.1588460353551582,-1.4610915869862162,-0.5697364807128906,0.7832148671150208,-0.24894742667675018,-0.03803297132253647,0.08345253765583038,0.029122771695256233
7.0399980545043945,-0.007005274295806885,0.0029718875885009766,0.00309145450592041,-0.9010839338245148,-1.1567107268714956,-1.4609346065993685,-0.5682969093322754,0.7840002179145813,-0.24976493418216705,-0.007583984639495611,0.10591293126344681,0.0739392638206482
7.0599517822265625,-0.002967655658721924,0.01224595308303833,0.000650942325592041,-0.9019991619348497,-1.153886685431389,-1.459962017361974,-0.5669329166412354,0.7845680713653564,-0.25107812881469727,0.011297160759568214,0.0867583230137825,0.007712185848504305
7.079998016357422,-0.004198312759399414,-0.000829160213470459,-0.001185387372970581,-0.9021440311078432,-1.1517139052528123,-1.4594169853853127,-0.5662820339202881,0.7846578359603882,-0.25226303935050964,0.0023741871118545532,0.09074374288320541,0.025819722563028336
7.099967002868652,-0.006671607494354248,-0.005676448345184326,0.0003712177276611328,-0.9023329847826972,-1.1500701466631866,-1.4595532160291171,-0.5657313466072083,0.7847749590873718,-0.25313299894332886,-0.015255286358296871,0.09135352075099945,-0.0003012046799995005
7.120035886764526,-0.005437791347503662,-0.00894242525100708,0.004243373870849609,-0.9025063634549128,-1.1489259305131436,-1.4603473273965781,-0.5653172731399536,0.7848824262619019,-0.25372445583343506,-0.02874278463423252,0.09362776577472687,0.0014458789955824614
7.13999605178833,-0.007844209671020508,-0.005488038063049316,0.0028018057346343994,-0.9026693711956035,-1.147900859068314,-1.461382876053457,-0.564940333366394,0.7849833965301514,-0.2542513608932495,-0.028472259640693665,0.09710736572742462,-0.011635948903858662
7.159999847412109,-0.003181278705596924,-0.00708538293838501,-0.0017500221729278564,-0.9028830368987009,-1.146679227590698,-1.4622323341275605,-0.5644761323928833,0.7851157784461975,-0.2548721730709076,-0.023380378261208534,0.09103518724441528,0.01372581534087658
7.1799938678741455,-0.0062313079833984375,0.0027754902839660645,-0.004201292991638184,-0.9030987640984465,-1.1454371775949552,-1.4628609104448538,-0.5640048384666443,0.7852493524551392,-0.25550317764282227,-0.018682055175304413,0.08911024779081345,-0.0015915350522845984
7.200001955032349,-0.005123734474182129,-0.0008804798126220703,0.0001634359359741211,-0.9028426185232489,-1.1443387101028721,-1.463535921281179,-0.5639070868492126,0.7850907444953918,-0.25620582699775696,-0.01224942971020937,0.07715150713920593,-0.023530762642621994
7.220017910003662,-0.0025926828384399414,-0.01121211051940918,0.004855692386627197,-0.9024016137382621,-1.1438754653304595,-1.4645724098064206,-0.5641035437583923,0.7848175168037415,-0.2566103935241699,-0.03059336356818676,0.05640343576669693,-0.030851779505610466
7.239995956420898,-0.0016524791717529297,-0.013503313064575195,0.010226011276245117,-0.9020853969355914,-1.1442211615900246,-1.4662195669303502,-0.5644180774688721,0.78462153673172,-0.25651803612709045,-0.0459541417658329,0.04048634320497513,-0.03424034267663956
7.260036945343018,-0.0023117661476135254,-0.007350921630859375,0.007806718349456787,-0.9019081945236551,-1.1449054280528619,-1.4680266876077683,-0.564720094203949,0.7845116257667542,-0.2561891973018646,-0.0458536334335804,0.03849447891116142,-0.023857248947024345
7.280005931854248,-0.011101365089416504,0.00275343656539917,-0.003254830837249756,-0.9019032681486115,-1.1450684141858576,-1.4695164886138248,-0.5647653341293335,0.7845085859298706,-0.25609874725341797,-0.03330948203802109,0.0635644942522049,-0.020666660740971565
7.299996852874756,-0.00968015193939209,0.008197009563446045,-0.0060599446296691895,-0.9016387567688606,-1.1444592568899083,-1.4704889623812052,-0.5647979974746704,0.7843445539474487,-0.25652846693992615,-0.012368926778435707,0.07499957829713821,-0.01996527425944805
7.32000207901001,-0.004221558570861816,-0.0012378096580505371,-0.003385215997695923,-0.9012530536036178,-1.1437275644700775,-1.4713923475521897,-0.5648854970932007,0.7841051816940308,-0.2570669651031494,-0.01796305552124977,0.07588375359773636,-0.02960173413157463
7.340003967285156,-0.0025948286056518555,-0.009770750999450684,-0.00047788023948669434,-0.9009882519505052,-1.1433253337461406,-1.4727936459343722,-0.5649712085723877,0.783940851688385,-0.25738033652305603,-0.045403920114040375,0.08253099769353867,-0.032042983919382095
7.360084056854248,-0.0018499493598937988,-0.010777652263641357,0.0018462538719177246,-0.9007666487208296,-1.1434712140319918,-1.4751602299155613,-0.565166711807251,0.7838032245635986,-0.25736984610557556,-0.07122855633497238,0.08946702629327774,-0.041054725646972656
7.380002021789551,-0.0014134645462036133,-0.010176420211791992,0.00014972686767578125,-0.900511045434475,-1.1441626950307262,-1.4782920432948923,-0.5655269026756287,0.7836444973945618,-0.2570618689060211,-0.09582208842039108,0.08831041306257248,-0.053990934044122696
7.399996757507324,0.00028061866760253906,-0.00920403003692627,0.005085796117782593,-0.9003948846365111,-1.145267807769983,-1.4819301943750323,-0.5658934116363525,0.7835723161697388,-0.25647425651550293,-0.1085917055606842,0.08658024668693542,-0.04705675318837166
7.419997930526733,-0.0032762885093688965,0.0009409189224243164,-0.00023856759071350098,-0.9002755616635317,-1.1463584908549171,-1.4855580050957853,-0.5662580132484436,0.7834981679916382,-0.2558954060077667,-0.09267687797546387,0.08989738672971725,-0.051610879600048065
7.440003871917725,-0.0003554224967956543,0.002673923969268799,-0.002841383218765259,-0.9000895817436219,-1.1469380306848982,-1.4885548301786582,-0.5665390491485596,0.7833825945854187,-0.2556271255016327,-0.07782533764839172,0.0875101312994957,-0.038093723356723785
7.460007905960083,-0.005721926689147949,0.0022197365760803223,0.0017448961734771729,-0.8998382772544077,-1.1473885871925886,-1.4912491781858999,-0.5668335556983948,0.7832263708114624,-0.2554526925086975,-0.07474330067634583,0.08307889848947525,-0.04487770050764084
7.480031967163086,-0.007441401481628418,-0.00046259164810180664,0.0031768083572387695,-0.899563359926646,-1.1479525669610984,-1.4941046719987137,-0.5671741366386414,0.7830554246902466,-0.255221426486969,-0.07917871326208115,0.08586838841438293,-0.04927321523427963
7.499995946884155,-0.0038784146308898926,-0.00028330087661743164,-0.004178941249847412,-0.8993487319381436,-1.1483986280384957,-1.496834321254415,-0.5674412250518799,0.7829219102859497,-0.2550373077392578,-0.06408385932445526,0.08218158781528473,-0.03801405429840088
7.519996881484985,0.0010866522789001465,0.004564344882965088,-0.001838386058807373,-0.8991600232236467,-1.1482528893738084,-1.4987037096016618,-0.5675387382507324,0.7828044891357422,-0.25518056750297546,-0.04043881967663765,0.08323558419942856,-0.0268759336322546
7.5399980545043945,-0.004063129425048828,-0.0017042756080627441,-0.0010141730308532715,-0.8989349048886354,-1.1476538515612187,-1.5002193556733785,-0.5675463676452637,0.78266441822052,-0.25559282302856445,-0.0447949655354023,0.09821631014347076,-0.035919710993766785
7.5600059032440186,-0.003921806812286377,-0.010493338108062744,0.005371183156967163,-0.8986897327169445,-1.1474035808852876,-1.5025325684940491,-0.5676571130752563,0.7825117707252502,-0.2558135986328125,-0.07201234251260757,0.11063861846923828,-0.04364776238799095
7.579998016357422,0.0015128850936889648,-0.013744652271270752,0.003962308168411255,-0.8984959030892395,-1.148006041403037,-1.5058866974119973,-0.5679497718811035,0.7823910713195801,-0.25553393363952637,-0.10564807057380676,0.09078981727361679,-0.05393102392554283
7.599997043609619,0.0011304020881652832,-0.006590306758880615,0.0002506077289581299,-0.8983763224263056,-1.149342452370537,-1.5098128988566761,-0.5683758854866028,0.7823165655136108,-0.2548128664493561,-0.10899572819471359,0.0867413729429245,-0.06109445542097092
7.619997978210449,-0.0032731294631958008,0.0028839707374572754,-0.0012340843677520752,-0.8980112128247454,-1.1504411340849263,-1.513622520956474,-0.5689162015914917,0.782089114189148,-0.25430476665496826,-0.09388305246829987,0.10210532695055008,-0.066368967294693
7.640114784240723,-0.003926336765289307,0.003772914409637451,0.0009663403034210205,-0.8974422606140577,-1.1508348919230822,-1.5170986713277077,-0.569422721862793,0.7817344069480896,-0.254262238740921,-0.08409010618925095,0.13532434403896332,-0.062482837587594986
7.659999847412109,0.0008867979049682617,0.005554318428039551,-0.0025835037231445312,-0.897252636252653,-1.1504492135026556,-1.520359031832591,-0.569459855556488,0.7816161513328552,-0.2545422613620758,-0.09274520725011826,0.15849953889846802,-0.03566238284111023
7.679996967315674,0.004399359226226807,0.006251990795135498,-0.010294169187545776,-0.8973571455280387,-1.1496757000873903,-1.523435510419012,-0.5691881775856018,0.7816813588142395,-0.2549492418766022,-0.08478935062885284,0.15892714262008667,-0.03271164000034332
7.700038909912109,0.005958914756774902,0.012347936630249023,-0.007841378450393677,-0.8973448592147367,-1.1486972174122556,-1.5262149094980149,-0.5689471364021301,0.7816736698150635,-0.25550997257232666,-0.07047125697135925,0.15887032449245453,-0.0411079116165638
7.720001935958862,0.004516661167144775,0.004257619380950928,0.00040724873542785645,-0.8971297433059738,-1.147649518543569,-1.528823805744211,-0.5688323974609375,0.7815394997596741,-0.2561749517917633,-0.07199734449386597,0.1532953530550003,-0.04237588122487068
7.739996910095215,0.0070323944091796875,-0.0014210939407348633,0.005738049745559692,-0.8970113145992578,-1.1469555943110292,-1.5317387018236903,-0.5687388777732849,0.7814655900001526,-0.25660768151283264,-0.0813671424984932,0.14235180616378784,-0.043364670127630234
7.760004997253418,0.013710975646972656,-0.000656425952911377,0.004209935665130615,-0.8969106797125731,-1.1464797485688245,-1.534364937514165,-0.5686883330345154,0.7814028263092041,-0.25691062211990356,-0.06757357716560364,0.10354457795619965,-0.03791874274611473
7.779994010925293,0.01278233528137207,0.011659443378448486,0.0026223957538604736,-0.8966389186738309,-1.1464468997339017,-1.5364547521227137,-0.5688737034797668,0.7812331914901733,-0.2570168972015381,-0.04176512360572815,0.06443890184164047,-0.045248135924339294
7.8000288009643555,0.00970458984375,0.009351193904876709,0.0012614428997039795,-0.8962053652646207,-1.146214347814487,-1.537636073766975,-0.569122314453125,0.7809624671936035,-0.2572886049747467,-0.00950500275939703,0.06410512328147888,-0.03102128952741623
7.819997787475586,0.006845593452453613,0.002722322940826416,0.015898019075393677,-0.8959719594088542,-1.1454289119700636,-1.5385154390786928,-0.5690863132476807,0.7808166742324829,-0.2578108310699463,-0.032602451741695404,0.0785326138138771,-0.024213872849941254
7.840004920959473,0.0064160823822021484,-0.006168365478515625,0.010111361742019653,-0.8959144741472619,-1.1457357121238998,-1.5406468127129236,-0.5692059993743896,0.7807807922363281,-0.25765460729599,-0.07810759544372559,0.05993709713220596,-0.04305342584848404
7.860039949417114,0.006583988666534424,0.00234067440032959,0.0036248862743377686,-0.895898974340117,-1.146819232323429,-1.543456736904111,-0.5694960951805115,0.7807710766792297,-0.257042795419693,-0.07011981308460236,0.05290013551712036,-0.04746915400028229
7.879995822906494,0.011289477348327637,0.0107765793800354,0.0003382563591003418,-0.8956337082460105,-1.1473541522678792,-1.545367088148193,-0.5698222517967224,0.7806053161621094,-0.25682318210601807,-0.044523414224386215,0.05135026574134827,-0.03406507894396782
7.899995803833008,0.013397574424743652,0.01415163278579712,0.004991054534912109,-0.8955558415817062,-1.1478015317187755,-1.5470390769538531,-0.5699924230575562,0.7805566787719727,-0.25659316778182983,-0.034941665828228,0.04191024601459503,-0.01782633736729622
7.919981002807617,0.007370114326477051,0.007043957710266113,0.0008926093578338623,-0.8957952522939429,-1.1478703211034043,-1.5480501062446426,-0.569839596748352,0.7807062864303589,-0.2564772069454193,-0.02678079530596733,0.030824128538370132,0.012356177903711796
7.939997911453247,0.006524085998535156,0.010558605194091797,-0.003097325563430786,-0.8962266043395053,-1.1476136963415688,-1.5481677697852825,-0.5694665908813477,0.7809757590293884,-0.25648507475852966,0.0046974360011518,-0.00035749224480241537,0.017735680565238
7.959995746612549,0.003990530967712402,0.013109087944030762,-0.0014175474643707275,-0.8964429295073655,-1.1471410785188558,-1.5472369429176438,-0.5691913366317749,0.7811108231544495,-0.2566847801208496,0.04071362689137459,-0.029954710975289345,0.011802812106907368
7.979996919631958,-0.0003796219825744629,0.004868149757385254,0.007195800542831421,-0.8964940263609933,-1.14672388202016,-1.5457291450612882,-0.5690479874610901,0.7811427712440491,-0.25690585374832153,0.049075525254011154,-0.04415743798017502,0.0172372218221426
8.000033855438232,-0.005314886569976807,0.0009289383888244629,0.005505591630935669,-0.896522097586305,-1.1460044926345885,-1.5437360151152812,-0.5688428282737732,0.781160295009613,-0.2573060393333435,0.06975151598453522,-0.04606763273477554,0.023375755175948143
8.020001888275146,-0.0022163987159729004,-0.0006060004234313965,0.0064657628536224365,-0.8964388053446833,-1.1447121810946703,-1.5409949076507072,-0.5685691237449646,0.7811082601547241,-0.2580678462982178,0.08032529801130295,-0.0446760430932045,0.03146948665380478
8.039999961853027,-0.004229843616485596,-0.006522476673126221,0.003294140100479126,-0.8963592329563107,-1.1437872615789928,-1.5385805656750426,-0.5683867335319519,0.7810586094856262,-0.2586193382740021,0.05570942163467407,-0.05269144847989082,0.01133098267018795
8.059980869293213,-0.006916463375091553,-0.01492774486541748,-0.0011983215808868408,-0.8961844682417925,-1.1439515292290363,-1.537588173692024,-0.5685534477233887,0.7809494137763977,-0.2585824728012085,0.015057038515806198,-0.040779661387205124,-0.004423659294843674
8.079997062683105,-0.0065926313400268555,-0.008742928504943848,-0.006001502275466919,-0.8960299487678557,-1.1445432916461329,-1.5376555055731236,-0.5688162446022034,0.7808529138565063,-0.2582958936691284,-0.0028379783034324646,-0.007128579076379538,0.0027905527967959642
8.100002765655518,-0.0043222904205322266,0.003944337368011475,-0.009100407361984253,-0.8959939491514206,-1.14443196023523,-1.537566016979567,-0.5688130259513855,0.780830442905426,-0.2583708167076111,0.014109153300523758,0.015871455892920494,0.002962556667625904
8.120054960250854,-0.0018510818481445312,-0.0001551508903503418,-0.0049970149993896484,-0.8959858883893266,-1.1435802743432983,-1.5371441666680534,-0.5685988068580627,0.7808253765106201,-0.2588579058647156,0.009090439416468143,0.03747741878032684,0.009460329078137875
8.140033960342407,-0.0020792484283447266,-0.0024060606956481934,-0.0013921558856964111,-0.8959739250762423,-1.142667701871888,-1.5369702589679999,-0.5683705806732178,0.7808179259300232,-0.25938042998313904,-0.0008294894360005856,0.0429508350789547,0.0041058058850467205
8.159998893737793,3.0100345611572266e-05,-0.002015829086303711,0.006288439035415649,-0.8958624747051652,-1.1420237515756984,-1.5369937492052774,-0.5682827830314636,0.7807483077049255,-0.25978267192840576,-0.00016629556193947792,0.024455269798636436,-0.004446299746632576
8.180033922195435,-0.0003979206085205078,-0.00397878885269165,0.006104499101638794,-0.8958049531048549,-1.1416285433008462,-1.5369824593880943,-0.5682209730148315,0.780712366104126,-0.2600259482860565,-0.0010134736075997353,0.011713552288711071,3.3468473702669144e-05
8.199996948242188,-0.0031647086143493652,-0.005032062530517578,0.007719367742538452,-0.8957321208776634,-1.1413523506012984,-1.5370490948580553,-0.5682006478309631,0.7806668281555176,-0.2602064609527588,-0.0030656387098133564,0.02336585707962513,-0.00632183812558651
8.219998836517334,-0.003995776176452637,-0.007717430591583252,0.008957505226135254,-0.8957563005778173,-1.1410392818088806,-1.5373644881692878,-0.5681020021438599,0.7806819677352905,-0.2603764832019806,-0.014613691717386246,0.029491305351257324,0.001095483312383294
8.24001693725586,-0.005887925624847412,-0.006044447422027588,-0.0013555586338043213,-0.8959359267340672,-1.1408256327404855,-1.5379074646142303,-0.5679187774658203,0.7807942032814026,-0.26043936610221863,-0.014136984944343567,0.03902542218565941,0.0016137345228344202
8.260040760040283,-0.008224546909332275,-0.0024862289428710938,-0.005749613046646118,-0.8958824728805294,-1.1406136122905084,-1.538629587907684,-0.5679014921188354,0.7807607650756836,-0.26057717204093933,-0.03268004208803177,0.040276575833559036,-0.01767207868397236
8.279997825622559,-0.011587202548980713,-0.011093974113464355,0.0010577142238616943,-0.89598301650247,-1.140982565874471,-1.5403028694940712,-0.5679263472557068,0.7808235883712769,-0.26033496856689453,-0.06349068880081177,0.06166015937924385,-0.022267363965511322
8.30004596710205,-0.010745108127593994,-0.00875699520111084,0.0016451478004455566,-0.8961014315437574,-1.141492432211626,-1.5426556047268851,-0.5679749846458435,0.7808975577354431,-0.2600069046020508,-0.07449402660131454,0.0794057846069336,-0.020638693124055862
8.319997787475586,-0.0043923258781433105,-0.007640242576599121,0.007213950157165527,-0.8963167030796001,-1.1420420627522505,-1.5453483113648243,-0.5679649114608765,0.7810320258140564,-0.25962477922439575,-0.09178083389997482,0.0715794637799263,-0.01687629707157612
8.34005093574524,-0.0012697577476501465,-0.011430859565734863,0.005308985710144043,-0.8968647494830483,-1.143229405289245,-1.5487102955385066,-0.5678830742835999,0.7813741564750671,-0.25877267122268677,-0.12768492102622986,0.06613223254680634,-0.015940818935632706
