timestamp,acceleration_x,acceleration_y,acceleration_z,attitude_pitch,attitude_roll,attitude_yaw,gravity_x,gravity_y,gravity_z,rotation_x,rotation_y,rotation_z
0.0,0.03700065612792969,0.13827663660049438,0.005815356969833374,-0.6891852318132459,-0.976166286927079,0.32333733982814405,-0.6392955183982849,0.6359086036682129,-0.4323442280292511,-0.4753980040550232,0.12887275218963623,-0.24021807312965393
0.01955413818359375,0.0018069744110107422,0.16417336463928223,-0.021112531423568726,-0.6918935092890782,-0.9812150208546897,0.3104122583322039,-0.6400362849235535,0.6379963755607605,-0.4281519055366516,-0.507818877696991,0.18620485067367554,-0.10148999094963074
0.03986716270446777,-0.013704895973205566,0.14536309242248535,-0.033099591732025146,-0.6967333905389688,-0.9849144748085589,0.29852431568688753,-0.6390356421470642,0.6417158246040344,-0.42406895756721497,-0.522272527217865,0.20311395823955536,-0.007879470475018024
0.059800148010253906,-0.022800207138061523,0.10196173191070557,-0.03528839349746704,-0.7029640872532897,-0.9877446344032887,0.28750455206409137,-0.636883020401001,0.6464819312095642,-0.42004910111427307,-0.5241077542304993,0.22334608435630798,0.05866345390677452
0.07981395721435547,-0.01100015640258789,0.0573277473449707,-0.028448045253753662,-0.709907293570421,-0.9900105283341921,0.277445522909105,-0.6340652108192444,0.6517634391784668,-0.41613200306892395,-0.4944984018802643,0.20466063916683197,0.10066261142492294
0.09980297088623047,0.005573868751525879,0.012191414833068848,-0.021099448204040527,-0.71715384451692,-0.9923784286860536,0.2682468165709637,-0.6310774087905884,0.6572422385215759,-0.4120364785194397,-0.47487571835517883,0.1546209156513214,0.11649739742279053
0.11940908432006836,0.0087776780128479,-0.021108269691467285,-0.025983810424804688,-0.7238816147771482,-0.9951987831198759,0.2602445955778443,-0.628513514995575,0.6622979044914246,-0.4078388512134552,-0.3808031380176544,0.09052092581987381,0.11685831844806671
0.13979005813598633,0.0024968385696411133,-0.027220726013183594,-0.031786322593688965,-0.7289964923356216,-0.996785075517939,0.25565830786559,-0.6263067126274109,0.6661214828491211,-0.40499645471572876,-0.18808582425117493,0.048597801476716995,0.1230795830488205
0.15982413291931152,-0.005348801612854004,-0.012872576713562012,-0.03690999746322632,-0.7323912231325075,-0.9971066267173723,0.2545634840529571,-0.624534010887146,0.6686496138572693,-0.4035654366016388,-0.07333335280418396,0.0011137265246361494,0.11446090787649155
0.17984509468078613,-0.007958471775054932,-0.04547923803329468,-0.031047582626342773,-0.7348751782690612,-0.997391709439432,0.2549881778385062,-0.6232518553733826,0.670494556427002,-0.40248510241508484,-0.04444504901766777,-0.05416151136159897,0.10740957409143448
0.1998000144958496,-0.021446585655212402,-0.05202561616897583,-0.022851109504699707,-0.7368724660498558,-0.9984503074820705,0.25529385720649106,-0.6225506663322449,0.6719750165939331,-0.4010990560054779,-0.038466669619083405,-0.06498832255601883,0.07200168818235397
0.21987104415893555,-0.03192847967147827,-0.040649473667144775,-0.02575823664665222,-0.7381392791597485,-0.9997081539506538,0.25532666228176215,-0.6223378777503967,0.6729126572608948,-0.3998551070690155,-0.019506383687257767,-0.07114768773317337,0.03691241890192032
0.23979902267456055,-0.031190156936645508,-0.03705883026123047,-0.05422163009643555,-0.7368958954355042,-0.999071290323746,0.257962510345429,-0.6227863430976868,0.6719923615455627,-0.4007038474082947,0.21378298103809357,-0.05120096728205681,-0.016013408079743385
0.2597990036010742,-0.022920608520507812,-0.02749568223953247,-0.0806775689125061,-0.7335274645872629,-0.9957930389739882,0.263005751485416,-0.6233654022216797,0.6694940328598022,-0.4039720594882965,0.14537721872329712,0.011849017813801765,-0.030938856303691864
0.279832124710083,-0.007410526275634766,-0.05097752809524536,-0.0699925422668457,-0.7305714558859445,-0.9938672911507928,0.2646770631695817,-0.6242423057556152,0.6672953367233276,-0.406249463558197,0.031803250312805176,0.06354230642318726,-0.08237754553556442
0.29990720748901367,0.002908647060394287,-0.053247690200805664,-0.05071991682052612,-0.7288677040212457,-0.9935633237275593,0.2623348148264838,-0.6250705718994141,0.6660254597663879,-0.407058984041214,-0.11572175472974777,0.12095348536968231,-0.09777618944644928
0.31913208961486816,0.009752333164215088,-0.04401010274887085,-0.04108518362045288,-0.7283074876011182,-0.9944638815313351,0.2569395162049555,-0.6257497072219849,0.6656074523925781,-0.4066992402076721,-0.24304205179214478,0.13090403378009796,-0.10563627630472183
0.3397660255432129,0.01927584409713745,-0.036296308040618896,-0.02329552173614502,-0.7292988482549096,-0.996623656873118,0.2492147076733201,-0.6260721683502197,0.6663469672203064,-0.4049881398677826,-0.38345691561698914,0.10087289661169052,-0.08079873025417328
0.3621382713317871,0.012930810451507568,-0.039962828159332275,-0.0031068921089172363,-0.7325633481173802,-1.0022440525099627,0.23776070608598465,-0.6265020370483398,0.668777585029602,-0.4002896547317505,-0.5665673613548279,0.08764879405498505,-0.09280663728713989
0.38242316246032715,-0.0033553242683410645,-0.01683950424194336,-0.001973092555999756,-0.7359671471124682,-1.0093427170622715,0.22363495443548959,-0.6273972392082214,0.6713042855262756,-0.39461803436279297,-0.4944142699241638,0.09984011948108673,-0.14175274968147278
0.3996720314025879,0.007158339023590088,0.02674931287765503,3.3974647521972656e-06,-0.7386336084393329,-1.0155940290324352,0.21173500260126157,-0.6283284425735474,0.673278272151947,-0.3897433280944824,-0.3599630296230316,0.07304375618696213,-0.11061234027147293
0.4198002815246582,0.00780940055847168,0.012073755264282227,-0.009878277778625488,-0.7395787157930219,-1.0193719009293352,0.2045467938483159,-0.6292541027069092,0.673976719379425,-0.3870333135128021,-0.166030615568161,0.03474057465791702,-0.08952207863330841
0.4398932456970215,0.002661466598510742,0.025527536869049072,-0.0013380348682403564,-0.7390064641575935,-1.0214680563906238,0.2010697494131605,-0.6303927898406982,0.6735538840293884,-0.38591471314430237,-0.02760455012321472,-0.010628949850797653,-0.09436163306236267
0.45978713035583496,0.0012604594230651855,0.01542198657989502,0.00675588846206665,-0.7375063027744834,-1.0224855576559946,0.20013899682048905,-0.6316468715667725,0.6724442839622498,-0.3857994079589844,0.02488977462053299,-0.030474739149212837,-0.06690112501382828
0.47978925704956055,0.005366384983062744,0.0053746700286865234,0.01967787742614746,-0.7363825016734648,-1.023666152137282,0.1996479902566813,-0.6327467560768127,0.6716120839118958,-0.3854462802410126,0.010739922523498535,-0.04475310072302818,-0.06528498232364655
0.499798059463501,-0.009841561317443848,0.017655909061431885,0.02406853437423706,-0.7351091948545725,-1.0243981101012838,0.19946183038835333,-0.6337589621543884,0.6706681847572327,-0.3854271173477173,0.024619771167635918,-0.009858408011496067,-0.03682028129696846
0.5198161602020264,-0.01051187515258789,0.01310807466506958,0.013712048530578613,-0.7344520101452949,-1.024295234168979,0.19948731652611434,-0.6340957283973694,0.6701805591583252,-0.3857212960720062,0.03905832767486572,-0.0060381037183105946,-0.05588682368397713
0.5397911071777344,-0.0040642619132995605,-0.009112179279327393,0.00235140323638916,-0.7337579678146758,-1.0245926059155916,0.1993654783829201,-0.6346076130867004,0.6696652770042419,-0.3857741951942444,-0.006839924491941929,-0.009092926979064941,-0.03347523510456085
0.5597901344299316,-0.0034804940223693848,-0.014699876308441162,0.0019301772117614746,-0.7334126882394626,-1.0260696683792525,0.19805918823827387,-0.6353745460510254,0.6694087982177734,-0.3849562406539917,-0.033076297491788864,-0.029669396579265594,-0.0542951337993145
0.5797891616821289,-0.002227783203125,-0.010088205337524414,0.0010364651679992676,-0.7334285040568973,-1.0280427144570876,0.19597993681396822,-0.6361236572265625,0.6694205403327942,-0.3836963474750519,-0.06538468599319458,-0.006615920457988977,-0.04362896457314491
0.5998091697692871,0.003316223621368408,-0.017094075679779053,0.0020290613174438477,-0.7334518428876953,-1.0301624371186677,0.19346383040268147,-0.6369221806526184,0.6694378852844238,-0.3823390603065491,-0.0656733587384224,-0.01644236408174038,-0.056137554347515106
0.6197981834411621,0.007014751434326172,-0.015474379062652588,-0.0031892061233520508,-0.7333050494765146,-1.0323957984143612,0.19072161632655946,-0.6378589272499084,0.6693288087844849,-0.38096603751182556,-0.1293872743844986,-0.027549875900149345,-0.057970065623521805
0.6397891044616699,-0.0035547614097595215,-0.016433656215667725,0.0054054856300354,-0.733671973557542,-1.0358973852679352,0.1860181564122108,-0.638977587223053,0.6696013808250427,-0.378604918718338,-0.18142668902873993,-0.0035666015464812517,-0.08018778264522552
0.6597871780395508,-0.020598173141479492,-0.013196885585784912,-0.004097998142242432,-0.7338133330869082,-1.0389436013896405,0.18087879691572584,-0.6400463581085205,0.669706404209137,-0.3766087293624878,-0.17724552750587463,0.027700241655111313,-0.09524708241224289
0.6797881126403809,-0.0205230712890625,0.004087269306182861,-0.005961000919342041,-0.7335721697149667,-1.041574387120194,0.1758824303644136,-0.64117431640625,0.6695272922515869,-0.3750051259994507,-0.1459321230649948,0.0413394421339035,-0.10152597725391388
0.6997880935668945,-0.019486606121063232,-0.0011727213859558105,-0.000651925802230835,-0.7332992989504092,-1.043146452979872,0.17163598876030994,-0.641920804977417,0.6693245768547058,-0.3740886151790619,-0.13107609748840332,0.0744481310248375,-0.08165506273508072
0.7198550701141357,-0.02031773328781128,-0.013259291648864746,0.013490229845046997,-0.7330962914496443,-1.0441601570403463,0.16742658018954185,-0.642417311668396,0.6691737174987793,-0.373506098985672,-0.15550947189331055,0.10127947479486465,-0.08576717227697372
0.7398781776428223,-0.017080068588256836,-0.015864670276641846,0.014655381441116333,-0.7332348478241693,-1.0459785464295313,0.1617139276132022,-0.6430152058601379,0.6692766547203064,-0.37229084968566895,-0.21382969617843628,0.09470493346452713,-0.09327222406864166
0.7597932815551758,-0.007321178913116455,-0.015724360942840576,-0.005485802888870239,-0.7333127688217713,-1.048711609055764,0.15555052007922193,-0.6439849138259888,0.6693345904350281,-0.3705059587955475,-0.18683640658855438,0.040129125118255615,-0.10781712085008621
0.7797880172729492,-0.006468355655670166,0.0021650195121765137,-0.01618415117263794,-0.7328939756600464,-1.051723811979923,0.15031581566077715,-0.6453413963317871,0.669023334980011,-0.3687035143375397,-0.1355520486831665,0.009020918048918247,-0.11218190938234329
0.7998270988464355,-0.0071787238121032715,-0.0030354857444763184,-0.014365911483764648,-0.7318028120299492,-1.0546636268213048,0.1460771427182722,-0.6470571160316467,0.6682119369506836,-0.36716482043266296,-0.10214649140834808,-0.005768503062427044,-0.11532207578420639
0.81988525390625,0.0022906064987182617,-0.007411837577819824,0.002220630645751953,-0.7306508552616456,-1.0576497417368038,0.14198017068033028,-0.6488207578659058,0.6673545241355896,-0.3656086325645447,-0.11510392278432846,-0.01182426419109106,-0.11533466726541519
0.8398551940917969,0.02749335765838623,-0.022732794284820557,-0.0049911439418792725,-0.729730726626853,-1.061484627914605,0.13735987984324588,-0.6507538557052612,0.6666689515113831,-0.36341699957847595,-0.1402260959148407,-0.06710758060216904,-0.12181586027145386
0.8597512245178223,0.03565257787704468,-0.017053663730621338,-0.018595635890960693,-0.7287242818289564,-1.065837030777756,0.13325446873415375,-0.6529163718223572,0.6659184694290161,-0.3609056770801544,-0.08151494711637497,-0.10535119473934174,-0.12211088091135025
0.8798141479492188,0.03609567880630493,-0.005315124988555908,-0.014125257730484009,-0.7268380199654041,-1.0698644503462174,0.130528834908138,-0.6554651260375977,0.6645100712776184,-0.35887575149536133,-0.031357768923044205,-0.1374714970588684,-0.13973219692707062
0.8997581005096436,0.05469423532485962,-0.01309126615524292,-0.01063007116317749,-0.7245456730283889,-1.074570270549649,0.12833592313365588,-0.6584845185279846,0.6627953052520752,-0.3565116226673126,-0.011562295258045197,-0.19780504703521729,-0.14249049127101898
0.919788122177124,0.07632476091384888,-0.005304813385009766,-0.003117203712463379,-0.7220766856531036,-1.0797799686341907,0.12694279004518605,-0.6617740392684937,0.6609445214271545,-0.35384684801101685,0.022201567888259888,-0.23785224556922913,-0.13297277688980103
0.939791202545166,0.0898442268371582,0.004566669464111328,0.005685567855834961,-0.7194174430612819,-1.084428574586382,0.1266483107591772,-0.6649632453918457,0.6589465737342834,-0.3515870273113251,0.1090143620967865,-0.23365075886249542,-0.1335606724023819
0.9598391056060791,0.1108473539352417,0.023262858390808105,0.010269850492477417,-0.7157663150108668,-1.0859173311117103,0.12962712181408795,-0.6676101088523865,0.656195878982544,-0.35171574354171753,0.275138258934021,-0.1720348745584488,-0.09875824302434921
0.9798390865325928,0.14499431848526,0.03961050510406494,0.042368799448013306,-0.7113590945692827,-1.0853816826618679,0.13636375442267643,-0.6699729561805725,0.6528638601303101,-0.35341915488243103,0.3526815176010132,-0.2467624843120575,-0.0601668506860733
0.9998612403869629,0.18929481506347656,0.025384128093719482,0.001003265380859375,-0.7081273082455362,-1.0875908681799706,0.14314693375494086,-0.6726169586181641,0.6504124402999878,-0.3529166877269745,0.2577782869338989,-0.4319489300251007,-0.01246372889727354
1.0198450088500977,0.18656277656555176,0.00120621919631958,-0.030770689249038696,-0.7058499010954802,-1.0948085360489967,0.1484408156746942,-0.676461398601532,0.6486808657646179,-0.34873059391975403,0.22057190537452698,-0.6370065808296204,-0.004492286127060652
1.0397911071777344,0.2093377709388733,0.013176679611206055,-0.024462252855300903,-0.7032564157167305,-1.106142110245819,0.1542279701437309,-0.6818718910217285,0.646704912185669,-0.34179437160491943,0.29929494857788086,-0.875387966632843,-0.024186894297599792
1.0597920417785645,0.23195475339889526,0.017296433448791504,0.005121409893035889,-0.7000801078721755,-1.1206947457227552,0.16128603383336917,-0.6886197924613953,0.6442789435386658,-0.3327275812625885,0.3035731911659241,-1.0401917695999146,-0.031452953815460205
1.0798101425170898,0.22469723224639893,-0.02677309513092041,0.01711750030517578,-0.6965368047256985,-1.13848724769733,0.16740221316277049,-0.6964990496635437,0.6415650248527527,-0.321377694606781,0.2799968123435974,-1.1442593336105347,-0.08654725551605225
1.099884033203125,0.23719412088394165,-0.0411374568939209,0.03286260366439819,-0.6922751650987278,-1.1588914290764272,0.172710535483498,-0.7054100632667542,0.6382902264595032,-0.3081921339035034,0.2725742757320404,-1.2473911046981812,-0.13376791775226593
1.1198630332946777,0.2384393811225891,-0.05954158306121826,0.03954055905342102,-0.6869375429366722,-1.1817038762671612,0.17773058715600087,-0.7153986096382141,0.6341723203659058,-0.29330942034721375,0.28219178318977356,-1.3609447479248047,-0.21733753383159637
1.1397900581359863,0.23094511032104492,-0.07550227642059326,0.04149281978607178,-0.6800695415055783,-1.2072768147582469,0.18151284003612608,-0.7267184257507324,0.6288471221923828,-0.2764628529548645,0.24209654331207275,-1.4487501382827759,-0.3150447905063629
1.1598401069641113,0.22411775588989258,-0.10159850120544434,0.017158836126327515,-0.671527556802421,-1.235474674449903,0.1842535560292532,-0.7392696738243103,0.6221826076507568,-0.25762203335762024,0.2783919870853424,-1.5484755039215088,-0.423240602016449
1.1798462867736816,0.2136291265487671,-0.09989273548126221,-0.003648698329925537,-0.6599487613954829,-1.2638073247191772,0.1890807672332199,-0.7530883550643921,0.613076388835907,-0.2387371063232422,0.4732225835323334,-1.5844926834106445,-0.5642554759979248
1.199815273284912,0.2067156434059143,-0.08005732297897339,0.021277546882629395,-0.6444177104070767,-1.2894175603569016,0.19865697070320557,-0.7680101990699768,0.6007330417633057,-0.22199158370494843,0.6847120523452759,-1.5572060346603394,-0.699166476726532
1.2197751998901367,0.21617621183395386,-0.103995680809021,0.03540864586830139,-0.6264972518211266,-1.312624552554058,0.21080806787606993,-0.7832387685775757,0.5863108038902283,-0.206825852394104,0.7191118001937866,-1.5046113729476929,-0.7752915024757385
1.2397942543029785,0.2282359004020691,-0.12785834074020386,0.06444746255874634,-0.6076913630196664,-1.3353571682710614,0.22267508258721663,-0.7983195185661316,0.5709736943244934,-0.19150733947753906,0.6959380507469177,-1.464309573173523,-0.8113315105438232
1.2598011493682861,0.23691779375076294,-0.11054641008377075,0.04581013321876526,-0.5885883050188394,-1.3578412247704128,0.2347990324812994,-0.8129370212554932,0.555187463760376,-0.1757844239473343,0.7268109917640686,-1.4847099781036377,-0.8370039463043213
1.2797889709472656,0.22498995065689087,-0.08227169513702393,0.013309478759765625,-0.5688664906345596,-1.379810953466045,0.2490456401382846,-0.8271933794021606,0.5386773943901062,-0.15993110835552216,0.867827832698822,-1.4890267848968506,-0.8558235168457031
1.2998380661010742,0.22112059593200684,-0.06647896766662598,0.004266336560249329,-0.5491041817979582,-1.3987447753082223,0.2679732872076807,-0.8403984904289246,0.521923303604126,-0.14603568613529205,1.059529185295105,-1.397879719734192,-0.795056164264679
1.3198840618133545,0.2356012463569641,-0.07551044225692749,0.03148013353347778,-0.5306902786668706,-1.4136256936332763,0.29025755780523754,-0.8518274426460266,0.5061287879943848,-0.13499568402767181,1.0878047943115234,-1.2422925233840942,-0.7140459418296814
1.3397481441497803,0.23400169610977173,-0.09264209866523743,0.06183767318725586,-0.5140645039992597,-1.4267342733933173,0.3105616775076023,-0.8617330193519592,0.4917204678058624,-0.12500903010368347,0.8790587782859802,-1.0942366123199463,-0.6785361170768738
1.3598880767822266,0.1917191743850708,-0.1004132628440857,0.04757381230592728,-0.4985930861388326,-1.4399659136734262,0.3253300761148653,-0.8707505464553833,0.4781903922557831,-0.1145751103758812,0.6288021802902222,-0.946933925151825,-0.6816844344139099
1.3797922134399414,0.15335673093795776,-0.08798137307167053,0.031044840812683105,-0.4835261738829417,-1.4526277867528279,0.3356859436879424,-0.8791868686676025,0.4649040102958679,-0.10437852144241333,0.49193328619003296,-0.8023913502693176,-0.6974520683288574
1.3998801708221436,0.14941418170928955,-0.05655187368392944,0.028630271553993225,-0.4691586183030461,-1.4635626937476296,0.34323638031975506,-0.8868256211280823,0.45213598012924194,-0.09546372294425964,0.32560664415359497,-0.6445703506469727,-0.6429513096809387
1.4198241233825684,0.18750691413879395,-0.07369792461395264,0.029772110283374786,-0.4571630009170333,-1.4732513232941846,0.3469509558327384,-0.8930427432060242,0.44140422344207764,-0.08738920837640762,0.13221660256385803,-0.4999668598175049,-0.5127763152122498
1.4398131370544434,0.21479111909866333,-0.09720054268836975,0.04592161625623703,-0.4479884674856147,-1.4818758846408169,0.3468457149378252,-0.8977593779563904,0.4331533908843994,-0.08004023134708405,-0.062239788472652435,-0.3518123924732208,-0.4140567183494568
1.4597911834716797,0.18633383512496948,-0.1324918568134308,0.06623703241348267,-0.4401285204168278,-1.489328438784106,0.34164387027135046,-0.9016963839530945,0.4260557293891907,-0.07362224906682968,-0.2862313687801361,-0.16711051762104034,-0.41447922587394714
1.479790210723877,0.15950411558151245,-0.1346462368965149,0.02881205826997757,-0.43263938306360317,-1.4937722361401,0.33500559297793325,-0.9051706194877625,0.4192684590816498,-0.06985814869403839,-0.24283145368099213,-0.026278039440512657,-0.391668438911438
1.4998822212219238,0.17797690629959106,-0.05395936965942383,0.003934085369110107,-0.42440428692323706,-1.495764875300089,0.33064353259023754,-0.9087203741073608,0.4117780029773712,-0.06831084936857224,-0.08523570746183395,-0.01954822987318039,-0.4564221203327179
1.5198431015014648,0.18755561113357544,-0.0744672417640686,0.02586287260055542,-0.4154307924095486,-1.4977189601856453,0.3290347521069649,-0.9125007390975952,0.4035841226577759,-0.06680210679769516,0.011758754029870033,-0.109732985496521,-0.45895346999168396
1.5399291515350342,0.09049063920974731,-0.07603150606155396,0.021562092006206512,-0.40603610264715767,-1.4999304590148541,0.33039029425271726,-0.9163880348205566,0.3949708342552185,-0.06504955887794495,0.18591426312923431,-0.14678829908370972,-0.471203088760376
1.559791088104248,-0.07510882616043091,0.00490039587020874,0.012537188827991486,-0.3956292588232149,-1.5008305084297675,0.33476294442368076,-0.9204966425895691,0.38538891077041626,-0.0645085945725441,0.24482351541519165,-0.1040501520037651,-0.5645075440406799
1.5797901153564453,-0.18152451515197754,0.0382101833820343,0.07487255334854126,-0.38327547191158495,-1.5009010990680387,0.33686713445217303,-0.9251802563667297,0.3739602863788605,-0.06477119773626328,-0.021587446331977844,0.02250760979950428,-0.6270400285720825
1.5997891426086426,-0.1817493438720703,0.010418444871902466,0.14552956819534302,-0.37223320455325754,-1.5016081871033897,0.3296768698841249,-0.929288923740387,0.3636966049671173,-0.06439856439828873,-0.5975832939147949,0.15875209867954254,-0.5234038829803467
1.6198430061340332,-0.13538533449172974,0.0027389824390411377,0.1815112829208374,-0.3645504308511874,-1.5036780223376172,0.3109279761040021,-0.9321807622909546,0.3565292954444885,-0.06266050785779953,-1.06765878200531,0.2886674702167511,-0.3435620665550232
1.6397910118103027,-0.060825228691101074,0.03963610529899597,0.14992094039916992,-0.36154557766372747,-1.5075851278220453,0.28550598628154933,-0.933483362197876,0.3537203073501587,-0.05908532068133354,-1.206428050994873,0.19810917973518372,-0.12756288051605225
1.6597909927368164,-0.032334208488464355,0.07452404499053955,0.06481938809156418,-0.36134299697155414,-1.5145548770232993,0.26260461448193767,-0.933944046497345,0.3535308241844177,-0.052581820636987686,-0.8640891313552856,-0.11243121325969696,-0.028541523963212967
1.67979097366333,-0.04275953769683838,0.10819754004478455,-0.014013588428497314,-0.3620799677780069,-1.5247081021723803,0.2517774300914138,-0.9341692328453064,0.35422009229660034,-0.04308471456170082,-0.10038512200117111,-0.5074997544288635,0.03453837335109711
1.699789047241211,-0.12103933095932007,0.11152240633964539,0.0026664696633815765,-0.3621959110717784,-1.5348780415402266,0.2573576614350866,-0.934518039226532,0.35432854294776917,-0.0335807278752327,0.5526999831199646,-0.6725842952728271,0.0023917113430798054
1.7198331356048584,-0.24036109447479248,0.07803553342819214,0.09647923707962036,-0.3618302647504366,-1.5428796891675427,0.27280850294207876,-0.9348861575126648,0.35398659110069275,-0.026105660945177078,0.8560491800308228,-0.589235246181488,0.005111270118504763
1.739820957183838,-0.3835102915763855,0.03850191831588745,0.10188031196594238,-0.36119201587362754,-1.5451877470291602,0.29243355196231313,-0.935169517993927,0.35338959097862244,-0.023953599855303764,0.9468182325363159,-0.3383942246437073,-0.026144739240407944
1.7597942352294922,-0.4162788987159729,0.016774654388427734,0.13061189651489258,-0.35978823003632593,-1.5422012406395125,0.3103442896890853,-0.9355887770652771,0.3520760238170624,-0.026760537177324295,0.7104018926620483,-0.0322505347430706,-0.026557791978120804
1.7797880172729492,-0.3381272554397583,-0.029963165521621704,0.1290377974510193,-0.3596580306117051,-1.5383236019615398,0.32106902125537046,-0.9355239272117615,0.3519541621208191,-0.03038969449698925,0.2763594090938568,0.01819532923400402,0.029321182519197464
1.7997910976409912,-0.3084474205970764,-0.022119909524917603,0.08120584487915039,-0.35952734846441026,-1.5383695117024616,0.32362100844213393,-0.9355711340904236,0.35183185338974,-0.03034823015332222,0.028524285182356834,-0.09731173515319824,-0.034938909113407135
1.819789171218872,-0.33954763412475586,0.035388052463531494,0.06474542617797852,-0.35871504891282463,-1.5394514108715582,0.32429006336217214,-0.935888946056366,0.3510713577270508,-0.029344972223043442,0.07455076277256012,0.0021073520183563232,-0.038494374603033066
1.8398752212524414,-0.33935606479644775,0.05110171437263489,0.05141950026154518,-0.35821295318861046,-1.5364794319491524,0.3270468252726447,-0.9359735250473022,0.3506011664867401,-0.03213232010602951,0.14842194318771362,0.15248779952526093,-0.006260449066758156
1.859807014465332,-0.2985343337059021,0.05927780270576477,0.031228363513946533,-0.35788992991005175,-1.532819745333325,0.32908369854764513,-0.9359627962112427,0.3502986431121826,-0.03556176647543907,0.03462092578411102,0.14252766966819763,-0.018654868006706238
1.8798222541809082,-0.27119559049606323,0.030118703842163086,0.013359244912862778,-0.35754743141943607,-1.531065194810141,0.32876151926820907,-0.9360189437866211,0.3499778211116791,-0.0372086726129055,-0.05265505611896515,0.06319600343704224,-0.011370796710252762
1.899796962738037,-0.2825168967247009,0.037631720304489136,0.0026040710508823395,-0.3574923882868771,-1.5313896204082622,0.3258454642130704,-0.9360499978065491,0.34992626309394836,-0.03690575435757637,-0.19381573796272278,-0.002562855836004019,-0.022612739354372025
1.91988205909729,-0.29598015546798706,0.07101640105247498,-0.01399439200758934,-0.35667971136787807,-1.5331093036345078,0.32226973558710764,-0.9363958835601807,0.34916484355926514,-0.035306692123413086,-0.0980587899684906,-0.020035499706864357,-0.06945399194955826
1.93985915184021,-0.29691439867019653,0.10885533690452576,-0.06423091143369675,-0.3549735533319915,-1.5343594157871705,0.32142679867277624,-0.9370332360267639,0.34756556153297424,-0.03415771573781967,-0.01619739457964897,-0.09901580214500427,-0.11591549217700958
1.9597911834716797,-0.27440571784973145,0.09829819202423096,-0.04702085256576538,-0.35217397560387037,-1.536969201587293,0.32081886493335,-0.9380882382392883,0.3449391722679138,-0.03174493834376335,-0.025896253064274788,-0.11413244158029556,-0.1532783806324005
1.9797921180725098,-0.2760368585586548,0.09744936227798462,-0.05632615089416504,-0.34893478877440737,-1.5385661104838813,0.320325868207501,-0.9392493963241577,0.34189698100090027,-0.030282696709036827,-0.021923203021287918,-0.025341317057609558,-0.16938535869121552
1.9997892379760742,-0.23564022779464722,0.09884503483772278,-0.06851285696029663,-0.34537352039985697,-1.5386022507548234,0.31873382034676295,-0.9404614567756653,0.3385481536388397,-0.03028775379061699,-0.09360621869564056,0.049306999891996384,-0.19246923923492432
2.0198211669921875,-0.17360663414001465,0.08970212936401367,-0.08902013301849365,-0.34158452659829297,-1.5390341596388233,0.31726645742232906,-0.9417498707771301,0.33498048782348633,-0.029922079294919968,0.007750350050628185,-0.048573754727840424,-0.17259840667247772
2.039824962615967,-0.21135663986206055,0.1321239173412323,-0.11963218450546265,-0.33816714501509804,-1.5402731790517254,0.3198445163002176,-0.9429250359535217,0.331758588552475,-0.028789980337023735,0.260713130235672,-0.14901630580425262,-0.17705212533473969
2.059868097305298,-0.29989027976989746,0.15357685089111328,-0.06535834074020386,-0.3349672747125846,-1.540082812621968,0.32639548293917514,-0.9439757466316223,0.328738272190094,-0.029001932591199875,0.3132372498512268,-0.05907699465751648,-0.12142248451709747
2.079792022705078,-0.3662390112876892,0.09985578060150146,-0.007725894451141357,-0.33260393212336414,-1.539074240981948,0.3303519392199755,-0.9447198510169983,0.3265053629875183,-0.029978541657328606,0.06249658018350601,0.056804507970809937,-0.12423055619001389
2.0997891426086426,-0.3719908595085144,0.07346227765083313,0.011696811765432358,-0.3302435178654802,-1.537455703532176,0.32979252575388945,-0.9454379081726074,0.32427340745925903,-0.031533174216747284,-0.10628671199083328,0.09875577688217163,-0.06143282726407051
2.1198551654815674,-0.3362009525299072,0.0965718924999237,0.03085894137620926,-0.32967063634779903,-1.5362066554188223,0.3263755773196442,-0.9455829858779907,0.3237314224243164,-0.03272045776247978,-0.17617398500442505,0.13604269921779633,-0.03992683067917824
2.1397900581359863,-0.348965048789978,0.08793041110038757,-0.008199688047170639,-0.3288536059171043,-1.5349216213595112,0.32312316722068757,-0.945804238319397,0.3229582905769348,-0.03394501283764839,-0.13129636645317078,0.09092910587787628,-0.04055789113044739
2.1598141193389893,-0.35487669706344604,0.07087752223014832,-0.001215219497680664,-0.3286049767407882,-1.5341707260825248,0.3204810647022384,-0.9458588361740112,0.3227229714393616,-0.034658145159482956,-0.1688292771577835,0.06700850278139114,0.0022643832489848137
2.1798501014709473,-0.364760160446167,0.06960409879684448,0.01614350453019142,-0.32843499484333394,-1.5353726131700034,0.3151798374848451,-0.9459545612335205,0.3225620687007904,-0.03352324664592743,-0.34691542387008667,0.02032443881034851,-0.03838776797056198
2.1998181343078613,-0.3573871850967407,0.05620506405830383,0.04097205772995949,-0.32827569414387714,-1.5371622805171599,0.30579028519561396,-0.9460643529891968,0.32241126894950867,-0.031831976026296616,-0.5143561959266663,0.07427874952554703,0.0027775168418884277
2.219820976257324,-0.31028395891189575,0.027540266513824463,0.06304782629013062,-0.32972001336071805,-1.5383920840057206,0.29430891247288726,-0.945636510848999,0.3237781226634979,-0.030653364956378937,-0.5633979439735413,0.18383072316646576,0.10456278920173645
2.2397942543029785,-0.29191362857818604,0.017545968294143677,0.01566457748413086,-0.33188171594017946,-1.5393580354989922,0.28143779698039245,-0.9449638724327087,0.325822651386261,-0.029717840254306793,-0.6343112587928772,0.10413598269224167,0.04776744544506073
2.259819984436035,-0.25646692514419556,0.029911309480667114,-0.018690703436732292,-0.33281181779435737,-1.541439706407043,0.27105994465086,-0.9447201490402222,0.3267018496990204,-0.02774176187813282,-0.34563738107681274,0.04893309250473976,0.06925611943006516
2.279677152633667,-0.22242450714111328,0.0795896053314209,-0.03447443246841431,-0.3347221767245747,-1.5425581041340812,0.26624564976515624,-0.944125235080719,0.3285067677497864,-0.026667507365345955,-0.15560764074325562,-0.02082095667719841,0.0730179101228714
2.299849033355713,-0.21539294719696045,0.07213842868804932,-0.04903065785765648,-0.3364079232776914,-1.5444489695351125,0.2639959060416215,-0.9436187744140625,0.3300985097885132,-0.024867616593837738,-0.06340333819389343,-0.08790402859449387,0.12079478055238724
2.3198022842407227,-0.19583851099014282,0.07576069235801697,-0.017879722639918327,-0.34031623941358535,-1.546039952843916,0.26410142502561695,-0.9423602819442749,0.33378520607948303,-0.023334190249443054,0.06151692196726799,-0.053554754704236984,0.299485981464386
2.339859962463379,-0.21469712257385254,0.06833183765411377,-0.003397703170776367,-0.3481270092871991,-1.5458877903294124,0.26475412142022936,-0.9397218823432922,0.34113776683807373,-0.023411938920617104,-0.025781525298953056,0.06217903271317482,0.4546378552913666
2.3597311973571777,-0.24417752027511597,0.06435450911521912,-0.02109891176223755,-0.35804134855485575,-1.5437441997543233,0.26361722076917066,-0.9362424612045288,0.35044047236442566,-0.025333529338240623,-0.09210902452468872,0.16158701479434967,0.5392237901687622
2.3798060417175293,-0.21207129955291748,0.06881394982337952,-0.023361273109912872,-0.3694499632628001,-1.5414373005116964,0.26178406340512456,-0.9321244955062866,0.36110255122184753,-0.027374133467674255,-0.11733779311180115,0.12290726602077484,0.5873567461967468
2.399731159210205,-0.1925535798072815,0.04010394215583801,-0.004872499033808708,-0.3817768881459649,-1.539983447965379,0.260573637354079,-0.9275636076927185,0.3725700080394745,-0.028589952737092972,0.004756291396915913,0.10006986558437347,0.6430182456970215
2.419827938079834,-0.21388906240463257,0.053218960762023926,0.016581717878580093,-0.3945446445953661,-1.5351580310373003,0.26379742996033545,-0.9225855469703674,0.3843878507614136,-0.03289330378174782,0.229277566075325,0.22818104922771454,0.6357482671737671
2.439894199371338,-0.18221139907836914,0.02247127890586853,0.02417784556746483,-0.40680887406273103,-1.528473950653327,0.2702810977365401,-0.9175660014152527,0.39568066596984863,-0.03885677456855774,0.32272541522979736,0.16862264275550842,0.6266794204711914
2.459872245788574,-0.11489462852478027,-0.01353570818901062,0.03592884913086891,-0.41916600684641064,-1.5230583255708128,0.2779539819709212,-0.912388026714325,0.40699881315231323,-0.04358869791030884,0.3043390214443207,0.06176828593015671,0.6351562738418579
2.479750156402588,-0.09299373626708984,0.005774706602096558,0.025253772735595703,-0.43123434062513394,-1.5184172028329708,0.286707517363825,-0.9072046875953674,0.4179924726486206,-0.047562092542648315,0.48316821455955505,0.07082463055849075,0.6374745965003967
2.49989914894104,-0.05931371450424194,0.05083474516868591,0.06096452474594116,-0.4437326710364267,-1.5102691397782162,0.3004244327690574,-0.9015017747879028,0.42931362986564636,-0.054632097482681274,0.6900486350059509,0.14013606309890747,0.6852593421936035
2.5197739601135254,-0.014047861099243164,0.010709524154663086,0.059019990265369415,-0.45762688049553246,-1.498821561291788,0.32072165666415814,-0.8947808742523193,0.4418204128742218,-0.06451308727264404,1.0241056680679321,0.10717136412858963,0.8417986631393433
2.5397801399230957,0.04059767723083496,0.026156187057495117,0.06400657445192337,-0.4735026239307305,-1.4859334369625008,0.3477991336073785,-0.8867738246917725,0.45600631833076477,-0.07543536275625229,1.2581344842910767,-0.01608576625585556,0.9328169226646423
2.5598220825195312,0.08452928066253662,-0.02940461039543152,0.09602564573287964,-0.4909189665649363,-1.4732975509985011,0.37744884097287823,-0.8777117133140564,0.4714365303516388,-0.08584801852703094,1.1633541584014893,-0.09700138866901398,1.030491828918457
2.57974910736084,0.06270158290863037,-0.08526617288589478,0.09509474039077759,-0.509385130763057,-1.4625885585330727,0.4037733337756703,-0.8679384589195251,0.48764052987098694,-0.09428596496582031,0.9470201730728149,-0.0766296237707138,1.0526854991912842
2.60771107673645,0.03721344470977783,-0.15135473012924194,0.08607997745275497,-0.5493620794561279,-1.4408737508156009,0.43515446314869904,-0.8456697463989258,0.5221433043479919,-0.11049400269985199,0.08075451850891113,0.33668074011802673,1.0364372730255127
2.6281731128692627,0.12061077356338501,-0.1697930097579956,0.06169880926609039,-0.569206881114145,-1.4329673311728424,0.43716559323436843,-0.8343405723571777,0.5389641523361206,-0.11573008447885513,-0.10570788383483887,0.33422404527664185,0.9530360102653503
2.6481730937957764,0.17574119567871094,-0.1281101107597351,0.03279370814561844,-0.587452448103475,-1.4259961631132465,0.4385961836574385,-0.8236446380615234,0.5542423725128174,-0.12010446190834045,-0.015478899702429771,0.28544920682907104,0.8710057735443115
2.66713809967041,0.1739233136177063,-0.12438267469406128,0.028474807739257812,-0.603649239772409,-1.4186147138444165,0.4421291790398644,-0.8137548565864563,0.567650556564331,-0.12480347603559494,0.05604812130331993,0.2806969881057739,0.7853113412857056
2.6860930919647217,0.15517789125442505,-0.11920696496963501,0.0265360027551651,-0.6184751897836578,-1.4097898698183977,0.4467050616740674,-0.8042256832122803,0.5797934532165527,-0.13061614334583282,0.053971175104379654,0.3271713852882385,0.7323198318481445
2.699658155441284,0.15517789125442505,-0.11920696496963501,0.0265360027551651,-0.6184751897836578,-1.4097898698183977,0.4467050616740674,-0.8042256832122803,0.5797934532165527,-0.13061614334583282,0.053971175104379654,0.3271713852882385,0.7323198318481445
2.7283411026000977,0.18373584747314453,-0.15120375156402588,0.03672248125076294,-0.6457669317882021,-1.3931978084826835,0.44809088906752015,-0.7860766053199768,0.6018111109733582,-0.14109256863594055,-0.2690854072570801,0.47210609912872314,0.6436316967010498
2.747542142868042,0.20659703016281128,-0.14721792936325073,0.01727384328842163,-0.658954532775528,-1.3875654484608417,0.4420290165839912,-0.777397871017456,0.612290620803833,-0.14405910670757294,-0.3817176818847656,0.4472484290599823,0.5743014216423035
2.76751708984375,0.18809741735458374,-0.10092222690582275,-0.011990964412689209,-0.6713070075863373,-1.3811375251091482,0.43691367595027314,-0.7689690589904785,0.6220099329948425,-0.1476159393787384,-0.22657547891139984,0.5175858736038208,0.5715206861495972
2.787933111190796,0.17239290475845337,-0.08575797080993652,-0.02040940523147583,-0.6825273271365334,-1.3706924522413297,0.43615005766015963,-0.7604972124099731,0.6307561993598938,-0.15424266457557678,-0.078614741563797,0.5875217318534851,0.5066630244255066
2.806663990020752,0.1769314408302307,-0.09198087453842163,-0.013562843203544617,-0.6921377716126754,-1.357283519191982,0.4378310750697138,-0.7524014115333557,0.6381844878196716,-0.1631338745355606,-0.00905642006546259,0.6386427283287048,0.48175063729286194
2.8257811069488525,0.1841048002243042,-0.11747682094573975,-0.005664944648742676,-0.7016873368474987,-1.3438999421965376,0.43902573935613604,-0.7441786527633667,0.6455073356628418,-0.17180998623371124,-0.14700178802013397,0.6625617742538452,0.49475064873695374
2.8490331172943115,0.1511859893798828,-0.10331946611404419,0.004122316837310791,-0.7128721412597542,-1.332072243045282,0.43556511385802094,-0.7350330948829651,0.654009222984314,-0.17888116836547852,-0.34205490350723267,0.7486870884895325,0.5493217706680298
2.867974281311035,0.14262616634368896,-0.11066240072250366,-0.0019403696060180664,-0.7254308866645665,-1.319693336541168,0.4293933204375867,-0.724748969078064,0.6634578704833984,-0.18591053783893585,-0.3884458541870117,0.8635637760162354,0.5671058297157288
2.8864450454711914,0.17616093158721924,-0.09630006551742554,-0.008672535419464111,-0.7379767750358839,-1.3053088978497909,0.42492853695307475,-0.713911235332489,0.6727924346923828,-0.1941167116165161,-0.2478332221508026,0.8590072393417358,0.5586580038070679
2.9073431491851807,0.18965327739715576,-0.11655747890472412,0.006264090538024902,-0.749412822953051,-1.2893977902430376,0.42384056990059354,-0.7032946944236755,0.6812090277671814,-0.20330075919628143,-0.1272289901971817,0.8068885207176208,0.5194222331047058
2.925483226776123,0.15059304237365723,-0.1157541275024414,0.008179128170013428,-0.7593878063665733,-1.2720557302115834,0.42568306346098755,-0.693134605884552,0.6884775757789612,-0.21345555782318115,-0.039504699409008026,0.8204034566879272,0.4971812665462494
2.9472479820251465,0.10753697156906128,-0.1098509430885315,0.025706887245178223,-0.7689861366573172,-1.2539902473404485,0.426713544944885,-0.6828543543815613,0.6954070329666138,-0.22387276589870453,-0.22262775897979736,0.9207673072814941,0.42225492000579834
2.967154026031494,0.11749988794326782,-0.1528206467628479,0.03660184144973755,-0.7787802717360872,-1.239726008366148,0.4201204534103339,-0.6731181740760803,0.7024117708206177,-0.23136499524116516,-0.5230069160461426,0.9557416439056396,0.3700038194656372
2.985037088394165,0.1467464566230774,-0.15955239534378052,0.017634093761444092,-0.7894953778535861,-1.2290719050969046,0.40822682970857666,-0.6634854078292847,0.7099980115890503,-0.2359873354434967,-0.6169378757476807,0.9644421339035034,0.3683229684829712
3.0060901641845703,0.14833015203475952,-0.08922111988067627,0.031668245792388916,-0.8006692889358702,-1.2195431713355935,0.39428283578915796,-0.6537165641784668,0.717822253704071,-0.23955395817756653,-0.6363086104393005,0.9935543537139893,0.3575933277606964
3.0260472297668457,0.12243777513504028,-0.08171480894088745,0.02629496157169342,-0.8121574907559265,-1.208516150813225,0.3810071143850551,-0.6432812809944153,0.7257730960845947,-0.24380895495414734,-0.6191319823265076,1.0467478036880493,0.36957693099975586
3.046264171600342,0.11632668972015381,-0.05364692211151123,0.0052520036697387695,-0.8215991344440464,-1.1965856728253197,0.3698856743887825,-0.6339201331138611,0.732235848903656,-0.2489500641822815,-0.41436803340911865,0.9686914682388306,0.25595080852508545
3.0661251544952393,0.12433129549026489,-0.020255088806152344,-0.004083395004272461,-0.8282690260153979,-1.1829580855766875,0.36327152851990585,-0.6259334683418274,0.7367620468139648,-0.25571268796920776,-0.29804137349128723,0.8931159973144531,0.18620315194129944
3.085944175720215,0.1194605827331543,-0.054112792015075684,0.020710676908493042,-0.8331769074033838,-1.1713441647380407,0.3558947428234119,-0.6195826530456543,0.7400716543197632,-0.2615553140640259,-0.35605278611183167,0.8429471850395203,0.09572377800941467
3.1050209999084473,0.10178554058074951,-0.06263810396194458,0.023949921131134033,-0.838038906490484,-1.161165491420426,0.3467331294963017,-0.613580584526062,0.7433327436447144,-0.26641201972961426,-0.42284393310546875,0.8709908127784729,0.10410671681165695
3.1268770694732666,0.08632904291152954,-0.050599873065948486,0.004989415407180786,-0.8435317167319012,-1.1530632926916797,0.33419446631858624,-0.6076608300209045,0.746995747089386,-0.2697140574455261,-0.44262778759002686,0.8559789061546326,0.045182257890701294
3.1467220783233643,0.1338043212890625,-0.02688121795654297,0.013900697231292725,-0.849001247690742,-1.1459292538771684,0.3217796242781144,-0.60198974609375,0.7506208419799805,-0.27235400676727295,-0.4584670066833496,0.7913912534713745,0.10818913578987122
3.1647629737854004,0.132199227809906,-0.025846540927886963,0.004912018775939941,-0.8546588104514611,-1.1385460415174016,0.31199383943748266,-0.596096932888031,0.7543469667434692,-0.27500781416893005,-0.38290777802467346,0.6986368298530579,0.12062306702136993
3.185495138168335,0.11567258834838867,-0.030576467514038086,0.02497309446334839,-0.8597870463171498,-1.1312163069627303,0.30431370191539775,-0.5905566811561584,0.7577036023139954,-0.277719646692276,-0.3026527166366577,0.6267569661140442,0.12501469254493713
3.206637144088745,0.0957115888595581,-0.03905749320983887,0.045687198638916016,-0.8645893325590874,-1.124418383600194,0.2972674788167831,-0.5853661894798279,0.7608288526535034,-0.28015369176864624,-0.3255658745765686,0.5837713479995728,0.10776946693658829
3.2257189750671387,0.09337693452835083,-0.042059242725372314,0.04407232999801636,-0.8695821271479374,-1.1194600919997253,0.2899121759378869,-0.5805442929267883,0.7640594244003296,-0.28139224648475647,-0.2971944212913513,0.4637836515903473,0.1526636928319931
3.2454121112823486,0.10672086477279663,-0.025380492210388184,0.0443454384803772,-0.8748717339976008,-1.1160007923104671,0.28453286584965815,-0.5759286284446716,0.7674612998962402,-0.2816195487976074,-0.264787882566452,0.2926114499568939,0.15927252173423767
3.266469955444336,0.0768842101097107,-0.013465940952301025,0.04716351628303528,-0.8798650129804496,-1.115167993574291,0.2797903065342187,-0.5722454786300659,0.7706528902053833,-0.2804093062877655,-0.23151946067810059,0.17861820757389069,0.16662167012691498
3.284285068511963,0.03768777847290039,-0.012539088726043701,0.05888137221336365,-0.8847462858481008,-1.1154995130038794,0.2752142677471054,-0.5689530372619629,0.7737542986869812,-0.2785620391368866,-0.27479052543640137,0.176417276263237,0.11210282891988754
3.30607008934021,0.021015405654907227,-0.017940223217010498,0.03129330277442932,-0.8889232822144734,-1.1186432716196033,0.26713430755629913,-0.5669138431549072,0.7763935923576355,-0.27535757422447205,-0.277980774641037,0.12620604038238525,0.08988264948129654
3.3266940116882324,0.041405558586120605,0.03548699617385864,-0.03783676028251648,-0.8929666148535139,-1.118791295044136,0.2641895078692586,-0.5641258955001831,0.7789355516433716,-0.27390024065971375,-0.051627904176712036,0.057867731899023056,0.17241135239601135
3.346788167953491,0.02175724506378174,0.05107152462005615,-0.09165516495704651,-0.8954439381593973,-1.1146292150486916,0.2685689002657836,-0.5612469911575317,0.7804867029190063,-0.2753949463367462,0.1718055009841919,0.043576765805482864,0.17785018682479858
3.3662850856781006,-0.0005723237991333008,0.03491121530532837,-0.10132831335067749,-0.8965207017308124,-1.105834980409183,0.2781637665243263,-0.5580519437789917,0.7811594009399414,-0.27994298934936523,0.3031006157398224,0.08457470685243607,0.17167872190475464
3.3859009742736816,-0.007548809051513672,0.0135270357131958,-0.08057719469070435,-0.8963846358498455,-1.0946543187231845,0.2898375215328333,-0.5549817085266113,0.7810744643211365,-0.2862135171890259,0.3426421284675598,0.12624776363372803,0.15039460361003876
3.4048919677734375,-0.010170340538024902,-0.007819533348083496,-0.03797602653503418,-0.8961640423637677,-1.0832759612756135,0.3008440163288588,-0.5518414378166199,0.7809366583824158,-0.29259032011032104,0.26722344756126404,0.14160852134227753,0.1399717628955841
3.424882173538208,-0.013097167015075684,-0.024296879768371582,-0.001306384801864624,-0.8963803271005409,-1.0748386821425406,0.3085177081537254,-0.5492044687271118,0.7810717821121216,-0.2971554398536682,0.1522163599729538,0.09512428939342499,0.11157898604869843
3.4437479972839355,0.005559384822845459,-0.02395927906036377,0.023591995239257812,-0.8971352707964115,-1.0696550865883447,0.31383950229540925,-0.547139585018158,0.781542956829071,-0.2997150123119354,0.11880845576524734,0.0024510775692760944,0.11476164311170578
3.4647622108459473,0.013802707195281982,-0.002034485340118408,0.03791821002960205,-0.8972609221554071,-1.0654391086943618,0.3200668661373177,-0.5457851886749268,0.7816213369369507,-0.3019714951515198,0.22711637616157532,-0.04233725741505623,0.0908275917172432
3.4846551418304443,-0.002855062484741211,0.016328752040863037,0.03651288151741028,-0.8962718643758938,-1.060115165499474,0.32856137021160575,-0.544843852519989,0.781004011631012,-0.3052505850791931,0.2841230034828186,-0.08048100024461746,0.07118277251720428
3.504634141921997,-0.0060233473777771,-0.0042438507080078125,0.043813884258270264,-0.8944475463187938,-1.0548018484688466,0.3379002453003346,-0.5444527864456177,0.7798634171485901,-0.308843731880188,0.31487950682640076,-0.12770211696624756,0.06479993462562561
3.5226240158081055,0.00708162784576416,-1.990795135498047e-05,0.03882265090942383,-0.8925527920722144,-1.050318277292614,0.3477223180993668,-0.5443435907363892,0.7786759734153748,-0.31201598048210144,0.31275543570518494,-0.18320497870445251,0.07040680944919586
3.5445752143859863,0.0013232827186584473,-0.003778815269470215,0.027664363384246826,-0.8906178891217411,-1.0471087141602373,0.35700746510295844,-0.544642984867096,0.777460515499115,-0.31451430916786194,0.28522899746894836,-0.2094651758670807,0.04267111048102379
3.5644490718841553,-0.009802579879760742,-0.0036711692810058594,0.024851739406585693,-0.8886295571692537,-1.045233836422895,0.36448731349199687,-0.5453885197639465,0.7762084603309631,-0.3163098096847534,0.2268006056547165,-0.1798640340566635,0.023514045402407646
3.585390090942383,-0.01589345932006836,-0.008044421672821045,-0.0003711283206939697,-0.8867102662021392,-1.0436686871375276,0.37062820441831024,-0.5461792945861816,0.7749969363212585,-0.31791186332702637,0.1982111632823944,-0.1319541335105896,0.004717875272035599
3.603328227996826,-0.019532203674316406,-0.0003940463066101074,-0.013011544942855835,-0.8847718869568555,-1.041685561561171,0.37596670707301977,-0.5468435287475586,0.7737705111503601,-0.319752037525177,0.18794718384742737,-0.07571376860141754,0.0010317036649212241
3.6232151985168457,-0.018664658069610596,-0.0005511045455932617,-0.027253031730651855,-0.8828302416380337,-1.0389271594127987,0.3808082942173905,-0.5472533106803894,0.7725390791893005,-0.32202062010765076,0.174350768327713,-0.02299569360911846,-0.017395690083503723
3.6422009468078613,-0.010277509689331055,-0.0015323162078857422,-0.025526344776153564,-0.8809172883925148,-1.0356391971113121,0.3848963990219034,-0.547461748123169,0.771323025226593,-0.32457125186920166,0.15438786149024963,0.030739616602659225,-0.019972773268818855
3.664095163345337,0.0009059309959411621,0.001362144947052002,-0.00930941104888916,-0.879080712335494,-1.0320902375097756,0.3885627820593111,-0.5475215315818787,0.7701528072357178,-0.32723838090896606,0.14713969826698303,0.037967972457408905,-0.009678853675723076
3.6852312088012695,0.006787359714508057,-0.0022062063217163086,0.007810026407241821,-0.877547446169964,-1.0290757124698156,0.39198703966503384,-0.5475435256958008,0.7691739201545715,-0.32949575781822205,0.11632401496171951,-0.0014008301077410579,0.005098461639136076
3.704586982727051,0.005941629409790039,-0.010307252407073975,0.016264647245407104,-0.8762570279313634,-1.0272227866777077,0.39486653175325953,-0.5477811694145203,0.7683486342430115,-0.33102288842201233,0.10534258931875229,-0.030198300257325172,0.001303591183386743
3.7242801189422607,0.0018622279167175293,0.005064845085144043,0.019193321466445923,-0.8750794641334975,-1.025656481633767,0.3980386852128515,-0.5480352640151978,0.7675944566726685,-0.33234938979148865,0.11810319870710373,-0.05503467470407486,0.010928603820502758
3.7429771423339844,-0.0008252859115600586,0.0036773085594177246,0.020136237144470215,-0.8741263219038018,-1.0236824300631946,0.40165237820419236,-0.5480028986930847,0.7669832110404968,-0.3338111340999603,0.12398671358823776,-0.04891783744096756,0.026175038889050484
3.762843132019043,-0.0003180503845214844,-0.0012962818145751953,0.012447625398635864,-0.8734596121914547,-1.022160179507206,0.4051535973675294,-0.5479303002357483,0.7665551900863647,-0.334911584854126,0.12384788691997528,-0.06284386664628983,0.02945549227297306
3.780947208404541,-0.0015941262245178223,-0.0013135075569152832,0.007764101028442383,-0.8728212564668529,-1.020842246038273,0.40873470671172174,-0.5479053854942322,0.7661451101303101,-0.3358890414237976,0.13138778507709503,-0.06578505784273148,0.030406944453716278
3.8027172088623047,-0.004333078861236572,-0.007053971290588379,0.0032494664192199707,-0.8721379072805051,-1.0195839665404287,0.4122312232157843,-0.5479282736778259,0.7657057642936707,-0.3368523418903351,0.12614706158638,-0.05460200086236,0.022652775049209595
3.822728157043457,-0.009627223014831543,-0.005762159824371338,0.007164567708969116,-0.8714580618975933,-1.0182276183288599,0.415291899590635,-0.5479136109352112,0.7652683258056641,-0.33786824345588684,0.12083300203084946,-0.02063906192779541,0.023361409083008766
3.841860055923462,-0.00825345516204834,-0.004949510097503662,0.007753878831863403,-0.8707885885547183,-1.016445741349125,0.41815280812347855,-0.5477463006973267,0.7648372054100037,-0.33911368250846863,0.08889180421829224,-0.004965027328580618,0.01972069963812828
3.863835096359253,-0.0024371743202209473,-0.010309755802154541,0.012479186058044434,-0.8705113400397012,-1.0152934565264098,0.42000886362427464,-0.5475354194641113,0.7646585702896118,-0.33985647559165955,0.034711726009845734,-0.008092998526990414,0.02400898188352585
3.879824161529541,-0.0015694499015808105,-0.013686537742614746,0.0073416829109191895,-0.8708026443764609,-1.0151260162666123,0.42053722024870005,-0.5472891926765442,0.7648462653160095,-0.3398306369781494,-0.01141749881207943,-0.0051790568977594376,0.0210011787712574
3.904609203338623,-0.005996525287628174,0.004846155643463135,0.007641732692718506,-0.8710736660960386,-1.0155489199148517,0.4201662314652765,-0.5472566485404968,0.7650208473205566,-0.33948981761932373,-0.019497808068990707,0.013129465281963348,0.010505693964660168
3.9223289489746094,-0.00812309980392456,0.005977272987365723,0.012658774852752686,-0.8714735999848946,-1.0153992303247628,0.41975408711614315,-0.5469459295272827,0.7652783393859863,-0.3394104540348053,-0.013627681881189346,0.03787093982100487,0.025812000036239624
3.941720962524414,0.00029528141021728516,0.005166351795196533,0.005502432584762573,-0.8718562456693685,-1.0147257908030496,0.42014579531957497,-0.5464683771133423,0.7655245661735535,-0.3396240472793579,0.03912105783820152,0.0021615917794406414,0.033156879246234894
3.9642462730407715,0.005357503890991211,0.015772998332977295,-0.0009498298168182373,-0.8715926039917767,-1.0132689434998539,0.42260954798320316,-0.5461441874504089,0.7653549313545227,-0.3405265510082245,0.11009812355041504,-0.03030136413872242,0.03632228821516037
3.9827990531921387,-0.002545177936553955,0.0010083317756652832,0.004471123218536377,-0.8709437704729593,-1.0113680183477034,0.4260361484836075,-0.545916736125946,0.764937162399292,-0.3418276309967041,0.10964040458202362,-0.03104403242468834,0.03367673233151436
4.004083156585693,-0.0020881295204162598,-0.016133368015289307,0.007025986909866333,-0.8706214824441818,-1.0103097272717443,0.42856663018348246,-0.5457634329795837,0.7647295594215393,-0.34253618121147156,0.061983734369277954,-0.049727704375982285,0.0305289588868618
4.020566940307617,0.005764126777648926,-0.01855236291885376,0.005062460899353027,-0.8707288643677434,-1.0105843427065464,0.4301091459726826,-0.5457879304885864,0.7647987008094788,-0.34234270453453064,0.03466023504734039,-0.08683193475008011,0.030002184212207794
4.041440963745117,0.0029892325401306152,-0.010220229625701904,0.0031314194202423096,-0.8711539565515358,-1.0114856059138353,0.4314235443791049,-0.5458205938339233,0.7650725245475769,-0.34167811274528503,0.02243286371231079,-0.09996211528778076,0.03183417394757271
4.0626702308654785,-0.012700498104095459,-0.007151663303375244,0.0008194446563720703,-0.8713411509749311,-1.012590716369355,0.4322334017033947,-0.5460763573646545,0.7651930451393127,-0.3409988284111023,0.011887544766068459,-0.06519854068756104,0.009197836741805077
4.082211017608643,-0.019248485565185547,-0.003107428550720215,-0.0013214647769927979,-0.8711981275304294,-1.013431660497441,0.4322187664673887,-0.546455979347229,0.7651009559631348,-0.3405974805355072,-0.007127691991627216,-0.011171790771186352,-0.012821977958083153
4.100476264953613,-0.01027137041091919,-0.007672429084777832,-0.0009305775165557861,-0.8709887458765793,-1.0139880194972921,0.43134103475773683,-0.5467811822891235,0.7649661302566528,-0.34037792682647705,-0.031949300318956375,0.02023904025554657,-0.021553263068199158
4.11984395980835,0.0013120174407958984,-0.007659733295440674,-0.000218123197555542,-0.8710875459341724,-1.0149001935639492,0.42977467082849496,-0.5470272898674011,0.765029788017273,-0.3398391902446747,-0.06103282421827316,0.0060355146415531635,-0.018386360257864
4.139888286590576,-0.0013679862022399902,-0.0071915388107299805,0.0017605125904083252,-0.8712611160229294,-1.016733173029736,0.4272801105452814,-0.5475364923477173,0.7651415467262268,-0.3387661278247833,-0.08506648987531662,0.011621939018368721,-0.035541824996471405
4.1628711223602295,-0.0020638108253479004,0.002615988254547119,-0.001771390438079834,-0.8712432073730375,-1.0187923384690207,0.4242101525832087,-0.5482444763183594,0.7651299834251404,-0.3376450538635254,-0.08118804544210434,0.020447032526135445,-0.043855633586645126
4.18353796005249,0.013733386993408203,0.0101204514503479,-0.008751273155212402,-0.8712240758285651,-1.0204874997332003,0.4217793885311169,-0.5488286018371582,0.7651177048683167,-0.3367229402065277,-0.05417190119624138,-0.008748047985136509,-0.019856983795762062
4.201589107513428,0.01900768280029297,0.012968361377716064,-0.006572842597961426,-0.8712089113335079,-1.0218944872614046,0.42078814202546017,-0.549311637878418,0.7651079297065735,-0.3359563946723938,-0.007132432889193296,-0.0548953041434288,-0.008181857876479626
4.221421241760254,0.0069866180419921875,0.015628576278686523,-0.00994613766670227,-0.8708216436412795,-1.022649577836086,0.421290222171293,-0.5498179793357849,0.7648584842681885,-0.33569589257240295,0.05377539247274399,-0.057969920337200165,-0.009599724784493446
4.240400075912476,0.0033954381942749023,0.020237267017364502,-0.013161659240722656,-0.8697320273633306,-1.0225159530098886,0.4231373153927851,-0.5504840612411499,0.7641561031341553,-0.33620354533195496,0.09341469407081604,-0.07130418717861176,-0.014935134910047054
4.2605061531066895,0.004311084747314453,0.007195889949798584,-0.005148082971572876,-0.8685423604554553,-1.0217092083661048,0.4259678366912937,-0.550987720489502,0.7633882164955139,-0.33712175488471985,0.1101083979010582,-0.07529662549495697,-0.010616401210427284
4.2832841873168945,-0.0019527673721313477,-0.004445314407348633,0.0024465620517730713,-0.8675959888394477,-1.0211274800028365,0.4283528078861727,-0.5514071583747864,0.7627765536308289,-0.3378194272518158,0.0722351223230362,-0.06023787334561348,-0.020945942029356956
4.302433013916016,-0.0006116628646850586,-0.014062464237213135,-3.930926322937012e-05,-0.8668005982349637,-1.021533342441989,0.4292104579519328,-0.5520616173744202,0.7622619867324829,-0.33791229128837585,0.02927287295460701,-0.0534072183072567,-0.03882599622011185
4.322090148925781,0.0009282231330871582,-0.00859522819519043,-0.007264494895935059,-0.8661337950210342,-1.0224141786655403,0.4289769332268686,-0.5527928471565247,0.76183021068573,-0.33769088983535767,-0.0013358891010284424,-0.02079973928630352,-0.0470360666513443
4.3420140743255615,-0.0038608908653259277,0.0029009580612182617,-0.009213507175445557,-0.8652999215138824,-1.0228944608441688,0.4282043879194526,-0.5534968972206116,0.7612897753715515,-0.33775606751441956,0.002463442971929908,0.0274504367262125,-0.05630163103342056
4.363134145736694,0.0028751492500305176,0.0096663236618042,-0.004405498504638672,-0.8644443459924327,-1.0227603289883953,0.427141574013503,-0.554007351398468,0.7607347369194031,-0.33816951513290405,-0.010307852178812027,0.059663768857717514,-0.05302533134818077
4.3819260597229,0.019477009773254395,0.005759596824645996,-0.005400180816650391,-0.8637166800424939,-1.0222673060473764,0.42629932533539155,-0.5543128252029419,0.7602622509002686,-0.33873122930526733,-0.00029412703588604927,0.04656340926885605,-0.03516322001814842
4.401872158050537,0.028811097145080566,0.007912695407867432,0.0014993548393249512,-0.8632210109462988,-1.0218465001104933,0.4259021817539073,-0.5544916987419128,0.7599401473999023,-0.33916106820106506,0.0004070834256708622,0.01909095048904419,-0.02180369757115841
4.420979022979736,0.025385558605194092,0.0018216967582702637,-0.0002592802047729492,-0.8630139643863969,-1.0216987058598568,0.4258136056146761,-0.5545756220817566,0.7598055601119995,-0.33932504057884216,0.0031489934772253036,0.003476749174296856,0.001541543984785676
4.441761016845703,0.02005702257156372,0.005414128303527832,-0.002877563238143921,-0.8632150037404728,-1.0214886393789036,0.42614598168942935,-0.5543739795684814,0.7599362134933472,-0.3393617570400238,0.014120897278189659,-0.009886725805699825,0.013714492321014404
4.460837125778198,0.008151829242706299,0.009683370590209961,-0.012499570846557617,-0.8632670211538844,-1.0207242746562424,0.42732939408429615,-0.5540808439254761,0.7599700689315796,-0.3397647738456726,0.04855116456747055,-0.009892763569951057,0.017487527802586555
4.479777097702026,0.0020197033882141113,0.009830653667449951,-0.007599174976348877,-0.863157768401968,-1.0189525277066844,0.42964306761591275,-0.5535486936569214,0.7598990201950073,-0.34078946709632874,0.07893487811088562,-0.0006813325453549623,0.02193484827876091
4.501625061035156,-0.000356137752532959,0.0026687979698181152,-0.0019209980964660645,-0.8630019426250429,-1.0168826066800138,0.432118217118663,-0.5529428124427795,0.7597977519035339,-0.34199684858322144,0.07159940898418427,0.004705354571342468,0.020573856309056282
4.520683288574219,-0.002774477005004883,-0.005074560642242432,-0.0010035037994384766,-0.862825128162293,-1.0151021220894683,0.4342280230936574,-0.5524470806121826,0.7596827745437622,-0.34305161237716675,0.05324326455593109,0.006298101972788572,0.012379983440041542
4.539809226989746,-0.0024355649948120117,-0.012570381164550781,0.006719142198562622,-0.8627369778571471,-1.014279007386922,0.4349524840784531,-0.5522213578224182,0.7596254348754883,-0.34354159235954285,-0.014068221673369408,0.014553191140294075,-0.008461624383926392
4.560538291931152,0.00471186637878418,-0.023759186267852783,0.008857250213623047,-0.8632596747366604,-1.0148354573468057,0.4335160924613825,-0.5520751476287842,0.7599652409553528,-0.34302470088005066,-0.08111198246479034,0.02359621971845627,-0.010625164955854416
4.582963943481445,0.013332843780517578,-0.009124398231506348,0.00031131505966186523,-0.8640793674733414,-1.016425781235316,0.43096542185000847,-0.5520901679992676,0.7604978084564209,-0.34181827306747437,-0.090789295732975,0.010028037242591381,-0.0034793424420058727
4.600330114364624,0.011540353298187256,0.00910794734954834,-0.00840267539024353,-0.8648110084652958,-1.0179708455937393,0.42879682570488314,-0.552143931388855,0.7609726786613464,-0.3406725525856018,-0.07980598509311676,-0.0009045056067407131,-0.0018769146408885717
4.619791030883789,0.006426334381103516,0.008698821067810059,-0.005192935466766357,-0.8653948416133956,-1.0193904018920246,0.4269164101380687,-0.552248477935791,0.7613512873649597,-0.33965563774108887,-0.06335267424583435,0.002639895537868142,-0.00020028580911457539
4.640408992767334,0.007663369178771973,0.008238136768341064,0.0017365813255310059,-0.8658231115890507,-1.0207076363216347,0.42529450048526,-0.5524173974990845,0.7616289258003235,-0.33875739574432373,-0.059430550783872604,-0.011861282400786877,-0.005593445617705584
4.659813165664673,0.01394045352935791,0.007300734519958496,0.003326416015625,-0.8662571931158392,-1.0219639785051522,0.42412683261016365,-0.5525604486465454,0.7619101405143738,-0.3378905951976776,-0.03056422993540764,-0.0233803428709507,0.0024858585093170404
4.680108070373535,0.008017539978027344,0.019942164421081543,-0.005126535892486572,-0.8664818081697199,-1.022298778337422,0.42413478413614525,-0.5525274872779846,0.7620555758476257,-0.33761632442474365,0.007102935574948788,-0.018338089808821678,0.009740768931806087
4.6997971534729,0.005380094051361084,0.009790122509002686,-0.007416039705276489,-0.8665364841000661,-1.0215977001148722,0.42505666654958074,-0.5522550940513611,0.7620909810066223,-0.33798184990882874,0.027703605592250824,0.008498582988977432,0.0129060298204422
4.719933986663818,0.005916178226470947,-0.0017199516296386719,-0.006420522928237915,-0.8667091026096886,-1.020581912391688,0.42592306475669334,-0.5517992973327637,0.7622027397155762,-0.3384738266468048,0.00886170007288456,0.02652507834136486,0.02229991741478443
4.73979115486145,0.005318105220794678,-0.005594134330749512,-0.0059967041015625,-0.8671783711702017,-1.0198061206105877,0.42614505763468674,-0.5512318015098572,0.7625064253807068,-0.3387145698070526,-0.012283158488571644,0.03322922810912132,0.011738049797713757
4.760204076766968,0.005824923515319824,-0.0037459731101989746,-0.00315171480178833,-0.8676945030529439,-1.0190039452125887,0.4261263230732895,-0.5506247282028198,0.7628402709960938,-0.3389503061771393,-0.014196226373314857,0.03776903077960014,0.01725032925605774
4.779829025268555,0.009054839611053467,-0.004203498363494873,0.003336608409881592,-0.8683788198767143,-1.018500326754325,0.42590952214226224,-0.5500094890594482,0.7632825374603271,-0.3389536440372467,-0.03386067599058151,0.02144225686788559,0.022662755101919174
4.801664113998413,0.004327595233917236,-0.005280733108520508,0.006798774003982544,-0.8691018767747579,-1.0187257136191388,0.42525238181422026,-0.5496158003807068,0.7637494802474976,-0.33854013681411743,-0.03891514241695404,0.007942338474094868,0.013718678615987301
4.820652008056641,-0.007348001003265381,0.00974959135055542,0.0019193291664123535,-0.8694793934884223,-1.018722063816386,0.42480088440000807,-0.5493689179420471,0.7639931440353394,-0.3383908271789551,-0.015334688127040863,0.028270334005355835,0.005614082328975201
4.839824199676514,-0.0066931843757629395,0.013735175132751465,-0.005227535963058472,-0.8695927982361986,-1.0178995002763493,0.4249418050643476,-0.5490165948867798,0.7640662789344788,-0.33879706263542175,0.009722287766635418,0.034746523946523666,0.009141680784523487
4.8608880043029785,0.002087831497192383,0.0050106048583984375,-0.004635453224182129,-0.8695876348867894,-1.0167410586018213,0.42567062532581446,-0.5486271381378174,0.7640629410743713,-0.339434951543808,0.02733486331999302,0.0198142658919096,0.013820789754390717
4.8798370361328125,0.006760656833648682,-0.004194140434265137,-0.0026702582836151123,-0.8695695651218838,-1.015953404178638,0.426413261407912,-0.5483713150024414,0.7640513181686401,-0.3398742079734802,0.02161978743970394,0.008044958114624023,0.011362241581082344
4.899777173995972,0.004558682441711426,-0.008954763412475586,0.0037840604782104492,-0.8697113557390307,-1.0156268847361156,0.42670459906097613,-0.5481683015823364,0.7641427516937256,-0.33999618887901306,-0.0013784067705273628,0.006581373978406191,0.006921726744621992
4.9198081493377686,-0.0010779500007629395,-0.0036075711250305176,0.0035840868949890137,-0.8699140437842108,-1.0155921840292361,0.4266190267853473,-0.5480248928070068,0.7642735242843628,-0.3399335443973541,-0.01301564835011959,0.009883693419396877,0.008121034130454063
4.93979024887085,-0.004159092903137207,0.000908195972442627,0.005400359630584717,-0.8701282827275377,-1.0156009177012368,0.42626227231073666,-0.5478886365890503,0.7644116282463074,-0.33984243869781494,-0.019098827615380287,0.012539842166006565,-0.0038669509813189507
4.9598002433776855,-0.0009511709213256836,-0.002072572708129883,0.003626525402069092,-0.8703258726861934,-1.0156297379897037,0.4257869487959358,-0.5477701425552368,0.7645390033721924,-0.3397470712661743,-0.01702519692480564,0.013101325370371342,0.0014625206822529435
4.979790210723877,0.0036774277687072754,0.0013083219528198242,0.00044277310371398926,-0.8705491106612923,-1.0156228314364477,0.4254911787148447,-0.5476226806640625,0.7646828889846802,-0.3396608531475067,-0.014662547037005424,0.010645091533660889,0.003826421219855547
4.999790191650391,0.001816391944885254,0.0018288493156433105,-0.0074713826179504395,-0.8707122483350241,-1.0155770269449047,0.4252015358558365,-0.5475012063980103,0.764788031578064,-0.3396202325820923,-0.002534378319978714,0.016818653792142868,0.0031945754308253527
5.019789218902588,0.001217663288116455,0.007432401180267334,-0.0015974640846252441,-0.8707067371466369,-1.0153314251732504,0.42525756656541097,-0.5474212765693665,0.7647844552993774,-0.33975687623023987,0.005198602564632893,0.010966002009809017,0.0008287631208077073
5.039791107177734,0.0005255341529846191,-0.0016242265701293945,0.00475659966468811,-0.8706009131292823,-1.0152026181182066,0.4253632894787481,-0.5474462509155273,0.7647162675857544,-0.33987003564834595,0.008193993009626865,-0.003881830954924226,-0.002140538766980171
5.059795141220093,0.0031780004501342773,-0.00044924020767211914,0.0027789175510406494,-0.8705060753470087,-1.0153730223266848,0.4255223630980729,-0.547565758228302,0.7646551728248596,-0.3398149609565735,0.006598133593797684,-0.02636059746146202,-0.002570593263953924
5.0797929763793945,0.004844009876251221,-0.0017262697219848633,-0.0016860365867614746,-0.8704514791335287,-1.0156811308073295,0.4257937569819502,-0.5477059483528137,0.7646200060844421,-0.33966827392578125,0.01403525099158287,-0.03501729294657707,0.0015102335019037127
5.099791049957275,0.0027581453323364258,0.0026206374168395996,0.00017559528350830078,-0.8704069450797397,-1.0161036920822741,0.4261991245276291,-0.5478783845901489,0.7645912766456604,-0.3394547402858734,0.015683041885495186,-0.03382348641753197,0.0038231639191508293
5.119789123535156,-0.0001704692840576172,3.9577484130859375e-05,0.000580906867980957,-0.8703159561518095,-1.0165170192236002,0.4264461223362092,-0.5480778813362122,0.7645326256752014,-0.3392649292945862,0.005865005310624838,-0.023331250995397568,-0.003812053706496954
5.139790058135986,-0.0010329484939575195,-0.00044924020767211914,0.0015210509300231934,-0.8702220280626409,-1.0167636052247737,0.4264817967470102,-0.5482224225997925,0.7644720673561096,-0.3391674757003784,-0.0013963030651211739,-0.00485033355653286,-0.008577985689043999
5.1597900390625,0.00015485286712646484,0.0022093653678894043,0.0005525350570678711,-0.8700745197670536,-1.0169684564450137,0.4262369274999292,-0.5483879446983337,0.7643769979476929,-0.3391145169734955,-0.009718281216919422,0.0014335722662508488,-0.014105498790740967
5.179800987243652,0.005006134510040283,0.0015587210655212402,0.0008948147296905518,-0.8699002241107351,-1.0173065884002355,0.4259004621861219,-0.5486157536506653,0.7642645835876465,-0.33899903297424316,-0.005132931284606457,-0.011933543719351292,-0.012496467679738998
5.199790000915527,0.006832003593444824,0.0021519064903259277,-0.0003063976764678955,-0.8697612946648304,-1.0177899464266749,0.4255977727400492,-0.5488699078559875,0.7641749978065491,-0.33878961205482483,-0.010646486654877663,-0.014395458623766899,-0.008037216030061245
5.2189812660217285,0.004346787929534912,0.0027378201484680176,-0.000784456729888916,-0.8696100106987873,-1.0182710907404446,0.42537120079838514,-0.5491313934326172,0.7640774250030518,-0.3385862112045288,0.004248253535479307,-0.013870283029973507,-0.009704449214041233
5.239623069763184,0.004811406135559082,0.009377002716064453,-0.0028309226036071777,-0.8693237481675948,-1.018372192433961,0.42564724786263175,-0.5493518114089966,0.7638927102088928,-0.33864548802375793,0.019870568066835403,-0.017819305881857872,-0.006876020692288876
5.259809970855713,0.007014870643615723,0.000583350658416748,-0.000559389591217041,-0.8690708844144448,-1.018310481045718,0.42616388846303127,-0.5494953393936157,0.7637295126914978,-0.3387807607650757,0.016803313046693802,-0.01859135739505291,-0.0009827075991779566
5.279794216156006,0.009650647640228271,-0.004937410354614258,-0.0008524954319000244,-0.8688771135772613,-1.018512927206174,0.42654265545327036,-0.5496897101402283,0.7636044025421143,-0.3387470245361328,0.01424378901720047,-0.029098059982061386,-0.007860152050852776
5.299795150756836,0.005541980266571045,0.003854691982269287,-0.0008001029491424561,-0.8687543344426023,-1.0188957269520458,0.4268573696529877,-0.5498992800712585,0.763525128364563,-0.3385857939720154,0.016055472195148468,-0.031248563900589943,-0.002371992450207472
5.319815158843994,0.001055300235748291,0.003866136074066162,0.0030246973037719727,-0.8685240166789008,-1.0191279900535695,0.4272985668918461,-0.5501275658607483,0.7633763551712036,-0.3385501801967621,0.021508999168872833,-0.02035747654736042,-0.005069216713309288
5.339790105819702,-0.00801008939743042,0.008703351020812988,0.0008525848388671875,-0.8681694251122551,-1.0187578635178076,0.428057947178108,-0.5502327084541321,0.763147234916687,-0.3388957381248474,0.04008975625038147,0.0014095151564106345,-0.0077472226694226265
5.3598222732543945,-0.0014724135398864746,0.0005834102630615234,0.0032778382301330566,-0.8677480673303636,-1.0181510391281363,0.42868905968217447,-0.5503007173538208,0.7628749012947083,-0.3393983840942383,0.008267415687441826,-0.005146388430148363,-0.011718093417584896
5.379841089248657,0.008933663368225098,-0.02128392457962036,0.00787419080734253,-0.8677503976679014,-1.018919129498797,0.428047162706637,-0.5505596399307251,0.7628763914108276,-0.33897462487220764,-0.041232094168663025,-0.0239942017942667,-0.018621396273374557
5.399795055389404,0.002865910530090332,-0.01265418529510498,0.00036466121673583984,-0.8679496621366614,-1.0205795007726721,0.4263806934577323,-0.5509921312332153,0.7630051970481873,-0.33798056840896606,-0.051860261708498,-0.012287566438317299,-0.023938864469528198
5.419791221618652,0.00024574995040893555,0.010639548301696777,-0.009280562400817871,-0.8680303849401855,-1.021742267094474,0.4248908827505706,-0.5513322353363037,0.7630574107170105,-0.33730751276016235,-0.02402917668223381,0.0006826496683061123,-0.01864473521709442
5.43979024887085,0.0067803263664245605,0.012613892555236816,-0.004361838102340698,-0.8679029777642819,-1.0223223306920868,0.4243418729603331,-0.5516106486320496,0.7629750370979309,-0.3370382487773895,-0.001039918977767229,-0.01924329809844494,-0.009334740228950977
5.45979118347168,0.009798228740692139,0.001294553279876709,-0.0010640621185302734,-0.8677337750698823,-1.022800472353233,0.4243591852322603,-0.5518819689750671,0.7628656625747681,-0.33684176206588745,0.008837172761559486,-0.03220641240477562,-0.0032482335809618235
5.47979211807251,0.005841732025146484,0.0036299824714660645,-0.00040155649185180664,-0.8674257606604712,-1.0233697734207425,0.4245990585489005,-0.5522742867469788,0.7626664638519287,-0.3366498053073883,0.019100863486528397,-0.04428846389055252,-0.007103281561285257
5.499790191650391,0.004274129867553711,0.004949212074279785,-0.0006035566329956055,-0.8670612091776511,-1.0235830939066184,0.4254855818492147,-0.5525835156440735,0.7624306082725525,-0.3366766571998596,0.04004281759262085,-0.04305737465620041,0.004208998754620552
5.519790172576904,-0.005627810955047607,0.0014180541038513184,0.002848803997039795,-0.8667645167391393,-1.023374957805364,0.4265321054891316,-0.5527065396308899,0.762238621711731,-0.3369094133377075,0.026627061888575554,-0.019806556403636932,-0.0041901287622749805
5.539792060852051,-0.007726788520812988,-0.009620904922485352,0.004337936639785767,-0.8665865334353641,-1.0234586559428323,0.42668298571640656,-0.5528505444526672,0.7621234059333801,-0.3369337022304535,-0.011485569179058075,0.0013803978217765689,-0.01119063701480627
5.559793949127197,-0.00047594308853149414,-0.014774620532989502,0.00194588303565979,-0.8667220633928772,-1.0241828520894734,0.4255438274998008,-0.5530060529708862,0.7622111439704895,-0.3364794850349426,-0.05281475558876991,0.009177068248391151,-0.02345573529601097
5.579791069030762,0.004075050354003906,-0.008797824382781982,-0.004286319017410278,-0.8671300669079606,-1.0255304826664464,0.42350753968150495,-0.5531930923461914,0.7624751925468445,-0.33557263016700745,-0.07545073330402374,0.01269297394901514,-0.019274044781923294
5.599792003631592,0.0037904977798461914,-0.0031746625900268555,-0.004772961139678955,-0.8676841436897608,-1.027034945820587,0.4209967255304145,-0.5533357858657837,0.7628335356712341,-0.33452141284942627,-0.08447027206420898,0.028933728113770485,-0.017436368390917778
5.6197919845581055,-0.0002334117889404297,0.004240989685058594,-0.004287660121917725,-0.8681091228987337,-1.0281987909040977,0.4185932051773324,-0.5534470677375793,0.7631083130836487,-0.3337097465991974,-0.07784834504127502,0.037395745515823364,-0.01790684089064598
5.639824151992798,0.006886720657348633,0.0030904412269592285,0.001328110694885254,-0.8684492979410912,-1.0291689132150281,0.4165129082249662,-0.5535480976104736,0.7633280754089355,-0.333038866519928,-0.05803573131561279,0.024718832224607468,-0.01131986454129219
5.659789085388184,0.009867250919342041,0.003917217254638672,-0.001284182071685791,-0.8687992695538759,-1.029918100082167,0.4150686650833121,-0.5535684823989868,0.7635540962219238,-0.33248651027679443,-0.04545944929122925,0.008935164660215378,-0.0051124426536262035
5.679790019989014,0.008232355117797852,0.0047951340675354,-0.0035396814346313477,-0.8690465934060206,-1.0308123978028083,0.4138428263583055,-0.5537035465240479,0.7637138366699219,-0.3318942189216614,-0.04122239723801613,-0.0049294293858110905,-0.007692927028983831
5.699790954589844,0.006705760955810547,-0.0017539262771606445,-0.006221294403076172,-0.8693113917332194,-1.031609548421956,0.41285655220200346,-0.5537943840026855,0.7638847231864929,-0.33134889602661133,-0.03015252947807312,-0.00029357639141380787,-0.005683280993252993
5.71987509727478,0.0009565353393554688,0.005615115165710449,-0.005533546209335327,-0.8695493301118096,-1.0321830781515036,0.4120007708808336,-0.553828239440918,0.7640382647514343,-0.330937922000885,-0.024157647043466568,0.013361870311200619,-0.005367754027247429
5.739826202392578,0.0014595985412597656,0.006070494651794434,-0.007952958345413208,-0.869623913143596,-1.0322833890928882,0.41137005663285425,-0.5538125038146973,0.7640863656997681,-0.330853134393692,-0.012975048273801804,0.018146328628063202,-0.007913969457149506
5.7599101066589355,0.008358776569366455,0.00483858585357666,-0.004839450120925903,-0.869617629009889,-1.032231435084192,0.41108984161626433,-0.5537993907928467,0.7640823125839233,-0.3308843672275543,-0.0058174170553684235,0.0019277662504464388,-0.008612319827079773
5.779868125915527,0.008184075355529785,0.005761682987213135,-0.004178524017333984,-0.8694404432122937,-1.0323206266644034,0.41108786771402006,-0.5539452433586121,0.7639679908752441,-0.33090445399284363,0.00629795528948307,-0.011151639744639397,-0.010263590142130852
5.79987907409668,0.0051111578941345215,0.0075362324714660645,-0.00055733323097229,-0.8691732336700366,-1.0322804190745534,0.4113892205443934,-0.5541070699691772,0.7637955546379089,-0.33103135228157043,0.016882048919796944,-0.006947928108274937,-0.005751871503889561
5.819797039031982,0.006776928901672363,-0.0002289414405822754,0.002577483654022217,-0.8690527138763322,-1.0321881088002847,0.41164033707278125,-0.5541555285453796,0.763717770576477,-0.33112969994544983,0.0030705234967172146,-0.007824019528925419,-0.0016140816733241081
5.8398520946502686,0.008096814155578613,-0.0011001825332641602,-0.002312898635864258,-0.8689841151400228,-1.0323054179799425,0.4118493510001296,-0.5542394518852234,0.7636734843254089,-0.33109161257743835,0.009460072964429855,-0.022211037576198578,-0.0029432903975248337
5.8597612380981445,0.006643354892730713,0.004695773124694824,2.1159648895263672e-05,-0.8689405007870965,-1.03252993825083,0.4121706652348657,-0.5543423891067505,0.7636452913284302,-0.3309842646121979,0.010391021147370338,-0.024120701476931572,0.0009822340216487646
5.879843235015869,0.0017414689064025879,-0.0020794272422790527,0.0003459155559539795,-0.868917563091982,-1.0327035043616235,0.4124231696224901,-0.5544148683547974,0.7636305093765259,-0.3308970630168915,0.008971329778432846,-0.016483109444379807,-0.003064291551709175
5.89978814125061,0.0033722519874572754,0.0038381218910217285,-0.004533112049102783,-0.8688036777898318,-1.0328871024855222,0.412654047828896,-0.5545502305030823,0.763556957244873,-0.33083975315093994,0.013558890670537949,-0.020638085901737213,-0.002365191001445055
5.919795036315918,0.002027153968811035,0.0015218853950500488,0.0026081502437591553,-0.8687751887104771,-1.0329619875722011,0.4130493271968171,-0.5545936822891235,0.7635385990142822,-0.3308093547821045,0.012042074464261532,-0.013221891596913338,0.003426519688218832
5.939781188964844,-6.73532485961914e-05,0.0022199153900146484,-0.005015373229980469,-0.8686631464424271,-1.0327277510420754,0.41349680448502457,-0.5545896291732788,0.7634662389755249,-0.33098310232162476,0.015727834776043892,-0.004979852586984634,-0.004583542700856924
5.959794998168945,0.0075716376304626465,-0.008108913898468018,-0.0013515949249267578,-0.8686373579977154,-1.032797949781751,0.4135690574297418,-0.5546297430992126,0.7634495496749878,-0.33095425367355347,-0.015847455710172653,-0.007722908165305853,0.004280162509530783
5.979794979095459,0.002554774284362793,-0.009711205959320068,0.0008348822593688965,-0.8689683022900423,-1.03346436364251,0.41274138151361467,-0.5546330809593201,0.7636632919311523,-0.3304552137851715,-0.0372200645506382,0.00215164921246469,-0.007946561090648174
5.999817132949829,-0.0024828314781188965,0.011060655117034912,-0.005603820085525513,-0.8690792209160002,-1.033770416262271,0.4120334528878278,-0.5546612739562988,0.7637348771095276,-0.3302420377731323,-0.00010795891284942627,0.015739718452095985,-0.008321497589349747
6.01979398727417,0.004658102989196777,0.018435657024383545,-0.00499376654624939,-0.8688588046758473,-1.0331010372448362,0.4126271615773264,-0.554584801197052,0.763592541217804,-0.33069953322410583,0.04404750466346741,0.004376365337520838,0.008618103340268135
6.039798259735107,0.005843698978424072,0.006630420684814453,0.0008646547794342041,-0.86852045406167,-1.0320483360109105,0.41412329858986074,-0.5544582605361938,0.7633740305900574,-0.3314158022403717,0.05207034572958946,-0.008796161971986294,0.011567636393010616
6.059792995452881,0.00048792362213134766,-0.0074076056480407715,0.005306243896484375,-0.868307580294078,-1.031260530697523,0.4152864288723283,-0.5543361902236938,0.7632365226745605,-0.331935852766037,0.017169272527098656,-0.005296413321048021,0.004982654470950365
6.079743146896362,0.005519270896911621,-0.014633595943450928,0.0073274970054626465,-0.8682972620361598,-1.0312276677754875,0.41560491811957656,-0.5543321371078491,0.7632298469543457,-0.33195817470550537,0.005100158508867025,-0.01958169788122177,0.009455760940909386
6.099861145019531,0.006895184516906738,-0.007604658603668213,0.0030324161052703857,-0.868518299365867,-1.0315800148472534,0.4159517615551355,-0.554304301738739,0.7633726596832275,-0.3316762149333954,0.003825569525361061,-0.04377864673733711,0.010743931867182255
6.1197919845581055,-0.004102826118469238,-0.0011005997657775879,0.0026886463165283203,-0.8687248827668648,-1.0319991612892079,0.41623460595589656,-0.5543078780174255,0.7635061144828796,-0.33136290311813354,-0.0026959655806422234,-0.018697084859013557,0.005257787648588419
6.139794111251831,-0.012061595916748047,0.0004369020462036133,0.001327812671661377,-0.8687776921297683,-1.0322146075543464,0.41607134206269536,-0.554344654083252,0.7635402083396912,-0.331222802400589,-0.011036001145839691,0.009147418662905693,-0.0011735297739505768
6.159825086593628,-0.0036242008209228516,0.002375483512878418,0.0008030533790588379,-0.8688475112566176,-1.0322586186114888,0.4156907337323971,-0.5543134212493896,0.7635852694511414,-0.33117103576660156,-0.01805855706334114,0.01595250517129898,-0.00029339513275772333
6.179810047149658,0.0013645291328430176,-0.004408061504364014,0.0014094710350036621,-0.8690500130451564,-1.0322878721575486,0.4152314879743513,-0.554190456867218,0.7637160420417786,-0.3310755491256714,-0.025200221687555313,0.012506996281445026,0.00218559755012393
6.199820041656494,0.0028017759323120117,-0.007277131080627441,0.004016458988189697,-0.869287036560095,-1.0328127412270052,0.4143636153692023,-0.5542086362838745,0.7638689875602722,-0.3306918442249298,-0.03753417357802391,-0.0016378514701500535,-0.003364257514476776
6.219792127609253,0.005729734897613525,-0.005331277847290039,0.003787130117416382,-0.8696054555396299,-1.0337174380423333,0.41332677384824323,-0.5542984008789062,0.764074444770813,-0.3300657570362091,-0.032876983284950256,-0.006228075362741947,0.005466162227094173
6.2397942543029785,0.00010329484939575195,0.0051351189613342285,-0.0019061565399169922,-0.8698913781939162,-1.0343450544096864,0.41276412624181746,-0.5543177723884583,0.764258861541748,-0.32960623502731323,-0.012844646349549294,-0.011530074290931225,0.0034835650585591793
6.259793281555176,-0.003534853458404541,0.009641587734222412,-0.002807050943374634,-0.8700252718679103,-1.0344995080306836,0.4127385154023315,-0.554280698299408,0.7643452286720276,-0.3294682800769806,0.0035504386760294437,0.0003678640350699425,0.005135422572493553
6.279795169830322,-0.004859805107116699,0.000776827335357666,0.0007915794849395752,-0.870024543701961,-1.0343667971605284,0.41287576677617205,-0.5542375445365906,0.7643447518348694,-0.32954221963882446,-0.0014310041442513466,-0.0009377062087878585,0.0008932516211643815
6.2997941970825195,0.0011798739433288574,-0.00408935546875,0.003867208957672119,-0.870093360575174,-1.0344954992546092,0.41289565021482855,-0.5542346835136414,0.764389157295227,-0.32944396138191223,0.0005995631217956543,-0.014374862425029278,0.005330902058631182
6.319828033447266,0.0012139678001403809,-0.009893238544464111,0.002745598554611206,-0.870291383448551,-1.0349480896245462,0.4126704586367306,-0.5542536377906799,0.7645167708396912,-0.3291158378124237,-0.023880720138549805,-0.012541187927126884,0.0016700556734576821
6.3397932052612305,-0.005636036396026611,-0.006346344947814941,0.00425642728805542,-0.8705883950377309,-1.0355920343153036,0.4117901448329173,-0.5542699694633484,0.7647082209587097,-0.32864296436309814,-0.03889142721891403,0.01283811591565609,-0.0059632002376019955
6.3597941398620605,-0.005547642707824707,-0.0002446174621582031,0.0005295872688293457,-0.8708043701109054,-1.036107615665647,0.41057917449580705,-0.5542973875999451,0.7648473978042603,-0.32827305793762207,-0.03952600806951523,0.02545066922903061,-0.0038253655657172203
6.379794120788574,0.0011506080627441406,0.0045204758644104,-0.0020617544651031494,-0.8710817126192,-1.036430698578558,0.40950378636142387,-0.5542206168174744,0.7650260329246521,-0.3279857933521271,-0.032872218638658524,0.024381056427955627,-0.006471350323408842
6.399834156036377,0.00434112548828125,0.0003154873847961426,-0.000883251428604126,-0.8713089673178599,-1.0367050915788572,0.4086364998353883,-0.5541611313819885,0.7651723623275757,-0.3277452886104584,-0.02656722255051136,0.017029043287038803,-0.0005710403202101588
6.419793128967285,0.0015590190887451172,0.0018977522850036621,0.0006675422191619873,-0.8715055771931307,-1.03685237849311,0.40793746270802406,-0.5540797710418701,0.7652989029884338,-0.3275870382785797,-0.025694265961647034,0.0247562937438488,0.0021087396889925003
6.439815044403076,-0.002684950828552246,-0.00032079219818115234,0.002918541431427002,-0.8717047137854271,-1.0367807170121097,0.40716215733861466,-0.5539251565933228,0.7654270529747009,-0.3275492191314697,-0.03305676206946373,0.04198596999049187,-0.003149909432977438
6.459794998168945,0.0006791353225708008,-0.0022298693656921387,0.003472566604614258,-0.8720631297183352,-1.036685204541553,0.4061640775107953,-0.5536576509475708,0.7656576633453369,-0.32746240496635437,-0.04060015082359314,0.0392066054046154,-0.0013983809622004628
6.479804992675781,0.0024126172065734863,-0.0023076534271240234,0.0045819878578186035,-0.8725399249210591,-1.0368812300258397,0.40506187240646546,-0.5534074902534485,0.7659642696380615,-0.3271680176258087,-0.0466693751513958,0.029619937762618065,0.004457532893866301
6.499794960021973,-0.0039029717445373535,0.0009229779243469238,0.004670858383178711,-0.8730926192929818,-1.0370207396439324,0.40384377359289364,-0.5530886054039001,0.7663194537162781,-0.32687538862228394,-0.04752783104777336,0.05373565852642059,0.0031284394208341837
6.5198280811309814,-0.010578930377960205,0.0008109211921691895,0.00283890962600708,-0.8736947974312224,-1.0366250232264573,0.4024008597048487,-0.5525619983673096,0.7667062282562256,-0.3268592357635498,-0.0576479397714138,0.09397974610328674,0.0012027110205963254
6.539798259735107,-0.0037816762924194336,-0.005112826824188232,0.0007249414920806885,-0.8743656499933772,-1.036414177087562,0.400391212563299,-0.5520502328872681,0.7671367526054382,-0.3267136514186859,-0.09016065299510956,0.07896449416875839,-0.002864583395421505
6.55980110168457,0.0010774731636047363,-0.012398958206176758,0.003059178590774536,-0.8753534718759477,-1.0371257005472274,0.39742363361386546,-0.5516297817230225,0.7677700519561768,-0.32593509554862976,-0.124535471200943,0.07983721047639847,-0.011362558230757713
6.5797929763793945,-0.0022950172424316406,-0.0008837580680847168,-8.827447891235352e-05,-0.8762433931713526,-1.038135922759363,0.39382859978955836,-0.5513702034950256,0.7683399319648743,-0.32503068447113037,-0.10540757328271866,0.09301479905843735,-0.025526046752929688
6.599792957305908,0.001078784465789795,0.02119380235671997,-0.006373494863510132,-0.8766041923745657,-1.038265518721906,0.39146932976895565,-0.5511735081672668,0.7685707807540894,-0.32481849193573,-0.04274206608533859,0.0775919035077095,-0.0143181337043643
6.619832992553711,0.005275905132293701,0.01722317934036255,-0.0034339427947998047,-0.8765854338640213,-1.0372916352196693,0.3909374092259584,-0.5508691668510437,0.7685588002204895,-0.3253623843193054,0.005425730254501104,0.060091469436883926,0.0011258034501224756
6.6398351192474365,0.006758987903594971,0.0050667524337768555,-0.0020241141319274902,-0.8763631013209638,-1.0360532875200146,0.3912767597205876,-0.5506128072738647,0.7684165239334106,-0.32613134384155273,0.013957805931568146,0.03910522535443306,-0.0013598036020994186
6.659808158874512,0.011831164360046387,-0.004896402359008789,0.006740570068359375,-0.8762664802587704,-1.0353624803205541,0.391549684279045,-0.5504511594772339,0.7683547139167786,-0.3265494704246521,0.0021511740051209927,0.010123023763298988,0.006519298069179058
6.6797990798950195,0.0108528733253479,-0.004918694496154785,0.00703313946723938,-0.8765874520151137,-1.0352121726642032,0.39165386875442676,-0.5501900315284729,0.7685601115226746,-0.3265063464641571,-0.011842379346489906,1.6060424968600273e-05,0.013889510184526443
6.699794292449951,-0.0032979846000671387,0.0013297796249389648,0.003023087978363037,-0.8769810685026704,-1.0350092112205798,0.3915199685747895,-0.5498636364936829,0.7688118815422058,-0.32646360993385315,-0.010395856574177742,0.027408715337514877,0.001190284499898553
6.719799995422363,-0.007385075092315674,0.010899841785430908,0.0010100603103637695,-0.8771198859353855,-1.034269462891874,0.3913956556537097,-0.5495302081108093,0.7689006328582764,-0.326815664768219,-0.003673132974654436,0.053137604147195816,-0.00016185990534722805
6.739795207977295,0.0022823214530944824,0.006160378456115723,0.0018128156661987305,-0.8772060179893265,-1.0331632607265673,0.39138146942360375,-0.549111545085907,0.7689557075500488,-0.32738953828811646,0.0004838351160287857,0.06037651747465134,0.005417610052973032
6.759818077087402,0.00823444128036499,0.0021212100982666016,-0.0024489164352416992,-0.8773899804322928,-1.0320940697902572,0.39140860458860893,-0.548639714717865,0.7690733075141907,-0.3279038369655609,-0.0054289414547383785,0.04567800089716911,0.006887228228151798
6.779795169830322,0.007836401462554932,-0.0013330578804016113,-0.0008015632629394531,-0.8775423325623685,-1.0313733748023621,0.39131339804458704,-0.5483027100563049,0.7691706418991089,-0.32823893427848816,-0.00593211967498064,0.037268444895744324,0.004862750880420208
6.799793243408203,0.0030684471130371094,0.0002638697624206543,0.0034297704696655273,-0.87769379486662,-1.0307266948642428,0.3912060216333926,-0.5479903221130371,0.7692674398422241,-0.32853350043296814,-0.0016915141604840755,0.0322498083114624,0.00719153368845582
6.819796085357666,0.005466878414154053,0.0053969621658325195,0.0029098689556121826,-0.8778513075047462,-1.0300300667340276,0.39141559789921365,-0.5476574301719666,0.769368052482605,-0.3288527727127075,0.01083744689822197,0.020900392904877663,0.010788287967443466
6.839794158935547,0.004534780979156494,0.0065184831619262695,0.002826601266860962,-0.8779828837003766,-1.0292229342974308,0.3921768084750362,-0.5473052263259888,0.7694520950317383,-0.32924261689186096,0.024780213832855225,0.001577116665430367,0.015491013415157795
6.859885215759277,0.0036998391151428223,0.0018068552017211914,0.004016280174255371,-0.8780253207681886,-1.028579627919359,0.3931050642024188,-0.5470653176307678,0.7694792151451111,-0.329577773809433,0.021576523780822754,-0.011348536238074303,0.015972774475812912
6.879793167114258,0.0015924572944641113,-0.004999339580535889,0.003645181655883789,-0.8780742759609428,-1.0284413041722829,0.3936959189141128,-0.5469873547554016,0.7695104479789734,-0.3296339213848114,0.006793929263949394,-0.01896810531616211,0.009016605094075203
6.899792194366455,0.0001608729362487793,-0.006770908832550049,0.0021969974040985107,-0.8783156008339388,-1.0287936453613227,0.39377875797185263,-0.5469443202018738,0.7696645855903625,-0.32934534549713135,-0.008837534114718437,-0.02405492030084133,0.0075597092509269714
6.919793128967285,-0.0032387375831604004,-9.638071060180664e-05,0.0007708370685577393,-0.8786402283324887,-1.029128945869408,0.3936265521832018,-0.5468406081199646,0.7698717713356018,-0.32903310656547546,-0.009805021807551384,-0.0007856397423893213,0.010338598862290382
6.939803123474121,0.0022370219230651855,0.002717137336730957,-0.0007191598415374756,-0.8789178712832091,-1.0293082746532916,0.3935096194878946,-0.5467163920402527,0.770048975944519,-0.32882484793663025,-0.00174669548869133,-0.010431963950395584,0.0052656871266663074
6.959794998168945,0.006558716297149658,0.004342854022979736,-0.0012968778610229492,-0.8790964032779455,-1.0293982381970537,0.39380295910037705,-0.5466283559799194,0.77016282081604,-0.32870492339134216,0.01123215351253748,-0.01709563657641411,0.016342245042324066
6.979839086532593,-0.0007774233818054199,0.004924178123474121,-0.0001252889633178711,-0.8792136146876895,-1.0291796023895772,0.39444996513839364,-0.5464790463447571,0.7702375650405884,-0.32877784967422485,0.01351739838719368,-0.008133744820952415,0.012010912410914898
6.999790191650391,-0.003026247024536133,0.002118706703186035,0.005234420299530029,-0.8792103087544509,-1.0289235087384418,0.3949415791356964,-0.5463969707489014,0.7702354788780212,-0.32891908288002014,0.013345837593078613,-0.008075776509940624,0.006541996728628874
7.019813060760498,0.0014429092407226562,-0.0015221834182739258,0.006246775388717651,-0.8792967948893053,-1.028767223824951,0.39542154783357475,-0.5462885499000549,0.7702906131744385,-0.32897016406059265,0.007565167732536793,-0.012308427132666111,0.01130005344748497
7.0397961139678955,0.0017716288566589355,-0.003116011619567871,0.002157270908355713,-0.8794271699250868,-1.0288682785690555,0.395701946845904,-0.5462357997894287,0.7703737616539001,-0.32886314392089844,0.0007408969104290009,-0.01793621852993965,0.006244316231459379
7.059793949127197,-0.0011979341506958008,-0.005532324314117432,-0.0008669495582580566,-0.8795553329338579,-1.029143591736174,0.39567379598529057,-0.5462416410446167,0.7704554796218872,-0.32866182923316956,-0.008355889469385147,-0.009107307530939579,0.0023866300471127033
7.0797929763793945,-0.0028349757194519043,-0.0004139542579650879,0.000283658504486084,-0.8797363719036275,-1.029447631591786,0.3952929957668431,-0.5462220311164856,0.7705708742141724,-0.3284238874912262,-0.01821403205394745,0.01131487637758255,0.0011021950049325824
7.099821090698242,-0.0011616945266723633,0.002407848834991455,-0.0037966370582580566,-0.8799296429706696,-1.029402340791134,0.39501809996263976,-0.5460795760154724,0.7706940770149231,-0.32837188243865967,-0.004329695366322994,0.016411367803812027,0.005222810432314873
7.119877099990845,0.0041124820709228516,-0.0008108019828796387,0.0003319382667541504,-0.8801436388064589,-1.0293983480641307,0.3947963836100703,-0.5459368228912354,0.7708303928375244,-0.3282890319824219,-0.02195308357477188,-0.0024407943710684776,0.003396709216758609
7.139793157577515,0.003997445106506348,-0.010758519172668457,0.002709805965423584,-0.8804535067723864,-1.03018370487898,0.3939078132635969,-0.5459896922111511,0.7710277438163757,-0.3277372121810913,-0.0432601161301136,-0.003316264133900404,-0.0036559849977493286
7.159794092178345,-0.0006114840507507324,0.006248056888580322,-0.0020793378353118896,-0.8806800908545815,-1.0309652765362256,0.3928718479236993,-0.546095609664917,0.771172046661377,-0.32722049951553345,-0.021643729880452156,0.008723531849682331,-0.006073454860597849
7.179794073104858,0.0009827613830566406,0.01826298236846924,-0.008463740348815918,-0.8805744816881786,-1.030634245218193,0.39296077294509096,-0.5460572242736816,0.7711048126220703,-0.3274432122707367,0.023250719532370567,0.015690715983510017,0.006039594300091267
7.199792146682739,0.004145503044128418,0.010399580001831055,-0.006140649318695068,-0.880366836001903,-1.029576522182583,0.3940054102626607,-0.5458478331565857,0.7709725499153137,-0.32810306549072266,0.0368608720600605,0.009376184083521366,0.008807990700006485
7.219810962677002,0.0031321048736572266,-0.0020870566368103027,0.0007113218307495117,-0.8801350509503284,-1.0287654719786905,0.3949301933557128,-0.5457346439361572,0.7708249092102051,-0.32863789796829224,0.022422662004828453,0.003177853999659419,0.006881082430481911
7.239795207977295,0.009034514427185059,-0.010096132755279541,0.0052565038204193115,-0.8801084001544485,-1.028564605333035,0.39540489527419864,-0.5456861853599548,0.7708079218864441,-0.3287580907344818,0.006894543766975403,-0.02322445809841156,0.004251296631991863
7.259843111038208,0.0061945319175720215,-0.0028963685035705566,0.004307985305786133,-0.8801838650717393,-1.0288497017713174,0.39585963353035586,-0.5457300543785095,0.7708560228347778,-0.32857248187065125,0.013670369982719421,-0.03961062431335449,0.009617205709218979
7.279794216156006,-0.0035799145698547363,-0.0012883543968200684,0.001110851764678955,-0.8802705997819499,-1.0291367430037521,0.3963205946217491,-0.5457670092582703,0.7709112763404846,-0.32838132977485657,0.003208236303180456,-0.028151927515864372,0.0051161726005375385
7.299893140792847,-0.0061359405517578125,-0.006026208400726318,0.0009275376796722412,-0.8803782287394016,-1.0295620282284432,0.39625998445877264,-0.5458354949951172,0.7709798216819763,-0.32810643315315247,-0.012537490576505661,-0.011979438364505768,-0.0018073620740324259
7.319852113723755,-0.005565941333770752,-0.003345191478729248,-0.005018025636672974,-0.8804333174666907,-1.0300152877386626,0.39578987805865473,-0.5459476709365845,0.7710148692131042,-0.32783710956573486,-0.00721768056973815,0.0006997827440500259,-0.009321339428424835
7.339811086654663,-0.002366960048675537,0.003471195697784424,-0.0060343146324157715,-0.8802723690957549,-1.0300932607861006,0.39556125193892405,-0.546079695224762,0.7709124088287354,-0.32785844802856445,0.003738870844244957,0.003157525323331356,-0.014682400971651077
7.359807014465332,-0.001166224479675293,0.0009709596633911133,-0.0021678507328033447,-0.879981684141547,-1.0300979221275548,0.39547207769310067,-0.546273410320282,0.7707272171974182,-0.32797127962112427,0.00947333499789238,0.004054655320942402,-0.012174965813755989
7.3798112869262695,0.001261591911315918,0.002893805503845215,-0.0028987228870391846,-0.8796221239098824,-1.0299371945928848,0.3956537460713922,-0.5464581847190857,0.7704980373382568,-0.3282017409801483,0.018566979095339775,-0.0015325677813962102,-0.011251435615122318
7.3991379737854,0.0032135844230651855,0.0028454065322875977,-0.004399597644805908,-0.8792192275528847,-1.0295417765260957,0.39617252910356365,-0.5465943813323975,0.7702412009239197,-0.3285776674747467,0.02770078368484974,-0.00048683315981179476,-0.0001768064685165882
7.419785976409912,0.0046631693840026855,-0.0003650784492492676,-0.0018486976623535156,-0.8789178921506379,-1.0290298668361255,0.3968879856930898,-0.5466248989105225,0.770048975944519,-0.3289770781993866,0.024744659662246704,-0.006311699282377958,0.00035104353446513414
7.439759254455566,0.003937900066375732,-0.004144728183746338,-0.002723097801208496,-0.8786238183081904,-1.0286938439663382,0.3975036364609358,-0.5467082858085632,0.7698613405227661,-0.32927757501602173,0.023580485954880714,-0.013138978742063046,-0.004147489555180073
7.459761142730713,0.002414524555206299,-0.002721846103668213,0.0005331635475158691,-0.878378849518267,-1.0285815565061223,0.39797787992277783,-0.5468329191207886,0.7697049379348755,-0.3294363021850586,0.015741683542728424,-0.012880918569862843,-0.0032096179202198982
7.479743003845215,0.000802159309387207,-0.006228208541870117,0.0024607479572296143,-0.8782067790635897,-1.0286694202558944,0.3981660251877991,-0.546975314617157,0.7695950865745544,-0.3294565975666046,0.005410363897681236,-0.009537408128380775,-0.005641814321279526
7.499760150909424,0.0015972256660461426,-0.0017423033714294434,4.786252975463867e-05,-0.8780874208278499,-1.0287597466709444,0.39833375673799276,-0.5470837354660034,0.7695188522338867,-0.32945457100868225,0.00885767862200737,-0.010974006727337837,-0.001340653863735497
7.51979398727417,-0.006448864936828613,0.0007233619689941406,-0.0006395578384399414,-0.8778582562566455,-1.0285648858727685,0.3986205857382142,-0.5471705198287964,0.7693725228309631,-0.32965216040611267,0.00976997148245573,0.009420037269592285,-0.008399794809520245
7.539746284484863,-0.012674570083618164,-0.0035332441329956055,0.0025770962238311768,-0.8775946394928579,-1.0283154071563971,0.3983400996715017,-0.5472618937492371,0.7692040801048279,-0.3298933207988739,-0.016102371737360954,0.03704731538891792,-0.0182654969394207
7.559797286987305,-0.01309216022491455,-0.01015615463256836,0.009472161531448364,-0.8775238693292935,-1.0283423091397188,0.3969083527952762,-0.547317385673523,0.7691588401794434,-0.3299066722393036,-0.06556390225887299,0.07245998829603195,-0.028964010998606682
7.579791069030762,-0.0075095295906066895,-0.01534944772720337,0.010724633932113647,-0.8778426660476939,-1.0289731370715098,0.39391358818820343,-0.547315239906311,0.7693625092506409,-0.329434871673584,-0.11165938526391983,0.08568072319030762,-0.041628483682870865
7.599818229675293,-0.0036536455154418945,-0.01162499189376831,0.007468968629837036,-0.8782466984593553,-1.030279514708233,0.3897426749918091,-0.5474784970283508,0.7696205973625183,-0.3285595774650574,-0.14063839614391327,0.09904508292675018,-0.055351197719573975
7.619794130325317,0.0028229951858520508,-0.008221864700317383,0.0028761625289916992,-0.8786285835776382,-1.032232513439281,0.38477329298405993,-0.547866940498352,0.7698643803596497,-0.3273390233516693,-0.14733606576919556,0.0961306095123291,-0.06776983290910721
7.6397950649261475,0.008201658725738525,0.0014796257019042969,-0.0071287453174591064,-0.8790160500218025,-1.0343948975268398,0.3796612672968342,-0.548317015171051,0.7701115608215332,-0.3260010778903961,-0.14208351075649261,0.08148757368326187,-0.060722287744283676
7.659794092178345,0.012474656105041504,0.011057496070861816,-0.015421032905578613,-0.8793583446202883,-1.0363596069990193,0.37521122499075105,-0.5487295389175415,0.7703298926353455,-0.3247888684272766,-0.114035964012146,0.0739583745598793,-0.041083671152591705
7.679800987243652,0.01155698299407959,0.021082520484924316,-0.017704039812088013,-0.8794540293028335,-1.0372536803759784,0.3723769987718811,-0.5489562153816223,0.7703909277915955,-0.3242606222629547,-0.04840635508298874,0.059584226459264755,-0.032656095921993256
7.699794292449951,0.012103080749511719,0.021345436573028564,-0.016162872314453125,-0.8791374984030381,-1.0367848548660545,0.3715485446520231,-0.549014151096344,0.7701890468597412,-0.3246421217918396,0.010735554620623589,0.044505588710308075,-0.018371541053056717
7.719803094863892,0.016551554203033447,0.009038031101226807,-0.0018247365951538086,-0.8786730339033535,-1.0360976052496276,0.3718478200637459,-0.549098551273346,0.7698927521705627,-0.3252016007900238,0.0175443384796381,0.0009873153176158667,-0.012951875105500221
7.739795207977295,0.010652422904968262,-0.0031288862228393555,0.0017825067043304443,-0.87834703156069,-1.0358747172747258,0.3723890102257855,-0.5492419004440308,0.7696846127510071,-0.3254518508911133,0.027085205540060997,-0.020173273980617523,-0.008442124351859093
7.759794235229492,1.0609626770019531e-05,0.00813215970993042,-0.000987231731414795,-0.8778692155376927,-1.035258282616116,0.373351319672956,-0.549357533454895,0.7693794965744019,-0.3259780704975128,0.04492009058594704,-0.002484381664544344,-0.014411459676921368
7.779803276062012,0.0011082887649536133,0.0027564167976379395,-0.002850085496902466,-0.8772797010575214,-1.0341545551913467,0.37457249940271686,-0.5493871569633484,0.7690027952194214,-0.3268160820007324,0.049163009971380234,0.006434633396565914,-0.013146617449820042
7.7998270988464355,0.0026754140853881836,-0.0015847086906433105,-0.00308912992477417,-0.8767903783096259,-1.0332459202593118,0.3754419798538938,-0.5494131445884705,0.7686898708343506,-0.32750776410102844,0.02893183007836342,0.01213788241147995,-0.015071499161422253
7.819829940795898,0.005010485649108887,-0.006898760795593262,-0.0005816817283630371,-0.8764388065053244,-1.0333774027188096,0.3753687315722964,-0.5496882200241089,0.768464982509613,-0.3275738060474396,-0.0006475020200014114,0.007059233728796244,-0.02761375717818737
7.8397932052612305,0.007341146469116211,-0.0006143450736999512,0.001855611801147461,-0.8762992217429046,-1.0334569528268673,0.3750828126971965,-0.5498063564300537,0.7683756351470947,-0.3275849223136902,-0.0034964047372341156,0.010428309440612793,-0.015053953975439072
7.859781265258789,0.006773650646209717,-0.00033801794052124023,0.001527160406112671,-0.876153470465559,-1.0338531356530183,0.37463142815158273,-0.5500322580337524,0.7682823538780212,-0.3274243175983429,-0.00872428435832262,-0.0037098792381584644,-0.022177372127771378
7.879863262176514,0.0035215020179748535,0.0019666552543640137,0.0021873414516448975,-0.8761286972605605,-1.0340300035723458,0.3739765178531783,-0.5501065850257874,0.768266499042511,-0.32733678817749023,-0.020686738193035126,0.01028467621654272,-0.01070850994437933
7.899795055389404,0.007883131504058838,0.0031529664993286133,-0.0005297362804412842,-0.8760394264887404,-1.0342619757841878,0.3733681064886346,-0.5502414703369141,0.7682093381881714,-0.32724425196647644,-0.00631714565679431,0.004636112600564957,-0.006990118883550167
7.919794082641602,0.014235198497772217,0.009311079978942871,-0.004290401935577393,-0.8759541688148481,-1.0341969114647502,0.37345402037451236,-0.5502764582633972,0.7681547999382019,-0.32731354236602783,0.012331265956163406,-0.00947109516710043,-0.001130595337599516
7.93983006477356,0.01296764612197876,-0.0011407136917114258,0.0007735490798950195,-0.8759058729070408,-1.0340962737873862,0.3739246118201004,-0.5502753853797913,0.7681238651275635,-0.32738789916038513,0.0136566162109375,-0.017333636060357094,0.004045581910759211
7.959794044494629,0.004093825817108154,0.002929985523223877,-0.0034218132495880127,-0.8757681134610311,-1.0341653941008904,0.3743703039750765,-0.5503889322280884,0.7680356502532959,-0.3274039328098297,0.02216336503624916,-0.02117089554667473,-0.008713061921298504
7.9797961711883545,0.004834234714508057,0.004003286361694336,-0.003148674964904785,-0.8754979509409233,-1.034111381327601,0.3751139044966661,-0.5505495667457581,0.7678626179695129,-0.32753974199295044,0.03446415811777115,-0.03457680344581604,0.0015057252021506429
7.999845027923584,0.006850004196166992,0.0038939714431762695,0.00030678510665893555,-0.875287544090229,-1.0339716717771346,0.3762883504527214,-0.550642728805542,0.767727792263031,-0.32769933342933655,0.04053507372736931,-0.044587090611457825,0.0037519214674830437
8.019787073135376,0.0031807422637939453,0.00036525726318359375,0.002617359161376953,-0.875055631053083,-1.034041999311654,0.37749528796407433,-0.5508187413215637,0.7675791382789612,-0.32775160670280457,0.0377834178507328,-0.056365013122558594,0.0046278066001832485
8.039795160293579,0.0006909966468811035,-0.005515336990356445,0.003957867622375488,-0.8748268927916584,-1.034458284305797,0.3783204908680435,-0.5511060357093811,0.7674325108528137,-0.3276120126247406,0.023110704496502876,-0.05066833272576332,-0.0023621274158358574
8.05979609489441,0.0022228360176086426,-0.0014334917068481445,0.0033358335494995117,-0.8746244155695887,-1.0350939109994663,0.3787866804469532,-0.5514476895332336,0.7673026919364929,-0.32734090089797974,0.01381002739071846,-0.05249810218811035,-0.005779916886240244
8.079819202423096,0.00010824203491210938,-0.004620671272277832,0.002474278211593628,-0.8745023659729032,-1.035940086675129,0.37897183413667623,-0.5518049597740173,0.7672244310379028,-0.32692185044288635,0.0031766374595463276,-0.05210590735077858,-0.006644062697887421
8.099794149398804,0.0017486214637756348,-0.0070040225982666016,0.00352361798286438,-0.8744118526274567,-1.0370886067116913,0.37875551959112985,-0.5522399544715881,0.7671663761138916,-0.3263232409954071,-0.009100215509533882,-0.05328923836350441,-0.010354571975767612
8.119795083999634,0.004124879837036133,-0.0015575885772705078,0.0010983943939208984,-0.8744133750298728,-1.0385772619484803,0.37823574450803304,-0.5527241230010986,0.767167329788208,-0.3255002200603485,-0.012872024439275265,-0.05062226206064224,-0.006470417603850365
8.13979721069336,0.005450427532196045,0.002874314785003662,-0.004204511642456055,-0.8743551286888733,-1.0400953632354824,0.3777250209975054,-0.5532562136650085,0.7671299576759338,-0.32468339800834656,-0.008135618641972542,-0.05717150866985321,-0.01568486914038658
8.159854173660278,0.003019988536834717,0.007615268230438232,-0.00870475172996521,-0.8740531863776995,-1.0411595418201727,0.37770917625045686,-0.5538013577461243,0.7669362425804138,-0.3242114782333374,0.019270893186330795,-0.05288124457001686,-0.015364518389105797
8.17980408668518,0.004396677017211914,0.014985322952270508,-0.009539783000946045,-0.8733636894350719,-1.0415511646002724,0.3785954160765081,-0.5543844699859619,0.7664936184883118,-0.3242614269256592,0.06232645735144615,-0.054713763296604156,-0.01582169719040394
8.199795246124268,0.004270792007446289,0.012854456901550293,-0.0087260901927948,-0.8722156233396289,-1.040940193859766,0.3807154196731835,-0.554945170879364,0.7657557725906372,-0.32504457235336304,0.10876017063856125,-0.04498638957738876,-0.021455898880958557
