timestamp,acceleration_x,acceleration_y,acceleration_z,attitude_pitch,attitude_roll,attitude_yaw,gravity_x,gravity_y,gravity_z,rotation_x,rotation_y,rotation_z
0.0,0.13463330268859863,0.8967336416244507,-0.11350351572036743,0.08049063669973697,-1.5387745522972731,-2.521053007441705,-0.9962515234947205,-0.08040375262498856,-0.03191265091300011,0.9579508900642395,-0.8508595824241638,1.6603388786315918
0.017171859741210938,-0.03658479452133179,0.8056936264038086,-0.09731251001358032,0.045027719667293735,-1.5570410527885608,-2.500388900694526,-0.9988919496536255,-0.04501250386238098,-0.013740899041295052,1.051318883895874,-0.7978589534759521,1.897230863571167
0.03667187690734863,-0.26563286781311035,0.7771089673042297,-0.12145459651947021,0.006784303348760152,-1.5713250766137503,-2.477387668922002,-0.9999769330024719,-0.0067842514254152775,0.0005287376698106527,1.2505344152450562,-0.5495837926864624,1.9324095249176025
0.05390286445617676,-0.26563286781311035,0.7771089673042297,-0.12145459651947021,0.006784303348760152,-1.5713250766137503,-2.477387668922002,-0.9999769330024719,-0.0067842514254152775,0.0005287376698106527,1.2505344152450562,-0.5495837926864624,1.9324095249176025
0.07462882995605469,-0.2894998788833618,0.6722033023834229,-0.12490713596343994,-0.07319282572386358,-1.580694155615654,-2.42057492402598,-0.9972739219665527,0.07312749326229095,0.009871168993413448,1.569231390953064,-0.1158112958073616,2.2033934593200684
0.09331893920898438,-0.15523725748062134,0.5525262355804443,-0.05215728282928467,-0.12127854261470428,-1.5791153111621032,-2.3893457870805532,-0.9926203489303589,0.12098145484924316,0.008257783949375153,1.5930289030075073,-0.03191373124718666,2.587737798690796
0.1131277084350586,-0.16604375839233398,0.46532613039016724,-0.02930009365081787,-0.17583737067367283,-1.5738992407105956,-2.3557756614267475,-0.9845758080482483,0.17493265867233276,0.0030550637748092413,1.8139252662658691,0.06486926972866058,2.8338325023651123
0.13828587532043457,-0.2552551031112671,0.4354768395423889,-0.037157654762268066,-0.23383896772902293,-1.5633324928681642,-2.3139053120652986,-0.9727570414543152,0.23171371221542358,-0.007260632235556841,2.3306641578674316,0.11061074584722519,2.9731476306915283
0.15783166885375977,-0.3308054804801941,0.4103308916091919,-0.035173892974853516,-0.29316061886599876,-1.5471115935797157,-2.257424389678901,-0.9570668935775757,0.2889794409275055,-0.02267211303114891,3.055056095123291,0.008658728562295437,3.0342512130737305
0.1797657012939453,-0.43443411588668823,0.36315295100212097,-0.010804001241922379,-0.3513040262419378,-1.5243179095599648,-2.1835306224472135,-0.9379110336303711,0.3441224694252014,-0.043624039739370346,3.76031231880188,-0.06533844769001007,3.015484571456909
0.19817090034484863,-0.5692498683929443,0.2929704785346985,0.0550084114074707,-0.4057716765264428,-1.491395840146512,-2.093545364274066,-0.9159033894538879,0.394727885723114,-0.07287638634443283,4.2060112953186035,0.04976275563240051,2.9534826278686523
0.21827173233032227,-0.6574716567993164,0.15915635228157043,0.17320756614208221,-0.4553386376550926,-1.4464104404979732,-1.9947564534937092,-0.8911735415458679,0.43976646661758423,-0.11142465472221375,4.156724452972412,0.3650166690349579,2.921060800552368
0.23890399932861328,-0.6478090882301331,0.013193249702453613,0.294141948223114,-0.5015435470447631,-1.3910793082208943,-1.8986434986887317,-0.8627195358276367,0.4807795584201813,-0.15673646330833435,3.5512843132019043,0.7431920170783997,2.945039749145508
0.25832700729370117,-0.5827144384384155,-0.1153225302696228,0.3581508994102478,-0.5462804954119816,-1.3302836836018366,-1.8132477856859324,-0.8298680186271667,0.5195126533508301,-0.20353353023529053,2.7766854763031006,1.0465424060821533,2.990671157836914
0.27675771713256836,-0.5240996479988098,-0.17999541759490967,0.35962188243865967,-0.5912034066558055,-1.2676562949889614,-1.7381404412475951,-0.7924134731292725,0.5573605895042419,-0.2478511780500412,2.1591615676879883,1.1688692569732666,3.031982421875
0.29767680168151855,-0.5133128762245178,-0.21144318580627441,0.3929978907108307,-0.6355812183381774,-1.2036335235302411,-1.670699803396426,-0.7510913610458374,0.5936453342437744,-0.28887179493904114,1.6064481735229492,1.3628026247024536,2.980909585952759
0.31900978088378906,-0.4958171248435974,-0.28015029430389404,0.4495840072631836,-0.6794771640062165,-1.1378675033938659,-1.610409441622223,-0.7061330080032349,0.628386378288269,-0.3263539671897888,1.1098309755325317,1.5312237739562988,2.942093849182129
0.3375728130340576,-0.45905637741088867,-0.3399066925048828,0.48270708322525024,-0.7230422743016756,-1.0704168950319704,-1.5544641471923528,-0.6578717827796936,0.6616688370704651,-0.3597211539745331,0.7837506532669067,1.596420407295227,2.880971908569336
0.3573780059814453,-0.4321977496147156,-0.371604323387146,0.49382853507995605,-0.7643732307567356,-1.0015175011361839,-1.4993373643580488,-0.6079787015914917,0.6920847296714783,-0.3890768885612488,0.6276023983955383,1.5568169355392456,2.7421202659606934
0.3772468566894531,-0.416175901889801,-0.4104687571525574,0.5112597346305847,-0.8010920831487145,-0.9318068978607416,-1.4439199728850032,-0.558616578578949,0.7181165218353271,-0.41503772139549255,0.524766743183136,1.5125513076782227,2.5161056518554688
0.3960118293762207,-0.40257275104522705,-0.4707244634628296,0.508148193359375,-0.8321351793429844,-0.8631654882527187,-1.3898802074091872,-0.511642336845398,0.7393706440925598,-0.4376678168773651,0.4210491478443146,1.4183751344680786,2.225647449493408
0.4172708988189697,-0.3761175274848938,-0.5179983377456665,0.5150078535079956,-0.8580742953033215,-0.7994440547656149,-1.3409013752525114,-0.4688226580619812,0.7565847635269165,-0.45583418011665344,0.23367686569690704,1.2917903661727905,1.887736201286316
0.4373338222503662,-0.34510666131973267,-0.5516954660415649,0.5138117074966431,-0.8797072158220915,-0.7442331024667219,-1.3000295833793636,-0.43176406621932983,0.7705522775650024,-0.4688592255115509,0.06204110011458397,1.1175073385238647,1.517263412475586
0.4574308395385742,-0.31113478541374207,-0.5729619264602661,0.5227266550064087,-0.897757648649216,-0.6991473336481441,-1.268409231418271,-0.4011760652065277,0.7819311022758484,-0.47711804509162903,-0.0934232696890831,0.9515475630760193,1.1852693557739258
0.47694969177246094,-0.27920642495155334,-0.6017987728118896,0.5023525953292847,-0.9121053163425349,-0.6648281926688703,-1.2463013864552095,-0.37760815024375916,0.7907941341400146,-0.4817226529121399,-0.14841552078723907,0.7359288930892944,0.7924270629882812
0.49741172790527344,-0.24960672855377197,-0.6192210912704468,0.46528172492980957,-0.9215563376714464,-0.6426076708944871,-1.2330337003687823,-0.3623165190219879,0.796543538570404,-0.4839889407157898,-0.09820778667926788,0.4155677258968353,0.4377612769603729
0.5167417526245117,-0.23591026663780212,-0.6086027026176453,0.4441074728965759,-0.9256590072691521,-0.6337031993124935,-1.2279289705382472,-0.35605451464653015,0.7990171909332275,-0.48455846309661865,-0.04038391262292862,0.06821366399526596,0.04916056618094444
0.5366659164428711,-0.2679336667060852,-0.5999051332473755,0.4513953924179077,-0.924391175182143,-0.6381753679721435,-1.2326209790187002,-0.3588211238384247,0.7982541918754578,-0.48377448320388794,-0.05827385187149048,-0.10327508300542831,-0.353593647480011
0.5558009147644043,-0.304411381483078,-0.6036235690116882,0.46955785155296326,-0.9199881096793298,-0.6550396805972141,-1.2507962277779672,-0.3690657913684845,0.7955943942070007,-0.4804372787475586,-0.27847033739089966,-0.14117728173732758,-0.788386881351471
0.5757589340209961,-0.2967475652694702,-0.610163152217865,0.46315455436706543,-0.914681584216001,-0.685782752337018,-1.2843502835306104,-0.38632744550704956,0.7923683524131775,-0.47212669253349304,-0.5587164163589478,-0.2867090702056885,-1.13490891456604
0.596383810043335,-0.2873430848121643,-0.5708510875701904,0.4005998373031616,-0.9071556750202702,-0.7293527137306616,-1.3296876034222707,-0.41048717498779297,0.7877548336982727,-0.45928505063056946,-0.6561836004257202,-0.5111668705940247,-1.4801946878433228
0.6156959533691406,-0.3069440424442291,-0.4867616891860962,0.35328322649002075,-0.8940646967952289,-0.785438711274841,-1.383659588474682,-0.44284239411354065,0.7796236872673035,-0.4428064823150635,-0.6826974749565125,-0.9068692922592163,-1.8779975175857544
0.6335577964782715,-0.41855502128601074,-0.41030406951904297,0.33236175775527954,-0.8723847791609189,-0.8547876563086083,-1.4444341571055173,-0.4851010739803314,0.7658645510673523,-0.42205289006233215,-0.7033486366271973,-1.2877827882766724,-2.3753559589385986
0.6514108180999756,-0.6539658904075623,-0.3501840829849243,0.41438502073287964,-0.8415040594520111,-0.9339340085642331,-1.51638583281411,-0.53571617603302,0.7456461787223816,-0.39625754952430725,-1.1128408908843994,-1.0660021305084229,-2.99997878074646
0.6714189052581787,-0.8492235541343689,-0.34802889823913574,0.5024980306625366,-0.8036374276172817,-1.0140864084780146,-1.6060606654878553,-0.5892835259437561,0.7198855876922607,-0.36675572395324707,-1.8536120653152466,-0.37894952297210693,-3.536874294281006
0.6962018013000488,-0.6883053183555603,-0.3234541416168213,0.4565080404281616,-0.7619329469224153,-1.0926686300018147,-1.7121295506086134,-0.642367959022522,0.6903212070465088,-0.33289653062820435,-2.583890914916992,-0.1273665726184845,-3.7670626640319824
0.7161307334899902,-0.3495539426803589,-0.14956295490264893,0.27920663356781006,-0.7167435614064802,-1.1727377482811807,-1.8208690146381699,-0.6950017809867859,0.6569329500198364,-0.29225286841392517,-2.6419453620910645,-0.6117590069770813,-3.735605478286743
0.7375926971435547,-0.22867131233215332,-0.0020503997802734375,0.11507469415664673,-0.6646081844224337,-1.247508451380218,-1.9109914094673564,-0.746380627155304,0.6167507767677307,-0.25006911158561707,-1.9699240922927856,-1.0521427392959595,-3.6058661937713623
0.7565858364105225,-0.30560481548309326,0.029246926307678223,0.03084529936313629,-0.6057771688059421,-1.3085026011221583,-1.9748140930212699,-0.7939435839653015,0.5694011449813843,-0.21315725147724152,-1.2939105033874512,-1.2245122194290161,-3.5667953491210938
0.7757687568664551,-0.45157063007354736,0.1073918342590332,-0.02826850116252899,-0.5407393243205935,-1.3575215864487449,-2.0190456638902403,-0.8379038572311401,0.514769971370697,-0.18146346509456635,-0.8070462942123413,-1.2813256978988647,-3.6411476135253906
0.795698881149292,-0.5252947211265564,0.2665121257305145,-0.06028330326080322,-0.47244046623240804,-1.3981137015418554,-2.048532346086079,-0.8772169351577759,0.45506078004837036,-0.1530039757490158,-0.4668135941028595,-1.3458058834075928,-3.5551373958587646
0.8157517910003662,-0.558588445186615,0.3151410222053528,-0.005759701132774353,-0.40592163007336657,-1.433922557462115,-2.0713126508564987,-0.9101462364196777,0.39486566185951233,-0.1253589689731598,-0.661599338054657,-1.2336328029632568,-3.337611198425293
0.8357458114624023,-0.598461389541626,0.2776166498661041,0.05907667428255081,-0.3450009304892793,-1.4663549744413136,-2.1014872381376843,-0.9359471797943115,0.3381975591182709,-0.09810857474803925,-1.5284068584442139,-0.8372577428817749,-3.0229501724243164
0.8581728935241699,-0.5730923414230347,0.27456891536712646,0.0472952201962471,-0.2906320141287802,-1.4934343020441319,-2.1462867850670504,-0.9551975131034851,0.28655779361724854,-0.07404378801584244,-2.2318105697631836,-0.531958818435669,-2.799673557281494
0.8761658668518066,-0.4024779200553894,0.40663450956344604,-0.01430588960647583,-0.24085970869815235,-1.5182072814037963,-2.2026541849347225,-0.9697908163070679,0.23853760957717896,-0.051047440618276596,-2.7788798809051514,-0.4928622841835022,-2.504955530166626
0.8955528736114502,-0.24866098165512085,0.4849203824996948,-0.062402185052633286,-0.19586442436041943,-1.5411822259579664,-2.262172886060258,-0.9804496765136719,0.1946144998073578,-0.02904362790286541,-2.826491355895996,-0.5065081119537354,-2.2545506954193115
0.9155769348144531,-0.18215268850326538,0.5594998002052307,-0.07768845558166504,-0.15336573910832235,-1.5606582129088458,-2.3181833665595746,-0.9882118701934814,0.15276522934436798,-0.010018947534263134,-2.5568485260009766,-0.4687042832374573,-2.1233084201812744
0.9346628189086914,-0.12600857019424438,0.621400773525238,-0.10524022579193115,-0.11152682400953005,-1.5761861276570257,-2.3647262520863457,-0.9937731027603149,0.11129576712846756,0.005356290843337774,-2.020627737045288,-0.47174039483070374,-2.0812935829162598
0.9553627967834473,-0.07355248928070068,0.7068142890930176,-0.17707479000091553,-0.0695325688398811,-1.5891182294983797,-2.3972854867491002,-0.9974161386489868,0.06947655230760574,0.018276607617735863,-1.2875773906707764,-0.5341224074363708,-2.0932083129882812
0.9753148555755615,-0.004509270191192627,0.7756538391113281,-0.23401331901550293,-0.027404371885297034,-1.601518018627894,-2.41647010735415,-0.9991528987884521,0.027400942519307137,0.030705327168107033,-0.8059144616127014,-0.6047208905220032,-2.060788869857788
0.9943068027496338,0.06920534372329712,0.7856941819190979,-0.2629988193511963,0.012653753065048817,-1.6137037479342116,-2.429305984788415,-0.9989995956420898,-0.012653415091335773,0.042890820652246475,-0.6729576587677002,-0.5993303060531616,-1.892935037612915
1.015251874923706,0.12311989068984985,0.7741670608520508,-0.2757762670516968,0.04893633791204694,-1.6243264625465712,-2.4421589200535685,-0.9973723888397217,-0.048916809260845184,0.053440533578395844,-0.8252289891242981,-0.4853723645210266,-1.65969979763031
1.0343258380889893,0.1631750464439392,0.7867206335067749,-0.28324973583221436,0.07968209191038088,-1.6304548368575986,-2.4593341020213986,-0.9950536489486694,-0.07959780097007751,0.0594339482486248,-1.0528327226638794,-0.23913642764091492,-1.3067245483398438
1.0548529624938965,0.2128005027770996,0.8171814680099487,-0.2934739589691162,0.10305405155106837,-1.6310293937642488,-2.480278241375637,-0.9928908348083496,-0.10287173837423325,0.059877291321754456,-1.1501494646072388,-0.017293598502874374,-0.9081588387489319
1.074136734008789,0.2706828713417053,0.8710349798202515,-0.29462766647338867,0.11807427802511339,-1.6273991221368274,-2.5018023425267457,-0.9914470314979553,-0.11780011653900146,0.056178685277700424,-1.0479439496994019,0.11476448178291321,-0.4642958641052246
1.0950217247009277,0.3155912160873413,0.9135429263114929,-0.29550373554229736,0.12355861628021035,-1.6227620296607512,-2.520423977249351,-0.9910367131233215,-0.12324446439743042,0.05154632404446602,-0.8190869688987732,0.09775664657354355,0.014218385331332684
1.1148078441619873,0.3147682547569275,0.9170927405357361,-0.31473374366760254,0.11951022771849937,-1.6203550237351438,-2.533426727219535,-0.9916480779647827,-0.11922594159841537,0.04918505996465683,-0.42215704917907715,-0.017937906086444855,0.4417226314544678
1.1347768306732178,0.2592162489891052,0.9111186265945435,-0.32883310317993164,0.10724699166500164,-1.6211158962632035,-2.5373529090065126,-0.9929962158203125,-0.10704151540994644,0.0500093549489975,0.09989983588457108,-0.091854028403759,0.791257917881012
1.1557559967041016,0.18232756853103638,0.8998636603355408,-0.33907341957092285,0.08810324452937945,-1.6241215903381971,-2.5311760623742123,-0.9947054386138916,-0.08798930794000626,0.05309326574206352,0.598732590675354,-0.15931136906147003,1.0923972129821777
1.1756057739257812,0.10776340961456299,0.851341962814331,-0.3168611526489258,0.062273960798428236,-1.6289529226042707,-2.5174843593647322,-0.9963744282722473,-0.06223371997475624,0.05801115930080414,0.8613362312316895,-0.19725298881530762,1.4270132780075073
1.194624900817871,0.008848488330841064,0.7572742700576782,-0.2509119510650635,0.02937321842993647,-1.6320452913616508,-2.502498083357505,-0.9976944923400879,-0.029368994757533073,0.06118428334593773,0.7703087329864502,-0.012842036783695221,1.781343698501587
1.214460849761963,-0.08012664318084717,0.6346966028213501,-0.1721266508102417,-0.010323118894024588,-1.6297095072861676,-2.49320808974179,-0.9982120394706726,0.0103229358792305,0.058875977993011475,0.3761898875236511,0.25494492053985596,2.13577938079834
1.2346630096435547,-0.13452410697937012,0.5379542708396912,-0.11990083009004593,-0.056329071303563745,-1.6227333996227349,-2.491564722283251,-0.9970676302909851,0.05629928782582283,0.05183138698339462,0.1011185571551323,0.4069902002811432,2.445728302001953
1.251321792602539,-0.19138050079345703,0.5310999155044556,-0.13056910037994385,-0.1074582043712008,-1.6152257235839549,-2.4907812889496364,-0.9932509064674377,0.10725151747465134,0.04415859654545784,0.3164551854133606,0.3008570373058319,2.6396610736846924
1.2743828296661377,-0.315049409866333,0.5801197290420532,-0.18851661682128906,-0.16034303118393198,-1.6090871628810681,-2.4798896857266954,-0.9864490032196045,0.1596568524837494,0.03779042884707451,1.0289078950881958,0.19271838665008545,2.5730693340301514
1.29429292678833,-0.4351682662963867,0.5877141356468201,-0.1711716651916504,-0.21102883542860087,-1.5994652573093402,-2.4529855016244952,-0.9774142503738403,0.20946602523326874,0.028029100969433784,1.7386082410812378,0.29262423515319824,2.438746213912964
1.314328670501709,-0.4092654585838318,0.456031858921051,-0.044286251068115234,-0.2610653565779594,-1.5833267518260443,-2.415145092459569,-0.9660397171974182,0.2581099569797516,0.012105521745979786,1.984468936920166,0.4322773516178131,2.536504030227661
1.3345389366149902,-0.3622983694076538,0.2825419008731842,0.06734699010848999,-0.31413672004697146,-1.5618653950603696,-2.374878779721196,-0.9510256052017212,0.3089955449104309,-0.008493770845234394,1.8650846481323242,0.5663712024688721,2.759099006652832
1.3540539741516113,-0.3993367552757263,0.17737042903900146,0.1044890284538269,-0.36947670920242204,-1.5358412804377537,-2.3342055348545463,-0.931946873664856,0.36112749576568604,-0.03258952125906944,1.8507728576660156,0.6636051535606384,2.840080976486206
1.373952865600586,-0.4474993348121643,0.1282009482383728,0.11178582906723022,-0.4242023719538814,-1.504379405818711,-2.2890717180808373,-0.909358024597168,0.4115939736366272,-0.060485728085041046,2.20167875289917,0.6917518973350525,2.8004648685455322
1.3937487602233887,-0.4622211456298828,0.10288175940513611,0.09084701538085938,-0.47612264469758026,-1.4687299137358945,-2.235437978332073,-0.884153425693512,0.4583365321159363,-0.0905570462346077,2.285932779312134,0.549673318862915,2.816762924194336
1.4129047393798828,-0.49452662467956543,0.005598664283752441,0.09394235163927078,-0.5251866905584032,-1.4273941387129176,-2.1721096011424232,-0.8563492298126221,0.5013745427131653,-0.12365110963582993,2.5852954387664795,0.5843290090560913,2.6980679035186768
1.4340908527374268,-0.5106269121170044,0.035376787185668945,0.16302616894245148,-0.567070613820571,-1.3777686686416737,-2.099925217873463,-0.8278129696846008,0.537163496017456,-0.1618054062128067,2.8489603996276855,0.6204797029495239,2.491349935531616
1.4541149139404297,-0.4558867812156677,-0.04060095548629761,0.2204865962266922,-0.6014689059207693,-1.3189357792969225,-2.018010128167872,-0.7984924912452698,0.5658541917800903,-0.20547185838222504,3.0216903686523438,0.7564685344696045,2.399477958679199
1.4737529754638672,-0.4107825756072998,-0.11996698379516602,0.29338666796684265,-0.6302259691715397,-1.2528790600688908,-1.9321420365353683,-0.7674095630645752,0.589327335357666,-0.2525387704372406,2.8573758602142334,0.8959348797798157,2.347139358520508
1.493696689605713,-0.3913561701774597,-0.22452253103256226,0.37154099345207214,-0.6563176417342966,-1.1845268166121579,-1.8516153253192316,-0.7338727116584778,0.6102036833763123,-0.29846659302711487,2.2521166801452637,1.1232925653457642,2.3377232551574707
1.5126309394836426,-0.37305980920791626,-0.3312445878982544,0.4422394037246704,-0.6839283852136819,-1.1182856507126697,-1.7843861513371706,-0.6970848441123962,0.6318427920341492,-0.33889153599739075,1.4340717792510986,1.3178573846817017,2.3405635356903076
1.5335087776184082,-0.3507094383239746,-0.39731985330581665,0.48614805936813354,-0.7155298184649875,-1.0568893082657986,-1.7318067602889988,-0.6572557091712952,0.6560173630714417,-0.37102046608924866,0.704626739025116,1.434215784072876,2.3302104473114014
1.5525269508361816,-0.3390548825263977,-0.4135478734970093,0.49211081862449646,-0.7496746485278266,-0.9996639287958514,-1.6893465283818367,-0.6157485842704773,0.6814006567001343,-0.3956599235534668,0.28682416677474976,1.4453492164611816,2.214773178100586
1.5723648071289062,-0.32305729389190674,-0.40682345628738403,0.4963059723377228,-0.7822230603117298,-0.9453987308947317,-1.6519525934247292,-0.575090229511261,0.7048580646514893,-0.4152664542198181,0.13725458085536957,1.3886480331420898,1.9946565628051758
1.5933489799499512,-0.2857232689857483,-0.433293879032135,0.5119641423225403,-0.8106080040885387,-0.8942950026792325,-1.6171186941753026,-0.5373053550720215,0.72470623254776,-0.4313976764678955,0.09257408231496811,1.2296299934387207,1.752185344696045
1.6125638484954834,-0.25499427318573,-0.4850189685821533,0.5108118057250977,-0.8340364703589055,-0.8474743277961359,-1.5845571768935296,-0.5036574602127075,0.7406494617462158,-0.4447106420993805,0.09585489332675934,1.072139024734497,1.4681462049484253
1.6330528259277344,-0.21977737545967102,-0.5396379828453064,0.4984630048274994,-0.8516847873331626,-0.8061593954027149,-1.5557085882567767,-0.475352019071579,0.7523912787437439,-0.4560129642486572,0.11643239855766296,0.8986754417419434,1.1368064880371094
1.6524298191070557,-0.16438215970993042,-0.5986153483390808,0.49634820222854614,-0.8637240712656405,-0.7732627827842019,-1.5326687163538888,-0.45373615622520447,0.7602670192718506,-0.46488451957702637,0.09043829888105392,0.6312392950057983,0.7814919352531433
1.6732597351074219,-0.12398946285247803,-0.6442312598228455,0.49400556087493896,-0.8710248514985921,-0.7527759048450731,-1.518083855806038,-0.44031113386154175,0.7649893760681152,-0.4700186848640442,0.031974729150533676,0.293942928314209,0.3954198956489563
1.6920456886291504,-0.13005879521369934,-0.6427379846572876,0.47669243812561035,-0.8735907385745464,-0.7478144433200523,-1.5140859506182973,-0.43663740158081055,0.7666394114494324,-0.4707567095756531,-0.04502617567777634,-0.10951007902622223,-0.04146861284971237
1.7120678424835205,-0.20277640223503113,-0.5789065957069397,0.44600850343704224,-0.8704536118283973,-0.7594163087541437,-1.5215401252026441,-0.44372326135635376,0.764621376991272,-0.46740129590034485,-0.046372007578611374,-0.44491907954216003,-0.5257816314697266
1.7318129539489746,-0.31344741582870483,-0.5100522041320801,0.4483366012573242,-0.8609082477702096,-0.7825958579040067,-1.5400966833302225,-0.45956286787986755,0.7584348320960999,-0.46214577555656433,-0.156712144613266,-0.41228362917900085,-0.9860005378723145
1.7530159950256348,-0.3622664511203766,-0.5223813652992249,0.5050144791603088,-0.8493963551426704,-0.8130420431762526,-1.5723219787044642,-0.4797288775444031,0.7508818507194519,-0.4539128243923187,-0.6086338758468628,-0.19851113855838776,-1.300299882888794
1.7729449272155762,-0.31648290157318115,-0.5748995542526245,0.4994153678417206,-0.8407017258226426,-0.852623537290816,-1.620356507456321,-0.5022121071815491,0.7451112866401672,-0.4388531744480133,-1.13831627368927,-0.2554450035095215,-1.4747577905654907
1.7927227020263672,-0.2778913378715515,-0.5146957039833069,0.4117524027824402,-0.8330127984176151,-0.9050485997706433,-1.6791519831494441,-0.5290087461471558,0.7399612665176392,-0.4154602289199829,-1.3683146238327026,-0.6405141353607178,-1.6606868505477905
1.8126368522644043,-0.37373846769332886,-0.38634634017944336,0.3510441184043884,-0.8202287315474466,-0.9701993612213463,-1.7443563450420636,-0.5626934766769409,0.7313018441200256,-0.38545262813568115,-1.4280519485473633,-1.069347620010376,-2.0347349643707275
1.831686019897461,-0.6232165098190308,-0.2947291135787964,0.3712494373321533,-0.7971727633202569,-1.0447462308261672,-1.8161696241431051,-0.604261577129364,0.7153834700584412,-0.35084837675094604,-1.5902073383331299,-1.0686696767807007,-2.593888282775879
1.852555751800537,-0.8744389414787292,-0.2603088617324829,0.46005913615226746,-0.7631507569745729,-1.1168929570429726,-1.8974551471121948,-0.6494868397712708,0.6912018060684204,-0.3168705999851227,-1.930248498916626,-0.3831927478313446,-3.0987632274627686
1.8715457916259766,-0.7483639717102051,-0.25822144746780396,0.42421528697013855,-0.7215712822132202,-1.1792753114399752,-1.9844290376129878,-0.6939577460289001,0.6605651378631592,-0.2864893972873688,-2.2014811038970947,-0.10261169821023941,-3.267704963684082
1.892577886581421,-0.4111894369125366,-0.11306262016296387,0.24162688851356506,-0.6768464214491291,-1.23708393314486,-2.0659257575754655,-0.7365461587905884,0.6263377666473389,-0.2553444504737854,-1.9458552598953247,-0.46388086676597595,-3.1275875568389893
1.9123258590698242,-0.3010861277580261,0.02688300609588623,0.06794336438179016,-0.6290562032978816,-1.2874314285925386,-2.128438529437158,-0.7763369083404541,0.5883818864822388,-0.2260700911283493,-1.3451566696166992,-0.7140012979507446,-2.964221954345703
1.9322888851165771,-0.35154610872268677,0.03710651397705078,0.028315633535385132,-0.5794327027528513,-1.3267699640406048,-2.174533587915717,-0.8119825124740601,0.547549307346344,-0.20217424631118774,-1.1296284198760986,-0.5726767778396606,-2.8373804092407227
1.9513707160949707,-0.4361830949783325,0.03788113594055176,0.03350180387496948,-0.5309692665091859,-1.3574314154428966,-2.2168692421460063,-0.8427628874778748,0.506369411945343,-0.18259532749652863,-1.3350776433944702,-0.24641147255897522,-2.6925904750823975
1.9713506698608398,-0.46866393089294434,0.07676047086715698,0.03229649364948273,-0.48648379720881946,-1.382773834147135,-2.264281476975258,-0.8684027194976807,0.467520534992218,-0.16523095965385437,-1.9299097061157227,-0.004983402788639069,-2.5100784301757812
1.9913640022277832,-0.4843250513076782,0.08228668570518494,0.06716375052928925,-0.44672125049359773,-1.4085138329912548,-2.3275503978149876,-0.8900189995765686,0.43201085925102234,-0.14571593701839447,-3.044735908508301,0.33474212884902954,-2.390838861465454
2.011370897293091,-0.4785403609275818,0.10520663857460022,0.06921756267547607,-0.4131619665594817,-1.4339479155469201,-2.41706820113109,-0.907293438911438,0.4015072286128998,-0.1249426007270813,-4.3681230545043945,0.9983891248703003,-2.155555248260498
2.032197952270508,-0.40517669916152954,0.1669568121433258,0.0046657174825668335,-0.3818685089678076,-1.4474431923289266,-2.5175304450220146,-0.9209190607070923,0.3726550340652466,-0.11417794972658157,-4.524831771850586,1.13157320022583,-2.3417441844940186
2.0520386695861816,-0.24332469701766968,0.44369620084762573,-0.11448425054550171,-0.34085010385533493,-1.4659320400934088,-2.615654635859778,-0.9372936487197876,0.33428841829299927,-0.0986505001783371,-4.178705215454102,0.5444883108139038,-2.6016595363616943
2.0720667839050293,0.004071354866027832,0.34784451127052307,-0.02071923017501831,-0.2986338916424656,-1.485162710338966,-2.6988996916537036,-0.9522373080253601,0.2942148447036743,-0.08174343407154083,-3.279470205307007,0.12871889770030975,-2.4512250423431396
2.0918688774108887,-0.05487537384033203,0.4010726809501648,0.02239358425140381,-0.25235407916036046,-1.5018864921213568,-2.7646218556626816,-0.9660292267799377,0.2496841698884964,-0.06667448580265045,-2.7178502082824707,0.04052114114165306,-2.6714370250701904
2.1117377281188965,-0.09676617383956909,0.4756165146827698,0.0307350754737854,-0.19945513835217993,-1.5135041054291163,-2.8172374638594406,-0.9785665273666382,0.19813530147075653,-0.05612567439675331,-2.0788607597351074,-0.054031018167734146,-2.9383368492126465
2.1317009925842285,-0.03963261842727661,0.5878775119781494,0.005996230989694595,-0.14061268976034208,-1.524162051054841,-2.856385217913252,-0.9890539050102234,0.140149787068367,-0.04615727812051773,-1.4845795631408691,-0.3530147969722748,-3.128633737564087
2.152064800262451,-0.0028628110885620117,0.7076515555381775,-0.03550111874938011,-0.07857733650156475,-1.5369575663532795,-2.883219830220662,-0.996343731880188,0.07849650084972382,-0.03372791036963463,-0.9595783948898315,-0.6154512763023376,-3.175295829772949
2.1715238094329834,0.015730977058410645,0.7811508774757385,-0.06774061918258667,-0.01627412856633617,-1.551359809308986,-2.900750499163544,-0.9996787905693054,0.016273410990834236,-0.01943272165954113,-0.6803733706474304,-0.7186091542243958,-3.082507371902466
2.191732883453369,0.05972808599472046,0.8414632678031921,-0.08285892009735107,0.04159430952331861,-1.565332716861491,-2.9146792483765886,-0.9991201758384705,-0.041582316160202026,-0.005458857398480177,-0.6562047600746155,-0.6797114610671997,-2.688552141189575
2.2113728523254395,0.1210290789604187,0.8774068355560303,-0.09337520599365234,0.08896526626694447,-1.57648661769825,-2.927837575255167,-0.9960291385650635,-0.08884795755147934,0.005667756777256727,-0.689921498298645,-0.49626800417900085,-2.026998996734619
2.2315897941589355,0.16993528604507446,0.9053377509117126,-0.0768657922744751,0.12150258483529586,-1.5818410836920724,-2.943959609900442,-0.9925671815872192,-0.12120384722948074,0.010963109321892262,-0.9673334956169128,-0.21176506578922272,-1.2084704637527466
2.2531278133392334,0.2005387544631958,0.9178900718688965,-0.09003067016601562,0.1379161614957248,-1.5807366652549757,-2.966449382763165,-0.9904557466506958,-0.13747936487197876,0.009845789521932602,-1.286750316619873,0.0035484773106873035,-0.4325037896633148
2.2713727951049805,0.21338707208633423,0.9257898926734924,-0.14910423755645752,0.14014592401271198,-1.576139009468227,-2.9941914326355272,-0.9901816248893738,-0.13968761265277863,0.005290276370942593,-1.4310826063156128,0.03944309428334236,0.19586099684238434
2.291414737701416,0.21938490867614746,0.908230721950531,-0.18640971183776855,0.1316792122017218,-1.5718361475979374,-3.023880738061771,-0.991342306137085,-0.1312990039587021,0.0010308187920600176,-1.4906419515609741,-0.031936634331941605,0.6342292428016663
2.3113558292388916,0.20417708158493042,0.8894924521446228,-0.22654831409454346,0.11594842376085393,-1.570136886367443,-3.0517483820668256,-0.9932853579521179,-0.11568879336118698,-0.000655012612696737,-1.2252540588378906,-0.1341295838356018,0.9187852144241333
2.3314499855041504,0.18634700775146484,0.896770179271698,-0.29257285594940186,0.09532457991655739,-1.5717629686639656,-3.070602047604938,-0.9954597353935242,-0.09518028050661087,0.0009622533689253032,-0.6057641506195068,-0.24942946434020996,1.1439659595489502
2.3514227867126465,0.18175071477890015,0.8934197425842285,-0.34261763095855713,0.07011293752537329,-1.5781507605124754,-3.0745343957804625,-0.9975161552429199,-0.0700555071234703,0.007336298935115337,0.21265298128128052,-0.4249592125415802,1.3929939270019531
2.371577739715576,0.1452503800392151,0.8510652780532837,-0.3069877624511719,0.03929255267608437,-1.5885226450143484,-3.0649668006058595,-0.9990711212158203,-0.03928244113922119,0.017711708322167397,0.7234808802604675,-0.5550670623779297,1.6891045570373535
2.391425848007202,-0.000691533088684082,0.7664349675178528,-0.26806187629699707,0.002793624131753033,-1.600581542531201,-3.0481265068784853,-0.9995525479316711,-0.0027936205733567476,0.029780695214867592,1.0583587884902954,-0.5855250954627991,1.8977031707763672
2.4113917350769043,-0.2653709650039673,0.7546196579933167,-0.32150697708129883,-0.0364345437565947,-1.6094253299984909,-3.024306640068378,-0.9985910654067993,0.03642648458480835,0.038593776524066925,1.4835282564163208,-0.2872491776943207,1.9342317581176758
2.431370735168457,-0.4355866312980652,0.7286447286605835,-0.3216361999511719,-0.07682016065024486,-1.6092608123677907,-2.9928603760954178,-0.9963135719299316,0.07674462348222733,0.03834160044789314,1.763742208480835,0.12784592807292938,2.023074150085449
2.451478958129883,-0.3413073420524597,0.5660908818244934,-0.179368257522583,-0.12220130593263932,-1.6002420187947657,-2.9608613291361077,-0.9921126365661621,0.121897391974926,0.02922188863158226,1.5096030235290527,0.41779625415802,2.476489543914795
2.4714279174804688,-0.2589870095252991,0.3975995182991028,-0.04214942455291748,-0.17787615931846018,-1.586475664178877,-2.9361354885289286,-0.9841007590293884,0.17693965137004852,0.015431311912834644,1.1020649671554565,0.5949462652206421,3.019258975982666
2.491370677947998,-0.3560798764228821,0.316651314496994,-0.0163118839263916,-0.2416947093498237,-1.5685021971255664,-2.915357116070959,-0.9709311723709106,0.2393484264612198,-0.002227446064352989,1.0524860620498657,0.755318284034729,3.3237359523773193
2.511370897293091,-0.44540464878082275,0.29807248711586,-0.031681716442108154,-0.3091541119672437,-1.5460825508618559,-2.888933720800571,-0.952300488948822,0.304252952337265,-0.02353973314166069,1.4538748264312744,0.7204549312591553,3.4386844635009766
2.531367778778076,-0.46867334842681885,0.25594836473464966,-0.02936696633696556,-0.37688864007644185,-1.519779891186864,-2.8495663939547984,-0.9286045432090759,0.36802926659584045,-0.04741523414850235,2.009321451187134,0.5527123808860779,3.4776804447174072
2.551590919494629,-0.5036653876304626,0.19696930050849915,-0.02195960283279419,-0.4425997308487597,-1.4887426987313481,-2.7944156614352553,-0.9006010890007019,0.42829012870788574,-0.07406388223171234,2.6177613735198975,0.37798818945884705,3.41707181930542
2.571624755859375,-0.5399191975593567,0.12215873599052429,0.03925161063671112,-0.5033863235167859,-1.4485128496138306,-2.7221378899167417,-0.8694132566452026,0.48239457607269287,-0.10684798657894135,3.1523659229278564,0.36914828419685364,3.3069310188293457
2.5915307998657227,-0.52242511510849,0.0165213942527771,0.12788431346416473,-0.5579201612089282,-1.3967833315390712,-2.6354769455365052,-0.8355463147163391,0.5294228792190552,-0.14688146114349365,3.4002621173858643,0.43305644392967224,3.21803617477417
2.610930919647217,-0.4945991635322571,-0.1003066897392273,0.23367011547088623,-0.6067135407893779,-1.335096562175413,-2.541464941806807,-0.798812210559845,0.5701706409454346,-0.19184570014476776,3.285386800765991,0.5802212357521057,3.1625092029571533
2.6308999061584473,-0.5133188366889954,-0.20281285047531128,0.28524407744407654,-0.6496176900949572,-1.2659518025673102,-2.4467536354373385,-0.759600043296814,0.604882001876831,-0.23900993168354034,2.9440605640411377,0.7667334675788879,3.0095293521881104
2.651467800140381,-0.5179157853126526,-0.28746968507766724,0.3392190635204315,-0.686276657593149,-1.1928848407389079,-2.3579255601443365,-0.719022810459137,0.633661150932312,-0.28544706106185913,2.383779764175415,1.0544710159301758,2.7952358722686768
2.6714119911193848,-0.44140881299972534,-0.3891679644584656,0.4058929681777954,-0.7194335021654115,-1.1194204727017665,-2.2810197644901287,-0.6768468618392944,0.6589586734771729,-0.328103631734848,1.653517484664917,1.3086106777191162,2.609835624694824
2.6914148330688477,-0.3359588384628296,-0.4811088442802429,0.4553784430027008,-0.7518382341512919,-1.0500947429997214,-2.218937377226409,-0.6336303949356079,0.6829826235771179,-0.36338308453559875,0.9346473813056946,1.444541096687317,2.4107108116149902
2.7113988399505615,-0.25487220287323,-0.5125910043716431,0.4662978947162628,-0.78363478977682,-0.9868355367030108,-2.1692401949675344,-0.5909682512283325,0.7058587670326233,-0.39053788781166077,0.5048679113388062,1.4091993570327759,2.1774816513061523
2.731376886367798,-0.20956456661224365,-0.48489922285079956,0.45047712326049805,-0.8119156250700696,-0.9293755757584221,-2.1260170598295054,-0.5513455271720886,0.7256066799163818,-0.41171973943710327,0.39893680810928345,1.2411384582519531,1.869521975517273
2.7513318061828613,-0.18994241952896118,-0.4668530225753784,0.4443637430667877,-0.8330485344528469,-0.876800890469138,-2.0853491305103486,-0.5170429944992065,0.7399853467941284,-0.43021878600120544,0.4774009585380554,1.0437933206558228,1.508453369140625
2.7713699340820312,-0.17537081241607666,-0.4833260774612427,0.47045695781707764,-0.846247487112961,-0.8301805928155567,-2.047978113320541,-0.4891800284385681,0.7487985491752625,-0.44721779227256775,0.5227516889572144,0.8440588712692261,1.1352839469909668
2.7913689613342285,-0.17018476128578186,-0.5111678242683411,0.4928210377693176,-0.8531960327451782,-0.7920805682200566,-2.017190729733483,-0.4680751860141754,0.7533859014511108,-0.46186086535453796,0.4574618339538574,0.6585560441017151,0.7770721316337585
2.8114500045776367,-0.1709219515323639,-0.5299009680747986,0.5017862915992737,-0.8561643580950298,-0.7650372155467524,-1.9961081249135904,-0.45386451482772827,0.7553344964981079,-0.4727335274219513,0.3040589392185211,0.4652142822742462,0.42100203037261963
2.831368923187256,-0.16780349612236023,-0.5451275706291199,0.5058815479278564,-0.8568370291639317,-0.7501366427799656,-1.986015530593875,-0.44642382860183716,0.7557751536369324,-0.4790717363357544,0.09273973107337952,0.2520008087158203,0.11213438212871552
2.8513758182525635,-0.17453613877296448,-0.5478611588478088,0.5053720474243164,-0.8564911346712079,-0.7479448260251687,-1.987006704993771,-0.4455505609512329,0.7555485963821411,-0.48024076223373413,-0.1154225543141365,0.044609274715185165,-0.1800939291715622
2.8713788986206055,-0.1997688114643097,-0.5382564663887024,0.5044103860855103,-0.8553631775579439,-0.7577755706379034,-1.9989871417424159,-0.4508354365825653,0.7548092007637024,-0.4764561653137207,-0.3436146080493927,-0.1176152378320694,-0.4774361848831177
2.89137601852417,-0.2489561140537262,-0.5213363170623779,0.4970320463180542,-0.8532053272993241,-0.7794078946391287,-2.022793781791934,-0.4621797800064087,0.7533919811248779,-0.4677503705024719,-0.5955150723457336,-0.2448369264602661,-0.8059272170066833
2.911369800567627,-0.3027985692024231,-0.49638426303863525,0.48372313380241394,-0.8490786083695501,-0.8119315575920493,-2.058375121652146,-0.4793974757194519,0.7506719827651978,-0.45460930466651917,-0.7883389592170715,-0.31642279028892517,-1.1462591886520386
2.9313716888427734,-0.3292278051376343,-0.4733429551124573,0.4513733983039856,-0.8416033760442885,-0.8530036532990374,-2.104823419976939,-0.501872718334198,0.7457123398780823,-0.4382202625274658,-0.994047999382019,-0.33076319098472595,-1.493011236190796
2.9514198303222656,-0.29164421558380127,-0.4474285840988159,0.395971417427063,-0.8295391305810146,-0.9029810818944543,-2.1602753183493255,-0.5301637053489685,0.7376202344894409,-0.4181423485279083,-1.0784250497817993,-0.6204175353050232,-1.8017653226852417
2.9713869094848633,-0.2739594578742981,-0.38988810777664185,0.3391221761703491,-0.8113470584397839,-0.9640854583367345,-2.2197570700886304,-0.5656402111053467,0.7252153158187866,-0.39257365465164185,-1.109796404838562,-1.1443183422088623,-2.0997750759124756
2.9913697242736816,-0.4369332194328308,-0.30670034885406494,0.3127988576889038,-0.7843406373220956,-1.03509236406174,-2.2825072451145454,-0.608690619468689,0.7063586115837097,-0.36132174730300903,-1.1296417713165283,-1.383621335029602,-2.586991548538208
3.011368751525879,-0.7219956517219543,-0.24648690223693848,0.34051498770713806,-0.7459596241814271,-1.1071331353561324,-2.350408527347648,-0.6568954586982727,0.6786769032478333,-0.3284605145454407,-1.3870609998703003,-1.029247522354126,-3.1371374130249023
3.0305428504943848,-0.8288255333900452,-0.20010048151016235,0.3454391658306122,-0.6982722292832195,-1.1717728694377725,-2.425732946383166,-0.7057814002037048,0.6428952813148499,-0.29758748412132263,-1.7579230070114136,-0.5376008749008179,-3.5194129943847656
3.0513699054718018,-0.5165886878967285,-0.11542379856109619,0.21679788827896118,-0.6460176414868847,-1.231185756467644,-2.5026743279109214,-0.7528815865516663,0.6020113229751587,-0.265992134809494,-1.9242075681686401,-0.710777997970581,-3.4807629585266113
3.0713717937469482,-0.2690171003341675,0.04435175657272339,0.04579436779022217,-0.5933033546311823,-1.2890691614749976,-2.569489714186694,-0.7964125871658325,0.5591028928756714,-0.2305019050836563,-1.5750720500946045,-1.1851154565811157,-3.2073073387145996
3.0909509658813477,-0.2654097080230713,0.11501216888427734,-0.046445369720458984,-0.541301834668079,-1.341210243824238,-2.6179737674581585,-0.834550678730011,0.5152521729469299,-0.19504016637802124,-1.099025845527649,-1.3450090885162354,-2.882070302963257
3.111377716064453,-0.3964715600013733,0.1057879626750946,-0.025534644722938538,-0.4922520534527836,-1.3831229428046126,-2.6536440887459936,-0.865796685218811,0.47261175513267517,-0.1644219309091568,-1.0067600011825562,-1.033496379852295,-2.5753283500671387
3.1314218044281006,-0.4889085292816162,0.11190295219421387,0.03318154811859131,-0.44860120107109436,-1.414301495483912,-2.6881026273731505,-0.8900435566902161,0.43370556831359863,-0.14043554663658142,-1.3413165807724,-0.5197963118553162,-2.260974884033203
3.151371955871582,-0.4564063549041748,0.11201402544975281,0.05317539721727371,-0.4119105590442566,-1.438162745970848,-2.7307208422832168,-0.9083092212677002,0.4003608226776123,-0.12118375301361084,-2.0389585494995117,-0.11641875654459,-1.9368070363998413
3.1713709831237793,-0.3452562093734741,0.10561361908912659,0.05012912303209305,-0.38549169481150586,-1.4588279115314107,-2.7960412699235344,-0.9208112955093384,0.3760147988796234,-0.10353481024503708,-3.640594482421875,0.6364716291427612,-1.4255133867263794
3.191368818283081,-0.28941941261291504,0.0567685067653656,0.007691875100135803,-0.3711915502403523,-1.4659900582468788,-2.8870481413151037,-0.9267823100090027,0.362726092338562,-0.09748981148004532,-4.6328864097595215,1.9415308237075806,-0.9771602153778076
3.211416721343994,-0.23712939023971558,0.27581119537353516,-0.20596998929977417,-0.35411734202149686,-1.467888577020185,-2.987648320537994,-0.9329908490180969,0.34676259756088257,-0.09635235369205475,-4.9002766609191895,1.1466248035430908,-1.6921355724334717
3.231397867202759,0.05969548225402832,0.3578028082847595,-0.12743335962295532,-0.33055729001980977,-1.484292345554006,-3.0868368840648506,-0.9423248171806335,0.3245702087879181,-0.08171878010034561,-3.8927161693573,0.5140970945358276,-1.4588022232055664
3.251406669616699,0.1842437982559204,0.2662738561630249,0.007282920181751251,-0.3078241260115711,-1.5015029033711051,3.1235354785607576,-0.9507080316543579,0.3029857575893402,-0.06598345935344696,-3.0239341259002686,0.19781053066253662,-1.4152767658233643
3.271432876586914,0.09073573350906372,0.3649626672267914,0.07100368291139603,-0.28065993704491815,-1.5129557259540678,3.0632180820691697,-0.959265947341919,0.27698981761932373,-0.05554647743701935,-2.5119471549987793,0.4322702884674072,-1.68174147605896
3.2913689613342285,0.09463000297546387,0.2895306944847107,0.030844874680042267,-0.246622615518571,-1.5145861406996717,3.0166856185103215,-0.9682108759880066,0.24413016438484192,-0.05448070541024208,-1.814117431640625,0.5640281438827515,-1.9558138847351074
3.311368942260742,0.2109951376914978,0.4163915514945984,-0.04407990723848343,-0.20759384889689275,-1.5132526552733951,2.9833967812810336,-0.9769102334976196,0.2061060070991516,-0.05627712979912758,-1.2053494453430176,0.25034406781196594,-2.144636869430542
3.331367015838623,0.2694595456123352,0.4976314902305603,-0.12326449155807495,-0.16389842653312306,-1.517029999239667,2.9618593171238325,-0.9851731061935425,0.1631656140089035,-0.05302023887634277,-0.6994096040725708,-0.22198575735092163,-2.339730739593506
3.351369857788086,0.2192208170890808,0.5631588101387024,-0.17559099197387695,-0.116194910983448,-1.5267155976287967,2.949189122011394,-0.9922922849655151,0.1159336268901825,-0.043769318610429764,-0.34622251987457275,-0.5108250379562378,-2.486264705657959
3.3713698387145996,0.12070643901824951,0.6375617980957031,-0.18063682317733765,-0.06631367131989342,-1.5374561088942715,2.942045914929524,-0.9972477555274963,0.06626507639884949,-0.033260781317949295,-0.1965629756450653,-0.49171683192253113,-2.509484052658081
3.391364812850952,0.08226317167282104,0.730914831161499,-0.21089696884155273,-0.018430078742492625,-1.5475717043179835,2.9363676738912234,-0.9995605945587158,0.01842903532087803,-0.023218590766191483,-0.2720412313938141,-0.5027899742126465,-2.2610111236572266
3.411386013031006,0.0921868085861206,0.8365589380264282,-0.23469001054763794,0.021695555419712225,-1.5572375669900764,2.9285139889432186,-0.9996727705001831,-0.02169385366141796,-0.013555154204368591,-0.4640581011772156,-0.4473869204521179,-1.7362991571426392
3.4314489364624023,0.10301530361175537,0.8842865824699402,-0.24873173236846924,0.04951374709056899,-1.5640876936453814,2.9171575207458207,-0.9987520575523376,-0.049493517726659775,-0.006700361613184214,-0.6302303075790405,-0.2780379056930542,-1.0513402223587036
3.4513697624206543,0.14262467622756958,0.9018682241439819,-0.21593374013900757,0.06264529194480545,-1.5673171582292278,2.9044897697969985,-0.9980324506759644,-0.06260432302951813,-0.003472337033599615,-0.5748833417892456,-0.11681042611598969,-0.26315274834632874
3.471397876739502,0.1933475136756897,0.891212522983551,-0.25670528411865234,0.060698628513852965,-1.569152080232262,2.8977044800191876,-0.9981570839881897,-0.06066136434674263,-0.001641217852011323,-0.016228538006544113,-0.14504988491535187,0.4106277823448181
3.491377830505371,0.22086822986602783,0.8840087652206421,-0.3426281213760376,0.04839534241877576,-1.5745159113214489,2.9067891314695604,-0.9988224506378174,-0.048376452177762985,0.0037152215372771025,0.970446765422821,-0.37528735399246216,0.7983722686767578
3.511366844177246,0.23834174871444702,0.8388018012046814,-0.34639108180999756,0.02899143635381786,-1.5869031571167878,2.9367184508444675,-0.9994503855705261,-0.028987376019358635,0.016099369153380394,2.0267908573150635,-0.7833855152130127,1.1119961738586426
3.5303878784179688,0.13083773851394653,0.7079207897186279,-0.2555990219116211,0.004002379242635219,-1.60655466328328,2.9857935870000425,-0.9993528127670288,-0.004002368543297052,0.035750433802604675,2.9229726791381836,-1.016528606414795,1.1972639560699463
3.5513699054718018,-0.12462204694747925,0.5131836533546448,-0.18523705005645752,-0.020310760305706672,-1.6234238992586691,3.04858789395085,-0.9984096884727478,0.020309364423155785,0.0525924414396286,3.3758175373077393,-0.646704375743866,0.9191281199455261
3.5713698863983154,-0.2580670118331909,0.337863028049469,-0.060013771057128906,-0.039100048862682056,-1.6286588598984357,3.1137126497452714,-0.9975635409355164,0.03909008577466011,0.05778605863451958,3.1622118949890137,-0.09254015237092972,0.6115391850471497
3.5914018154144287,-0.1749151349067688,0.2041279375553131,0.09673536568880081,-0.05334364112167212,-1.6235440382153856,-3.1124864460380004,-0.997188925743103,0.05331834778189659,0.05264827236533165,2.562803268432617,0.29473602771759033,0.5461940765380859
3.611367702484131,-0.06383693218231201,0.1402616798877716,0.23773515224456787,-0.06792038704165182,-1.6127417808118338,-3.0700917895354745,-0.9968166947364807,0.0678681805729866,0.041836466640233994,1.7440580129623413,0.5600342154502869,0.7336544394493103
3.6313648223876953,-0.030502259731292725,0.02643100917339325,0.3495892286300659,-0.08512191756334045,-1.5934223755008503,-3.0428220049565256,-0.9961244463920593,0.08501915633678436,0.022542206570506096,1.0434585809707642,1.2100335359573364,0.8321366906166077
3.651444911956787,0.0727834701538086,-0.13171906769275665,0.3909098505973816,-0.10412082485835411,-1.5648794529732817,-3.027029270612025,-0.9945669770240784,0.10393279790878296,-0.005884795915335417,0.650412917137146,1.4547873735427856,1.1999890804290771
3.6714088916778564,0.26707613468170166,-0.17093263566493988,0.34250110387802124,-0.13490341567396846,-1.543350077611511,-3.012192729356564,-0.9905410408973694,0.1344946026802063,-0.02719346433877945,0.8256057500839233,0.41837745904922485,1.8428881168365479
3.6914010047912598,0.17183291912078857,-0.0846400111913681,0.4603559374809265,-0.170006700824336,-1.5356158364443873,-2.989250057637401,-0.9849739074707031,0.1691889464855194,-0.03466616943478584,1.4437373876571655,0.1609026938676834,1.612998604774475
3.711378812789917,-0.038541972637176514,-0.17690035700798035,0.5098680257797241,-0.19630134648483677,-1.5233791518585347,-2.952246000841765,-0.9796923995018005,0.19504305720329285,-0.04648909345269203,2.0045905113220215,0.32879695296287537,1.2421177625656128
3.731419801712036,0.05590510368347168,-0.37074634432792664,0.48858577013015747,-0.21787930679763984,-1.511672173356442,-2.909117459186561,-0.974652111530304,0.21615955233573914,-0.057692721486091614,2.0644283294677734,-0.11487404257059097,1.154426097869873
3.7513856887817383,0.1967042088508606,-0.44106531143188477,0.3854016065597534,-0.23646035784291689,-1.5106669648652329,-2.8664905012887907,-0.9704165458679199,0.23426295816898346,-0.058420952409505844,2.0051310062408447,-0.7222102284431458,0.9091847538948059
3.771352767944336,0.2468709945678711,-0.3153321146965027,0.29352521896362305,-0.24821670368177107,-1.5179998766569123,-2.8232468878104253,-0.9680013656616211,0.2456757128238678,-0.05115457624197006,2.1480135917663574,-1.0364000797271729,0.5059945583343506
3.791341781616211,0.2439042329788208,-0.20672458410263062,0.2230309247970581,-0.25323027456469566,-1.5289918814664418,-2.777183011605662,-0.967262327671051,0.25053250789642334,-0.04045943543314934,2.2806098461151123,-1.2297401428222656,0.23078516125679016
3.8113298416137695,0.20737284421920776,-0.15369665622711182,0.32345473766326904,-0.254629563124389,-1.5413401666720332,-2.733061299950549,-0.9673368334770203,0.25188693404197693,-0.028502272441983223,1.8769770860671997,-0.9278639554977417,0.052553337067365646
3.831368923187256,0.1172935962677002,-0.22826239466667175,0.4114799499511719,-0.2533327760310558,-1.5419994341255094,-2.7004364383596675,-0.9676811695098877,0.25063174962997437,-0.027873916551470757,1.3285388946533203,-0.044579725712537766,-0.022955352440476418
3.8513169288635254,0.2262793779373169,-0.3010127544403076,0.298428475856781,-0.25479521827925855,-1.535850697521666,-2.6769882143997172,-0.9671241044998169,0.25204724073410034,-0.03381052240729332,1.0157376527786255,-0.06597085297107697,0.24849733710289001
3.8713278770446777,0.3464694619178772,-0.2078416645526886,0.19866293668746948,-0.260917168747527,-1.5367777180782227,-2.6552344485552775,-0.9655948877334595,0.2579667866230011,-0.03286087140440941,1.1053725481033325,-0.6158020496368408,0.3883477449417114
3.8913259506225586,0.25546109676361084,-0.07246127724647522,0.1578744649887085,-0.26649183963031087,-1.5458112971707625,-2.6301362637698493,-0.9643998742103577,0.2633487284183502,-0.024100573733448982,1.270460844039917,-0.8801833391189575,0.21303094923496246
3.9114038944244385,0.06553524732589722,-0.022486329078674316,0.21879005432128906,-0.2671537468715964,-1.553668456131106,-2.6047663485763413,-0.964384913444519,0.2639872133731842,-0.01651947572827339,1.1742385625839233,-0.43602243065834045,-0.07175470143556595
3.9303858280181885,0.01597994565963745,-0.12057825922966003,0.26414257287979126,-0.2650115708154661,-1.551445231545861,-2.582228576357983,-0.9649088382720947,0.26192042231559753,-0.018674373626708984,0.994517982006073,-0.047740545123815536,-0.058645498007535934
3.951335906982422,0.15746355056762695,-0.1453535556793213,0.2772752642631531,-0.264895728749188,-1.5479088571857005,-2.5636173820155053,-0.9648672938346863,0.2618086338043213,-0.022087227553129196,0.8237436413764954,-0.127294659614563,0.07069741934537888
3.9713640213012695,0.19530916213989258,-0.13470619916915894,0.25247466564178467,-0.266037625763269,-1.5478279333830667,-2.5480857395532643,-0.9645658135414124,0.26291054487228394,-0.02215842343866825,0.6583299040794373,-0.2739543318748474,0.055998850613832474
3.991367816925049,0.10800611972808838,-0.10383769869804382,0.20789378881454468,-0.2662433072690562,-1.5508110524917469,-2.536235905078046,-0.9645736813545227,0.2631089687347412,-0.019279835745692253,0.5030863881111145,-0.30913975834846497,-0.006162434350699186
4.011366844177246,0.045310258865356445,-0.09001252055168152,0.187183678150177,-0.26543598225592974,-1.5545361137982125,-2.5275472154253964,-0.9648507237434387,0.26232999563217163,-0.015690062195062637,0.3613298237323761,-0.2965500056743622,-0.04768754169344902
4.031376838684082,0.05198371410369873,-0.09945231676101685,0.1785721778869629,-0.2652880889446363,-1.5587963150778614,-2.5205665524807706,-0.9649476408958435,0.26218730211257935,-0.011579939164221287,0.3150239586830139,-0.33045729994773865,0.05631434917449951
4.051366806030273,0.05051225423812866,-0.0895242691040039,0.15699201822280884,-0.2673498490151118,-1.5640783812471841,-2.5136289525728346,-0.9644528031349182,0.2641763687133789,-0.006479238625615835,0.3786841332912445,-0.3864120841026306,0.12517049908638
4.071366786956787,0.005757629871368408,-0.07026675343513489,0.12901651859283447,-0.2699602696041496,-1.5695104057678877,-2.5035936377859547,-0.9637807607650757,0.2666931450366974,-0.0012393466895446181,0.5867258906364441,-0.4251026511192322,0.14283660054206848
4.091368675231934,-0.0640372633934021,-0.07175332307815552,0.11174166202545166,-0.27216832584755135,-1.5742800827715244,-2.4897803896819024,-0.9631844758987427,0.268820583820343,0.0033555133268237114,0.7217567563056946,-0.39801225066185,0.06657687574625015
4.111368894577026,-0.12122488021850586,-0.09426185488700867,0.13836205005645752,-0.2729624087406133,-1.577028581909829,-2.47535041920329,-0.9629579186439514,0.26958534121513367,0.006001477129757404,0.6538060903549194,-0.26640942692756653,0.009377434849739075
4.1313676834106445,-0.1344970464706421,-0.13765183091163635,0.15012705326080322,-0.2729878424049877,-1.5778678572674079,-2.4632877258995447,-0.9629456400871277,0.26960983872413635,0.006809612736105919,0.5098429322242737,-0.16187314689159393,-0.0031676481012254953
4.151395797729492,-0.11551505327224731,-0.1452835202217102,0.13159966468811035,-0.273021905756173,-1.57869536682669,-2.4540870148306118,-0.9629305005073547,0.2696426510810852,0.007606384344398975,0.38682466745376587,-0.18638789653778076,-0.010054873302578926
4.171382904052734,-0.12176889181137085,-0.11223971843719482,0.10357344150543213,-0.27233173580629694,-1.580559040408041,-2.4466643804765016,-0.9631004929542542,0.26897796988487244,0.009402773343026638,0.3242175579071045,-0.20705324411392212,-0.08188317716121674
4.191405773162842,-0.1439121961593628,-0.08851563930511475,0.12548744678497314,-0.27021294829972936,-1.5825933094541578,-2.4411564043747576,-0.9636470675468445,0.26693665981292725,0.011368654668331146,0.20765288174152374,-0.15468145906925201,-0.10269082337617874
4.211366891860962,-0.1716288924217224,-0.10662755370140076,0.12686991691589355,-0.2687721178431263,-1.584557692517539,-2.437938098796266,-0.9640065431594849,0.26554784178733826,0.013266883790493011,0.10663300007581711,-0.10627717524766922,-0.04599640518426895
4.2313690185546875,-0.20080095529556274,-0.07569894194602966,0.15730607509613037,-0.2684091375455824,-1.584704117387099,-2.4363670369197377,-0.9641009569168091,0.26519787311553955,0.013409378938376904,0.06889928132295609,0.030329491943120956,-0.009099080227315426
4.25133490562439,-0.21329230070114136,-0.051061660051345825,0.13869965076446533,-0.26852574762749143,-1.583017231171345,-2.433821482055805,-0.9640911817550659,0.2653103172779083,0.011782652698457241,0.19095474481582642,0.05107072368264198,0.03678736090660095
4.271374702453613,-0.19993805885314941,-0.05532380938529968,0.09804177284240723,-0.2699396248898107,-1.581890690560808,-2.428767520370294,-0.963727593421936,0.2666732370853424,0.010692383162677288,0.29885122179985046,-0.07016977667808533,0.09774860739707947
4.2913658618927,-0.21191322803497314,-0.06276461482048035,0.10722529888153076,-0.2723729597161425,-1.5820272976968157,-2.422037501861756,-0.9630746245384216,0.26901766657829285,0.010816718451678753,0.3588412404060364,-0.11320219933986664,0.12006190419197083
4.311365842819214,-0.2501819133758545,-0.06161186099052429,0.11950767040252686,-0.2744244434994891,-1.5815592575292243,-2.41277745545085,-0.9625256657600403,0.2709929645061493,0.010359997861087322,0.5709063410758972,-0.11595644056797028,0.07005216181278229
4.331367015838623,-0.26284199953079224,-0.07143270969390869,0.09075462818145752,-0.27575018883567176,-1.5801258468623058,-2.3986218613683357,-0.9621793627738953,0.2722688615322113,0.008976932615041733,0.7977391481399536,-0.13703927397727966,0.07467198371887207
4.35140585899353,-0.2912049889564514,-0.08434388041496277,0.06286084651947021,-0.27754492669325787,-1.577497474674209,-2.3789774888013993,-0.9617093801498413,0.27399536967277527,0.006444653030484915,1.0651307106018066,-0.10619896650314331,0.0815000981092453
4.371373891830444,-0.38595253229141235,-0.05424600839614868,0.042112112045288086,-0.27825116508705555,-1.5725125149697978,-2.355346817074106,-0.9615360498428345,0.27467450499534607,0.001650178455747664,1.196833610534668,-0.06375493109226227,-0.052496086806058884
4.3913679122924805,-0.49066001176834106,-0.04866263270378113,0.06238090991973877,-0.2758253549347875,-1.5661310215679498,-2.330159000482223,-0.9621902108192444,0.27234119176864624,-0.004488943610340357,1.2179914712905884,0.10700340569019318,-0.13104115426540375
4.411391735076904,-0.5652813911437988,-0.05161184072494507,0.08146804571151733,-0.2731032602349393,-1.555455368774899,-2.307946963013167,-0.962825357913971,0.26972097158432007,-0.014771821908652782,0.8445562720298767,0.3568289577960968,-0.15058380365371704
4.431367874145508,-0.5980249047279358,-0.06312289834022522,0.06390047073364258,-0.27024244524789237,-1.5440381971785242,-2.296552437880883,-0.963361382484436,0.2669650912284851,-0.025783902034163475,0.2882595956325531,0.49658748507499695,-0.09766709804534912
4.451369762420654,-0.6021347045898438,-0.024046093225479126,-0.0028157830238342285,-0.2703542368124943,-1.5365652420166351,-2.2956203404149145,-0.963111937046051,0.2670728266239166,-0.03298124670982361,-0.10212235897779465,0.14837251603603363,0.129069983959198
4.471367835998535,-0.5353875160217285,0.07415825128555298,-0.09892964363098145,-0.2714482442257324,-1.5407688295766904,-2.301906579310043,-0.9629495143890381,0.2681269347667694,-0.028923656791448593,-0.31303757429122925,-0.32457438111305237,0.03751172125339508
4.491366863250732,-0.5692873597145081,0.11320483684539795,-0.10575002431869507,-0.27433276442902177,-1.5488629935591933,-2.307233428218218,-0.9623748064041138,0.2709047198295593,-0.021111473441123962,-0.23644568026065826,-0.2983080744743347,0.20977406203746796
4.511415004730225,-0.5608540773391724,0.13255411386489868,-0.03981578350067139,-0.27991565575189115,-1.5535274680744187,-2.309965517250179,-0.9609354138374329,0.27627459168434143,-0.016595907509326935,-0.04046177491545677,-0.09966446459293365,0.35422036051750183
4.53136682510376,-0.5166134238243103,0.164686918258667,-0.05178630352020264,-0.28718134603311235,-1.5560607461931952,-2.3099264365306222,-0.958942174911499,0.2832501232624054,-0.014131592586636543,0.03709714487195015,-0.17417128384113312,0.37374788522720337
4.551401853561401,-0.4508865475654602,0.11205515265464783,-0.05089890956878662,-0.2959159670636976,-1.5597686627501717,-2.309212007047333,-0.9564774036407471,0.29161614179611206,-0.010548138990998268,-0.013491674326360226,-0.22351761162281036,0.5028506517410278
4.571376800537109,-0.39478081464767456,0.0822756290435791,-0.009254335425794125,-0.3070157580367325,-1.565505857239908,-2.311919624643707,-0.9532263278961182,0.3022152781486511,-0.005043061915785074,-0.29413437843322754,-0.2712397575378418,0.595160186290741
4.591366767883301,-0.37864333391189575,0.06804591417312622,0.02848362922668457,-0.3189570848886528,-1.5740471628901904,-2.322078405341811,-0.9495580196380615,0.31357643008232117,0.00308686844073236,-0.654469907283783,-0.2672225534915924,0.6136632561683655
4.611374855041504,-0.30765628814697266,0.039839357137680054,0.023718833923339844,-0.3319620305087206,-1.5842505088664025,-2.337942844620315,-0.9453192949295044,0.32589855790138245,0.012719265185296535,-0.7954794764518738,-0.253995805978775,0.7115552425384521
4.631412982940674,-0.21859943866729736,0.0476858913898468,-0.038437843322753906,-0.3467160234594223,-1.5951848896637661,-2.353394185757682,-0.940214216709137,0.3398110866546631,0.02293502166867256,-0.5977615714073181,-0.32883763313293457,0.776317834854126
4.651375770568848,-0.17420995235443115,0.05937504768371582,-0.08635997772216797,-0.3620250142608644,-1.6051113801784798,-2.3629387010600964,-0.9346311688423157,0.35416871309280396,0.03208451345562935,-0.24721287190914154,-0.3022615909576416,0.8057793974876404
4.671461820602417,-0.12246334552764893,0.016602277755737305,-0.091330885887146,-0.3789865870897324,-1.6118597720767525,-2.366359771043151,-0.9282569289207458,0.3699791729450226,0.03813886642456055,-0.023591473698616028,-0.27907025814056396,0.9009963870048523
4.690835952758789,-0.075095534324646,-0.013592630624771118,-0.09927701950073242,-0.39819312222048864,-1.6182945444739925,-2.36636440022892,-0.9207237362861633,0.3877534568309784,0.04376565292477608,0.080923892557621,-0.37871962785720825,1.0342442989349365
4.711388826370239,-0.0805252194404602,-0.028097957372665405,-0.06984233856201172,-0.41892137795141765,-1.6275203820303366,-2.3675266313044996,-0.9120590686798096,0.4067753255367279,0.051791246980428696,-0.13339173793792725,-0.49645164608955383,1.0249673128128052
4.731366872787476,-0.10683077573776245,-0.0728280246257782,-0.05456852167844772,-0.43877752788145075,-1.641719715783173,-2.3747048485986864,-0.9029960632324219,0.42483311891555786,0.06415113806724548,-0.3696322739124298,-0.6479631662368774,1.0125924348831177
4.751365900039673,-0.0787692666053772,-0.05214756727218628,-0.07995773106813431,-0.4581099592701742,-1.6615340032869566,-2.3854449321797238,-0.8932003378868103,0.4422537386417389,0.08127008378505707,-0.41453155875205994,-0.8765904903411865,0.9798834323883057
4.7713658809661865,-0.07029110193252563,0.005043119192123413,-0.09790708124637604,-0.47504047955901996,-1.6858148033634859,-2.396770114161256,-0.8833984732627869,0.4573744535446167,0.10205759108066559,-0.3393438458442688,-0.9777913093566895,0.7992035746574402
4.791432857513428,-0.11286145448684692,0.019601881504058838,0.04922151565551758,-0.4917376952505545,-1.7030336361626366,-2.4050597479416016,-0.8738176822662354,0.47215840220451355,0.1162295788526535,-0.21655240654945374,-0.3632887303829193,0.9200829863548279
4.811367988586426,-0.1970524787902832,0.015134066343307495,0.06525744497776031,-0.507309452031253,-1.7093680843888315,-2.4108755517049985,-0.8656765818595886,0.48582732677459717,0.12073208391666412,-0.04322073981165886,-0.06381520628929138,0.7073124051094055
4.8313658237457275,-0.15190815925598145,0.059438854455947876,-0.016147121787071228,-0.5211447457262178,-1.7107277157292797,-2.410491707451034,-0.8587731719017029,0.4978732466697693,0.12095984816551208,0.2156018763780594,-0.13984614610671997,0.6767187118530273
4.851365804672241,-0.08835148811340332,0.05384570360183716,0.002660505473613739,-0.5347556564349127,-1.7135956031244337,-2.4092955299809327,-0.8516356945037842,0.5096307992935181,0.12244638800621033,0.02370835840702057,-0.15903422236442566,0.6497747302055359
4.871402740478516,-0.09015506505966187,-0.013006985187530518,0.047507405281066895,-0.5466670524958805,-1.7183450700775098,-2.415063428702664,-0.8449798822402954,0.5198429226875305,0.12558841705322266,-0.3383485972881317,-0.015075895935297012,0.603325366973877
4.891366958618164,-0.061253368854522705,-0.031260788440704346,0.0795215517282486,-0.5572449569852397,-1.722369771310034,-2.427496864581685,-0.8389848470687866,0.5288499593734741,0.12815073132514954,-0.5195650458335876,0.26866254210472107,0.6343045830726624
4.911364793777466,-0.016558825969696045,-0.01947683095932007,0.09616877138614655,-0.5686251998139541,-1.7236174083707456,-2.4432980752683253,-0.8328218460083008,0.5384740829467773,0.1282728761434555,-0.6004682779312134,0.4223426282405853,0.6545588970184326
4.931413888931274,-0.0190008282661438,0.02012002468109131,0.0697321891784668,-0.5787075162437738,-1.7212782265907167,-2.455315932283433,-0.827709436416626,0.5469423532485962,0.12550406157970428,-0.15272624790668488,0.4670456647872925,0.5082743167877197
4.951370716094971,0.012716352939605713,0.05901521444320679,0.004749894142150879,-0.5882143890044337,-1.7115485639442578,-2.4530854721588757,-0.823705792427063,0.5548763871192932,0.11671017110347748,0.3973921239376068,0.3853621482849121,0.4584774374961853
4.971211910247803,0.043506622314453125,0.018129587173461914,0.04523909091949463,-0.5993798931620486,-1.699835407570635,-2.445999839229078,-0.8188210129737854,0.5641305446624756,0.10625029355287552,0.2262391299009323,0.4458208680152893,0.5100608468055725
4.991382837295532,0.0024996399879455566,-0.0330427885055542,0.05841207504272461,-0.6092193242098454,-1.6896136523035448,-2.445169667216165,-0.8143130540847778,0.572227418422699,0.09721239656209946,-0.029164310544729233,0.5025289058685303,0.4755210280418396
5.011366844177246,0.02522188425064087,-0.020356953144073486,0.021294258534908295,-0.6183212209784219,-1.682907765837733,-2.449797792835471,-0.809737503528595,0.5796680450439453,0.09116309881210327,-0.1771503984928131,0.41124799847602844,0.4826209843158722
5.031390905380249,0.07921451330184937,-0.003277420997619629,0.031957514584064484,-0.6277283204031804,-1.6780981678546174,-2.455407909626858,-0.8047090768814087,0.5873076319694519,0.08667968958616257,-0.15928858518600464,0.43586277961730957,0.5025187730789185
5.0513787269592285,0.08358997106552124,-0.006497681140899658,0.04070938378572464,-0.6369034373635433,-1.6697882134798754,-2.457999012215123,-0.8000055551528931,0.5947088599205017,0.07945375889539719,0.0947093516588211,0.569130003452301,0.4391203820705414
5.071446895599365,0.11497694253921509,-0.011475086212158203,0.024112582206726074,-0.6454753752440656,-1.6541913923824436,-2.4521637838481674,-0.7960377931594849,0.6015782356262207,0.0665399506688118,0.46794214844703674,0.6027049422264099,0.40158146619796753
5.091366767883301,0.16149967908859253,-0.00900346040725708,-0.00644267350435257,-0.6536382672602615,-1.6350802887155094,-2.4389931706371257,-0.7922369241714478,0.6080787777900696,0.050998397171497345,0.6095201969146729,0.5133775472640991,0.34482231736183167
5.111411809921265,0.20281082391738892,-0.07093459367752075,0.018102284520864487,-0.6613632108405587,-1.617211624555657,-2.4256889252466305,-0.7883058190345764,0.6141932010650635,0.03661574795842171,0.44833919405937195,0.516168475151062,0.3886628746986389
5.1313676834106445,0.21933311223983765,-0.11974900960922241,0.04828011989593506,-0.669531536282474,-1.6009622309077889,-2.4175703066606946,-0.7837557196617126,0.6206187009811401,0.023649873211979866,0.24697723984718323,0.5945224165916443,0.37511882185935974
5.151368856430054,0.24024122953414917,-0.1096075177192688,-0.0023345965892076492,-0.6765051961843166,-1.5864518197729012,-2.411488171816278,-0.7796698808670044,0.6260717511177063,0.012207113206386566,0.27830934524536133,0.48024260997772217,0.3334707021713257
5.171397686004639,0.29096680879592896,-0.08070462942123413,-0.03085339069366455,-0.683802705774668,-1.5730997195213041,-2.4027085278048457,-0.7751741409301758,0.6317453384399414,0.0017855336191132665,0.4315301179885864,0.29494792222976685,0.4020320177078247
5.191364765167236,0.3009037971496582,-0.09202688932418823,-0.024178624153137207,-0.691979517082404,-1.5605027022219653,-2.3904769981004375,-0.7699436545372009,0.6380626559257507,-0.0079257907345891,0.5025848150253296,0.22234483063220978,0.4122214615345001
5.211367845535278,0.28428077697753906,-0.1290474534034729,-0.03254061937332153,-0.699796616249709,-1.5466101688543816,-2.375682552835558,-0.7647495865821838,0.6440621018409729,-0.018499961122870445,0.6211888790130615,0.1903640776872635,0.39956873655319214
5.231366872787476,0.32845479249954224,-0.1469109058380127,-0.03201562538743019,-0.7073145989371987,-1.5328100276480006,-2.358165311107932,-0.7595615386962891,0.6497949361801147,-0.02886681817471981,0.6811007857322693,0.05057821422815323,0.38692519068717957
5.251396894454956,0.3464500308036804,-0.15280890464782715,0.004606962203979492,-0.7138071763369203,-1.5211379845307875,-2.339409218450944,-0.7549431324005127,0.6547162532806396,-0.037520069628953934,0.7012242078781128,-0.08993194252252579,0.3156595826148987
5.271399021148682,0.30839240550994873,-0.17103302478790283,0.0352858304977417,-0.7173318724782727,-1.5105298266088567,-2.32071192460271,-0.752194344997406,0.6573764085769653,-0.045387085527181625,0.7340879440307617,-0.07111475616693497,0.10919848084449768
5.291372776031494,0.2808856964111328,-0.15674632787704468,0.044518887996673584,-0.7181159536803147,-1.49748930699602,-2.2994316115500633,-0.7510243058204651,0.6579670906066895,-0.055154185742139816,0.8467744588851929,-0.04029487818479538,0.09207893908023834
5.311365842819214,0.24493563175201416,-0.05204218626022339,0.01840467005968094,-0.7184017823719369,-1.4831849596988103,-2.2761035840633763,-0.7499710321426392,0.6581822633743286,-0.0658746212720871,0.9136477112770081,-0.06662341952323914,0.07302268594503403
5.331398963928223,0.16106301546096802,0.016358911991119385,-0.011140644550323486,-0.7180222331695854,-1.4672620928456135,-2.2509035086585034,-0.7490757703781128,0.6578964591026306,-0.07783329486846924,0.9581891894340515,0.0143293971195817,0.08576101064682007
5.351367950439453,0.09564739465713501,0.038801491260528564,0.007998287677764893,-0.7179452850003464,-1.4498312354036362,-2.226682951563809,-0.7476555109024048,0.6578385233879089,-0.09088394045829773,0.8340016603469849,0.11654365062713623,0.10763638466596603
5.371436834335327,0.0664052963256836,0.03263986110687256,0.025981903076171875,-0.7187521172982941,-1.4334802406850997,-2.2061882252814398,-0.7455435395240784,0.6584460139274597,-0.1030234694480896,0.7329638600349426,0.17169947922229767,0.16684705018997192
5.39137077331543,0.05760139226913452,0.03590512275695801,-0.006152026355266571,-0.719969282539006,-1.4169824500536057,-2.185529118722971,-0.742949903011322,0.6593616008758545,-0.11518582701683044,0.8421241641044617,0.13350141048431396,0.17391866445541382
5.411395788192749,0.062006354331970215,0.0446431040763855,-0.04900623857975006,-0.720280931949614,-1.3971760550145338,-2.157645211903327,-0.7403206825256348,0.6595958471298218,-0.12984195351600647,1.2798218727111816,0.02975841984152794,0.20338767766952515
5.431361675262451,0.059136152267456055,0.053515076637268066,-0.036682069301605225,-0.7172310067270913,-1.3654891011854107,-2.1135221189296827,-0.7378013730049133,0.6573004126548767,-0.1536407470703125,2.0381767749786377,0.2119283229112625,0.11027206480503082
5.451398849487305,-0.0025487542152404785,0.056259095668792725,0.08319337666034698,-0.7076768859427306,-1.3188547302656581,-2.0536773380812905,-0.7358850836753845,0.6500702500343323,-0.1894250065088272,2.512941598892212,0.49229055643081665,0.08834309130907059
5.471388816833496,0.08527934551239014,-0.06052076816558838,-0.04818442463874817,-0.693173578183037,-1.2694361307021078,-1.9843843566437538,-0.7345561981201172,0.6389815807342529,-0.22832006216049194,3.056950092315674,-0.21330145001411438,0.02634425461292267
5.491377830505371,0.14035391807556152,-0.09233349561691284,-0.03362378478050232,-0.6807575786300926,-1.2351112776464082,-1.919974305577777,-0.7337225675582886,0.6293818950653076,-0.2559880018234253,1.99074125289917,-0.1729060858488083,0.1692972332239151
5.5113749504089355,-0.17591601610183716,-0.3282099962234497,-0.2075187861919403,-0.6673870474671827,-1.2103638594400574,-1.8861760724280239,-0.7349727153778076,0.618935763835907,-0.2770087718963623,0.6962560415267944,0.5443236827850342,-0.561000645160675
5.531368732452393,-0.17927712202072144,-0.49824976921081543,-0.23492714762687683,-0.6583993041616102,-1.2021681407748066,-1.8908797355252538,-0.7378372550010681,0.6118515133857727,-0.2850160598754883,-0.5037550330162048,0.49532780051231384,-0.2638620436191559
5.55141282081604,0.10864877700805664,-0.31533336639404297,-0.15846991539001465,-0.6621160577299818,-1.1992726247051055,-1.8976611066868914,-0.7348847985267639,0.6147871613502502,-0.2863236963748932,-0.04651141166687012,0.14807291328907013,0.24996161460876465
5.571374893188477,0.10044354200363159,0.17776530981063843,-0.18360120058059692,-0.6546367101400811,-1.1929038894371566,-1.8849787519911936,-0.7372996807098389,0.6088711023330688,-0.2926865816116333,1.5155982971191406,-0.3768951892852783,-0.9191584587097168
5.5913777351379395,0.05256539583206177,0.021763920783996582,0.06261643767356873,-0.6116994967772771,-1.1811481129987038,-1.851291586678121,-0.757307767868042,0.5742596387863159,-0.31098368763923645,1.544873595237732,-0.03676077350974083,-1.2586954832077026
5.61137580871582,0.07590168714523315,-0.324015736579895,0.1419541835784912,-0.5988410469819196,-1.1872645100753656,-1.8549227099911119,-0.7659804821014404,0.5636855959892273,-0.3090836703777313,-0.44111260771751404,-0.3324999511241913,-0.3241141438484192
5.631447792053223,-0.21245092153549194,-0.34915196895599365,-0.0854843258857727,-0.5996971300240975,-1.1911794660691273,-1.8606251266804936,-0.7667361497879028,0.5643925070762634,-0.3059035837650299,-0.1973530501127243,0.2509123682975769,0.2780359089374542
5.651365756988525,-0.1648106575012207,0.2256280779838562,0.033831238746643066,-0.5993869336993256,-1.1849198000067434,-1.8615309186544409,-0.7649684548377991,0.5641363859176636,-0.3107629418373108,0.4227609634399414,0.3313499689102173,-0.5438680052757263
5.67138671875,-0.05435723066329956,0.11294978857040405,0.11537164449691772,-0.5807194367777404,-1.1732568185893417,-1.8532372322009145,-0.7708686590194702,0.5486255884170532,-0.32368460297584534,0.6562647223472595,0.3757038414478302,-0.677070140838623
5.691367864608765,0.0875023603439331,-0.24962252378463745,0.22932201623916626,-0.5690385569352056,-1.1670860238545249,-1.8507779969669151,-0.7746972441673279,0.5388223528862,-0.330930233001709,0.0028347407933324575,0.06750641763210297,-0.39087244868278503
5.7107319831848145,0.11376023292541504,-0.34886759519577026,0.11584043502807617,-0.565928457064141,-1.172508516282491,-1.8576822847284133,-0.7780211567878723,0.5361997485160828,-0.3273729383945465,-0.3187267482280731,-0.1654825210571289,-0.10803742706775665
5.731364727020264,0.06528252363204956,-0.10802429914474487,0.06758910417556763,-0.5661290808787599,-1.178492671900495,-1.8630597127090374,-0.7798669338226318,0.5363690853118896,-0.32267022132873535,-0.08993107825517654,-0.12128195911645889,-0.10348774492740631
5.7513957023620605,-0.012955665588378906,-0.016492247581481934,0.07306131720542908,-0.5622532167401828,-1.1796302923979811,-1.8630448193705167,-0.7821494936943054,0.5330938696861267,-0.3225730061531067,0.26115739345550537,0.01832467131316662,-0.23463094234466553
5.7713658809661865,-0.053615450859069824,-0.01125180721282959,0.12906402349472046,-0.5560711938057757,-1.1736714996513382,-1.8570466232387424,-0.783237636089325,0.5278534293174744,-0.3284963071346283,0.3463786840438843,0.2781944274902344,-0.12283691018819809
5.791406869888306,-0.09596514701843262,0.008850812911987305,0.18720346689224243,-0.5511481707940228,-1.1637915450530711,-1.8534853910752602,-0.7823308110237122,0.523665726184845,-0.33724308013916016,0.15208329260349274,0.5352287292480469,-0.2761717438697815
5.8115386962890625,-0.14511215686798096,0.010021805763244629,0.1879417896270752,-0.5422394653764666,-1.151298971384913,-1.8540681257770149,-0.7822865843772888,0.5160555243492126,-0.3488762080669403,0.24881143867969513,0.7254318594932556,-0.626990556716919
5.8314528465271,-0.1280360221862793,0.006266742944717407,0.23299622535705566,-0.520629014865584,-1.1347054523397695,-1.8535295178743765,-0.786316454410553,0.49742591381073,-0.3664342761039734,0.6947578191757202,0.8777101635932922,-1.2359553575515747
5.85143780708313,-0.041729092597961426,-0.1594218611717224,0.2520049512386322,-0.49443127767006184,-1.1174941589967458,-1.8515307897410567,-0.7913397550582886,0.4745311141014099,-0.38548874855041504,0.2982092797756195,0.7947074770927429,-1.1131727695465088
5.871509790420532,-0.023667752742767334,-0.2532999813556671,0.38606059551239014,-0.4708030680360622,-1.1078010014835258,-1.868380898284172,-0.7973772287368774,0.453602135181427,-0.39803868532180786,-0.5716040730476379,0.980753481388092,-1.6781049966812134
5.891409873962402,-0.07679539918899536,-0.4469657838344574,0.24802717566490173,-0.45328073139299035,-1.104778450447712,-1.9051181506738777,-0.8031484484672546,0.4379173219203949,-0.40395665168762207,-1.6944835186004639,0.9262416362762451,-1.2173347473144531
5.9114089012146,-0.10814762115478516,-0.38043734431266785,0.2173023521900177,-0.45370495325366944,-1.1084636408372057,-1.9588136686662658,-0.8044652938842773,0.43829864263534546,-0.40091127157211304,-2.555453062057495,1.09755539894104,-1.0846507549285889
5.931408882141113,-0.1812659502029419,-0.21744278073310852,0.15769660472869873,-0.45418018935121973,-1.1164205243675713,-2.0282036945255983,-0.8074426054954529,0.4387257695198059,-0.39440613985061646,-3.0763978958129883,1.0832490921020508,-1.647640347480774
5.951416015625,-0.20835953950881958,-0.15813222527503967,0.07249325513839722,-0.4515673573002674,-1.1339324770651575,-2.1117846909064935,-0.8152612447738647,0.43637633323669434,-0.3806902766227722,-3.6622273921966553,0.80318284034729,-1.746950387954712
5.971261024475098,-0.23180723190307617,-0.2238447368144989,0.08568674325942993,-0.45466517286602937,-1.1634021093105396,-2.211573749540051,-0.8248792290687561,0.4391615390777588,-0.35596564412117004,-4.702959060668945,0.6878010034561157,-1.6844134330749512
5.997452735900879,-0.2962144613265991,-0.20079419016838074,0.2399497926235199,-0.47128214723277184,-1.2337474596510436,-2.468275646329677,-0.8408552408218384,0.45402902364730835,-0.29465243220329285,-5.87047815322876,1.6229077577590942,-1.6788873672485352
6.020058870315552,-0.2008398175239563,-0.1303800344467163,0.1870192587375641,-0.47708502996454255,-1.2599383205356065,-2.601638421349279,-0.8457605242729187,0.4591916501522064,-0.2717207074165344,-5.525770664215088,1.749324917793274,-1.5558381080627441
6.038985729217529,-0.11981266736984253,-0.0019157230854034424,0.10353058576583862,-0.47751390485739437,-1.2820138290089664,-2.7211119592392743,-0.8513635396957397,0.45957258343696594,-0.25292932987213135,-4.535560131072998,1.5822770595550537,-1.5582741498947144
6.060056686401367,-0.14090830087661743,0.10392388701438904,0.03269529342651367,-0.46748389725185746,-1.2950673017593057,-2.815134218678534,-0.8589849472045898,0.45064157247543335,-0.2430376261472702,-3.315403699874878,1.4033418893814087,-1.7448318004608154
6.0804057121276855,-0.17392414808273315,0.09288334846496582,0.07625576853752136,-0.449049428735146,-1.3002163790647796,-2.8881882228874125,-0.8680832386016846,0.4341093897819519,-0.2407911866903305,-2.6187033653259277,1.3542052507400513,-1.7785060405731201
6.101045846939087,-0.1649819016456604,0.025393247604370117,0.17727400362491608,-0.42925781129015284,-1.299817019812278,-2.9520240814368695,-0.8760947585105896,0.4161960780620575,-0.243390291929245,-2.532589912414551,1.4019087553024292,-1.6654521226882935
6.120105743408203,-0.14519590139389038,-0.016366302967071533,0.24401965737342834,-0.4126355713327472,-1.2985013394694638,-3.017615924975367,-0.8823156952857971,0.40102508664131165,-0.24636943638324738,-2.8284912109375,1.4005917310714722,-1.551540732383728
6.137911796569824,-0.13420677185058594,-0.00413784384727478,0.2619938254356384,-0.39934164995298327,-1.2987348266129117,-3.0876636097403694,-0.8874301910400391,0.3888118863105774,-0.24757422506809235,-3.0241622924804688,1.3519914150238037,-1.4462900161743164
6.158116817474365,-0.12518882751464844,0.03746256232261658,0.27185294032096863,-0.38793574455540847,-1.300324532800464,3.1234610266522767,-0.8920382857322693,0.37827834486961365,-0.24733200669288635,-3.068274974822998,1.2576298713684082,-1.4576292037963867
6.179394721984863,-0.10440534353256226,0.06735467910766602,0.293182909488678,-0.37630900083589086,-1.3019421767608725,3.0526602761035524,-0.8966169953346252,0.3674902617931366,-0.24704031646251678,-2.959845781326294,1.2115269899368286,-1.3990310430526733
6.199196815490723,-0.057562828063964844,0.09309810400009155,0.3041669726371765,-0.36440696226109415,-1.3027236792870873,2.985870022996301,-0.9009637832641602,0.35639527440071106,-0.247480571269989,-2.7364883422851562,1.1196881532669067,-1.408595323562622
6.2182698249816895,-0.020878493785858154,0.12333062291145325,0.3011847734451294,-0.3504589645288264,-1.3035686360841319,2.9246885324415026,-0.9058793187141418,0.34332892298698425,-0.24800780415534973,-2.428664445877075,0.9225567579269409,-1.4439826011657715
6.239506721496582,0.004455387592315674,0.162596195936203,0.2813790440559387,-0.3341418526817919,-1.3059085257789087,2.869845218681586,-0.9117430448532104,0.3279586136341095,-0.24732133746147156,-2.1623666286468506,0.6829270720481873,-1.4890937805175781
6.259229898452759,0.0141715407371521,0.17654094099998474,0.27605921030044556,-0.3159482870797153,-1.3107510638272453,2.8188593778755067,-0.9185447096824646,0.31071797013282776,-0.24439719319343567,-2.0887930393218994,0.46499255299568176,-1.5233675241470337
6.277234792709351,0.014766931533813477,0.1915324628353119,0.28174179792404175,-0.29668773155212486,-1.318444924071327,2.7683069726259486,-0.9260218739509583,0.2923542559146881,-0.23877301812171936,-2.0658116340637207,0.3049454987049103,-1.5642046928405762
6.297906875610352,0.014168381690979004,0.23835083842277527,0.2737853229045868,-0.27570307700258556,-1.3266960347627028,2.720481169204419,-0.9337089657783508,0.2722235321998596,-0.2325560301542282,-1.8485990762710571,0.22323858737945557,-1.5887300968170166
6.318793773651123,0.03470730781555176,0.29981762170791626,0.26331982016563416,-0.2531239850406806,-1.3342308948126105,2.679081763683373,-0.9411711096763611,0.25042960047721863,-0.22689704596996307,-1.506611704826355,0.0967254713177681,-1.5586528778076172
6.339080810546875,0.05966252088546753,0.3556287884712219,0.2252635359764099,-0.22933832578390032,-1.3425609648341306,2.6452200479924,-0.9485633373260498,0.2273332178592682,-0.22033490240573883,-1.15433931350708,-0.12934556603431702,-1.5235061645507812
6.358946800231934,0.07049703598022461,0.38794058561325073,0.18925493955612183,-0.20471866264669455,-1.3528916280302046,2.618548104618411,-0.9559646248817444,0.20329169929027557,-0.21167004108428955,-0.8914815783500671,-0.3271578848361969,-1.4532105922698975
6.378021717071533,0.06663942337036133,0.40152257680892944,0.15954208374023438,-0.18066593273869552,-1.365861259422543,2.5952006175404874,-0.9631391167640686,0.17968471348285675,-0.2001914381980896,-0.8682782649993896,-0.5088236927986145,-1.390175223350525
6.397569894790649,0.06536322832107544,0.4091411232948303,0.12185938656330109,-0.1578125287521377,-1.3809392072708158,2.5720667507393844,-0.9698278903961182,0.15715830028057098,-0.18637345731258392,-0.9272333979606628,-0.6097864508628845,-1.295647144317627
6.418618679046631,0.07660144567489624,0.4410483241081238,0.06785471737384796,-0.13672403300576746,-1.3972498839481116,2.5494084169154805,-0.975786566734314,0.13629846274852753,-0.17106515169143677,-0.8917533159255981,-0.6829090118408203,-1.1898376941680908
6.438632011413574,0.10139060020446777,0.4781809449195862,0.02029205858707428,-0.11756391027383001,-1.414050615084228,2.528954041647157,-0.9809224605560303,0.11729328334331512,-0.1550271064043045,-0.8003573417663574,-0.7509744167327881,-1.0265864133834839
6.458572864532471,0.11131513118743896,0.5148605108261108,-0.029281914234161377,-0.10134067415997479,-1.4318216701457886,2.510537772165096,-0.9852775931358337,0.10116730630397797,-0.13781702518463135,-0.7932515740394592,-0.8074222803115845,-0.8554002046585083
6.4784836769104,0.09335470199584961,0.5331321954727173,-0.1029777079820633,-0.08836640897426787,-1.4495557066253784,2.4921361644444024,-0.9887864589691162,0.08825144916772842,-0.12047194689512253,-0.867865800857544,-0.793584942817688,-0.6813349723815918
6.497435808181763,0.09640568494796753,0.5291549563407898,-0.17787371575832367,-0.07843887510001307,-1.4664374179245068,2.472761160532121,-0.9915014505386353,0.07835846394300461,-0.10384928435087204,-0.9385923743247986,-0.729146420955658,-0.5125277638435364
6.518091678619385,0.13055992126464844,0.5394687652587891,-0.21596360206604004,-0.07239555725197784,-1.481752407218559,2.4523693542667524,-0.9934291243553162,0.07233233749866486,-0.08869335800409317,-1.0217831134796143,-0.6543359160423279,-0.28534406423568726
6.538275718688965,0.15330541133880615,0.5468107461929321,-0.2600695490837097,-0.07045026088813398,-1.4954639752699765,2.431758597746252,-0.9946903586387634,0.07039199769496918,-0.07507443428039551,-0.9925187230110168,-0.5601175427436829,-0.0716666579246521
6.557930946350098,0.15587300062179565,0.5683834552764893,-0.3359066843986511,-0.07261047549919764,-1.5069860873817051,2.4133550896965743,-0.9953353404998779,0.07254669070243835,-0.06359893083572388,-0.8536192178726196,-0.4723001718521118,0.15317386388778687
6.57727575302124,0.16992706060409546,0.5688483119010925,-0.36628007888793945,-0.07870910777572164,-1.516364192968054,2.3974108260894282,-0.9954275488853455,0.07862786203622818,-0.054236821830272675,-0.8061432242393494,-0.3384172022342682,0.36663126945495605
6.59814977645874,0.19541442394256592,0.5157601237297058,-0.35244059562683105,-0.088971471767878,-1.5231434388795697,2.3803662763527007,-0.9949141144752502,0.08885413408279419,-0.04744644835591316,-0.9672214984893799,-0.1952124685049057,0.5673907995223999
6.617295742034912,0.21442490816116333,0.466346800327301,-0.35111182928085327,-0.102803880274437,-1.5277314384675673,2.3606540338492277,-0.9937980771064758,0.10262289643287659,-0.04282427951693535,-1.0254034996032715,-0.0956910252571106,0.7265074253082275
6.637513875961304,0.23405057191848755,0.47503578662872314,-0.3480460047721863,-0.11968640490908557,-1.531035344041933,2.34244221897156,-0.9920614361763,0.11940085887908936,-0.03946613892912865,-0.8168798089027405,-0.06259734183549881,0.891485333442688
6.657773017883301,0.22464287281036377,0.49693483114242554,-0.3604680299758911,-0.1390875396455621,-1.5352842017894721,2.3310988438960583,-0.9897187352180481,0.13863952457904816,-0.03516179695725441,-0.32951658964157104,-0.23928795754909515,1.0000790357589722
6.677666902542114,0.127466082572937,0.5252506732940674,-0.37999552488327026,-0.1597387148576591,-1.5413552682287865,2.3319745442280397,-0.9868411421775818,0.1590602546930313,-0.029062045738101006,0.3549082279205322,-0.3533848822116852,1.0609034299850464
6.697603702545166,-0.01778578758239746,0.5364797115325928,-0.3607179522514343,-0.1809986070194963,-1.5452452559851764,2.3457452900245612,-0.9833433628082275,0.18001195788383484,-0.025130944326519966,0.8950937390327454,-0.23870135843753815,1.1143337488174438
6.717651844024658,-0.10052633285522461,0.4710193872451782,-0.27040743827819824,-0.20422540552877888,-1.543935256827156,2.366141328844644,-0.9788651466369629,0.20280872285366058,-0.026299690827727318,0.9777347445487976,-0.020699070766568184,1.2957730293273926
6.737430810928345,-0.14074891805648804,0.37282392382621765,-0.188568115234375,-0.2323807900417313,-1.5383482030327023,2.3854114184374327,-0.9726086854934692,0.23029497265815735,-0.03157040849328041,0.8138221502304077,0.15789580345153809,1.581111192703247
6.75768780708313,-0.21143555641174316,0.32196134328842163,-0.17016476392745972,-0.2652285257932144,-1.5298471933520563,2.4035710839418596,-0.9642236232757568,0.2621298134326935,-0.039506204426288605,0.9212946891784668,0.2502838671207428,1.7371658086776733
6.776415824890137,-0.2829328179359436,0.32322484254837036,-0.19699394702911377,-0.29979120349960614,-1.517094740092144,2.4292035482235765,-0.9540210962295532,0.2953207194805145,-0.051281753927469254,1.4125690460205078,0.2724360227584839,1.8419231176376343
6.7974348068237305,-0.32337552309036255,0.27591046690940857,-0.18017864227294922,-0.33651454734854735,-1.5018637205812952,2.462808103491232,-0.9416697025299072,0.33019915223121643,-0.06501475721597672,1.5335142612457275,0.2142472267150879,2.003387928009033
6.8172218799591064,-0.35117828845977783,0.2093048393726349,-0.07786250859498978,-0.3746550649044866,-1.4849029601691746,2.496767792341669,-0.9272032380104065,0.3659515380859375,-0.07983703911304474,1.3515318632125854,0.3183622658252716,2.0465471744537354
6.836258888244629,-0.40369701385498047,0.15623489022254944,0.017541825771331787,-0.4129755804558109,-1.4644491025639206,2.528537062822756,-0.9107561707496643,0.40133652091026306,-0.0972231850028038,1.230567455291748,0.5168115496635437,2.051759958267212
6.857341766357422,-0.4537544846534729,0.12092345952987671,0.06584487855434418,-0.45056376789300573,-1.438841141318653,2.5597676572814385,-0.8923760652542114,0.43547311425209045,-0.11844189465045929,1.1431783437728882,0.721520185470581,2.040891408920288
6.877062797546387,-0.4555321931838989,0.06449076533317566,0.06174671649932861,-0.48733167765028595,-1.4093085070637699,2.590059332383569,-0.8720893263816833,0.46826985478401184,-0.14206892251968384,0.9703224897384644,0.8661814332008362,2.006700038909912
6.8968987464904785,-0.3724236488342285,-0.017863929271697998,0.11680890619754791,-0.5242812312168695,-1.3776800811837795,2.616409953821474,-0.8495917916297913,0.5005909204483032,-0.16614046692848206,0.6264731287956238,1.017769694328308,2.0603554248809814
6.917113780975342,-0.27629607915878296,-0.09942042827606201,0.15410812199115753,-0.5636203538228086,-1.3460984639549423,2.6365531351723472,-0.824076235294342,0.5342500805854797,-0.18834874033927917,0.2572333812713623,1.1141771078109741,2.1620569229125977
6.936884880065918,-0.2105993628501892,-0.15667545795440674,0.16714441776275635,-0.6059184613360593,-1.3146124063927656,2.651716291328188,-0.7951532602310181,0.5695172548294067,-0.20828206837177277,-0.011901088058948517,1.1715055704116821,2.2449350357055664
6.956844806671143,-0.15992403030395508,-0.2003745436668396,0.15766370296478271,-0.6497748501250127,-1.2841674984853313,2.6645786631260853,-0.7637363076210022,0.6050071716308594,-0.22510753571987152,-0.14030387997627258,1.121374249458313,2.2770473957061768
6.9759979248046875,-0.12974774837493896,-0.24214786291122437,0.17870880663394928,-0.694406161068761,-1.254240525360389,2.6783671252063224,-0.7302528619766235,0.6399292349815369,-0.23920989036560059,-0.1393042355775833,1.0127984285354614,2.3093180656433105
6.9966959953308105,-0.15085369348526,-0.30998462438583374,0.21536102890968323,-0.7382042070675698,-1.2239406817454568,2.6946800698197104,-0.6956276297569275,0.6729606986045837,-0.25144800543785095,-0.12414076924324036,0.9660457372665405,2.226716995239258
7.016726016998291,-0.19655072689056396,-0.3816973567008972,0.2517176866531372,-0.7787515825072862,-1.1921603897799165,2.7127691697403145,-0.6613747477531433,0.7023913264274597,-0.2631159722805023,-0.08269050717353821,0.9622547030448914,2.029654026031494
7.036518812179565,-0.21548473834991455,-0.44049012660980225,0.2743152976036072,-0.8143714963191762,-1.159669834821117,2.7320684763530543,-0.629135012626648,0.727294385433197,-0.2742847204208374,-0.04528627544641495,0.9021156430244446,1.779829978942871
7.055984020233154,-0.21754741668701172,-0.48459392786026,0.2877744734287262,-0.8440880224663416,-1.1283349219597885,2.7514595986304857,-0.6004304885864258,0.7473654747009277,-0.2844785451889038,-0.0019393214024603367,0.8018671274185181,1.4678056240081787
7.0780298709869385,-0.21073096990585327,-0.5154857635498047,0.30422013998031616,-0.8673023223645996,-1.1003846905220303,2.768630203739978,-0.5766225457191467,0.7625866532325745,-0.2932032644748688,-0.02115139365196228,0.7006511092185974,1.1188563108444214
7.096761703491211,-0.19452720880508423,-0.5513734817504883,0.3301160931587219,-0.884410397123281,-1.0779588778321618,2.780773254390188,-0.5583261847496033,0.7735414505004883,-0.29984259605407715,-0.08494202792644501,0.6101540923118591,0.7672786116600037
7.1164937019348145,-0.1768883466720581,-0.5884607434272766,0.34436970949172974,-0.8961371412836993,-1.0628477938836107,2.7863019391495145,-0.5457679629325867,0.7809199094772339,-0.30381181836128235,-0.16909560561180115,0.4744601547718048,0.43376004695892334
7.133486747741699,-0.17508643865585327,-0.588068425655365,0.338855504989624,-0.9025457440180834,-1.0555738472239566,2.7847243390533487,-0.5391775369644165,0.784906804561615,-0.30530139803886414,-0.2208663672208786,0.38022828102111816,0.07299621403217316
7.156562805175781,-0.16354495286941528,-0.5695904493331909,0.3232579827308655,-0.9029651799979571,-1.0548819044821585,2.777401755447598,-0.538679838180542,0.7851666212081909,-0.305512011051178,-0.18931595981121063,0.2554781138896942,-0.251596063375473
7.175642013549805,-0.1303119659423828,-0.5540401935577393,0.30761855840682983,-0.8980256526065564,-1.0605337257950578,2.766162993294116,-0.5437756180763245,0.782098114490509,-0.30435311794281006,-0.18654221296310425,0.039474520832300186,-0.5148430466651917
7.1962058544158936,-0.12342184782028198,-0.53626549243927,0.30126720666885376,-0.8888256706556009,-1.0739578743860116,2.751158416692715,-0.5541142225265503,0.7763320803642273,-0.30044320225715637,-0.19718530774116516,-0.20482434332370758,-0.7462363243103027
7.216238975524902,-0.18646138906478882,-0.5025568604469299,0.286145955324173,-0.8753055872249134,-1.0939251918758417,2.732435509808241,-0.5692759156227112,0.7677393555641174,-0.2941109240055084,-0.2206949144601822,-0.3219439685344696,-1.0186991691589355
7.236201763153076,-0.2673249840736389,-0.46436381340026855,0.2743777632713318,-0.8565823245318733,-1.1176746646210214,2.709615702445556,-0.5889220237731934,0.755608320236206,-0.2867525815963745,-0.2836342453956604,-0.30546873807907104,-1.3244026899337769
7.252729892730713,-0.2911946177482605,-0.4394904375076294,0.2828522324562073,-0.8332021373739982,-1.1448360399217399,2.681245185091496,-0.6124156713485718,0.7400886416435242,-0.2778778672218323,-0.4468456506729126,-0.3042900562286377,-1.5892260074615479
7.275084018707275,-0.2796459197998047,-0.4067751169204712,0.2823440134525299,-0.8064994216534008,-1.176690931260382,2.646306758967701,-0.6389789581298828,0.7218691110610962,-0.26572713255882263,-0.669434666633606,-0.33971133828163147,-1.8194814920425415
7.295795917510986,-0.2929415702819824,-0.3570048213005066,0.2507011294364929,-0.7762839493332436,-1.2133516885201137,2.606226463807752,-0.6684231758117676,0.7006327509880066,-0.24964819848537445,-0.8608443737030029,-0.49692511558532715,-2.0356862545013428
7.315648794174194,-0.38657647371292114,-0.26706981658935547,0.24310198426246643,-0.7418933743153747,-1.2559941221554025,2.5617430644170143,-0.7009631991386414,0.675684928894043,-0.22825512290000916,-1.067694902420044,-0.6576769948005676,-2.3034956455230713
7.335712909698486,-0.5978908538818359,-0.18481796979904175,0.30087122321128845,-0.7014528311453221,-1.2996057402834036,2.5111661289440455,-0.7359867095947266,0.645328164100647,-0.20463399589061737,-1.4215493202209473,-0.28357526659965515,-2.6862621307373047
7.3555827140808105,-0.70535808801651,-0.15560883283615112,0.32757556438446045,-0.654079139717901,-1.335404062156576,2.453822697729112,-0.7717232704162598,0.6084287166595459,-0.18508894741535187,-1.7221747636795044,0.24214640259742737,-2.9950766563415527
7.376459836959839,-0.4658733606338501,-0.054277896881103516,0.23766733705997467,-0.6029749026489994,-1.365333867122122,2.3939106222021036,-0.8063281774520874,0.5670952796936035,-0.16804146766662598,-1.8322545289993286,0.21176506578922272,-3.030062437057495
7.395580768585205,-0.19026052951812744,0.09278744459152222,0.09920096397399902,-0.5511325227060974,-1.3939155133987429,2.3408691376141304,-0.8386396765708923,0.5236523747444153,-0.14990590512752533,-1.5091651678085327,-0.20548570156097412,-2.908848524093628
7.4157209396362305,-0.08445465564727783,0.16510659456253052,0.0018831044435501099,-0.5000858876774897,-1.4233081452721057,2.300735877239884,-0.8680141568183899,0.4795009195804596,-0.12895825505256653,-1.1090333461761475,-0.6970287561416626,-2.7004847526550293
7.435727834701538,-0.1695837378501892,0.19022145867347717,-0.05013872683048248,-0.4512162268665681,-1.4526945537027856,2.271525836012704,-0.8936488628387451,0.43606036901474,-0.10603496432304382,-0.8380467891693115,-0.8310153484344482,-2.510537624359131
7.455485820770264,-0.3174194097518921,0.24731913208961487,-0.04499262571334839,-0.4049050421326404,-1.476405440124091,2.249700822567876,-0.915048360824585,0.39393147826194763,-0.08662965893745422,-0.6864817142486572,-0.6203003525733948,-2.3117823600769043
7.4754557609558105,-0.3473406434059143,0.2749499976634979,0.007578440010547638,-0.36305437628551046,-1.4938130244416654,2.229383214147968,-0.9320477247238159,0.3551311790943146,-0.07189419120550156,-0.9132947325706482,-0.3608764410018921,-2.0260231494903564
7.4953649044036865,-0.3202509880065918,0.2486777901649475,0.06707054376602173,-0.3270364614347159,-1.5074543493906107,2.200622737208079,-0.945099413394928,0.3212379813194275,-0.05994465947151184,-1.6017800569534302,-0.014863197691738605,-1.7890247106552124
7.515124797821045,-0.3040211796760559,0.22624486684799194,0.051049716770648956,-0.29397767853137763,-1.519109375286725,2.1588007139290273,-0.955820620059967,0.2897615432739258,-0.049447495490312576,-2.1982579231262207,0.12067767977714539,-1.7563350200653076
7.534268856048584,-0.220781147480011,0.3094247877597809,0.013041671365499496,-0.26131877236721124,-1.530196708214291,2.108703814313171,-0.9652541875839233,0.2583547830581665,-0.039210498332977295,-2.406682252883911,0.12249608337879181,-1.7501587867736816
7.556613922119141,-0.12544316053390503,0.39069780707359314,-0.01648390106856823,-0.22732873996911274,-1.5401774054959008,2.0579826540484074,-0.9738152623176575,0.22537580132484436,-0.029826495796442032,-2.3697571754455566,0.10189058631658554,-1.8446285724639893
7.575394868850708,-0.03403741121292114,0.44328588247299194,-0.03280359506607056,-0.1909441680598994,-1.548085831651415,2.010993370216944,-0.9815722703933716,0.18978598713874817,-0.02229582518339157,-2.115039825439453,0.07602986693382263,-1.91981041431427
7.594932794570923,0.04384136199951172,0.5078163146972656,-0.057264089584350586,-0.1527347013683242,-1.554227916028098,1.971494602397583,-0.9882230162620544,0.15214157104492188,-0.016374783590435982,-1.6866140365600586,-0.017874788492918015,-1.9841625690460205
7.614802837371826,0.0931287407875061,0.5806719660758972,-0.09683054685592651,-0.113219050676873,-1.5595376315642968,1.941636424597633,-0.9935348033905029,0.11297731846570969,-0.011186378076672554,-1.244101643562317,-0.1141001284122467,-2.0019428730010986
7.63489294052124,0.13684368133544922,0.6359072327613831,-0.15192526578903198,-0.07448877354235385,-1.5650518846718908,1.9193615240938673,-0.9972105622291565,0.07441990822553635,-0.005728481337428093,-0.9839219450950623,-0.23685498535633087,-1.884383201599121
7.65486478805542,0.1772758960723877,0.6587193608283997,-0.19680500030517578,-0.03907500646327324,-1.5716791914025436,1.9005119597213087,-0.9992363452911377,0.03906506299972534,0.000882190652191639,-0.9136370420455933,-0.29136979579925537,-1.6496788263320923
7.67410683631897,0.2078348994255066,0.6737651228904724,-0.19347059726715088,-0.009554114418060602,-1.577194567048631,1.882410132089394,-0.9999340772628784,0.009553968906402588,0.006397905759513378,-0.9146366119384766,-0.2030145525932312,-1.2913542985916138
7.694966793060303,0.22859305143356323,0.7048383951187134,-0.21349799633026123,0.012623784692810036,-1.579888559553634,1.8651962653336613,-0.9998791813850403,-0.01262344978749752,0.009091384708881378,-0.8017021417617798,-0.07560732960700989,-0.9300968050956726
7.714523792266846,0.2492169737815857,0.7575834393501282,-0.27776801586151123,0.027575939271116272,-1.5809902414199855,1.8524035663440699,-0.999567985534668,-0.027572443708777428,0.010189863853156567,-0.46358487010002136,-0.0891907811164856,-0.543597400188446
7.7345428466796875,0.2806517481803894,0.7910224795341492,-0.3083125352859497,0.03408635658180793,-1.5833249088180548,1.847437185794962,-0.9993407130241394,-0.03407975658774376,0.012520977295935154,-0.05644090101122856,-0.15928377211093903,-0.12238911539316177
7.753697872161865,0.27885836362838745,0.7696380019187927,-0.3244047164916992,0.032720619937541585,-1.5870592806623998,1.8496441002451942,-0.9993326663970947,-0.032714780420064926,0.016253534704446793,0.24673709273338318,-0.18765228986740112,0.25250035524368286
7.77436089515686,0.2535279393196106,0.707814633846283,-0.3410654067993164,0.024101169099426754,-1.590533873968676,1.8560531948960795,-0.9995150566101074,-0.02409883588552475,0.01973053812980652,0.3890668451786041,-0.14032746851444244,0.5954338312149048
7.794325828552246,0.23101955652236938,0.6543716788291931,-0.3677486181259155,0.008711422414141773,-1.5931802572318237,1.8635897152061338,-0.9997115731239319,-0.008711311966180801,0.022381212562322617,0.3614177107810974,-0.11608409136533737,0.9240915775299072
7.814395904541016,0.1821112036705017,0.5984714031219482,-0.35627293586730957,-0.01267393001338102,-1.5948134612708014,1.868558024614374,-0.9996312856674194,0.012673590332269669,0.024012895300984383,0.16927902400493622,-0.02018854394555092,1.1899412870407104
7.83411979675293,0.08697289228439331,0.5511888265609741,-0.3302454948425293,-0.03820644171992821,-1.5931223784514903,1.8693641050122805,-0.9990212321281433,0.038197148591279984,0.022307906299829483,0.001492867013439536,0.20238105952739716,1.3495794534683228
7.852293968200684,0.007356822490692139,0.5541455149650574,-0.32705390453338623,-0.06620313460906023,-1.5867286375578542,1.8694569274447703,-0.9976828694343567,0.06615478545427322,0.015896737575531006,0.10251486301422119,0.4179125428199768,1.4637620449066162
7.872366905212402,0.011191964149475098,0.5491476058959961,-0.30765604972839355,-0.09716920420362983,-1.5772898627608516,1.8733034814786327,-0.9952618479728699,0.0970163643360138,0.006462859455496073,0.3122687339782715,0.4671837091445923,1.651247262954712
7.8939666748046875,0.043339431285858154,0.4898446202278137,-0.25662362575531006,-0.13238312325654117,-1.5678728706048646,1.8807489142673013,-0.9912459254264832,0.1319967806339264,-0.002897872356697917,0.4193609356880188,0.3834685683250427,1.8706048727035522
7.914071798324585,-0.012037813663482666,0.4329163134098053,-0.21965962648391724,-0.17100426888266937,-1.5596257576058683,1.890680200649403,-0.9853529334068298,0.1701720505952835,-0.01100741047412157,0.551755964756012,0.29395535588264465,1.995006799697876
7.932951927185059,-0.15177422761917114,0.42527490854263306,-0.23969882726669312,-0.2106795906242659,-1.5517570595993988,1.9057722388985265,-0.9777119159698486,0.20912450551986694,-0.018617168068885803,0.9164187908172607,0.21741043031215668,1.9831708669662476
7.953963756561279,-0.30844396352767944,0.4450775384902954,-0.23633849620819092,-0.2488431714006536,-1.5413462926404278,1.9305541462392324,-0.9687776565551758,0.2462829351425171,-0.028538787737488747,1.4083133935928345,0.2817263901233673,1.8998688459396362
7.973924875259399,-0.4251101016998291,0.4262506663799286,-0.15027457475662231,-0.28489349438426426,-1.524852258666019,1.9644348044681261,-0.9586790204048157,0.2810552418231964,-0.04407663270831108,1.6660236120224,0.5030263066291809,1.8468583822250366
7.993808746337891,-0.4755723476409912,0.32882219552993774,0.000510871410369873,-0.32060888954716965,-1.5009530602460088,2.0000109471694385,-0.9467300176620483,0.31514447927474976,-0.06623044610023499,1.489911437034607,0.8077445030212402,1.93783438205719
8.014110803604126,-0.49766063690185547,0.22458916902542114,0.07648348063230515,-0.3584953014975493,-1.4721607024906662,2.0320436182831187,-0.9318744540214539,0.35086560249328613,-0.09221526235342026,1.2085992097854614,0.9817475080490112,2.101639747619629
8.032896995544434,-0.5046848654747009,0.1864713430404663,0.09202998876571655,-0.399196573427371,-1.441738984445189,2.0619104329218745,-0.9137111902236938,0.3886782228946686,-0.11858022212982178,1.142742395401001,0.9414029121398926,2.270251750946045
8.052587985992432,-0.49565446376800537,0.15358394384384155,0.11596328020095825,-0.4418450958390125,-1.4095582313641843,2.095178638600385,-0.8922392725944519,0.42760810256004333,-0.14512276649475098,1.2273015975952148,0.9296054840087891,2.3703219890594482
8.072505950927734,-0.4658593535423279,0.09361937642097473,0.1405024528503418,-0.48443316173393425,-1.3749279380432098,2.1312800324699515,-0.8680183291435242,0.46570682525634766,-0.1722254455089569,1.2161729335784912,0.9300898313522339,2.436363697052002
8.092376708984375,-0.3597107529640198,0.013476252555847168,0.18369174003601074,-0.5285007431674009,-1.3367086711200589,2.171371408448209,-0.8400115966796875,0.5042392015457153,-0.20030854642391205,1.2671338319778442,0.9346476793289185,2.6261777877807617
8.113402843475342,-0.29927462339401245,-0.06030827760696411,0.20244832336902618,-0.5739748978168765,-1.2954491906061578,2.214810112057329,-0.8081167340278625,0.5429742336273193,-0.2283119112253189,1.1446495056152344,0.9355989098548889,2.7217657566070557
8.132414817810059,-0.2956775426864624,-0.12329345941543579,0.22617679834365845,-0.6206646037101603,-1.2513253311581003,2.2598395678434713,-0.7723309397697449,0.5815759301185608,-0.25548893213272095,1.092976450920105,0.9521767497062683,2.856050729751587
8.15232801437378,-0.29978030920028687,-0.18558424711227417,0.26099687814712524,-0.6678315306272784,-1.2017724541315233,2.3095953870390344,-0.7323089241981506,0.6192848086357117,-0.28321361541748047,1.056849718093872,1.0250675678253174,2.9311978816986084
8.173219680786133,-0.29444098472595215,-0.2477511763572693,0.30823439359664917,-0.714233983434643,-1.147173334898437,2.3634349112841897,-0.6888049244880676,0.6550388336181641,-0.3105994462966919,0.9957991242408752,0.97782301902771,2.9558029174804688
8.19301986694336,-0.3087925314903259,-0.3158389925956726,0.3493230938911438,-0.7583102663548276,-1.0888235836165137,2.4218027154202004,-0.6432949304580688,0.6876956820487976,-0.3365209698677063,0.9690249562263489,0.9533113241195679,2.88580322265625
8.212166786193848,-0.3540249466896057,-0.3703974485397339,0.37529507279396057,-0.7968888031977637,-1.0264349781857067,2.48356188690714,-0.5979098677635193,0.7151850461959839,-0.3619588613510132,0.9901587963104248,0.9539409875869751,2.625962018966675
8.23310375213623,-0.3693908452987671,-0.45281708240509033,0.4187130331993103,-0.8276235264345381,-0.9614881877250414,2.546068698133738,-0.5548645853996277,0.7363254427909851,-0.3872341811656952,0.8985109925270081,1.0079129934310913,2.299539804458618
8.25446891784668,-0.34796828031539917,-0.5556915998458862,0.4874683916568756,-0.8524516578485732,-0.8995986875909338,2.6014714529069742,-0.5153740048408508,0.7528961896896362,-0.40931281447410583,0.551183819770813,1.0652639865875244,1.9025018215179443
8.272933959960938,-0.30323752760887146,-0.6506634950637817,0.5313842296600342,-0.8748607952178967,-0.8478641002836435,2.6415104481741762,-0.4807438552379608,0.7674542665481567,-0.4241454601287842,0.0025445225182920694,1.0507023334503174,1.4988195896148682
8.292755842208862,-0.24446681141853333,-0.6988043189048767,0.5426794290542603,-0.896344138197959,-0.809893785065743,2.6644184644191062,-0.45224952697753906,0.7810491323471069,-0.4306187927722931,-0.3589116334915161,0.956334114074707,1.0663554668426514
8.31264591217041,-0.18393507599830627,-0.7118186354637146,0.5193991661071777,-0.915334592673808,-0.7858458463657438,2.6736825704155605,-0.431192547082901,0.7927665710449219,-0.43080663681030273,-0.5197112560272217,0.730841338634491,0.6907915472984314
8.3330078125,-0.13390952348709106,-0.7000625729560852,0.4806613624095917,-0.9282240314563397,-0.775864126436929,2.6718824531535823,-0.41967934370040894,0.8005569577217102,-0.4277590811252594,-0.4593505859375,0.3679063618183136,0.11892295628786087
