timestamp,acceleration_x,acceleration_y,acceleration_z,attitude_pitch,attitude_roll,attitude_yaw,gravity_x,gravity_y,gravity_z,rotation_x,rotation_y,rotation_z
0.0,-0.18329420685768127,-0.08541285991668701,-0.09475427865982056,-0.338660262063096,-0.2302579603116272,0.17022947516054734,-0.2152654379606247,0.3322237432003021,-0.9183072447776794,-2.5275208950042725,-0.999931812286377,-2.2696762084960938
0.020023822784423828,-0.29623210430145264,-0.01862671971321106,-0.11909425258636475,-0.37335550467976497,-0.26811106909338195,0.10898868249536495,-0.24666044116020203,0.36474183201789856,-0.8978430032730103,-2.3899481296539307,-0.6967529058456421,-2.447638988494873
0.04002809524536133,-0.23662763833999634,-0.20138630270957947,0.1352558732032776,-0.41479317418592826,-0.3058431846434739,0.04126936953836648,-0.27556419372558594,0.4030006527900696,-0.8727284073829651,-3.301966667175293,-0.4331059455871582,-2.353724241256714
0.0600428581237793,-0.16206607222557068,-0.1603519320487976,0.19725793600082397,-0.4570602247688697,-0.3424867110366177,-0.025372176074335583,-0.301358699798584,0.4413119852542877,-0.845237672328949,-2.406700611114502,-0.29494398832321167,-1.990787386894226
0.0791788101196289,-0.1380038559436798,0.11980077624320984,0.15654802322387695,-0.48105954754731217,-0.37208051546270704,-0.08339718573749817,-0.32229283452033997,0.4627187252044678,-0.8258442878723145,-1.8671292066574097,-0.25878971815109253,-2.173445701599121
0.10007286071777344,-0.23782631754875183,-0.13480311632156372,0.005385279655456543,-0.5082222834678369,-0.40665530158515384,-0.14383788608695433,-0.34554773569107056,0.48662498593330383,-0.8023670315742493,-2.8356034755706787,-0.2036285251379013,-1.485605001449585
0.12000083923339844,-0.512597382068634,-0.04755276441574097,-0.061975955963134766,-0.5600828095684955,-0.43741484301573225,-0.20454558214303148,-0.35887789726257324,0.531256377696991,-0.7674460411071777,-3.663391351699829,0.24605198204517365,-1.2918572425842285
0.1400599479675293,-0.5823480486869812,0.254558265209198,-0.1086546778678894,-0.6037366759437075,-0.4609724503962143,-0.27006863987957286,-0.3661840856075287,0.5677225589752197,-0.7372925877571106,-2.6106104850769043,0.9558167457580566,-1.73488187789917
0.1600019931793213,-0.25018173456192017,0.24446964263916016,-0.06122201681137085,-0.6231478926620514,-0.4783913206634349,-0.33374366284980933,-0.3738264739513397,0.5835942625999451,-0.7208824157714844,-1.4831799268722534,0.8467608094215393,-1.9426536560058594
0.18001508712768555,-0.010698914527893066,0.08451354503631592,0.05918484926223755,-0.6232584014331641,-0.48850888670768083,-0.3794012229149777,-0.3810705244541168,0.5836840271949768,-0.7170064449310303,-0.3981532156467438,0.8998823165893555,-1.2613191604614258
0.2000870704650879,0.015115231275558472,0.13868927955627441,0.028809785842895508,-0.6202650103394767,-0.48917010213587575,-0.40983611479543824,-0.38236382603645325,0.5812508463859558,-0.7182934284210205,-0.6962412595748901,0.7035923004150391,-1.300521969795227
0.22007203102111816,-0.0016278624534606934,-0.10094314813613892,0.06883507966995239,-0.6272498565648563,-0.4994541961945168,-0.44999565782582623,-0.3877764940261841,0.5869203209877014,-0.7107418179512024,-1.3824477195739746,0.6433335542678833,-1.069152593612671
0.24008607864379883,-0.0016713738441467285,-0.31540918350219727,0.20321869850158691,-0.6531118329235647,-0.5105853563629351,-0.4906006254457452,-0.38811445236206055,0.6076607704162598,-0.6929038166999817,-2.5128543376922607,0.6924505829811096,-0.5817356109619141
0.2599978446960449,-0.02477404475212097,-0.2938413619995117,0.21707403659820557,-0.7054537618691584,-0.529384144925746,-0.5448994815119427,-0.3844667375087738,0.6483793258666992,-0.6571069955825806,-4.125800609588623,0.8201954960823059,-0.609218418598175
0.28007984161376953,-0.026991814374923706,-0.2192143201828003,0.09701573848724365,-0.7709039590500331,-0.5658409548867431,-0.6260838042770123,-0.38455304503440857,0.6967839002609253,-0.6054843664169312,-4.352351665496826,1.0353813171386719,-1.0672086477279663
0.30011892318725586,0.025103598833084106,-0.1787407398223877,-0.018679141998291016,-0.8262067554905115,-0.6098110918787739,-0.7179627445812921,-0.3881102502346039,0.7353661060333252,-0.5555243492126465,-3.746133804321289,1.1538015604019165,-1.1961846351623535
0.3200719356536865,0.046218276023864746,-0.19977515935897827,-0.04252350330352783,-0.8666324312762919,-0.6609778336484579,-0.8157788500375189,-0.397429883480072,0.7621530890464783,-0.5110501646995544,-3.429351568222046,1.0232081413269043,-1.8314104080200195
0.34008002281188965,0.026448190212249756,-0.1303766965866089,-0.011996448040008545,-0.8902229126382621,-0.7333592867716526,-0.9362335587887762,-0.42119309306144714,0.7772120237350464,-0.46748045086860657,-3.5150482654571533,1.0429834127426147,-2.413804292678833
0.36000585556030273,0.06578996777534485,-0.48043227195739746,0.2340325117111206,-0.9066432764593626,-0.8269316526169337,-1.0819119747672108,-0.4535768926143646,0.7874391078948975,-0.4173821210861206,-3.898099184036255,1.0413817167282104,-2.9761340618133545
0.3800020217895508,0.1529548168182373,-0.4815131425857544,0.2567322254180908,-0.9057485765757377,-0.9311543067162743,-1.239714305096372,-0.4951026737689972,0.7868873476982117,-0.36835020780563354,-3.3050758838653564,1.0281741619110107,-3.116212844848633
0.4000558853149414,0.18250751495361328,0.03346550464630127,-0.12036538124084473,-0.8701123207380019,-1.001294723572384,-1.3485939500997963,-0.5429812073707581,0.764401376247406,-0.3476521968841553,0.09628555923700333,0.5640112161636353,-3.7039053440093994
0.4200129508972168,0.3369227647781372,0.20935344696044922,-0.1615982949733734,-0.792020380206025,-1.0085032557409734,-1.3672166936408667,-0.5942622423171997,0.7117738723754883,-0.3744734823703766,2.425049304962158,-0.01776527613401413,-3.6043646335601807
0.4400458335876465,0.42820918560028076,-0.12587648630142212,0.22228729724884033,-0.7043970108817966,-1.0215346227984365,-1.3703494266218323,-0.6499194502830505,0.6475744843482971,-0.39780908823013306,1.7466111183166504,-1.12797212600708,-4.044075965881348
0.4599928855895996,0.42519611120224,-0.19442862272262573,0.20986884832382202,-0.6188821950245211,-1.074148734917904,-1.4008846001975774,-0.7161202430725098,0.5801250338554382,-0.38810673356056213,0.6164588332176208,-2.2209153175354004,-4.504734516143799
0.47998905181884766,0.3785495162010193,0.10666078329086304,0.02035614848136902,-0.5347859469774272,-1.1471769075947404,-1.437452591818263,-0.7843264937400818,0.5096569061279297,-0.353669136762619,0.408361554145813,-3.099766731262207,-4.334514617919922
0.500262975692749,0.242418110370636,0.2824481427669525,0.06962412595748901,-0.45509981827069407,-1.2296432267749442,-1.470587740517934,-0.846452534198761,0.43955197930336,-0.300520122051239,-0.15541191399097443,-3.552279472351074,-4.23574686050415
0.5199940204620361,-0.038027942180633545,0.18331432342529297,0.10399094223976135,-0.38209861839011455,-1.318376021525906,-1.513366804093083,-0.8984804153442383,0.3728685677051544,-0.23173753917217255,-1.5996404886245728,-3.538317918777466,-3.9182071685791016
0.5400080680847168,-0.6541601419448853,0.49202868342399597,-0.2046322375535965,-0.3100654765522096,-1.3979601921781135,-1.5662253218037057,-0.9381251931190491,0.3051210045814514,-0.1637759804725647,-1.3216004371643066,-2.559108018875122,-4.321698188781738
0.5599980354309082,-1.1730543375015259,1.3185714483261108,-0.4146844148635864,-0.21797098828941885,-1.4443803545056404,-1.5857031997261741,-0.9685472846031189,0.21624906361103058,-0.1230962797999382,1.0306845903396606,-1.5920273065567017,-5.059597015380859
0.5790090560913086,-0.9445226192474365,1.639642596244812,-0.31335216760635376,-0.11363829973437445,-1.465660212980509,-1.5532608656886793,-0.9880640506744385,0.1133938729763031,-0.10426566749811172,3.0017337799072266,-1.1568442583084106,-4.75850772857666
0.5999870300292969,-0.42962509393692017,1.4086552858352661,-0.21278423070907593,-0.026864217614857355,-1.4837108052744437,-1.4979718300119929,-0.9958510994911194,0.026860985904932022,-0.08694411814212799,3.2503859996795654,-1.0040034055709839,-3.2511017322540283
0.619987964630127,-0.18585962057113647,1.2959060668945312,-0.2746354937553406,0.02535525301642592,-1.5025683133007928,-1.4406749591162535,-0.9973527193069458,-0.025352535769343376,-0.06815318018198013,2.781831741333008,-0.9164144396781921,-1.511541485786438
0.6400198936462402,-0.04791617393493652,1.1393322944641113,-0.20273959636688232,0.03851174712040466,-1.5184684043981924,-1.3950778603882763,-0.9978907108306885,-0.038502227514982224,-0.05226526036858559,1.8873049020767212,-0.47355276346206665,0.43963101506233215
0.6600050926208496,-0.1030893325805664,0.8352190852165222,-0.17136818170547485,0.017684655730799175,-1.5236491276315385,-1.3600355429708502,-0.9987328052520752,-0.017683733254671097,-0.047122374176979065,1.6718860864639282,0.10152977705001831,1.680004596710205
0.6799898147583008,-0.1874285340309143,0.8109034299850464,-0.2838994264602661,-0.019572609625679718,-1.5147814817964635,-1.320887471122566,-0.9982405304908752,0.01957136020064354,-0.055974844843149185,2.180722713470459,0.7132764458656311,2.1282734870910645
0.6999950408935547,-0.1335088014602661,0.803320050239563,-0.32035791873931885,-0.059615009715001804,-1.4967597129182952,-1.2635945766555174,-0.9954890608787537,0.05957970395684242,-0.07383760064840317,3.2387070655822754,0.7773844599723816,2.2236123085021973
0.7199869155883789,-0.1251683235168457,0.61678147315979,-0.16843682527542114,-0.0986493915236529,-1.4755809141822587,-1.1915348223494704,-0.9906307458877563,0.09848946332931519,-0.09460939466953278,3.4852616786956787,0.8086029887199402,2.2470624446868896
0.7400510311126709,-0.23298180103302002,0.3697078227996826,-0.05951612442731857,-0.1369915511540257,-1.4461469222683871,-1.1167401785758446,-0.9829453825950623,0.1365634799003601,-0.12316209077835083,3.455906867980957,1.1478705406188965,2.3020665645599365
0.7599859237670898,-0.2328118085861206,0.2599608302116394,0.06711874902248383,-0.17536964171262584,-1.4081781874255879,-1.0463995942798547,-0.971671462059021,0.1744721233844757,-0.15941914916038513,2.8091585636138916,1.5235143899917603,2.4758048057556152
0.7799849510192871,-0.1859891414642334,0.15237878262996674,0.14295518398284912,-0.2165115318693868,-1.364596121201188,-0.9865639473640734,-0.9559634327888489,0.214823916554451,-0.19996196031570435,2.2046918869018555,1.6810849905014038,2.648395299911499
0.7999858856201172,-0.17934399843215942,0.09756073355674744,0.19462354481220245,-0.26115635354805117,-1.3176854704610583,-0.9355065897159898,-0.9353105425834656,0.2581978738307953,-0.24192577600479126,1.677686095237732,1.7669140100479126,2.8391823768615723
0.8199858665466309,-0.20915275812149048,-0.0027015209197998047,0.27320703864097595,-0.30917846938262467,-1.268297072563847,-0.8899454599032905,-0.909331738948822,0.30427616834640503,-0.2837813198566437,1.209356427192688,1.9210550785064697,2.958448886871338
0.8399901390075684,-0.2522335648536682,-0.1019497811794281,0.35591360926628113,-0.358789428548599,-1.2147182345740317,-0.8485723226152618,-0.8775882124900818,0.3511410057544708,-0.32640302181243896,0.9181878566741943,2.051875591278076,3.0170397758483887
0.8599979877471924,-0.27181321382522583,-0.13922768831253052,0.4240703880786896,-0.4086054906094863,-1.1573091619118403,-0.8073047029160277,-0.8403388261795044,0.39733001589775085,-0.3687267303466797,0.8384725451469421,2.131946563720703,3.0193638801574707
0.8799839019775391,-0.29765820503234863,-0.14194020628929138,0.4496934413909912,-0.4536854525563175,-1.096902913192409,-0.7623955415316137,-0.7997844815254211,0.4382811188697815,-0.4101884067058563,0.9203770160675049,2.0185136795043945,2.7703676223754883
0.9000389575958252,-0.30458009243011475,-0.20142140984535217,0.5130611658096313,-0.4892463384423431,-1.0366241428502014,-0.7149419326021155,-0.759720504283905,0.4699607789516449,-0.44940146803855896,1.0702773332595825,1.8562878370285034,2.4109644889831543
0.9196438789367676,-0.309289813041687,-0.3275948464870453,0.5574451684951782,-0.5154820575996388,-0.9787253929303417,-0.6668403155343753,-0.7219602465629578,0.4929543137550354,-0.48556098341941833,1.0418487787246704,1.6257894039154053,2.048821449279785
0.940000057220459,-0.32114648818969727,-0.4439617395401001,0.5795980095863342,-0.5350625701426096,-0.9256168591847521,-0.623953479899456,-0.6873221397399902,0.509894847869873,-0.517296314239502,0.8458288311958313,1.5320887565612793,1.7055647373199463
0.9600028991699219,-0.29740458726882935,-0.4863505959510803,0.5910323858261108,-0.5499399096344946,-0.8778319411530686,-0.5881950387901761,-0.6559188365936279,0.5226359963417053,-0.5446304082870483,0.6475508809089661,1.3894191980361938,1.36958646774292
0.9799661636352539,-0.25046199560165405,-0.4738989472389221,0.590276300907135,-0.5612363217021991,-0.83864986442439,-0.5599410937024126,-0.6296497583389282,0.5322332978248596,-0.5659232139587402,0.4586150050163269,0.9702407717704773,0.9956381916999817
0.9999871253967285,-0.29289835691452026,-0.4600977301597595,0.569241464138031,-0.565721961766326,-0.8139135999510264,-0.5406146540215397,-0.6137179136276245,0.5360254645347595,-0.579678475856781,0.43545275926589966,0.49413183331489563,0.43786630034446716
1.0199849605560303,-0.3679801821708679,-0.4838097095489502,0.6037905216217041,-0.5627963551868774,-0.8015117325888619,-0.5296598293268314,-0.6076058745384216,0.5335533618927002,-0.5883333683013916,0.37414097785949707,0.17657366394996643,0.03959948569536209
1.0400159358978271,-0.39955270290374756,-0.5991458296775818,0.7969788908958435,-0.5604647589920594,-0.8002022532286418,-0.5299622621574338,-0.6077258586883545,0.5315799117088318,-0.589993417263031,-0.34211230278015137,0.0498034730553627,-0.22083787620067596
1.0600848197937012,-0.4382784962654114,-0.7304961681365967,0.8502436280250549,-0.5679074949549262,-0.8074061502805686,-0.5491075609907143,-0.6090849041938782,0.5378692150115967,-0.5828486084938049,-1.3310189247131348,0.2021508514881134,-0.35521435737609863
1.0801668167114258,-0.4134002923965454,-0.6626760363578796,0.7350850105285645,-0.5842717256473515,-0.8249114963874886,-0.5849604057630513,-0.6126465201377869,0.5515920519828796,-0.5660481452941895,-1.8607035875320435,-0.09868808835744858,-0.5441630482673645
1.1000428199768066,-0.3922833800315857,-0.4894701838493347,0.6244708895683289,-0.5962425729997197,-0.8572949366867471,-0.6283311264482865,-0.6256152391433716,0.5615373849868774,-0.5415545701980591,-1.513992428779602,-0.6725807785987854,-1.002331018447876
1.1199829578399658,-0.4076211452484131,-0.36788564920425415,0.5750000476837158,-0.5932000618066166,-0.8977383021266863,-0.6703325171498195,-0.6483328938484192,0.5590172410011292,-0.5168793201446533,-1.0430989265441895,-1.0365351438522339,-1.4457257986068726
1.1401729583740234,-0.4915059804916382,-0.318744421005249,0.6008964776992798,-0.5775199272699222,-0.9427786541674282,-0.7119643125061917,-0.6779582500457764,0.545947790145874,-0.4922539293766022,-0.7985706329345703,-1.0526055097579956,-1.9239404201507568
1.1601171493530273,-0.5409844517707825,-0.3276323080062866,0.5474188327789307,-0.5525772290917255,-0.9850965954087807,-0.7577605772511168,-0.7093055248260498,0.5248826146125793,-0.47051453590393066,-1.1480801105499268,-0.7536815404891968,-2.296548366546631
1.1799609661102295,-0.4352691173553467,-0.34126055240631104,0.5212709307670593,-0.5286249606719775,-1.0300785383862205,-0.8168030116672026,-0.7403138875961304,0.504346489906311,-0.4444887042045593,-1.7696973085403442,-0.7639777064323425,-2.408992290496826
1.19999098777771,-0.33655810356140137,-0.18807730078697205,0.4619511365890503,-0.5058898951472808,-1.0808207349124768,-0.8843143927974009,-0.7718251347541809,0.48458606004714966,-0.4116581976413727,-2.272728204727173,-1.0030335187911987,-2.537839889526367
1.219986915588379,-0.3229443430900574,-0.11460819840431213,0.3454861640930176,-0.4806159998126093,-1.1405158824911563,-0.9609347429637045,-0.8058856725692749,0.46232548356056213,-0.3698697090148926,-2.6649363040924072,-1.3344142436981201,-2.7163009643554688
1.2399890422821045,-0.34883928298950195,0.013646960258483887,0.23730802536010742,-0.44908057607044594,-1.2046957723137663,-1.037439084669325,-0.8411479592323303,0.4341374635696411,-0.32248252630233765,-2.3505446910858154,-1.6176549196243286,-2.8830409049987793
1.2599859237670898,-0.4138232469558716,0.2402503490447998,0.14837956428527832,-0.40479309817371456,-1.2646535828277448,-1.0996768633676872,-0.8764448165893555,0.3938286006450653,-0.27702638506889343,-1.4386588335037231,-1.817265510559082,-3.199424982070923
1.2799859046936035,-0.434603750705719,0.3731967806816101,0.09158608317375183,-0.3471916835639038,-1.3167619778930935,-1.1402243438054032,-0.9101535677909851,0.34025838971138,-0.23631569743156433,-0.6905233263969421,-1.9140204191207886,-3.3567287921905518
1.299988031387329,-0.42023587226867676,0.4146347939968109,0.018470406532287598,-0.284452418012822,-1.366192532572631,-1.1685193593221568,-0.9397953152656555,0.2806319296360016,-0.1950145959854126,-0.6477879285812378,-2.1275298595428467,-3.358753204345703
1.3199849128723145,-0.3449200987815857,0.4366551637649536,-0.004485189914703369,-0.22355804171752672,-1.4157269965022319,-1.1980290594862784,-0.9634143114089966,0.221700519323349,-0.15060512721538544,-1.1270344257354736,-2.076460599899292,-3.1107351779937744
1.340014934539795,-0.25501102209091187,0.48956143856048584,-0.06913840770721436,-0.16959072499524938,-1.4625292994031154,-1.233603620182255,-0.9798828959465027,0.16877895593643188,-0.10650547593832016,-1.579306721687317,-1.9149751663208008,-2.7102112770080566
1.3600869178771973,-0.15421730279922485,0.5651341080665588,-0.15309113264083862,-0.12313452536673637,-1.5034170783788752,-1.2717520281873795,-0.9901766777038574,0.12282359600067139,-0.06681851297616959,-1.7797774076461792,-1.6222292184829712,-2.2661778926849365
1.379986047744751,-0.06976979970932007,0.6219451427459717,-0.27197790145874023,-0.08367302328811205,-1.5375217313623768,-1.3114877525967725,-0.9959500432014465,0.08357542008161545,-0.03315206989645958,-1.9719879627227783,-1.38387131690979,-1.8850945234298706
1.3999829292297363,0.007635712623596191,0.6713529229164124,-0.39088380336761475,-0.04912573919951472,-1.5668084163474483,-1.3509536864092029,-0.998785674571991,0.04910598322749138,-0.00398308876901865,-1.8302210569381714,-1.3122905492782593,-1.6781005859375
1.419990062713623,0.08042937517166138,0.6963750123977661,-0.38903987407684326,-0.017676132602875625,-1.5912801089297632,-1.383733025597354,-0.9996339678764343,0.017675211653113365,0.020479150116443634,-1.5241551399230957,-1.0002130270004272,-1.4107229709625244
1.4400169849395752,0.12056982517242432,0.6704275012016296,-0.47637271881103516,0.008318256975775502,-1.609496990678823,-1.4125316547060156,-0.9992167353630066,-0.0083181606605649,0.03868966922163963,-1.3700525760650635,-0.8232666850090027,-1.1476428508758545
1.4600310325622559,0.18152201175689697,0.739878237247467,-0.5850145816802979,0.03134155177519944,-1.6248273603586207,-1.433354337592702,-0.9980503916740417,-0.03133641928434372,0.05397823080420494,-0.7949342131614685,-0.7738379240036011,-1.065569281578064
1.479984998703003,0.26947081089019775,0.7958032488822937,-0.6844809055328369,0.05217459735592244,-1.6404686174148182,-1.4420259592404425,-0.9962165951728821,-0.05215092748403549,0.0695212185382843,-0.17663583159446716,-0.8365668654441833,-0.9632682800292969
1.4999828338623047,0.34618550539016724,0.7749119997024536,-0.7514255046844482,0.06937074778779213,-1.6587587244227755,-1.4396688245086176,-0.993738055229187,-0.0693151205778122,0.08763772994279861,0.18483437597751617,-0.9920050501823425,-0.7700811624526978
1.5200071334838867,0.32225364446640015,0.7174299359321594,-0.723893404006958,0.08243724676479143,-1.679318881194952,-1.4329324318187364,-0.9907411336898804,-0.08234390616416931,0.10794183611869812,0.3880259394645691,-0.9668481349945068,-0.6113902926445007
1.5400800704956055,0.22424167394638062,0.6753466725349426,-0.6951035261154175,0.09162781788913621,-1.6959182858049733,-1.4226638392573807,-0.9880203008651733,-0.09149965643882751,0.12427222728729248,0.5032240152359009,-0.579679548740387,-0.41513678431510925
1.5600109100341797,0.1457374095916748,0.6570441126823425,-0.6603014469146729,0.0970462742563279,-1.7051234850035542,-1.411827433141456,-0.9863289594650269,-0.09689401835203171,0.13329343497753143,0.47397392988204956,-0.2457500696182251,-0.2936391830444336
1.5799851417541504,0.128440260887146,0.6598290205001831,-0.6162028312683105,0.10053482765849675,-1.7080949941141852,-1.3998775398603485,-0.9855875372886658,-0.10036555677652359,0.13617661595344543,0.72492915391922,0.042645782232284546,-0.20656615495681763
1.5999839305877686,0.13909107446670532,0.6432762145996094,-0.5755987167358398,0.10079854251307913,-1.7077885504913177,-1.380117646262919,-0.9856029748916626,-0.10062793642282486,0.13587096333503723,1.239280104637146,0.18658138811588287,-0.07645023614168167
1.6200330257415771,0.13854652643203735,0.6347670555114746,-0.5358871221542358,0.09709302656105968,-1.7062594379616092,-1.3509079062825817,-0.9861723184585571,-0.0969405472278595,0.13441315293312073,1.7147821187973022,0.23045200109481812,0.04021604731678963
1.6395490169525146,0.10253387689590454,0.5621442198753357,-0.45222070813179016,0.08969980468278231,-1.7054513360741819,-1.312494529121305,-0.98696368932724,-0.08957956731319427,0.13370871543884277,2.0745022296905518,0.23089876770973206,0.196586012840271
1.6599831581115723,0.04611450433731079,0.43614083528518677,-0.2501711845397949,0.07907606940556969,-1.704611198527654,-1.273656199530854,-0.9879633188247681,-0.07899368554353714,0.1329989731311798,1.8737361431121826,0.1875687837600708,0.3284509479999542
1.6800799369812012,-0.12591618299484253,0.34597915410995483,-0.1470566987991333,0.06641071565941638,-1.7039205320309934,-1.2397467289101058,-0.9889673590660095,-0.0663619115948677,0.1324387788772583,1.7363932132720947,0.09568964689970016,0.4551125764846802
1.6999831199645996,-0.45547252893447876,0.3946647346019745,-0.08494997024536133,0.05246473756389021,-1.7039910155936446,-1.2047134458259297,-0.9897790551185608,-0.05244067311286926,0.1326184868812561,1.933774709701538,0.2731092870235443,0.4565737843513489
1.7200069427490234,-0.6014615893363953,0.3603551983833313,0.07946252077817917,0.03898452847697315,-1.6939015676860492,-1.1667989562452596,-0.9916781187057495,-0.03897465392947197,0.1227012425661087,1.9443799257278442,0.9346545338630676,0.37507688999176025
1.7400469779968262,-0.26848018169403076,0.1750195026397705,0.2675725221633911,0.02614253663346595,-1.668386996273847,-1.1316373969535838,-0.9949017763137817,-0.026139559224247932,0.09740254282951355,1.67684805393219,1.5796855688095093,0.5829141736030579
1.759984016418457,0.10544651746749878,0.05047193542122841,0.3240966796875,0.008800360279162476,-1.6386764146511412,-1.0979352050260778,-0.9976585507392883,-0.008800246752798557,0.06782535463571548,1.8418374061584473,1.2642735242843628,0.8313990235328674
1.7799811363220215,0.1599021553993225,0.08830947428941727,0.4167919158935547,-0.014352079006702215,-1.624051630769821,-1.0607044614673637,-0.9984794855117798,0.014351585879921913,0.053224656730890274,1.9327480792999268,0.25096115469932556,1.1900506019592285
1.7999839782714844,-0.2218639850616455,-0.020454347133636475,0.564410924911499,-0.03975186628500524,-1.618440640628243,-1.0201667019102207,-0.998076319694519,0.0397413969039917,0.04758867248892784,2.1734867095947266,0.33353742957115173,1.055719017982483
1.8200311660766602,-0.4305947422981262,-0.1084996834397316,0.7227627038955688,-0.059324824692749356,-1.5974122352811078,-0.9801860985287831,-0.997887372970581,0.05929003283381462,0.026565952226519585,1.9548231363296509,1.504819631576538,0.7762236595153809
1.8402800559997559,-0.11048638820648193,-0.18469789624214172,0.6299372911453247,-0.07447614425525798,-1.5648201536735056,-0.9397550894905523,-0.9972102046012878,0.07440731674432755,-0.0059595718048512936,2.0594751834869385,1.387030839920044,0.7186073660850525
1.8599920272827148,0.23587751388549805,-0.13369569182395935,0.560250461101532,-0.08693009390219274,-1.5389696250602711,-0.896856236892665,-0.9957195520401001,0.08682064712047577,-0.03170117363333702,2.238107681274414,0.7184662222862244,0.5743908882141113
1.8799819946289062,0.3052852749824524,-0.1398509442806244,0.666316032409668,-0.09648242338137135,-1.5312392591928308,-0.8546590503050969,-0.9945706129074097,0.09633280336856842,-0.0393628291785717,1.7001214027404785,0.0197699386626482,0.5624272227287292
1.89998197555542,0.19640576839447021,-0.36619678139686584,0.7143832445144653,-0.10647962731735887,-1.519660321863424,-0.8267987112048202,-0.9930368065834045,0.10627853125333786,-0.05082423985004425,1.0518085956573486,0.7974490523338318,0.5398896932601929
1.91998291015625,0.37378400564193726,-0.3780975341796875,0.5800609588623047,-0.1151375831303224,-1.4989877565448138,-0.8096392171147331,-0.990818977355957,0.11488336324691772,-0.07127183675765991,0.7761146426200867,0.9807605743408203,0.43419191241264343
1.9400138854980469,0.5742889642715454,-0.17315024137496948,0.4405645728111267,-0.12098542551606348,-1.4802775488851045,-0.7891412421396032,-0.98862624168396,0.1206904873251915,-0.08973445743322372,1.2055151462554932,0.6207577586174011,0.332216739654541
1.9600989818572998,0.5720174312591553,-0.029357433319091797,0.3651087284088135,-0.12180617795369482,-1.472548934458995,-0.7623870033512204,-0.9878042936325073,0.12150520086288452,-0.09736266732215881,1.5331816673278809,-0.18813790380954742,-0.011363383382558823
1.979982852935791,0.3603188395500183,-0.08139131218194962,0.4322865605354309,-0.1187643655772682,-1.4751392926273994,-0.7285918002672425,-0.9884164333343506,0.11848536878824234,-0.09483842551708221,1.7446752786636353,-0.2585923671722412,0.11672712117433548
1.9999818801879883,0.04007154703140259,-0.10572675615549088,0.38762181997299194,-0.11899253360655433,-1.4695180390014133,-0.6965444895428022,-0.9878406524658203,0.1187119260430336,-0.10039029270410538,1.3016891479492188,0.5302022099494934,0.14638347923755646
2.020004987716675,0.030282199382781982,-0.03909921646118164,0.42434442043304443,-0.11749430943862144,-1.4537135926624907,-0.6725545425377055,-0.986306369304657,0.11722416430711746,-0.11601003259420395,1.295734167098999,0.6038846969604492,-0.07702403515577316
2.0400218963623047,0.2759772539138794,0.10547905415296555,0.5066723823547363,-0.1138370317796279,-1.4404469003170306,-0.6381796873901894,-0.9850991368293762,0.11359132081270218,-0.12913933396339417,2.02125883102417,0.21933400630950928,0.22188487648963928
2.0600061416625977,0.2894194722175598,0.11458215862512589,0.4018908739089966,-0.1108798214896989,-1.4383838539864862,-0.5943197553290925,-0.9851593375205994,0.11065275967121124,-0.1312151402235031,2.4107778072357178,-0.43831586837768555,-0.011907405219972134
2.079986095428467,0.19926798343658447,-0.03959738463163376,0.30676984786987305,-0.10611104235729166,-1.4430315580405757,-0.5426190671215646,-0.9862706661224365,0.10591202974319458,-0.12670080363750458,2.630387544631958,-0.49415552616119385,0.24398575723171234
2.1000239849090576,0.07494914531707764,-0.03042137622833252,0.33560317754745483,-0.10489336176523192,-1.446858453839532,-0.49564128359328075,-0.9868754744529724,0.10470111668109894,-0.12294138222932816,1.9261826276779175,-0.36950457096099854,0.20594476163387299
2.1200661659240723,-0.011441409587860107,-0.1776423454284668,0.39683103561401367,-0.1063399102453465,-1.448762468136939,-0.46996992535756354,-0.9869564771652222,0.10613960772752762,-0.12104357779026031,0.4409341514110565,-0.021400755271315575,0.26996803283691406
2.1399788856506348,-0.03873908519744873,-0.3417735695838928,0.5142573714256287,-0.11281035044340094,-1.4447961852033864,-0.4816403601023486,-0.9857665300369263,0.11257123202085495,-0.12486822158098221,-1.5497630834579468,0.45313042402267456,0.28577932715415955
2.1599810123443604,0.0879935622215271,-0.32842475175857544,0.5033689141273499,-0.12750646947695754,-1.4396474490480304,-0.5207928575143341,-0.9833642244338989,0.12716124951839447,-0.12971165776252747,-2.292266368865967,0.4498664438724518,0.6645892858505249
2.179131031036377,0.09006357192993164,-0.19858987629413605,0.33375850319862366,-0.14671695472637133,-1.4430241787547364,-0.5597061817467919,-0.981192409992218,0.14619114995002747,-0.1260557919740677,-1.5668636560440063,-0.25332602858543396,0.6724261045455933
2.2000880241394043,-0.06075644493103027,-0.05761367082595825,0.2636268734931946,-0.15885152097400745,-1.4531095364794056,-0.5775612560336622,-0.980579674243927,0.15818428993225098,-0.1159370169043541,-0.30314233899116516,-0.49296146631240845,0.2717309892177582
2.220041036605835,-0.2185874581336975,-0.08134251832962036,0.23766326904296875,-0.15903838234073442,-1.4633324491070272,-0.5736141519397895,-0.9816842079162598,0.1583687961101532,-0.10590358078479767,0.5158484578132629,-0.4909008741378784,-0.17106948792934418
2.2400009632110596,-0.29091984033584595,-0.22868360579013824,0.2831498980522156,-0.15335622563867143,-1.4697161298552006,-0.5629079354754335,-0.9832198023796082,0.15275582671165466,-0.09972391277551651,0.449650377035141,-0.32061347365379333,-0.18506738543510437
2.260136127471924,-0.31974613666534424,-0.27945178747177124,0.3501495122909546,-0.15161397509270857,-1.4733904081727698,-0.5623058065615802,-0.9838429093360901,0.15103378891944885,-0.09613636136054993,-0.37042176723480225,-0.06935567408800125,-0.034722357988357544
2.2800068855285645,-0.3014296889305115,-0.2652285695075989,0.28961682319641113,-0.15253811157361427,-1.474913136770979,-0.5754805939244572,-0.9838486909866333,0.1519472599029541,-0.09462470561265945,-0.8427567481994629,0.0029820818454027176,0.02319204807281494
2.300091028213501,-0.28409790992736816,-0.13523359596729279,0.19613289833068848,-0.15501868235911273,-1.4817094902566847,-0.592965639454629,-0.9840906262397766,0.15439856052398682,-0.08790218830108643,-0.8388912081718445,-0.39946630597114563,0.012895908206701279
2.32000994682312,-0.35570067167282104,-0.020631492137908936,0.19306141138076782,-0.1536974144417953,-1.4934462100799974,-0.60656088776172,-0.9852571487426758,0.15309299528598785,-0.07636211067438126,-0.3977269232273102,-0.4503944516181946,-0.23035623133182526
2.33998703956604,-0.3283388018608093,-0.1388639360666275,0.2110605239868164,-0.14966056223261737,-1.5012987195898546,-0.6108343671941886,-0.9864347577095032,0.14910249412059784,-0.06866543740034103,-0.03503052145242691,-0.28280219435691833,-0.18416385352611542
2.36859393119812,-0.3337799906730652,-0.19336381554603577,0.10482924431562424,-0.14467358159465546,-1.5190073625473954,-0.6079426512937168,-0.9882264733314514,0.14416943490505219,-0.051225028932094574,0.13495664298534393,-0.6267316341400146,-0.14320865273475647
2.389008045196533,-0.3677114248275757,-0.13535001873970032,0.05930614471435547,-0.14014172364127114,-1.5332077246735338,-0.6050126307970258,-0.9894969463348389,0.13968345522880554,-0.037211332470178604,0.2296285182237625,-0.7702198624610901,-0.29155755043029785
2.408484935760498,-0.3976171016693115,-0.024766013026237488,0.09183007478713989,-0.13479289629410374,-1.5494652086619407,-0.6054242180467158,-0.9907039403915405,0.1343850940465927,-0.021136028692126274,-0.19796520471572876,-0.853188157081604,-0.27233174443244934
2.4283981323242188,-0.5003735423088074,-0.034729257225990295,0.1285056471824646,-0.12957388826267935,-1.5649836702784083,-0.6104916908559218,-0.9916003942489624,0.12921161949634552,-0.005763897206634283,-0.30083614587783813,-0.682729959487915,-0.1877395510673523
2.447265148162842,-0.6105235815048218,-0.004289120435714722,0.13142704963684082,-0.12832871035826818,-1.5773166738367388,-0.6132268067612417,-0.9917561411857605,0.12797677516937256,0.0064666857942938805,-0.03656868264079094,-0.44117751717567444,0.06607266515493393
2.46813702583313,-0.6825864911079407,0.10430324077606201,0.13740456104278564,-0.12981032172020554,-1.587986806766193,-0.6112802820680365,-0.991439938545227,0.12944605946540833,0.01704500801861286,0.29581359028816223,-0.6584179997444153,0.10100988298654556
2.4887681007385254,-0.7212175130844116,0.10542100667953491,0.15460050106048584,-0.1323151531529707,-1.5990177124961318,-0.6021999728964041,-0.9908645153045654,0.131929412484169,0.027970995754003525,0.7490606904029846,-0.6225520372390747,0.06260915100574493
2.508733034133911,-0.7099407315254211,0.06175796687602997,0.16739225387573242,-0.13403171159825727,-1.6096029078878138,-0.5849714499194257,-0.9902851581573486,0.13363076746463776,0.03844888508319855,0.9869961738586426,-0.5678625106811523,0.030608585104346275
2.528164863586426,-0.7047990560531616,-0.12045718729496002,0.07492292672395706,-0.13630545123346569,-1.6184957335182066,-0.564433931984052,-0.9895980954170227,0.13588376343250275,0.04723907634615898,0.8846432566642761,-0.6172140836715698,0.14348506927490234
2.5479278564453125,-0.6287575960159302,-0.15865860879421234,0.08557772636413574,-0.14122899958982357,-1.6300229420073256,-0.5553635510483479,-0.9883078932762146,0.14075998961925507,0.05860266834497452,0.028387892991304398,-0.6736454963684082,0.3159220814704895
2.5680079460144043,-0.5873447060585022,-0.12689051032066345,0.02573692798614502,-0.14929503534263572,-1.6466217976821573,-0.5652594241141607,-0.9860348701477051,0.14874105155467987,0.07491017878055573,-0.9318179488182068,-0.8753684163093567,0.5304902791976929
2.5882129669189453,-0.6294074654579163,0.003866061568260193,0.03716050833463669,-0.1586021690575875,-1.6665277667874,-0.5894411897028661,-0.9829277992248535,0.15793807804584503,0.09438560158014297,-1.2154322862625122,-0.7127248644828796,0.6629229187965393
2.6085870265960693,-0.6358341574668884,0.08464981615543365,0.020960569381713867,-0.17153061453819146,-1.6827515396103836,-0.6147546654487709,-0.9791561365127563,0.17069070041179657,0.11008194088935852,-1.0614110231399536,-0.5474461913108826,0.8828547596931458
2.626924991607666,-0.5603367686271667,0.2007605880498886,0.02138768881559372,-0.1892680935918654,-1.6972460065609607,-0.6353308095811244,-0.9743006825447083,0.1881401091814041,0.12386087328195572,-0.7405075430870056,-0.6064701676368713,1.1048182249069214
2.648219108581543,-0.5207443833351135,0.225008025765419,-0.02749846875667572,-0.21054991623218725,-1.7130342817584432,-0.6464482017092001,-0.9680405855178833,0.2089976966381073,0.1386282742023468,-0.07062188535928726,-0.7093007564544678,1.1823575496673584
2.6677019596099854,-0.506127119064331,0.20710578560829163,-0.05160476267337799,-0.2346471922474196,-1.723490694255747,-0.6435792485480809,-0.961280107498169,0.2324998676776886,0.14793357253074646,0.7523168921470642,-0.4327586591243744,1.1459341049194336
2.6870529651641846,-0.41247063875198364,0.10744580626487732,-0.04817090928554535,-0.26089060949395293,-1.7273126676253097,-0.6257621618424694,-0.9543508887290955,0.2579411268234253,0.1506033092737198,1.2764149904251099,-0.41477200388908386,1.1999987363815308
2.7078299522399902,-0.33957433700561523,0.026998043060302734,-0.018314823508262634,-0.289402752018272,-1.7290614194865668,-0.601067939208251,-0.9464365839958191,0.2853798568248749,0.15105114877223969,1.4700651168823242,-0.4414028227329254,1.2608340978622437
2.7264819145202637,-0.3035835027694702,0.004004955291748047,-0.0245676189661026,-0.3201140072146124,-1.7309819881404667,-0.5773257180723435,-0.9370476007461548,0.3146747648715973,0.15139874815940857,1.222395420074463,-0.4905485212802887,1.4430968761444092
2.745345115661621,-0.2614073157310486,-0.013664424419403076,-0.01849152147769928,-0.35501340069074405,-1.735032138200405,-0.5606493901300584,-0.9250246286392212,0.3476029336452484,0.15330301225185394,0.8549277782440186,-0.4893449544906616,1.7521960735321045
2.765244960784912,-0.26504260301589966,0.028991997241973877,0.05096791684627533,-0.39199619308077505,-1.7409679631377637,-0.553878599983683,-0.9107996821403503,0.38203394412994385,0.15650591254234314,0.4417046010494232,-0.2445259839296341,1.738276481628418
2.784132957458496,-0.26203489303588867,0.06412738561630249,-0.03675055503845215,-0.4259631173925103,-1.7380210999655814,-0.5456819970010263,-0.8979383111000061,0.4131980240345001,0.151573047041893,0.9677466154098511,0.134018212556839,1.515695333480835
2.8025569915771484,-0.1505136489868164,0.019394665956497192,-0.1381760835647583,-0.4589336915618402,-1.7262780357852983,-0.5246606090993278,-0.8857108354568481,0.4429923892021179,0.13883237540721893,1.384368896484375,0.08676459640264511,1.466714859008789
2.8273959159851074,-0.06016331911087036,-0.034173041582107544,-0.12340845167636871,-0.4902182813944489,-1.7166259163203959,-0.5031912157046108,-0.8728658556938171,0.4708184599876404,0.1281997412443161,0.8959426879882812,-0.08092933148145676,1.3372892141342163
2.8468399047851562,0.013573884963989258,-0.14922940731048584,-0.043627142906188965,-0.5177922832771656,-1.714696259025148,-0.49633153693026344,-0.8599332571029663,0.49496302008628845,0.12460560351610184,0.07921448349952698,0.016608767211437225,1.356232762336731
2.8673648834228516,0.09264898300170898,-0.1898946762084961,-0.014493003487586975,-0.5448194971117897,-1.7189406053312124,-0.5087853992624077,-0.8458533883094788,0.5182637572288513,0.12623316049575806,-0.6698632836341858,0.18830133974552155,1.4601579904556274
2.886204957962036,0.16386109590530396,-0.13914430141448975,-0.055226802825927734,-0.5712444069691117,-1.7258009216633836,-0.5310287255311847,-0.831143319606781,0.5406792759895325,0.12987282872200012,-0.6700533628463745,0.30139434337615967,1.4264415502548218
2.907119035720825,0.215140700340271,-0.035247862339019775,-0.12123513221740723,-0.596391795442832,-1.7264948186967464,-0.5449834486989688,-0.817359447479248,0.5616608262062073,0.12830005586147308,-0.05240841954946518,0.3974209129810333,1.2200311422348022
2.9275569915771484,0.2578308582305908,-0.02641117572784424,-0.16984522342681885,-0.6184664933351589,-1.7167155834406083,-0.5425205293034695,-0.8061097860336304,0.5797863602638245,0.11846897006034851,0.5212062001228333,0.4230276644229889,0.9502738118171692
2.9458699226379395,0.30861151218414307,-0.16052722930908203,-0.15362118184566498,-0.6375579761283617,-1.700949290639037,-0.5292195084969122,-0.7967556715011597,0.5952349305152893,0.10428965836763382,0.7044974565505981,0.41988202929496765,0.8303840160369873
2.966869831085205,0.3334738612174988,-0.22687286138534546,-0.07056498527526855,-0.6544706242580546,-1.683654902899425,-0.5163335150735858,-0.788323163986206,0.6087393164634705,0.089348703622818,0.4967585504055023,0.5854635238647461,0.7351950407028198
2.9847159385681152,0.3321310877799988,-0.29981982707977295,-0.07412886619567871,-0.6692809814210798,-1.6619207466794603,-0.5062226232823933,-0.7810142636299133,0.6204222440719604,0.07136711478233337,0.45237478613853455,0.9183735251426697,0.6913496255874634
3.004733085632324,0.36483991146087646,-0.25170254707336426,-0.0693819522857666,-0.682986306521123,-1.6391089839483703,-0.49881466766812393,-0.773882269859314,0.631112277507782,0.05294834449887276,0.26961466670036316,0.9183580279350281,0.591334879398346
3.025588035583496,0.34012502431869507,-0.18584281206130981,-0.11756527423858643,-0.691688688006143,-1.6176647902556078,-0.4930129003553698,-0.7693243026733398,0.6378386616706848,0.03608347475528717,0.2667197585105896,0.8309628367424011,0.26504480838775635
3.046427011489868,0.3525592088699341,-0.22520697116851807,-0.0995931625366211,-0.6959711725747961,-1.5952735704770649,-0.48391969562317155,-0.7672016620635986,0.6411310434341431,0.018782733008265495,0.46976175904273987,0.8435133099555969,0.17964325845241547
3.0664710998535156,0.4096444249153137,-0.2069758176803589,0.010857820510864258,-0.6990810871047837,-1.5716819724749236,-0.4722101213302805,-0.7654337882995605,0.6435145735740662,0.0006779032992199063,0.48757341504096985,0.7535207867622375,0.12078499794006348
3.086578845977783,0.38841718435287476,-0.1732192039489746,-0.025241674855351448,-0.7016899585161352,-1.547164237555334,-0.45611815832125907,-0.7635394334793091,0.6455093026161194,-0.01804739236831665,0.7478316426277161,0.6670728921890259,0.13868975639343262
3.1073360443115234,0.2894415259361267,-0.11281394958496094,-0.058190349489450455,-0.7020751853779774,-1.5186025365956461,-0.4322162788998584,-0.7624642252922058,0.6458035111427307,-0.03983207419514656,1.1347516775131226,0.656305730342865,-0.027711918577551842
3.1263790130615234,0.23074603080749512,-0.11434930562973022,-0.0662907287478447,-0.6993127411035422,-1.4859237932198517,-0.401388483826896,-0.7625300884246826,0.643691897392273,-0.06487370282411575,1.1494780778884888,0.6260460019111633,-0.1036839485168457
3.145357131958008,0.18739503622055054,-0.19121664762496948,-0.024150364100933075,-0.6950252587699226,-1.4569241214534152,-0.3758151398987392,-0.7630634307861328,0.6404048204421997,-0.08726924657821655,0.7531531453132629,0.6307209134101868,-0.11047030240297318
3.1661150455474854,0.15248924493789673,-0.16616356372833252,0.0026818513870239258,-0.6919324047884586,-1.4344797580591169,-0.3611751918306905,-0.7628714442253113,0.6380263566970825,-0.10464096814393997,0.4459170699119568,0.7130024433135986,-0.04900302737951279
3.1862709522247314,0.12843388319015503,-0.1193169355392456,0.0099458247423172,-0.690701563687385,-1.4138268611509692,-0.3528267159248979,-0.7613226771354675,0.6370781064033508,-0.12049569189548492,0.2295059859752655,0.8207570910453796,0.04901263117790222
3.206839084625244,0.08812510967254639,-0.1324891448020935,-0.015907540917396545,-0.6911423078621798,-1.3937529686883043,-0.3479087967461875,-0.7584744691848755,0.6374177932739258,-0.1357036828994751,0.22273139655590057,0.8807286024093628,0.07347521930932999
3.226308822631836,0.06189841032028198,-0.07266134023666382,-0.002482116222381592,-0.6921551449851672,-1.3712899571949704,-0.34151490686231467,-0.754601776599884,0.6381978392601013,-0.15257759392261505,0.26528745889663696,0.9730351567268372,0.1285228431224823
3.2449710369110107,0.05672895908355713,-0.043013155460357666,-0.010716259479522705,-0.692570929849059,-1.347323888503806,-0.3337261346024166,-0.7504699230194092,0.6385179162025452,-0.17055805027484894,0.3058184087276459,0.9228351712226868,0.03538689389824867
3.265933036804199,0.07925587892532349,-0.10596364736557007,0.04809547960758209,-0.6922442502426535,-1.322958252976946,-0.32498166124204225,-0.7462939023971558,0.6382664442062378,-0.18884244561195374,0.3171970546245575,0.9591470956802368,0.13622960448265076
3.2838540077209473,0.0819389820098877,-0.09504753351211548,0.04965725541114807,-0.6939223392223178,-1.3019020540778476,-0.31885644288397597,-0.7411187291145325,0.6395573616027832,-0.20422866940498352,0.1625986099243164,0.7827672362327576,0.12490975111722946
3.305652141571045,0.07322585582733154,-0.0895736813545227,0.022555559873580933,-0.6949602009428978,-1.2873978375128903,-0.3164175370736643,-0.7374410033226013,0.6403548717498779,-0.21477042138576508,0.09943089634180069,0.5328493118286133,0.03443187102675438
3.325571060180664,0.09575653076171875,-0.0837973952293396,0.07260221242904663,-0.6946512996340308,-1.2744809262811096,-0.3110268591788245,-0.7347947359085083,0.6401175856590271,-0.22433552145957947,0.32129499316215515,0.45664677023887634,0.0685923770070076
3.3448219299316406,0.0959271788597107,-0.0677635669708252,0.09153987467288971,-0.6936825393858318,-1.2598351100590104,-0.3010296100465439,-0.7320203185081482,0.6393730044364929,-0.23526231944561005,0.4435161054134369,0.38840052485466003,0.08398078382015228
3.3643088340759277,0.08461606502532959,-0.0944826602935791,0.09224584698677063,-0.6922557722972855,-1.2460003564208788,-0.29027964694019315,-0.7295593023300171,0.6382753252983093,-0.24565763771533966,0.43244627118110657,0.3481598198413849,0.08027142286300659
3.386828899383545,0.048128604888916016,-0.09970259666442871,0.029613852500915527,-0.691385890920912,-1.2323891754177945,-0.2796043594149731,-0.7266718149185181,0.6376054286956787,-0.25574901700019836,0.3730619251728058,0.2963030934333801,0.07468315213918686
3.405282974243164,0.005522727966308594,-0.05627429485321045,0.0003719031810760498,-0.689364958949,-1.2221278893901468,-0.27201494039770524,-0.7252189517021179,0.6360473036766052,-0.26363176107406616,0.30683574080467224,0.24496151506900787,-0.07974177598953247
3.4232168197631836,0.008344769477844238,-0.036904990673065186,0.014964669942855835,-0.6855664882841759,-1.212643762012162,-0.26510660239810746,-0.7249433398246765,0.6331115961074829,-0.27134275436401367,0.26592743396759033,0.25973325967788696,-0.08294928818941116
3.444192886352539,0.01803302764892578,-0.07590669393539429,0.07220631837844849,-0.6826135311253382,-1.205441999877526,-0.2615233690947477,-0.7247134447097778,0.6308230757713318,-0.2772233188152313,0.12670297920703888,0.25641605257987976,-0.07143377512693405
3.465941905975342,-0.025499343872070312,-0.12118023633956909,0.08244788646697998,-0.684799251634172,-1.199454893817688,-0.26717756294659645,-0.7217541337013245,0.6325175166130066,-0.2810562551021576,-0.5976145267486572,0.7277188301086426,0.17688976228237152
3.487032890319824,-0.11899501085281372,-0.0811510682106018,-0.09979790449142456,-0.6895690760300924,-1.1923499543077396,-0.27530859504223165,-0.7169273495674133,0.6362047791481018,-0.2850591838359833,-0.14796176552772522,0.5656888484954834,-0.021853549405932426
3.505281925201416,-0.04255801439285278,0.1156914234161377,-0.0008277297019958496,-0.6885752564585249,-1.1803309236579254,-0.27728475756366844,-0.7140339016914368,0.6354377269744873,-0.2938956618309021,0.07120246440172195,0.7043092846870422,-0.09922318160533905
3.5249781608581543,0.03669708967208862,-0.11482751369476318,0.04431384801864624,-0.6857780989549228,-1.1667508735935281,-0.274048217576782,-0.7116087079048157,0.6332753896713257,-0.30426251888275146,0.10018391907215118,0.4703032970428467,-0.05883941426873207
3.5449249744415283,0.05013835430145264,-0.058681488037109375,0.09543505311012268,-0.6846825455952829,-1.1590596358919603,-0.27525668543579157,-0.7098826766014099,0.6324271559715271,-0.31000399589538574,-0.04956928640604019,0.35441017150878906,-0.08281126618385315
3.5650081634521484,0.02924579381942749,-0.03138834238052368,0.05071103572845459,-0.6832910900930058,-1.1533433102111517,-0.2758574402161189,-0.7089028358459473,0.6313486695289612,-0.3144133687019348,0.01976548321545124,0.24501246213912964,-0.12239404767751694
3.5819268226623535,0.03453558683395386,-0.03876000642776489,0.04748311638832092,-0.679893864315586,-1.1492700926775072,-0.27530217568258203,-0.7095692157745361,0.6287105083465576,-0.31817397475242615,0.13451550900936127,0.13055522739887238,-0.11944305896759033
3.604027032852173,0.03576165437698364,-0.05109715461730957,0.05413013696670532,-0.6771798338431873,-1.1467164711056517,-0.2744626453546773,-0.7103070616722107,0.6265976428985596,-0.32068586349487305,0.03470156714320183,0.0577411986887455,-0.13315778970718384
3.623633861541748,0.009229302406311035,-0.04962635040283203,0.03538307547569275,-0.6741996759833695,-1.1467566301850036,-0.2750571216516179,-0.7120186686515808,0.6242722868919373,-0.3214241862297058,0.056671638041734695,0.007507413625717163,-0.14323775470256805
3.6445109844207764,-0.028346121311187744,-0.05885171890258789,0.019267916679382324,-0.6708951606263694,-1.1457866484730441,-0.2753481917193327,-0.7135820984840393,0.6216874122619629,-0.32296356558799744,0.04063039273023605,0.10643629729747772,-0.18543778359889984
3.664813995361328,-0.042478322982788086,-0.10868382453918457,0.025277137756347656,-0.6669233802165453,-1.1444590800780987,-0.2782207811933526,-0.7153953313827515,0.6185715198516846,-0.3249291777610779,-0.08740733563899994,0.21211782097816467,-0.2640818655490875
3.6835360527038574,-0.038083553314208984,-0.12977534532546997,0.00953325629234314,-0.6629145765856854,-1.143030349427413,-0.2851518405440453,-0.7171807885169983,0.6154167652130127,-0.3269769847393036,-0.2357066124677658,0.33488929271698,-0.3378828465938568
3.705009937286377,-0.019478261470794678,-0.14655393362045288,0.03310281038284302,-0.6577292436856146,-1.1421785681700516,-0.2957657811593729,-0.7197948694229126,0.6113213896751404,-0.32890963554382324,-0.2550302743911743,0.3907816410064697,-0.474886417388916
3.723459005355835,0.006284236907958984,-0.14947450160980225,0.0918205976486206,-0.6511786135871853,-1.1394028360866402,-0.30762024904021223,-0.7225013971328735,0.6061242818832397,-0.33257368206977844,-0.4191534221172333,0.6285030245780945,-0.5700271129608154
3.7434420585632324,0.00946497917175293,-0.258883535861969,0.10152345895767212,-0.6434933421720217,-1.1366529800793976,-0.3262252766400897,-0.725788950920105,0.5999937653541565,-0.33650872111320496,-0.5965462923049927,0.7615514397621155,-0.7298524379730225
3.7634849548339844,0.01306164264678955,-0.23249900341033936,0.02687734365463257,-0.633855205693656,-1.137829773437287,-0.3537253636890144,-0.7313997745513916,0.5922554731369019,-0.3380649983882904,-0.8148016929626465,0.7085145711898804,-1.0894097089767456
3.783234119415283,0.013424694538116455,-0.20804572105407715,-0.05814114212989807,-0.6178973978508328,-1.142028905219385,-0.37744972096243423,-0.7413148880004883,0.5793226361274719,-0.33887729048728943,-0.441466748714447,0.36681267619132996,-1.1811383962631226
3.804126024246216,-0.03588801622390747,-0.15039896965026855,0.06303766369819641,-0.5972320378393053,-1.147031862265298,-0.3983489080568237,-0.7537544965744019,0.5623558163642883,-0.340015172958374,-0.2525237500667572,0.38847845792770386,-1.3988184928894043
3.8242011070251465,-0.08968979120254517,-0.1869298219680786,0.1174221932888031,-0.5735982263817764,-1.149954663415357,-0.4203359865324919,-0.7666640281677246,0.5426579117774963,-0.34314534068107605,-0.4889204204082489,0.5911673903465271,-1.478159785270691
3.8433220386505127,-0.10228806734085083,-0.19437026977539062,0.09846580028533936,-0.5512250057724168,-1.1530673215527445,-0.4498191930706062,-0.7786324620246887,0.5237311720848083,-0.34559711813926697,-0.8596720695495605,0.6549369096755981,-1.610658884048462
3.8640270233154297,-0.08465367555618286,-0.1528112292289734,0.08881765604019165,-0.5282147623503668,-1.1594885124823298,-0.4863044408833022,-0.7916739583015442,0.5039921998977661,-0.3453178405761719,-1.0946662425994873,0.5740641951560974,-1.7718099355697632
3.8841991424560547,-0.09372884035110474,-0.14224743843078613,0.11039113998413086,-0.5031619195218173,-1.1693649353340705,-0.5271053807373861,-0.8064177632331848,0.48219797015190125,-0.3423094153404236,-1.229882836341858,0.5066909193992615,-1.9741542339324951
3.9037981033325195,-0.12482792139053345,-0.15359240770339966,0.15275061130523682,-0.47587009372915556,-1.1808903043586458,-0.571864023083345,-0.8221784234046936,0.45811203122138977,-0.33787015080451965,-1.3367561101913452,0.4777410626411438,-2.036865472793579
3.923797130584717,-0.15106409788131714,-0.08100199699401855,0.19319558143615723,-0.44868953925384397,-1.1924957744860016,-0.6196576290791669,-0.8373088240623474,0.43378517031669617,-0.33278295397758484,-1.5865199565887451,0.5263220071792603,-2.107724666595459
3.942814826965332,-0.17612427473068237,-0.03699725866317749,0.15268400311470032,-0.42066281227583907,-1.2026681284240992,-0.6706613783162494,-0.8516619801521301,0.4083655774593353,-0.32849568128585815,-1.6914218664169312,0.5335152745246887,-2.180842161178589
3.9638450145721436,-0.15992295742034912,0.025887280702590942,0.14427372813224792,-0.3931600118535541,-1.2143784571709058,-0.7259852482425915,-0.8656508326530457,0.3831092417240143,-0.32229799032211304,-2.0861117839813232,0.49329525232315063,-2.2235710620880127
3.983696937561035,-0.12170666456222534,0.01319780945777893,0.11697444319725037,-0.366879820889331,-1.229043229720739,-0.7875454026203392,-0.8794684410095215,0.35870465636253357,-0.312836229801178,-2.430206537246704,0.3272474408149719,-2.1694092750549316
4.003597974777222,-0.051990509033203125,0.06341001391410828,0.10682487487792969,-0.3437404446507433,-1.2472014470023405,-0.8544008665938206,-0.8926354646682739,0.33701106905937195,-0.2993755042552948,-2.7102439403533936,0.1744648963212967,-2.0939695835113525
4.022605895996094,-0.005269467830657959,0.09219697117805481,0.11472645401954651,-0.321951172157545,-1.2682261336048106,-0.9248696059882326,-0.905527651309967,0.3164180815219879,-0.2826646566390991,-3.0113017559051514,0.03090612404048443,-2.0170490741729736
4.042468070983887,0.01297980546951294,0.10710713267326355,0.10863000154495239,-0.3022594660901394,-1.2913288699824725,-0.9994697842356061,-0.9176276922225952,0.29767799377441406,-0.2633388042449951,-3.1739590167999268,-0.03401552885770798,-1.9400784969329834
4.062366962432861,-0.0028079748153686523,0.19349953532218933,0.0548529177904129,-0.2810887931339895,-1.3132931229020257,-1.071942198560711,-0.9290767908096313,0.277401864528656,-0.24467220902442932,-2.9395153522491455,-0.03746485710144043,-1.9371709823608398
4.083189964294434,0.01491159200668335,0.2625013589859009,-0.006456300616264343,-0.25754830399019313,-1.3318098131368812,-1.1367198236261458,-0.9395331740379333,0.25471049547195435,-0.22891047596931458,-2.430989980697632,-0.15114766359329224,-1.9186097383499146
4.103233814239502,0.035082459449768066,0.29959118366241455,-0.0009219050407409668,-0.2302390507958135,-1.3482569086252318,-1.187683028393652,-0.9496027827262878,0.22821027040481567,-0.21488308906555176,-1.7998723983764648,-0.17651212215423584,-1.8758580684661865
4.123286008834839,0.045966923236846924,0.26126790046691895,-0.06696200370788574,-0.20198623463980972,-1.3611197864154283,-1.2236777158699677,-0.9582136869430542,0.20061558485031128,-0.20391200482845306,-1.1569116115570068,-0.40678513050079346,-1.5892212390899658
4.143157005310059,0.038468360900878906,0.35165512561798096,-0.09648263454437256,-0.17531886055573456,-1.3781038000890333,-1.2526671210954463,-0.9664469361305237,0.17442211508750916,-0.18856675922870636,-1.074189305305481,-0.762516975402832,-1.68055260181427
4.162161827087402,0.011899471282958984,0.3748018741607666,-0.10268145799636841,-0.14702850245250662,-1.3992035421193443,-1.277187740856159,-0.9746833443641663,0.14649935066699982,-0.1689096838235855,-0.785868227481842,-0.8566004633903503,-1.4321054220199585
4.1822829246521,0.007090389728546143,0.49570557475090027,-0.09258507192134857,-0.12158281939166074,-1.420173428515544,-1.2977870467257662,-0.9813793301582336,0.12128349393606186,-0.14894630014896393,-0.7598369717597961,-0.980700671672821,-1.4711427688598633
4.202404022216797,0.007834911346435547,0.38822752237319946,-0.1449061632156372,-0.09664879609185385,-1.440883320802525,-1.313996695137941,-0.9869456887245178,0.09649839997291565,-0.1289433091878891,-0.5974200367927551,-0.8523997068405151,-1.158492922782898
4.222864151000977,-0.03415125608444214,0.37482786178588867,-0.225081205368042,-0.07871404576100131,-1.4567774236254158,-1.3311652943340495,-0.9904307126998901,0.07863278687000275,-0.11341974139213562,-0.8193231821060181,-0.6517595052719116,-0.8613565564155579
4.242754936218262,-0.004651963710784912,0.4402577579021454,-0.28394246101379395,-0.06575576940829393,-1.4699509910878754,-1.351286653603677,-0.9927693009376526,0.06570839136838913,-0.10045693069696426,-1.0502722263336182,-0.5057291984558105,-0.6826518774032593
4.262836933135986,0.05543726682662964,0.5525761842727661,-0.38035690784454346,-0.05403269588306988,-1.4824494933233516,-1.3718840243998618,-0.9946462512016296,0.05400640890002251,-0.08810319006443024,-0.7933738827705383,-0.6378273367881775,-0.6880366206169128
4.282529830932617,0.12669891119003296,0.5532286167144775,-0.394875705242157,-0.043342551617510966,-1.4951768648379373,-1.3857412475810196,-0.9962059259414673,0.04332898184657097,-0.07547647505998611,-0.5928711295127869,-0.5937390923500061,-0.4630292057991028
4.301772117614746,0.13083142042160034,0.47888708114624023,-0.3671078085899353,-0.03578423581660762,-1.5073247312387177,-1.394248340804664,-0.9973475933074951,0.03577660024166107,-0.063388392329216,-0.212760329246521,-0.49096718430519104,-0.3084545135498047
4.321542024612427,0.11461573839187622,0.48429009318351746,-0.3964437246322632,-0.0330498521242582,-1.5153228463948982,-1.398113819993713,-0.9979164600372314,0.03304383531212807,-0.05541475489735603,-0.15079106390476227,-0.3139452040195465,-0.02602466754615307
4.342952013015747,0.08284544944763184,0.4696551561355591,-0.43495696783065796,-0.032975278098052556,-1.519542749818451,-1.4021221525134047,-0.9981439113616943,0.03296930342912674,-0.05120328813791275,-0.25204572081565857,-0.09428437054157257,0.014130588620901108
4.362198829650879,0.11301398277282715,0.45231637358665466,-0.42309045791625977,-0.036568075588839954,-1.5208407126269874,-1.4072877780507067,-0.9980848431587219,0.036559924483299255,-0.049901459366083145,-0.3294854760169983,-0.022874193266034126,0.2788615822792053
4.383816957473755,0.09918838739395142,0.5072462558746338,-0.41483062505722046,-0.04292250757587789,-1.5225358394611512,-1.4113666859327287,-0.9979158639907837,0.042909327894449234,-0.04819732904434204,-0.07667521387338638,-0.17840537428855896,0.3668970763683319
4.402400970458984,-0.013265430927276611,0.523935854434967,-0.4199761748313904,-0.05180139118051758,-1.5278110237240652,-1.4091817724594506,-0.9977362155914307,0.05177822709083557,-0.04291442781686783,0.2861999273300171,-0.2958899438381195,0.49759382009506226
4.421473979949951,-0.16319960355758667,0.5425980091094971,-0.41681134700775146,-0.06087890584953881,-1.5297718178725208,-1.397426442218846,-0.9973077774047852,0.060841307044029236,-0.04093703255057335,0.8621869683265686,0.06904818117618561,0.41193461418151855
4.442336082458496,-0.12501287460327148,0.4891786277294159,-0.34877169132232666,-0.06979216114413431,-1.5234389615066541,-1.3748966231795086,-0.9964472055435181,0.06973551958799362,-0.04722442105412483,1.2615960836410522,0.422168493270874,0.816352367401123
4.462373971939087,-0.10244572162628174,0.47533124685287476,-0.22056591510772705,-0.08787684027925853,-1.5151638285657725,-1.348993040934512,-0.9946003556251526,0.08776377886533737,-0.05538925901055336,1.1087851524353027,0.2554336190223694,0.9498516321182251
4.482205867767334,-0.23274022340774536,0.38379672169685364,-0.1910455822944641,-0.10891108442741876,-1.5046270256587968,-1.3314906144766867,-0.9918997883796692,0.10869590193033218,-0.06572926789522171,0.7196650505065918,0.5719074010848999,1.3251264095306396
4.50177001953125,-0.3254077434539795,0.3522406816482544,-0.1356082558631897,-0.13694113964714544,-1.4885630319643977,-1.317137786502518,-0.9872907996177673,0.13651353120803833,-0.08137167990207672,0.5045130252838135,0.8817765712738037,1.5102202892303467
4.521867036819458,-0.30190378427505493,0.43107277154922485,-0.11011242121458054,-0.16708512315355797,-1.4666881750226495,-1.3009424212829406,-0.9807347655296326,0.16630877554416656,-0.10247296839952469,0.859357476234436,0.9876484274864197,1.6444910764694214
4.541893005371094,-0.2188795804977417,0.3604156970977783,-0.052979275584220886,-0.19879823094383675,-1.442655221469564,-1.275388103871467,-0.9722673296928406,0.1974913775920868,-0.12527382373809814,1.237807273864746,0.9447278380393982,1.7591516971588135
4.563403129577637,-0.1769963502883911,0.2912837266921997,0.06925760209560394,-0.23153125274269315,-1.4151713802473815,-1.2407044020050728,-0.9615536332130432,0.2294681817293167,-0.15086162090301514,1.7066688537597656,1.0396175384521484,1.9473075866699219
4.58333683013916,-0.1952282190322876,0.27909013628959656,0.09751291573047638,-0.2634202018797045,-1.3842473949384804,-1.1946344387396644,-0.9487537145614624,0.26038429141044617,-0.1790710836648941,2.1297717094421387,0.918291449546814,1.927825927734375
4.602285861968994,-0.1753605604171753,0.19822901487350464,0.1735222488641739,-0.2921614538509171,-1.3497329850926183,-1.1418644995189857,-0.9343196749687195,0.2880227565765381,-0.2099754512310028,2.1991310119628906,1.1139901876449585,1.9468986988067627
4.624531030654907,-0.10706132650375366,0.055603355169296265,0.22505243122577667,-0.3196068263151376,-1.3103937357871192,-1.087057553836662,-0.9173527359962463,0.3141933083534241,-0.24443107843399048,2.2579052448272705,1.141214370727539,1.9331706762313843
4.641005992889404,-0.01537013053894043,0.048363685607910156,0.26722952723503113,-0.34442243695089825,-1.267020912611251,-1.0314747200283323,-0.8981736302375793,0.33765310049057007,-0.28155747056007385,2.109912157058716,1.3413351774215698,1.920147180557251
4.659954071044922,0.04674595594406128,-0.05113488435745239,0.2517184019088745,-0.36812420472173046,-1.2246932977264355,-0.9780318130936014,-0.877678632736206,0.3598659336566925,-0.31650716066360474,1.8883072137832642,1.028590202331543,1.9238499402999878
4.679935932159424,0.025142133235931396,-0.09982916712760925,0.330182820558548,-0.38932982360824747,-1.185687185452911,-0.9254147077249256,-0.8574023246765137,0.379568487405777,-0.3475472629070282,1.9572558403015137,1.0015794038772583,1.802277684211731
4.69991397857666,-0.02901899814605713,-0.0644296407699585,0.36358577013015747,-0.4053328006138234,-1.142756953747207,-0.8710158832543243,-0.8360629081726074,0.3943246304988861,-0.38145381212234497,2.035851240158081,1.129011631011963,1.5950567722320557
4.719916820526123,-0.0448339581489563,-0.08634370565414429,0.3634069263935089,-0.4126195261563561,-1.097414801050449,-0.8147606379843224,-0.8153344988822937,0.4010103940963745,-0.41763657331466675,2.2930965423583984,1.1373902559280396,1.358222246170044
4.740018844604492,-0.048669517040252686,-0.19483274221420288,0.4171845614910126,-0.4148015629424146,-1.0540291332353404,-0.7584199035237315,-0.7956908941268921,0.4030083417892456,-0.4521729350090027,2.0804853439331055,0.9183879494667053,1.2560067176818848
4.759911060333252,-0.09499770402908325,-0.24697792530059814,0.4887087941169739,-0.41644258730609146,-1.0186065011222036,-0.7114500670732897,-0.7786138653755188,0.40450963377952576,-0.4797213077545166,1.4951251745224,0.7265450358390808,1.0569649934768677
4.779921054840088,-0.12064838409423828,-0.1985246241092682,0.5110478401184082,-0.41962433441599395,-0.9916416314371902,-0.6787317226321373,-0.764315664768219,0.4074174165725708,-0.4998326003551483,0.8545196056365967,0.5680872201919556,0.76975017786026
4.799920082092285,-0.13465362787246704,-0.22270843386650085,0.5336717963218689,-0.42127755363506025,-0.9758585458620656,-0.6593525433558902,-0.7557730674743652,0.4089266359806061,-0.5114549398422241,0.674873411655426,0.2849715054035187,0.4016418755054474
4.820022106170654,-0.1332569718360901,-0.21066415309906006,0.596233606338501,-0.42082058637601366,-0.9622267270965534,-0.6434228160453276,-0.7488842606544495,0.40850958228111267,-0.5218164324760437,0.5191472768783569,0.39113849401474,0.37818264961242676
4.839960098266602,-0.16486430168151855,-0.2640787959098816,0.5134198069572449,-0.4210308807434394,-0.9506885725356665,-0.6335606811522748,-0.742743730545044,0.40870150923728943,-0.5303722620010376,0.14974306523799896,0.3464040756225586,0.15302243828773499
4.860141038894653,-0.14087140560150146,-0.28369948267936707,0.4729272127151489,-0.42261742747370357,-0.9447548805633927,-0.6306290587163559,-0.7390572428703308,0.4101490080356598,-0.5343894958496094,0.005213451571762562,0.1490498185157776,0.17632389068603516
4.87993597984314,-0.09439617395401001,-0.22276422381401062,0.5124065279960632,-0.42475242186782997,-0.9438241333417932,-0.6304066166022625,-0.7378487586975098,0.41209521889686584,-0.5345622301101685,-0.043909139931201935,-0.12933184206485748,-0.1007130965590477
4.900318145751953,-0.14108425378799438,-0.2577727735042572,0.4514908790588379,-0.41935513201593255,-0.949797625125728,-0.6317003300724099,-0.7428269386291504,0.4071715474128723,-0.5314316153526306,0.18881134688854218,-0.4009861648082733,-0.3308139145374298
4.9210569858551025,-0.19259613752365112,-0.3304809629917145,0.4554789662361145,-0.41123377541878153,-0.9629498967457001,-0.6364820678551224,-0.7524417042732239,0.3997405469417572,-0.5234873294830322,-0.10669902712106705,-0.7294825315475464,-0.6230671405792236
4.940999984741211,-0.22474592924118042,-0.39196881651878357,0.43968725204467773,-0.40338443195753887,-0.9860150998361558,-0.6518893365095874,-0.7669075727462769,0.3925333619117737,-0.507710874080658,-0.6053787469863892,-0.9473029375076294,-0.7975783944129944
4.961018085479736,-0.1924789547920227,-0.3676317036151886,0.45434871315956116,-0.3970891903099651,-1.0174797255871622,-0.6763184844755606,-0.7845871448516846,0.3867356777191162,-0.4846220910549164,-0.9402120113372803,-1.28628408908844,-0.9753403663635254
4.980806827545166,-0.2666347026824951,-0.24185290932655334,0.3985636234283447,-0.3877085947794011,-1.0588371984906464,-0.7072926458822416,-0.8070806264877319,0.37806808948516846,-0.45352575182914734,-0.9919244647026062,-1.7001549005508423,-1.3013412952423096
5.000497817993164,-0.47931140661239624,-0.16677427291870117,0.33873623609542847,-0.37099667769105577,-1.1070976128286216,-0.7401099563017627,-0.8335548639297485,0.3625444769859314,-0.4168306887149811,-1.002814769744873,-1.803112506866455,-1.621065378189087
5.020480155944824,-0.6093277335166931,-0.18815618753433228,0.4098498225212097,-0.3500950278686694,-1.1543882019755949,-0.7810309957833685,-0.8590713739395142,0.342987060546875,-0.37994256615638733,-1.6777623891830444,-1.4051538705825806,-1.8443553447723389
5.0406529903411865,-0.4640541672706604,-0.1974942982196808,0.3744921386241913,-0.3321217017104159,-1.195025505610959,-0.837560296835774,-0.8793907165527344,0.3260495066642761,-0.3469346761703491,-2.491102457046509,-0.8560700416564941,-1.876085877418518
5.060792922973633,-0.13145089149475098,-0.11361691355705261,0.20507895946502686,-0.31612141993721676,-1.2347849433275424,-0.9037239826935144,-0.8972967863082886,0.3108825087547302,-0.31338581442832947,-2.715178966522217,-1.1375305652618408,-1.8102030754089355
5.0809619426727295,0.030949890613555908,0.00724908709526062,0.042605847120285034,-0.2975844097808305,-1.2823662406926508,-0.9646496832437087,-0.9165547490119934,0.2932116389274597,-0.27194535732269287,-2.160423994064331,-1.805579423904419,-1.7378958463668823
5.100387096405029,-0.08101201057434082,0.0661160945892334,-0.01167839765548706,-0.2751254619211095,-1.333970960676683,-1.0098974743190057,-0.935528576374054,0.2716676890850067,-0.22579407691955566,-1.4520578384399414,-1.9571763277053833,-1.5952892303466797
5.122106075286865,-0.24329441785812378,0.04859273135662079,0.020371735095977783,-0.24950488026240172,-1.3779528206427587,-1.0415353673109287,-0.951072096824646,0.24692420661449432,-0.18571597337722778,-1.1082440614700317,-1.6010372638702393,-1.5693650245666504
5.140931129455566,-0.259236216545105,0.038311198353767395,0.06338733434677124,-0.2233995277165256,-1.4136244280855355,-1.0711467840934055,-0.9631301760673523,0.22154594957828522,-0.15263593196868896,-1.3425272703170776,-1.307153344154358,-1.4916636943817139
5.1609039306640625,-0.20851492881774902,0.03160311281681061,0.07692135125398636,-0.1997954567879301,-1.4456241873844462,-1.107286235213925,-0.9724390506744385,0.1984688639640808,-0.12236200273036957,-1.843070387840271,-1.1479380130767822,-1.3373783826828003
5.1802520751953125,-0.18033510446548462,0.09603540599346161,0.03387653827667236,-0.1780358948050713,-1.4755185992144733,-1.1516894553802521,-0.9797297120094299,0.17709685862064362,-0.09362991154193878,-2.21577787399292,-0.9891975522041321,-1.333638310432434
5.20032000541687,-0.13425123691558838,0.21090193092823029,-0.06595933437347412,-0.15482816007847405,-1.5021842997564363,-1.1991600184457294,-0.9857134222984314,0.15421031415462494,-0.0677381232380867,-2.232879877090454,-0.8959003686904907,-1.3507537841796875
5.220216989517212,-0.05286967754364014,0.3378021717071533,-0.15642797946929932,-0.12978593785979356,-1.5254881917261032,-1.2439990474676144,-0.9905721545219421,0.1294218897819519,-0.044911712408065796,-2.0278167724609375,-0.8136653900146484,-1.4272900819778442
5.240139007568359,0.028472900390625,0.38729166984558105,-0.17569637298583984,-0.10209759857770273,-1.5461974108955556,-1.2832302018142918,-0.9944918155670166,0.10192031413316727,-0.024468356743454933,-1.8203377723693848,-0.7990403175354004,-1.441132664680481
5.259752988815308,0.057160019874572754,0.3837040066719055,-0.19442218542099,-0.07524445998288719,-1.5639662636474736,-1.3201175500366071,-0.9971472024917603,0.07517347484827042,-0.006810684222728014,-1.8497029542922974,-0.6376732587814331,-1.3005040884017944
5.280089855194092,0.04166758060455322,0.4126252233982086,-0.27305829524993896,-0.05106573899336212,-1.5783005572362658,-1.3598424220713428,-0.9986685514450073,0.0510435476899147,0.007494379300624132,-2.119310140609741,-0.5625367760658264,-1.1218609809875488
5.299952983856201,0.041265666484832764,0.4781208634376526,-0.3322134017944336,-0.029695973014962813,-1.5905045226179306,-1.4022555786892812,-0.9993652105331421,0.029691608622670174,0.019698236137628555,-2.0962789058685303,-0.4828892648220062,-0.9511566758155823
5.319952011108398,0.06238293647766113,0.5913823246955872,-0.3575315475463867,-0.01094330191185641,-1.5993692230102783,-1.4400323764839031,-0.999532163143158,0.010943083092570305,0.028567302972078323,-1.648559331893921,-0.3253862261772156,-0.868218183517456
5.339982986450195,0.10152947902679443,0.686113715171814,-0.3892247676849365,0.005480270134875628,-1.6044828932955846,-1.4651910908278118,-0.9994177222251892,-0.005480242893099785,0.03367969021201134,-0.973734438419342,-0.16972950100898743,-0.6483044624328613
5.35998010635376,0.1618947982788086,0.6870359778404236,-0.431854248046875,0.01627560814648839,-1.6071861268973657,-1.4784436856837209,-0.9992058277130127,-0.016274889931082726,0.0363769568502903,-0.38801109790802,-0.12262697517871857,-0.40097159147262573
5.379971981048584,0.19233369827270508,0.6809440851211548,-0.45987629890441895,0.022330874258960725,-1.6094272177984494,-1.481647564824333,-0.9990049600601196,-0.022329017519950867,0.03861166164278984,0.03585948422551155,-0.09675534069538116,-0.19494490325450897
5.39996600151062,0.22324132919311523,0.6329087018966675,-0.4678373336791992,0.023490127233620678,-1.6108599862187711,-1.477385136611094,-0.9989219307899475,-0.023487966507673264,0.04004189372062683,0.35816490650177,-0.035277776420116425,0.0772421807050705
5.419543027877808,0.25432294607162476,0.5690910816192627,-0.4465975761413574,0.01872297983934855,-1.6118492625568999,-1.4686874535014955,-0.9989824295043945,-0.018721885979175568,0.04103421792387962,0.5309091806411743,-0.06738227605819702,0.3633956015110016
5.439967155456543,0.2461310625076294,0.5432392358779907,-0.41428864002227783,0.008052616963147692,-1.6130286413900576,-1.4585103167572473,-0.9990760684013367,-0.008052529767155647,0.0422183983027935,0.5805734992027283,-0.04432293772697449,0.6085532903671265
5.460710048675537,0.1436099410057068,0.5809853672981262,-0.43458306789398193,-0.005608235270835211,-1.6137154062179504,-1.4424975310004664,-0.9990634918212891,0.005608205683529377,0.042905233800411224,1.0473437309265137,0.04699614644050598,0.7073936462402344
5.479970932006836,0.04289299249649048,0.5800830721855164,-0.42402446269989014,-0.021404749089495925,-1.6117545044094408,-1.4165220439012,-0.9989326000213623,0.02140311524271965,0.04093735292553902,1.6240911483764648,0.05113860219717026,0.769573986530304
5.500003814697266,-0.08563745021820068,0.5339746475219727,-0.3477339744567871,-0.03943031290676701,-1.6092435139412844,-1.3834014815377722,-0.9984844326972961,0.039420098066329956,0.03840784355998039,1.6630728244781494,0.1281106173992157,0.9059199094772339
5.520082950592041,-0.21877127885818481,0.4468580484390259,-0.20203149318695068,-0.060350135047585296,-1.6026030133381157,-1.3541767099471553,-0.9976746439933777,0.06031350791454315,0.031743429601192474,1.276883602142334,0.4082835912704468,1.1040370464324951
5.5400049686431885,-0.3393794894218445,0.4070271849632263,-0.14917075634002686,-0.08524822820504624,-1.590431579507359,-1.3328647179546718,-0.9961767792701721,0.0851450115442276,0.019562697038054466,1.0131516456604004,0.6220732927322388,1.298720359802246
5.56002402305603,-0.4466121196746826,0.45413053035736084,-0.17854011058807373,-0.11352647997129768,-1.5738495700317348,-1.310946987328662,-0.993558406829834,0.11328277736902237,0.003033584915101528,1.2126132249832153,0.7891358137130737,1.4830483198165894
5.580091953277588,-0.4744114279747009,0.4737359583377838,-0.16299837827682495,-0.14291517030227882,-1.5533332408374605,-1.2821454811811341,-0.9896543025970459,0.1424291729927063,-0.017284175381064415,1.6551504135131836,0.9309332966804504,1.4609087705612183
5.6000261306762695,-0.426247239112854,0.4862687289714813,-0.10086709260940552,-0.17110483262672394,-1.5271371785112844,-1.2465270468839897,-0.9844583868980408,0.1702711582183838,-0.04300794377923012,1.6961629390716553,1.040407419204712,1.4915326833724976
5.620013952255249,-0.3544155955314636,0.3080572485923767,0.08996779471635818,-0.19973787955987496,-1.4984475728597895,-1.2045198788644558,-0.9775546789169312,0.1984124332666397,-0.07084852457046509,2.1743955612182617,1.1957459449768066,1.6626561880111694
5.64002799987793,-0.32992708683013916,0.2109498679637909,0.17815840244293213,-0.2321232578450999,-1.4631100308669138,-1.1611839601711016,-0.9675431251525879,0.23004435002803802,-0.10459575802087784,1.9485526084899902,1.265061378479004,1.8446708917617798
5.660019874572754,-0.3129066824913025,0.17655712366104126,0.1533219963312149,-0.26497882970032755,-1.428381890336881,-1.1179153335235967,-0.955327570438385,0.2618888318538666,-0.13697975873947144,1.7339258193969727,1.1238912343978882,1.9286351203918457
5.679935932159424,-0.3199124336242676,0.18355077505111694,0.14514295756816864,-0.2958914380801221,-1.3954950377988313,-1.0740420944644995,-0.941882848739624,0.29159265756607056,-0.16682566702365875,1.9938628673553467,0.9755440950393677,1.7864707708358765
5.700003147125244,-0.2696267366409302,0.12857770919799805,0.20671123266220093,-0.32172201423757363,-1.3615800400621751,-1.023422733595412,-0.9280051589012146,0.31620070338249207,-0.19703708589076996,2.2606561183929443,0.904170572757721,1.7034627199172974
5.719980001449585,-0.20297449827194214,0.05679395794868469,0.2670351266860962,-0.34387967202170333,-1.3249458515381851,-0.9664957729396411,-0.9131448864936829,0.33714213967323303,-0.2291322648525238,2.441746473312378,0.900729775428772,1.6642361879348755
5.739924907684326,-0.11973869800567627,0.0007387995719909668,0.3165319263935089,-0.3629842268919536,-1.2875663261193444,-0.9083485359420924,-0.897595226764679,0.35506558418273926,-0.26124927401542664,2.3265998363494873,0.8125282526016235,1.6373541355133057
5.7599170207977295,-0.07959640026092529,-0.05054113268852234,0.33737319707870483,-0.38175242595785,-1.2512519991645699,-0.852468339341933,-0.8810359835624695,0.37254732847213745,-0.29152050614356995,2.1172091960906982,0.8141118288040161,1.68806791305542
5.779914855957031,-0.08413773775100708,-0.08517596125602722,0.38073062896728516,-0.39993653637922105,-1.2131179455887071,-0.7984481742176811,-0.8627922534942627,0.38935989141464233,-0.32247260212898254,1.9879480600357056,0.9760146141052246,1.711698055267334
5.799924850463867,-0.058373093605041504,-0.14746913313865662,0.42746448516845703,-0.41900667649934914,-1.1706491963640568,-0.7462270316788054,-0.8413309454917908,0.40685325860977173,-0.35585495829582214,1.7579909563064575,1.1744827032089233,1.83086359500885
5.819962024688721,-0.03448837995529175,-0.2178078591823578,0.476381778717041,-0.44030164256152177,-1.1259590708442024,-0.6975403081324997,-0.8165859580039978,0.4262123703956604,-0.38926932215690613,1.3886630535125732,1.2543530464172363,1.9235641956329346
5.8399338722229,-0.0843052864074707,-0.22746050357818604,0.4506482481956482,-0.46380557845725234,-1.0830555677278926,-0.6558035587216101,-0.7900692224502563,0.44735488295555115,-0.4191235303878784,0.9490031003952026,1.1862692832946777,1.826515555381775
5.859931945800781,-0.14544719457626343,-0.22699204087257385,0.4771985411643982,-0.484805423326431,-1.044353910478029,-0.620808698603095,-0.7649685144424438,0.46603620052337646,-0.4445599317550659,0.7768038511276245,1.147449254989624,1.530407190322876
5.879964828491211,-0.1497752070426941,-0.32900944352149963,0.5774326324462891,-0.5021281862219121,-1.0060851521338086,-0.5896410070255987,-0.7404683828353882,0.48129209876060486,-0.4691104292869568,0.6751829981803894,1.193428635597229,1.4132277965545654
5.899969100952148,-0.12817543745040894,-0.379168301820755,0.6318974494934082,-0.5187983712883214,-0.9687763535088596,-0.5628093793898423,-0.7157424688339233,0.4958369731903076,-0.4917911887168884,0.3895363211631775,1.1384227275848389,1.2289419174194336
5.919997930526733,-0.10806512832641602,-0.37374961376190186,0.6210532784461975,-0.5329987963412677,-0.9395487085818984,-0.5428913620778575,-0.6953101754188538,0.5081184506416321,-0.508290708065033,0.1908739060163498,0.8190556168556213,0.9035950303077698
5.939965009689331,-0.1034555435180664,-0.37037718296051025,0.5836944580078125,-0.542895511542804,-0.9196279201039418,-0.530060654420683,-0.6810141205787659,0.5166173577308655,-0.5189666152000427,0.11279074847698212,0.5078501105308533,0.5449859499931335
5.959970951080322,-0.06898230314254761,-0.37615716457366943,0.5814414620399475,-0.5471388414011754,-0.9081268336865082,-0.5229120191381941,-0.6732663512229919,0.5202459096908569,-0.5254111289978027,0.1665036678314209,0.28531143069267273,0.1653183251619339
5.9800519943237305,-0.002613246440887451,-0.4202083349227905,0.5896168947219849,-0.5449415243910507,-0.9027108497370232,-0.5184711318804143,-0.6713065505027771,0.5183680653572083,-0.5297566652297974,0.22350196540355682,-0.019702812656760216,-0.07475206255912781
5.999964952468872,-0.008494853973388672,-0.43702787160873413,0.5736986398696899,-0.5401537032898456,-0.9074745723867046,-0.5179346734961964,-0.6757703423500061,0.5142678022384644,-0.5280748605728149,0.11944559961557388,-0.45675018429756165,-0.28151005506515503
6.02036190032959,-0.12273478507995605,-0.4008920192718506,0.5617913603782654,-0.5336687749259375,-0.9210606583916631,-0.5232799640161594,-0.6855233311653137,0.5086953639984131,-0.5208520293235779,-0.11980267614126205,-0.5807512402534485,-0.5222680568695068
6.039952039718628,-0.22490447759628296,-0.3859286904335022,0.550726056098938,-0.5265122286524629,-0.9405482479577166,-0.5382342633481502,-0.6984659433364868,0.5025209784507751,-0.5095272660255432,-0.5352839231491089,-0.6185601949691772,-0.8208199739456177
6.059931993484497,-0.24439477920532227,-0.38858142495155334,0.559116542339325,-0.5204666165145714,-0.9679443727562913,-0.565998448138911,-0.7146506905555725,0.49728500843048096,-0.49191680550575256,-1.0370837450027466,-0.8211681246757507,-1.0585743188858032
6.078969955444336,-0.28964799642562866,-0.2954338490962982,0.5169018507003784,-0.5127708944019074,-1.0079403759085912,-0.602934934634474,-0.7369633316993713,0.49059364199638367,-0.46497613191604614,-1.1829437017440796,-1.3494738340377808,-1.3942829370498657
6.0999839305877686,-0.48168325424194336,-0.1332215666770935,0.41692978143692017,-0.49573067696967177,-1.0589664112253505,-0.6433192157543319,-0.7668976783752441,0.47567451000213623,-0.4308152496814728,-0.9679614901542664,-1.7488356828689575,-1.9035608768463135
6.119976043701172,-0.6569808125495911,-0.06524220108985901,0.4122224450111389,-0.46638111362026063,-1.1105277918008447,-0.6837957902720124,-0.800248920917511,0.4496568441390991,-0.39675000309944153,-0.9205069541931152,-1.411245584487915,-2.317913770675659
6.139971017837524,-0.4821079969406128,-0.1090451180934906,0.3638203740119934,-0.43360098403157976,-1.1522447846277961,-0.7281869329368832,-0.8291255831718445,0.4201412498950958,-0.36882519721984863,-1.345436453819275,-0.9587026834487915,-2.3373541831970215
6.1600470542907715,-0.1139369010925293,-0.05278053879737854,0.21175536513328552,-0.4027202395454011,-1.1948884736272782,-0.7764397541910747,-0.85575932264328,0.3919224143028259,-0.3377472162246704,-1.4023597240447998,-1.468201756477356,-2.197127103805542
6.1828999519348145,-0.05002546310424805,0.08810210227966309,-0.011345148086547852,-0.37083989163660325,-1.2442107239190363,-0.812513805433816,-0.8827596306800842,0.3623983561992645,-0.29900333285331726,-0.5192132592201233,-1.9830478429794312,-1.9787695407867432
6.199982166290283,-0.3096995949745178,0.18523916602134705,-0.12896236777305603,-0.3332709208943638,-1.2868691888283315,-0.8264931155690215,-0.907143235206604,0.32713571190834045,-0.26471439003944397,0.2908514738082886,-1.69275963306427,-2.0504512786865234
6.219973087310791,-0.42671316862106323,0.0920480489730835,-0.06764429807662964,-0.2935269191680685,-1.316525157540759,-0.8340688691793291,-0.9264516234397888,0.2893300950527191,-0.24078159034252167,-0.1779312640428543,-1.0865527391433716,-1.9161797761917114
6.2399678230285645,-0.32378101348876953,-0.03125268220901489,0.014853805303573608,-0.26385683370626284,-1.3428769131884908,-0.8608048923789173,-0.940424919128418,0.2608058452606201,-0.21813134849071503,-1.6843262910842896,-0.8738695383071899,-1.5608491897583008
6.259968042373657,-0.281024694442749,-0.042948246002197266,0.04956704378128052,-0.24769805957776042,-1.372982945737528,-0.9165800932360542,-0.9505732655525208,0.24517293274402618,-0.1905277520418167,-3.2015557289123535,-0.7009806036949158,-1.1911869049072266
6.279961109161377,-0.3158888816833496,0.11876769363880157,0.0015050917863845825,-0.23857632672514967,-1.4020207030630283,-0.9940047047422326,-0.9578689932823181,0.23631951212882996,-0.16321764886379242,-3.8916549682617188,-0.30816587805747986,-1.119112253189087
6.299965858459473,-0.2145845890045166,0.28010326623916626,-0.09434276819229126,-0.22806366568797595,-1.4247056469246309,-1.0751693815629537,-0.9637296795845032,0.22609175741672516,-0.14180217683315277,-3.642429828643799,-0.13350526988506317,-1.1581311225891113
6.319965839385986,-0.048102736473083496,0.3824779987335205,-0.2017502784729004,-0.2133444425088577,-1.4432050311493088,-1.1437064376903356,-0.9693838357925415,0.21172969043254852,-0.12436051666736603,-2.711677074432373,-0.2446025013923645,-1.2220005989074707
6.339961051940918,0.07967144250869751,0.423500657081604,-0.24925976991653442,-0.193441372550177,-1.4591651241164119,-1.189133677765915,-0.9752403497695923,0.19223721325397491,-0.10932173579931259,-1.4893356561660767,-0.42409059405326843,-1.270749807357788
6.359977960586548,0.15196967124938965,0.4199329614639282,-0.24668221175670624,-0.1704139252141869,-1.4735421325765665,-1.2126407790878952,-0.9808576107025146,0.1695902943611145,-0.0956944152712822,-0.6334007382392883,-0.5714698433876038,-1.2659493684768677
6.3799779415130615,0.19676172733306885,0.38749343156814575,-0.2766841650009155,-0.14649242864218215,-1.4887531667680896,-1.2232329666248953,-0.9859616160392761,0.14596903324127197,-0.08107339590787888,-0.2684306502342224,-0.7965741753578186,-1.2072811126708984
6.399965047836304,0.19801628589630127,0.43798598647117615,-0.32291460037231445,-0.1230850190199848,-1.5080482779608182,-1.228247450506596,-0.9904815554618835,0.12277446687221527,-0.06223248317837715,-0.023987270891666412,-1.0319033861160278,-1.179665207862854
6.419997930526733,0.13432985544204712,0.47217729687690735,-0.4035242795944214,-0.10040951793649804,-1.5284465619831582,-1.2263601172650813,-0.9940711259841919,0.10024087876081467,-0.04212386533617973,0.288707971572876,-0.9780832529067993,-1.0660803318023682
6.439960956573486,0.13218384981155396,0.4713246822357178,-0.40343940258026123,-0.07992300831073781,-1.545441158692773,-1.220151327559491,-0.9964873790740967,0.07983794808387756,-0.025271520018577576,0.3658887445926666,-0.7739143967628479,-0.9439913034439087
6.459962844848633,0.18554085493087769,0.49455130100250244,-0.4378895163536072,-0.06293952956100518,-1.5588939823635177,-1.2147044692870437,-0.9979493618011475,0.06289798021316528,-0.011878497898578644,0.20038507878780365,-0.6263030767440796,-0.7458738684654236
6.479990005493164,0.20509958267211914,0.4995802938938141,-0.47716450691223145,-0.05050521170784417,-1.569794910936498,-1.2115078203293257,-0.9987245202064514,0.05048374459147453,-0.0010001389309763908,0.12179502844810486,-0.4589775502681732,-0.4856860637664795
6.499972820281982,0.21225571632385254,0.5672560930252075,-0.46769988536834717,-0.04298654235637103,-1.5765112236826624,-1.2087308571498305,-0.9990599751472473,0.04297330603003502,0.005709586665034294,0.229271799325943,-0.22914250195026398,-0.2789451777935028
6.519963026046753,0.22301554679870605,0.5851932764053345,-0.5073350667953491,-0.04103887858740372,-1.5791304252871243,-1.2005549346850812,-0.9991232752799988,0.041027359664440155,0.008326984941959381,0.5587303638458252,-0.08776291459798813,0.10009535402059555
6.539961814880371,0.1978110671043396,0.5760563015937805,-0.48824596405029297,-0.04584688880927235,-1.5793456372176284,-1.187161553209551,-0.9989128112792969,0.04583083093166351,0.00854022428393364,0.8109874129295349,0.02188173681497574,0.3564792573451996
6.5600128173828125,0.15519315004348755,0.5724357962608337,-0.4776715040206909,-0.05578213378174932,-1.577164272415656,-1.167754462076331,-0.9984244704246521,0.055753208696842194,0.006357998587191105,1.1393707990646362,0.0904482826590538,0.6171987652778625
6.579959869384766,0.07519501447677612,0.5575655698776245,-0.42401838302612305,-0.07117182673331324,-1.572593315642284,-1.142880265769706,-0.9974667429924011,0.0711117535829544,0.0017924385610967875,1.3016749620437622,0.20211292803287506,0.9039885997772217
6.599975109100342,-0.0697106122970581,0.5096948146820068,-0.3518737554550171,-0.09055703074131707,-1.5651947841630847,-1.1167866221835017,-0.9958869218826294,0.09043331444263458,-0.005578561220318079,1.2812377214431763,0.3597797155380249,1.0375630855560303
6.6199951171875,-0.20882469415664673,0.5082963705062866,-0.24873799085617065,-0.11288431081003536,-1.5537850165445588,-1.0920176560241455,-0.9934916496276855,0.11264471709728241,-0.016902225092053413,1.1804035902023315,0.5122169256210327,1.2230579853057861
6.640033006668091,-0.38304954767227173,0.49222809076309204,-0.21836775541305542,-0.1379699225706491,-1.539024760511656,-1.068617002581925,-0.9899975061416626,0.13753260672092438,-0.031464360654354095,1.0691183805465698,0.7121381163597107,1.3271946907043457
6.659937858581543,-0.46256178617477417,0.4764994978904724,-0.15715008974075317,-0.1643763921946481,-1.5174242051316353,-1.0475890316854706,-0.9851158857345581,0.1636371612548828,-0.05262770876288414,0.9189053177833557,1.105861783027649,1.402580738067627
6.679985046386719,-0.37076306343078613,0.43868666887283325,-0.09811007976531982,-0.1928003161449745,-1.490343957128401,-1.027767504431727,-0.9782971143722534,0.19160807132720947,-0.0788765698671341,0.8367403745651245,1.217334508895874,1.5732636451721191
6.699932098388672,-0.3038363456726074,0.403049111366272,-0.009099498391151428,-0.224832113157713,-1.4617050574242134,-1.0086930133152143,-0.9690367579460144,0.22294270992279053,-0.1061348170042038,0.7205561399459839,1.2324392795562744,1.7381936311721802
6.719692945480347,-0.3045504689216614,0.3201342523097992,0.07416136562824249,-0.2592365911737161,-1.431884943626838,-0.9902150742754787,-0.9572751522064209,0.25634273886680603,-0.13383838534355164,0.6406288743019104,1.3089829683303833,1.8831037282943726
6.739938020706177,-0.2788493037223816,0.2786942422389984,0.1432221382856369,-0.295072811062549,-1.4011384295968738,-0.9711488809040183,-0.9430441856384277,0.2908095121383667,-0.16154786944389343,0.7239351868629456,1.2146475315093994,1.9322267770767212
6.759984016418457,-0.2383977174758911,0.21315887570381165,0.17994743585586548,-0.3306925501602591,-1.369487661377605,-0.9446658272987682,-0.9267177581787109,0.3246981203556061,-0.1891179233789444,1.0901905298233032,1.1259592771530151,2.034989595413208
6.779982089996338,-0.21113771200180054,0.16550245881080627,0.2173669934272766,-0.36448713492888174,-1.3362964995804862,-0.9091591291723716,-0.9087353944778442,0.35647016763687134,-0.21709227561950684,1.4661579132080078,0.9745233654975891,1.9767398834228516
6.799929141998291,-0.16927462816238403,0.14476853609085083,0.24566513299942017,-0.3931434769807881,-1.3016876177108443,-0.8635858426887795,-0.8904635906219482,0.3830939531326294,-0.24558880925178528,1.960898995399475,0.7962561249732971,1.8648759126663208
6.819971084594727,-0.15055078268051147,0.11936423182487488,0.2973116636276245,-0.4149147676502348,-1.264092656102253,-0.805822169744298,-0.8724442720413208,0.40311193466186523,-0.2763002812862396,2.519853115081787,0.7104954719543457,1.7391611337661743
6.839961051940918,-0.15263330936431885,0.09153726696968079,0.3189021944999695,-0.4291770421086832,-1.2225383024352823,-0.738030190558976,-0.8547215461730957,0.4161226153373718,-0.310311496257782,2.837374448776245,0.6765089631080627,1.598815679550171
6.860005855560303,-0.12380152940750122,0.024669796228408813,0.3710532784461975,-0.4369979221570807,-1.1792888108824329,-0.6668953107893564,-0.8374717831611633,0.4232214093208313,-0.34572362899780273,2.8708596229553223,0.6559618711471558,1.4932204484939575
6.879966974258423,-0.11899417638778687,-0.029806405305862427,0.4254998564720154,-0.44163691443181213,-1.1364509903931914,-0.596261215134594,-0.8201081156730652,0.42741990089416504,-0.3804406523704529,2.8179948329925537,0.6795362234115601,1.5257364511489868
6.899961948394775,-0.1407192349433899,-0.061063677072525024,0.48811832070350647,-0.4463254196115227,-1.0904004651887784,-0.5277907804858689,-0.7999393939971924,0.43165382742881775,-0.4168596863746643,2.471212387084961,0.9809631705284119,1.616692304611206
6.920001029968262,-0.13522082567214966,-0.12113422155380249,0.498818039894104,-0.45389704379457035,-1.043715205050078,-0.4683562786221016,-0.7767667174339294,0.43847131729125977,-0.4520803689956665,1.844307780265808,1.0693010091781616,1.6468640565872192
6.940065860748291,-0.12869960069656372,-0.151908278465271,0.5084572434425354,-0.4667014357518799,-1.001628488811047,-0.4204732666144927,-0.7522666454315186,0.449942946434021,-0.4812965393066406,1.1516250371932983,1.0143256187438965,1.6658647060394287
6.959961891174316,-0.15958058834075928,-0.17388510704040527,0.5794204473495483,-0.48445334913513244,-0.96527888540192,-0.38430917159046835,-0.7275959849357605,0.4657246768474579,-0.5036910176277161,0.5818046927452087,0.9896029233932495,1.5945205688476562
6.980049133300781,-0.21037644147872925,-0.18508556485176086,0.6025050282478333,-0.5051911087430158,-0.9314705294037307,-0.356319645536499,-0.7022517919540405,0.4839746952056885,-0.5221216678619385,0.27168968319892883,1.0531052350997925,1.5149266719818115
6.9999518394470215,-0.21853357553482056,-0.19884413480758667,0.6522538065910339,-0.5259340475052612,-0.8975026436650889,-0.3325374053058002,-0.676119863986969,0.5020210146903992,-0.5392929911613464,0.07658439874649048,1.1607301235198975,1.3985768556594849
7.019908905029297,-0.1903347373008728,-0.26812171936035156,0.6222083568572998,-0.5473495117035365,-0.8670156686241897,-0.3142582121073979,-0.6510197520256042,0.5204257965087891,-0.5525672435760498,-0.20453332364559174,0.9281438589096069,1.2365118265151978
7.039968013763428,-0.14265894889831543,-0.33044540882110596,0.6324384212493896,-0.5690350937171385,-0.8450826042423598,-0.30243480393884375,-0.6301530599594116,0.538819432258606,-0.5590894222259521,-0.4258745610713959,0.6454516053199768,1.0339040756225586
7.059960842132568,-0.10747194290161133,-0.3899304270744324,0.6506304144859314,-0.5891886140449889,-0.831407650890716,-0.2961919229370004,-0.6142993569374084,0.5556866526603699,-0.5602220892906189,-0.5010474324226379,0.3869118392467499,0.815150797367096
7.0799829959869385,-0.0754626989364624,-0.4046285152435303,0.6061215996742249,-0.6057299979155536,-0.8251855261101708,-0.2931349376709659,-0.6039654612541199,0.5693623423576355,-0.5577206015586853,-0.3714514672756195,0.025599688291549683,0.5636064410209656
7.099962949752808,-0.08650398254394531,-0.3667083978652954,0.5410036444664001,-0.6133017983410871,-0.8267298427828805,-0.2884131647252171,-0.6016369462013245,0.5755706429481506,-0.5538514256477356,0.19206508994102478,-0.44356584548950195,0.2566470205783844
7.119524002075195,-0.1553744077682495,-0.30555468797683716,0.5278534293174744,-0.6085745389524256,-0.8333371996440071,-0.2783182572056856,-0.607290506362915,0.5716984868049622,-0.5516875982284546,0.6866544485092163,-0.7679753303527832,-0.05782054737210274
7.139989852905273,-0.2551461458206177,-0.34012144804000854,0.5143818855285645,-0.5945522541297273,-0.844567340428053,-0.2674506740582828,-0.6193809509277344,0.560137927532196,-0.5501026511192322,0.8514400720596313,-0.946517288684845,-0.3841504156589508
7.159961938858032,-0.3035632371902466,-0.3600720763206482,0.5298805832862854,-0.5774916422165319,-0.8607208434906106,-0.2621972451520794,-0.6353406310081482,0.5459240674972534,-0.5461768507957458,0.5583786368370056,-0.9775272607803345,-0.6102120876312256
7.179956912994385,-0.2890346050262451,-0.36364424228668213,0.48036569356918335,-0.5620358595799995,-0.8841061254615742,-0.26708171381908197,-0.6543859243392944,0.5329099893569946,-0.5364570021629333,0.12696164846420288,-1.1585168838500977,-0.8373481631278992
7.199959993362427,-0.30911630392074585,-0.2902677655220032,0.3742865324020386,-0.5469628896315497,-0.9195606603254354,-0.28119026069147834,-0.6793023943901062,0.5200955867767334,-0.5177344083786011,-0.06412188708782196,-1.6816577911376953,-1.1163504123687744
7.219959020614624,-0.5088951587677002,-0.16578596830368042,0.2707099914550781,-0.5257840438787503,-0.966300749268983,-0.2995332658011222,-0.7116554975509644,0.5018913149833679,-0.49158093333244324,0.048774149268865585,-1.974923849105835,-1.5538290739059448
7.239953994750977,-0.7332479357719421,-0.09759271144866943,0.3083447217941284,-0.4960608334065786,-1.012496657420961,-0.3218832334750036,-0.7459239363670349,0.47596487402915955,-0.46589168906211853,-0.20186792314052582,-1.4328104257583618,-1.9654178619384766
7.259982109069824,-0.5694674253463745,-0.18760386109352112,0.3053721785545349,-0.4691008467086662,-1.051131422359988,-0.35987825234502663,-0.774221658706665,0.4520844519138336,-0.44294536113739014,-1.4254279136657715,-0.7979798316955566,-2.0358479022979736
7.279958009719849,-0.2096867561340332,-0.23253017663955688,0.22211408615112305,-0.45405733167161627,-1.0967839921324047,-0.42251500960139454,-0.7995907068252563,0.4386153519153595,-0.41020911931991577,-2.688028335571289,-1.0939568281173706,-1.9443371295928955
7.29996395111084,-0.15277892351150513,-0.0989159643650055,0.07929620146751404,-0.4449503868512409,-1.155665276334952,-0.49804659191631295,-0.8259656429290771,0.4304130971431732,-0.36404040455818176,-2.903193950653076,-1.430998682975769,-1.8288804292678833
7.320039987564087,-0.31862062215805054,0.04803013801574707,-0.05169636011123657,-0.4304742736159186,-1.2130268869661796,-0.5677506040450204,-0.8512250781059265,0.41730186343193054,-0.31823763251304626,-2.341610908508301,-1.3088587522506714,-1.9425525665283203
7.340045928955078,-0.349118173122406,0.14944258332252502,-0.1716543436050415,-0.40492884662941475,-1.2604318776229841,-0.6226863619880764,-0.8752166032791138,0.3939533531665802,-0.2807076871395111,-1.5722750425338745,-1.249245524406433,-2.1104142665863037
7.359982967376709,-0.21483135223388672,0.18920040130615234,-0.21137863397598267,-0.37168187803550823,-1.3015918804031053,-0.6600755487181885,-0.8981600999832153,0.36318299174308777,-0.24780401587486267,-0.8410252332687378,-1.4648221731185913,-2.044222593307495
7.380015850067139,-0.1930484175682068,0.18246087431907654,-0.18110011518001556,-0.3365680407387763,-1.3401827143048148,-0.6837601631543578,-0.9189053773880005,0.3302496373653412,-0.21575044095516205,-0.5292821526527405,-1.5091677904129028,-1.9350831508636475
7.399960041046143,-0.2306789755821228,0.1684199571609497,-0.16143935918807983,-0.3016170040737127,-1.3739639494463312,-0.7037379726244781,-0.9364200830459595,0.2970646023750305,-0.1867356151342392,-0.665148138999939,-1.2364695072174072,-1.9081642627716064
7.419993877410889,-0.14295202493667603,0.19635283946990967,-0.18999409675598145,-0.2673459816431909,-1.403510357947547,-0.7278758336869424,-0.9510117173194885,0.26417264342308044,-0.1605917513370514,-0.9930798411369324,-1.0729461908340454,-1.8719319105148315
7.43996000289917,-0.02260226011276245,0.2580254375934601,-0.2610189914703369,-0.23464607634046575,-1.4315035045233924,-0.7553317855924525,-0.9631766080856323,0.23249877989292145,-0.1350380778312683,-1.0914250612258911,-1.0614713430404663,-1.7802491188049316
7.4599950313568115,0.036358773708343506,0.34331589937210083,-0.29857397079467773,-0.2025454820294279,-1.4573745913161247,-0.7801602840705066,-0.9732637405395508,0.2011634260416031,-0.11086507886648178,-0.8796266317367554,-0.9391424655914307,-1.704622745513916
7.479959964752197,0.07472461462020874,0.39749962091445923,-0.35867053270339966,-0.17091237556753575,-1.4783130750553546,-0.7973358102224153,-0.981218695640564,0.1700814962387085,-0.09100590646266937,-0.49911022186279297,-0.8217201232910156,-1.6255528926849365
7.499982833862305,0.13233482837677002,0.43289148807525635,-0.4004807472229004,-0.14043030085513783,-1.496262446389391,-0.8081237036508435,-0.9874069690704346,0.13996919989585876,-0.07373185455799103,-0.3053191304206848,-0.834961473941803,-1.494417667388916
7.519984006881714,0.15080386400222778,0.4668298065662384,-0.41837799549102783,-0.11257032728965308,-1.5136997604075357,-0.8142799233516129,-0.9920514822006226,0.11233273148536682,-0.05670436471700668,-0.1369769424200058,-0.7980420589447021,-1.3269129991531372
7.539958953857422,0.1492207646369934,0.5007519721984863,-0.4272041916847229,-0.08816828357871848,-1.527880575416466,-0.8169935758204945,-0.9951986074447632,0.0880540981888771,-0.04273593798279762,-0.01613609865307808,-0.5898064970970154,-1.1224868297576904
7.559968948364258,0.17754238843917847,0.5190441608428955,-0.4598514437675476,-0.06802913768601468,-1.5385479963357633,-0.8164498554035289,-0.9971683025360107,0.06797667592763901,-0.03216816484928131,0.16527633368968964,-0.48352134227752686,-0.888556957244873
7.579975128173828,0.20344597101211548,0.5650308728218079,-0.4929528832435608,-0.05280668255785018,-1.5469443827015437,-0.8108911574569643,-0.9983221888542175,0.05278214439749718,-0.023816442117094994,0.44930028915405273,-0.4036146104335785,-0.6235629916191101
7.599964141845703,0.2166730761528015,0.5761321783065796,-0.5035262107849121,-0.042487083074600085,-1.553340337631305,-0.7994598764199242,-0.9989454746246338,0.042474303394556046,-0.017439352348446846,0.6909023523330688,-0.2862274646759033,-0.3874346911907196
7.61932897567749,0.2594946026802063,0.5521588325500488,-0.4735621213912964,-0.03738835534713249,-1.5573033597280357,-0.7845480812446343,-0.9992103576660156,0.03737964481115341,-0.013483130373060703,0.8068414926528931,-0.18069879710674286,-0.09884502738714218
7.640063047409058,0.26624006032943726,0.5306427478790283,-0.4603637456893921,-0.03841266415895121,-1.5592733808641632,-0.7669217238649638,-0.9991961717605591,0.0384032167494297,-0.011514193378388882,0.958362340927124,-0.0835292860865593,0.21440255641937256
7.659945011138916,0.22583866119384766,0.5349751114845276,-0.4592968225479126,-0.04455308668264643,-1.5591952634314508,-0.7453409071789602,-0.9989405274391174,0.04453834891319275,-0.01158929243683815,1.2139148712158203,0.01004913542419672,0.41324466466903687
7.679994106292725,0.17214834690093994,0.5432217121124268,-0.43980473279953003,-0.05432383235990487,-1.55679890918741,-0.717772547246613,-0.9984270930290222,0.05429711565375328,-0.013976313173770905,1.5289288759231567,0.07605354487895966,0.6022192239761353
7.6999900341033936,0.057370007038116455,0.523286759853363,-0.4254031777381897,-0.06720257482050168,-1.553073903602404,-0.6845752172157041,-0.9975863099098206,0.0671520009636879,-0.01768149808049202,1.7637478113174438,0.10024489462375641,0.7235338687896729
7.719929933547974,-0.09962719678878784,0.520351231098175,-0.3583714962005615,-0.08194373973242121,-1.5458877656706878,-0.6488189898077517,-0.9963353276252747,0.08185206353664398,-0.0248224139213562,1.7038878202438354,0.4059944450855255,0.8312581777572632
7.739918947219849,-0.2039780616760254,0.4572810232639313,-0.2640816569328308,-0.09917106045092158,-1.532464799671969,-0.6185349717684073,-0.9943557381629944,0.09900858253240585,-0.03813385218381882,1.2159563302993774,0.6285527348518372,0.995491623878479
7.7592668533325195,-0.3304464817047119,0.43444761633872986,-0.22793322801589966,-0.11993201341279201,-1.5163600027962107,-0.5985065731463614,-0.9913461208343506,0.11964470893144608,-0.05401860922574997,0.7373356223106384,0.7840527892112732,1.1647282838821411
7.779904842376709,-0.4557376503944397,0.48695671558380127,-0.20147490501403809,-0.14343262936001555,-1.4956112570973144,-0.5828045001391722,-0.9869352579116821,0.14294132590293884,-0.07434292882680893,0.7328370213508606,1.083099603652954,1.2860801219940186
7.799910068511963,-0.47860169410705566,0.5278529524803162,-0.18427258729934692,-0.16893325343783996,-1.4688055072456365,-0.563275148170905,-0.9806421399116516,0.16813088953495026,-0.10036473721265793,0.9610177278518677,1.300660252571106,1.4271070957183838
7.819957971572876,-0.37160879373550415,0.4432445764541626,-0.08033180236816406,-0.19793791982459052,-1.4370198795387663,-0.5407103312039643,-0.9717140197753906,0.19664792716503143,-0.13077349960803986,0.8428881764411926,1.4233676195144653,1.707546591758728
7.840012073516846,-0.2873111367225647,0.3165423572063446,0.045483529567718506,-0.23329763334207157,-1.4033476255407016,-0.5216395306566901,-0.9593015313148499,0.23118707537651062,-0.16215217113494873,0.44331562519073486,1.5456992387771606,2.058760404586792
7.859910011291504,-0.25201112031936646,0.24944132566452026,0.09443187713623047,-0.27545204240275023,-1.368878517678444,-0.5072387658201841,-0.9427521228790283,0.27198195457458496,-0.19298836588859558,0.21585284173488617,1.506648302078247,2.3361270427703857
7.879954814910889,-0.23723489046096802,0.21609315276145935,0.10428792238235474,-0.3218279677803742,-1.3358715098599858,-0.4905663902183665,-0.9226009845733643,0.3163011968135834,-0.22081920504570007,0.396039754152298,1.2908239364624023,2.5314061641693115
7.899955987930298,-0.2553706765174866,0.19349825382232666,0.12034457921981812,-0.36787435594580464,-1.3034603635505848,-0.4641009082896051,-0.8999486565589905,0.35963281989097595,-0.24648886919021606,0.9128410220146179,1.0653817653656006,2.527465343475342
7.919983863830566,-0.2591225504875183,0.1583280861377716,0.17303770780563354,-0.4083791781920257,-1.268208623534806,-0.4238318418617992,-0.8760704398155212,0.397122323513031,-0.27348625659942627,1.5393754243850708,0.9290286302566528,2.4082555770874023
7.9399659633636475,-0.24655920267105103,0.10252746939659119,0.25931963324546814,-0.4406476258447798,-1.2278765186911305,-0.3690378179000236,-0.8518144488334656,0.4265253245830536,-0.30411943793296814,2.1679110527038574,0.8689168691635132,2.2453343868255615
7.959985971450806,-0.24605441093444824,0.046403974294662476,0.31905195116996765,-0.46433481197233,-1.181949761762774,-0.3031613874187255,-0.8273709416389465,0.44782814383506775,-0.3389798402786255,2.4635963439941406,0.8168941736221313,2.0947232246398926
7.979988098144531,-0.2805768847465515,-0.026785165071487427,0.36558395624160767,-0.4812601803184173,-1.1349920444611874,-0.23448963786264607,-0.803560197353363,0.46289658546447754,-0.3741898238658905,2.4354214668273926,0.8060112595558167,1.9174185991287231
7.999985933303833,-0.28939568996429443,-0.06475037336349487,0.4323524236679077,-0.4940952159962132,-1.0866295317234256,-0.16941855035146808,-0.7792080640792847,0.47423526644706726,-0.4097999632358551,2.1277389526367188,0.9852141737937927,1.8024744987487793
8.019955158233643,-0.24655741453170776,-0.12023600935935974,0.479915589094162,-0.5069883696397743,-1.0381930812747948,-0.11241973021744171,-0.7531222105026245,0.48554664850234985,-0.4439047574996948,1.6002349853515625,1.1214635372161865,1.7765716314315796
8.039957046508789,-0.20076072216033936,-0.16529351472854614,0.5112735629081726,-0.5235401837550464,-0.9919290241815547,-0.06506292286107035,-0.7249596118927002,0.49994924664497375,-0.47379788756370544,1.0346788167953491,1.1691733598709106,1.8173116445541382
8.059954166412354,-0.1964769959449768,-0.193403422832489,0.5257084369659424,-0.5451219898034676,-0.9488637142382027,-0.025894570025655705,-0.6949567198753357,0.5185223817825317,-0.4981662929058075,0.5586767792701721,1.1422451734542847,1.8607754707336426
8.080001831054688,-0.2247576117515564,-0.2139865756034851,0.5484787821769714,-0.5697009502321704,-0.9079717826424865,0.00833904401883153,-0.6637617945671082,0.5393802523612976,-0.5181595087051392,0.3151590824127197,1.1458215713500977,1.849554181098938
8.099957942962646,-0.2528787851333618,-0.2420538067817688,0.5628882646560669,-0.5951057107660244,-0.8672745157074948,0.039994128169981366,-0.6314749121665955,0.5605962872505188,-0.5356970429420471,0.13733787834644318,1.1866276264190674,1.7827752828598022
8.119131088256836,-0.2564036250114441,-0.3066169023513794,0.5412952303886414,-0.6206137470649635,-0.8272680865271649,0.06866721609483757,-0.5988211035728455,0.5815345644950867,-0.5506641268730164,-0.03982114791870117,1.1719194650650024,1.688316822052002
8.139976024627686,-0.27688056230545044,-0.3653852939605713,0.49541813135147095,-0.6444224609946384,-0.7875932553709085,0.09594156815989492,-0.5665338039398193,0.6007368564605713,-0.5640520453453064,-0.027482494711875916,1.2047115564346313,1.5519732236862183
8.159954071044922,-0.27798616886138916,-0.3681403398513794,0.5386363863945007,-0.6662387910563785,-0.747589406993559,0.12037172978722621,-0.5344833731651306,0.6180334687232971,-0.576508641242981,-0.2520252466201782,1.3089933395385742,1.3538812398910522
8.180032968521118,-0.23111462593078613,-0.4594014883041382,0.5800297260284424,-0.69109331089707,-0.7119571718344821,0.13552677701031102,-0.5034130215644836,0.6373800039291382,-0.5833714008331299,-0.813960075378418,1.2950358390808105,1.1742216348648071
8.199957847595215,-0.1635502576828003,-0.5754423141479492,0.5717422366142273,-0.7216807716134226,-0.6856710339576585,0.13900210435819466,-0.47533532977104187,0.6606473326683044,-0.5810347199440002,-1.2893805503845215,1.0875948667526245,0.9767174124717712
8.219987869262695,-0.11226668953895569,-0.5957909226417542,0.5130778551101685,-0.752816473102816,-0.6709406302763665,0.1344223651278281,-0.4537124037742615,0.6836968064308167,-0.5715799927711487,-1.2631272077560425,0.644665539264679,0.7102175354957581
8.239964008331299,-0.11946463584899902,-0.529730498790741,0.4624006152153015,-0.7762357365446092,-0.6691881574791703,0.12731573597981075,-0.44265395402908325,0.7005983591079712,-0.5596600770950317,-0.8400534987449646,0.033427074551582336,0.302886962890625
8.259972095489502,-0.19742494821548462,-0.4902184009552002,0.4375319480895996,-0.7856140655915926,-0.6793335836573403,0.11822195911012268,-0.44416144490242004,0.7072594165802002,-0.5500044226646423,-0.33779776096343994,-0.37387099862098694,-0.22396819293498993
8.279968976974487,-0.2760385274887085,-0.5142815113067627,0.4414147734642029,-0.7821665422065517,-0.7000440002438292,0.103730208017911,-0.45702430605888367,0.7048180103302002,-0.5425499081611633,-0.08463731408119202,-0.6521605849266052,-0.7928348183631897
8.29995584487915,-0.299115389585495,-0.5090126991271973,0.4342249035835266,-0.7686987061390649,-0.731512677018131,0.08090503625419031,-0.48016631603240967,0.6952004432678223,-0.5349175930023193,0.011808715760707855,-0.9107597470283508,-1.307299256324768
8.319954872131348,-0.31083226203918457,-0.4427598714828491,0.3867521286010742,-0.7472473148197434,-0.7752802598531668,0.05059862457483945,-0.5134323239326477,0.6796220541000366,-0.5239286422729492,0.06491699814796448,-1.4503740072250366,-1.789267659187317
8.340014934539795,-0.42696070671081543,-0.3230293393135071,0.3387244939804077,-0.7154953398289453,-0.8341222007396282,0.014684304449443734,-0.5590623617172241,0.6559913754463196,-0.5070747137069702,0.21242199838161469,-1.997857689857483,-2.3804092407226562
8.360044956207275,-0.618344783782959,-0.2262243628501892,0.35339605808258057,-0.6717318728814899,-0.9029872219500047,-0.027244343915277823,-0.6145960092544556,0.6223425269126892,-0.4847283959388733,0.08894982933998108,-2.1703104972839355,-3.056678295135498
8.37991189956665,-0.6928767561912537,-0.1989579200744629,0.3929903209209442,-0.6197596950624684,-0.9761975015264662,-0.07885053175784736,-0.6743108034133911,0.5808395743370056,-0.45599374175071716,-0.42672470211982727,-1.986779808998108,-3.5236005783081055
