timestamp,acceleration_x,acceleration_y,acceleration_z,attitude_pitch,attitude_roll,attitude_yaw,gravity_x,gravity_y,gravity_z,rotation_x,rotation_y,rotation_z
0.0,0.03424018621444702,0.15708306431770325,-0.05137908458709717,-0.30958477942433826,-1.4392290184892367,2.0785941241834287,-0.9442285895347595,0.30466318130493164,-0.12495142221450806,-0.5925982594490051,0.10310187935829163,0.3029668629169464
0.019773006439208984,0.04446816444396973,0.06924697756767273,-0.022536158561706543,-0.3166486340287024,-1.4405415139180178,2.066597901042339,-0.9422343373298645,0.31138357520103455,-0.12342939525842667,-0.6434106826782227,0.11402430385351181,0.2404797226190567
0.04008817672729492,0.0573880672454834,0.012964844703674316,-0.01604204624891281,-0.3216385164382496,-1.4423430869958027,2.0537067899758266,-0.9409024119377136,0.31612148880958557,-0.12153112888336182,-0.624147355556488,0.09819615632295609,0.09739289432764053
0.05911397933959961,0.06537026166915894,0.02231857180595398,-0.00800430029630661,-0.32323108445465587,-1.4446144044890854,2.0420865585195114,-0.9406753778457642,0.31763195991516113,-0.11933021992444992,-0.4766417145729065,0.0408170185983181,-0.062361881136894226
0.08022499084472656,0.06093078851699829,0.05273336172103882,0.0038485974073410034,-0.32210064170046027,-1.4465139993013088,2.0339621756550716,-0.9412562251091003,0.31655988097190857,-0.11758755892515182,-0.2847667932510376,0.016073057428002357,-0.12531661987304688
0.10019612312316895,0.039634883403778076,0.05917853116989136,0.01245308667421341,-0.32018068240799524,-1.4478102703016091,2.029153518229497,-0.9420090913772583,0.31473806500434875,-0.11644165962934494,-0.16959261894226074,0.007206240203231573,-0.11129936575889587
0.12003207206726074,0.01953303813934326,0.053377777338027954,0.01820540428161621,-0.3189135317714675,-1.4484289944472115,2.025764554557105,-0.9424761533737183,0.31353506445884705,-0.11590739339590073,-0.13755066692829132,0.04305221140384674,-0.0490340031683445
0.1399402618408203,0.021703660488128662,0.03139418363571167,0.020259566605091095,-0.3192303613236431,-1.4482603739984492,2.0230409438076435,-0.9423579573631287,0.31383588910102844,-0.11605416238307953,-0.14113588631153107,0.04579464718699455,0.050873126834630966
0.1611630916595459,0.019314289093017578,0.02906748652458191,0.021830447018146515,-0.32124762459782086,-1.448486621049096,2.020140093501967,-0.9417538642883301,0.3157505989074707,-0.11576347053050995,-0.1403636932373047,0.02320624515414238,0.109343983232975
0.1802539825439453,-0.006151854991912842,0.04057765007019043,0.015605315566062927,-0.3240740465289881,-1.448532054241112,2.0184845401492924,-0.9408697485923767,0.31843116879463196,-0.11561140418052673,-0.05192392319440842,0.02887735888361931,0.1491483598947525
0.20542311668395996,-0.025803864002227783,0.022249966859817505,0.009729385375976562,-0.3313445490411119,-1.446473243657552,2.020839136496628,-0.9383074641227722,0.3253147304058075,-0.11725802719593048,0.09597573429346085,0.05614892765879631,0.21794916689395905
0.23285818099975586,-0.022613346576690674,0.0006808638572692871,0.005398869514465332,-0.33592373871864023,-1.4447403527294103,2.022959488319753,-0.9366152286529541,0.3296414315700531,-0.11869530379772186,0.04462537169456482,0.07044859230518341,0.2294769436120987
0.23965024948120117,-0.022613346576690674,0.0006808638572692871,0.005398869514465332,-0.33592373871864023,-1.4447403527294103,2.022959488319753,-0.9366152286529541,0.3296414315700531,-0.11869530379772186,0.04462537169456482,0.07044859230518341,0.2294769436120987
0.26314306259155273,0.004260897636413574,-0.01723867654800415,-0.011214494705200195,-0.34614655872081435,-1.4414957178404215,2.0250829846356107,-0.9328345656394958,0.33927544951438904,-0.12129278481006622,0.018884560093283653,0.07447449117898941,0.2687773108482361
0.28273606300354004,0.005093812942504883,-0.019741833209991455,-0.018471255898475647,-0.35144041157409706,-1.4397630628029858,2.0265922541403345,-0.9308294057846069,0.34425053000450134,-0.12267250567674637,0.05887887626886368,0.08009819686412811,0.2688176929950714
0.30661725997924805,-0.001560211181640625,-0.01718243956565857,-0.01017492264509201,-0.356292176284217,-1.4373140343507975,2.0286275853933264,-0.9288596510887146,0.3488016724586487,-0.12472797930240631,0.07298730313777924,0.11700011044740677,0.2731983959674835
0.32654714584350586,-0.006974697113037109,-0.015007615089416504,-0.007938981056213379,-0.36104193622019715,-1.4337408328415064,2.031578657037581,-0.9267563819885254,0.353249192237854,-0.12781837582588196,0.14453652501106262,0.16529813408851624,0.283227801322937
0.34741926193237305,-0.018762707710266113,-0.012936651706695557,-0.004075333476066589,-0.36578074337830324,-1.4283237756763278,2.036324002986719,-0.9243829250335693,0.35767850279808044,-0.13259758055210114,0.23215077817440033,0.2184285670518875,0.2784961760044098
0.3670191764831543,-0.016865134239196777,-0.022292286157608032,-0.0156145840883255,-0.3709350679613518,-1.4215385224670438,2.042035608581295,-0.9216268658638,0.3624870777130127,-0.13859069347381592,0.1877305805683136,0.23227939009666443,0.304703027009964
0.38687705993652344,-0.012147605419158936,-0.0256272554397583,-0.019765794277191162,-0.3756473532650411,-1.4157522018930924,2.046010615218259,-0.9191115498542786,0.3668748140335083,-0.14365579187870026,0.11953780055046082,0.19980134069919586,0.23632867634296417
0.40692996978759766,-0.0020613670349121094,-0.04867243766784668,-0.017805442214012146,-0.38023255554262747,-1.410784032960853,2.048694567858,-0.9167160987854004,0.3711364269256592,-0.14795070886611938,0.020763274282217026,0.18236340582370758,0.2473699301481247
0.42787694931030273,0.002894878387451172,-0.03740006685256958,0.0029642581939697266,-0.38457872468168947,-1.4069795093066384,2.0491847106157888,-0.9145464897155762,0.37516865134239197,-0.15117281675338745,-0.0106230229139328,0.1601025015115738,0.2038164734840393
0.4460761547088623,0.003763139247894287,-0.029339373111724854,-0.01174907386302948,-0.38856110120422854,-1.403773496502707,2.050062919958343,-0.9125766158103943,0.37885716557502747,-0.15385445952415466,0.014542129822075367,0.12326440215110779,0.19785191118717194
0.46553516387939453,0.003618478775024414,-0.008327603340148926,-0.006733357906341553,-0.3918109702437939,-1.4009569846230812,2.051718347295973,-0.9109212756156921,0.3818627595901489,-0.15621520578861237,0.09047123044729233,0.09050361812114716,0.15573404729366302
0.48447322845458984,0.0031144022941589355,-0.025040358304977417,-0.002588793635368347,-0.3945083027302459,-1.3980204983547928,2.0546953522944764,-0.9094406962394714,0.38435429334640503,-0.158711776137352,0.10668262839317322,0.08501084893941879,0.16121715307235718
0.5063951015472412,-0.0012831687927246094,-0.02918010950088501,0.003631770610809326,-0.3968615005923515,-1.3955697519507733,2.057086081046295,-0.9081559181213379,0.3865256905555725,-0.16078199446201324,0.0862351730465889,0.0697614997625351,0.10917973518371582
0.5244390964508057,-0.006111502647399902,-0.02788737416267395,0.003412783145904541,-0.39863712772696497,-1.3932067080661454,2.0592986068859735,-0.9070965647697449,0.3881627023220062,-0.16280606389045715,0.06217288598418236,0.06778587400913239,0.10092391818761826
0.5452480316162109,-0.003608405590057373,-0.026071488857269287,0.004953324794769287,-0.39991224461886526,-1.3915284275868223,2.0605588788579503,-0.9063342213630676,0.3893375098705292,-0.1642398089170456,0.03320082277059555,0.049477264285087585,0.07083732634782791
0.5642542839050293,-0.00365447998046875,-0.021115124225616455,0.0009005516767501831,-0.40081003345287275,-1.3903748704308978,2.0614342514254855,-0.9058000445365906,0.390164315700531,-0.1652224361896515,0.023108867928385735,0.03226196765899658,0.06635893136262894
0.5860891342163086,-0.006160378456115723,-0.010188966989517212,-0.0008727163076400757,-0.40140567637450925,-1.3895235549798792,2.0624324657336484,-0.9054301977157593,0.3907126784324646,-0.16595155000686646,0.07214111089706421,0.02505297027528286,0.06384309381246567
0.6069340705871582,-0.002298414707183838,-0.0041551291942596436,-0.007695496082305908,-0.40192898539545213,-1.388541059783683,2.0644982538035626,-0.9050654768943787,0.39119434356689453,-0.16680395603179932,0.0984659343957901,-0.0012674942845478654,0.06582630425691605
0.6271750926971436,-0.005582153797149658,0.0003701746463775635,-0.0021251440048217773,-0.40246674060161297,-1.387570349660685,2.0672167408639757,-0.9046962261199951,0.3916891813278198,-0.16764409840106964,0.12276698648929596,0.0061368923634290695,0.07720474153757095
0.6430110931396484,-0.011059880256652832,-0.0009248554706573486,-0.0026816129684448242,-0.4032939331530885,-1.3863823496071752,2.069801591491774,-0.9041775465011597,0.39245012402534485,-0.1686592847108841,0.09769165515899658,0.011873784475028515,0.07960555702447891
0.6652011871337891,-0.0065326690673828125,-0.0030819177627563477,-0.004835307598114014,-0.4043619460068001,-1.3854553841521378,2.072008803364853,-0.9036083221435547,0.39343222975730896,-0.1694200038909912,0.07309156656265259,-0.0008836442138999701,0.08807100355625153
0.6849360466003418,-0.0036032795906066895,0.0005719661712646484,-0.0013626813888549805,-0.40546662135847483,-1.3846471429186888,2.0737955583354046,-0.9030434489250183,0.39444759488105774,-0.17006975412368774,0.07218126207590103,0.009531357325613499,0.066916324198246
0.7047891616821289,0.00556182861328125,-0.00833943486213684,-0.005926951766014099,-0.4064800117746886,-1.3837894474393742,2.075648362919616,-0.9025039076805115,0.39537861943244934,-0.17076978087425232,0.06868564337491989,-0.0045897881500422955,0.07321559637784958
0.7259411811828613,0.01518106460571289,-0.006211608648300171,-0.0028064846992492676,-0.4074695398881536,-1.3836664677748616,2.0773012177381545,-0.9020981788635254,0.39628732204437256,-0.17080792784690857,0.058995217084884644,-0.041703954339027405,0.06458345055580139
0.7456402778625488,0.0010712742805480957,-0.009817749261856079,0.006881251931190491,-0.40822299189726713,-1.3838941665619933,2.0785436793187,-0.9018433690071106,0.3969789743423462,-0.1705469936132431,0.03711054474115372,-0.024988625198602676,0.040736354887485504
0.7636961936950684,-0.004862189292907715,-0.012133359909057617,0.0066977739334106445,-0.4084850159676043,-1.3840592817372415,2.079204011777528,-0.9017692804336548,0.3972194492816925,-0.17037875950336456,0.019841007888317108,-0.023462368175387383,0.004301118198782206
0.785454273223877,0.012601375579833984,-0.008816719055175781,0.004839539527893066,-0.408296161095398,-1.3844770561162683,2.0801508353840505,-0.901914119720459,0.39704611897468567,-0.17001591622829437,0.06582234799861908,-0.05955192819237709,0.009839427657425404
0.8034582138061523,0.018887817859649658,-0.0052089691162109375,0.003634229302406311,-0.4081557698869904,-1.3852326917794773,2.081646818956239,-0.9020969271659851,0.39691728353500366,-0.16934458911418915,0.06908179074525833,-0.07577137649059296,-0.0034247119911015034
0.8276052474975586,0.006926417350769043,-0.010701864957809448,0.0026236623525619507,-0.40769019214556174,-1.3861536585778944,2.0830555687947436,-0.9024342894554138,0.3964898884296417,-0.16854767501354218,0.06001110374927521,-0.0687590092420578,-0.01118372566998005
0.8415679931640625,0.00695037841796875,-0.005387157201766968,0.003694698214530945,-0.40702037146082476,-1.3872861328089998,2.0841463471350203,-0.9028855562210083,0.39587488770484924,-0.16757401823997498,0.055687837302684784,-0.07968329638242722,-0.02187580056488514
0.8599081039428711,0.006114304065704346,-0.0022510886192321777,-0.0010455697774887085,-0.4063802515557881,-1.3884633716250272,2.085300892354012,-0.9033311009407043,0.3952869772911072,-0.16655687987804413,0.05737682804465294,-0.08507415652275085,-0.019271526485681534
0.882911205291748,0.00017505884170532227,0.001519709825515747,0.00013071298599243164,-0.405813500664574,-1.3896887585154596,2.0862528418540474,-0.9037548303604126,0.39476633071899414,-0.16549016535282135,0.042223330587148666,-0.07960855215787888,-0.029655179008841515
0.9012589454650879,-0.002794921398162842,0.002335488796234131,0.001453295350074768,-0.40510834144654123,-1.390931029709575,2.0869914432878947,-0.9042332768440247,0.3941183388233185,-0.1644170731306076,0.038960959762334824,-0.07573062926530838,-0.027373094111680984
0.9235930442810059,-0.004862010478973389,0.006902217864990234,-0.0015519261360168457,-0.4043898286989347,-1.3919813277394504,2.0876979871685504,-0.9046838879585266,0.39345788955688477,-0.16351759433746338,0.03799146041274071,-0.06662368774414062,-0.030113141983747482
0.9460020065307617,0.004619419574737549,0.005527794361114502,-0.005596712231636047,-0.40374394329642954,-1.3930104474543152,2.0886617977365023,-0.9051017165184021,0.39286401867866516,-0.16263140738010406,0.04890460520982742,-0.0817628726363182,-0.020673440769314766
0.963860034942627,0.007519543170928955,0.010561048984527588,-0.007288575172424316,-0.4032650683834305,-1.3945112945537221,2.0894760987346674,-0.9055298566818237,0.3924235999584198,-0.161305770277977,0.03287788853049278,-0.10491656512022018,-0.02119014412164688
0.9831061363220215,0.0004131197929382324,0.010003715753555298,-0.008095547556877136,-0.40274291828439385,-1.3964187209851395,2.0900492817547702,-0.906037449836731,0.3919432759284973,-0.15961375832557678,0.027293598279356956,-0.11338586360216141,-0.028341246768832207
1.0049231052398682,-1.7881393432617188e-06,0.018129795789718628,-0.009604617953300476,-0.40180518823015005,-1.3986416994351147,2.090561156992293,-0.9067517518997192,0.39108040928840637,-0.15766215324401855,0.040890779346227646,-0.14295174181461334,-0.06804383546113968
1.0251960754394531,0.0023145675659179688,0.03055572509765625,-0.01366657018661499,-0.3998771150195836,-1.4013926722287422,2.0916720032503684,-0.907923698425293,0.38930514454841614,-0.15529395639896393,0.09578687697649002,-0.18999676406383514,-0.1136065199971199
1.0441279411315918,0.0030258893966674805,0.021472781896591187,-0.012755170464515686,-0.3973151476675169,-1.4045020227588256,2.09374568863013,-0.9093828201293945,0.3869440257549286,-0.15263475477695465,0.1184113547205925,-0.2184915989637375,-0.12430907785892487
1.061655044555664,-0.005999863147735596,-0.0004908442497253418,0.00428946316242218,-0.394807878546093,-1.407827528522,2.0953840093500866,-0.9108396768569946,0.38463085889816284,-0.1497666835784912,0.058498773723840714,-0.18961939215660095,-0.1144956648349762
1.0848569869995117,-0.014637649059295654,-0.00911492109298706,0.016492903232574463,-0.39281162959416,-1.4108460534093852,2.0957399912599617,-0.9120439291000366,0.38278740644454956,-0.14713862538337708,0.01234373077750206,-0.13279969990253448,-0.09329962730407715
1.1026520729064941,-0.006406843662261963,-0.009586691856384277,0.024792730808258057,-0.392017652842133,-1.4124888018021537,2.095132674382553,-0.9125842452049255,0.38205379247665405,-0.1456880420446396,-0.06696351617574692,-0.04298946261405945,-0.042550720274448395
1.1248822212219238,0.01452934741973877,-0.009336799383163452,0.034720227122306824,-0.39211056824152957,-1.4131580045407681,2.092916531178456,-0.9126465320587158,0.382139652967453,-0.14507173001766205,-0.13151666522026062,0.03357250988483429,-0.014317536726593971
1.1434471607208252,0.044424593448638916,-0.012797772884368896,0.031190946698188782,-0.392751524397866,-1.413271278207099,2.090015318079429,-0.9124208092689514,0.3827318847179413,-0.1449298858642578,-0.14486445486545563,0.04480829834938049,0.022993948310613632
1.1633830070495605,0.05892682075500488,-0.013698428869247437,0.022825047373771667,-0.39342929794390297,-1.4140339796744286,2.086888503960502,-0.9122747778892517,0.383357971906662,-0.14419342577457428,-0.14138485491275787,0.012212095782160759,-0.004620611201971769
1.1845941543579102,0.0519406795501709,-0.020970195531845093,0.016763314604759216,-0.3930090904365462,-1.4153869357998303,2.08386756098118,-0.9126280546188354,0.38296982645988464,-0.14298394322395325,-0.1254175305366516,-0.023846128955483437,-0.06841766089200974
1.2025632858276367,0.045036137104034424,-0.03665351867675781,0.016350507736206055,-0.39128874963675436,-1.4172031439468524,2.080870490067687,-0.9135358929634094,0.3813800811767578,-0.14142675697803497,-0.12745043635368347,-0.03158101439476013,-0.14352597296237946
1.2235159873962402,0.043147385120391846,-0.03823047876358032,0.01758541166782379,-0.3882262146508066,-1.4194671206153284,2.0770264707639954,-0.9150040149688721,0.37854722142219543,-0.13953359425067902,-0.17750175297260284,-0.03605157509446144,-0.21179378032684326
1.2441840171813965,0.04970145225524902,-0.04163920879364014,0.026681140065193176,-0.3844110684558325,-1.421932673394439,2.0715626649902545,-0.9167668223381042,0.3750132620334625,-0.137490376830101,-0.2786451280117035,-0.00766405276954174,-0.24065335094928741
1.2650680541992188,0.05527728796005249,-0.045255184173583984,0.0422484427690506,-0.3804634064899977,-1.4246092611106314,2.0637714673891696,-0.9185890555381775,0.3713507652282715,-0.13525067269802094,-0.3772209584712982,0.04187953472137451,-0.25805509090423584
1.2835092544555664,0.06550848484039307,-0.04737293720245361,0.05216206610202789,-0.3766501436749016,-1.4270097129231014,2.053840334824011,-0.9203057289123535,0.3678075075149536,-0.13324719667434692,-0.4741266965866089,0.06689131259918213,-0.26229149103164673
1.303159236907959,0.08493548631668091,-0.03981176018714905,0.054614484310150146,-0.3727555218911249,-1.4303308809508886,2.0426702720757564,-0.9221547245979309,0.36418309807777405,-0.13038955628871918,-0.499345064163208,0.00692385621368885,-0.26474249362945557
1.3253121376037598,0.08727049827575684,-0.02947556972503662,0.0656123012304306,-0.36895090475675796,-1.435152119651016,2.0307175104722317,-0.9241389036178589,0.3606371283531189,-0.12612859904766083,-0.5404686331748962,-0.048532210290431976,-0.26871779561042786
1.344712257385254,0.07055401802062988,-0.03606364130973816,0.04560112953186035,-0.3649581272304809,-1.4415154747972938,2.0184411819210446,-0.9263432025909424,0.35691016912460327,-0.120430126786232,-0.5313351154327393,-0.15526168048381805,-0.2812769114971161
1.3648972511291504,0.04297512769699097,-0.03866016864776611,0.00456923246383667,-0.36034220775833853,-1.4496325645215902,2.006383439421189,-0.9289157390594482,0.3525944948196411,-0.11310494691133499,-0.5452423691749573,-0.216467946767807,-0.31924310326576233
1.3872809410095215,0.018365800380706787,-0.05908915400505066,0.010644659399986267,-0.3548663641042443,-1.4580710523464024,1.9929908763284332,-0.9317417740821838,0.34746506810188293,-0.10547799617052078,-0.6585830450057983,-0.13891111314296722,-0.36977648735046387
1.4009380340576172,0.0169370174407959,-0.06075748801231384,0.010595917701721191,-0.3484191705221797,-1.4658048300304576,1.9760959745444113,-0.9347379803657532,0.34141239523887634,-0.09850174188613892,-0.8316138386726379,-0.07927805185317993,-0.4430912435054779
1.4221460819244385,0.06229275465011597,-0.010534912347793579,-0.03911387920379639,-0.3409875711080745,-1.473795830891598,1.9584247810079733,-0.9379947185516357,0.3344179689884186,-0.09127239137887955,-0.6926888823509216,-0.1320076584815979,-0.44718801975250244
1.441019058227539,0.12474840879440308,0.015915006399154663,-0.07770835608243942,-0.33375257755424276,-1.4814117351181524,1.9463579843733743,-0.9410478472709656,0.32759082317352295,-0.08433990925550461,-0.3979611098766327,-0.2544178366661072,-0.382591187953949
1.459942102432251,0.15765410661697388,0.0001830458641052246,-0.08550124615430832,-0.3272516049202937,-1.4905014018662717,1.9390106186527496,-0.9438783526420593,0.3214417099952698,-0.0759519413113594,-0.25436171889305115,-0.4035603404045105,-0.3286474347114563
1.4790141582489014,0.14713704586029053,-0.041357964277267456,-0.0996091291308403,-0.3215113942077875,-1.501068515790898,1.9331204188740256,-0.946453332901001,0.31600087881088257,-0.06610128283500671,-0.2698855996131897,-0.4414289593696594,-0.29783958196640015
1.499817132949829,0.1449180245399475,-0.0679636299610138,-0.07182998210191727,-0.31610649530433627,-1.5117539728515788,1.9253946035132168,-0.9487969279289246,0.3108683228492737,-0.056084390729665756,-0.4359227418899536,-0.39506983757019043,-0.3007015287876129
1.5189051628112793,0.18223834037780762,-0.06694728136062622,-0.04632115364074707,-0.31046685873186436,-1.522217021154556,1.91558571673899,-0.9510677456855774,0.3055032193660736,-0.04623859003186226,-0.4092377722263336,-0.34378719329833984,-0.3060497045516968
1.54231595993042,0.22789794206619263,-0.03435570001602173,-0.07302498817443848,-0.3047204312235712,-1.5310808573325672,1.908900735779265,-0.9531787037849426,0.3000265061855316,-0.03787585720419884,-0.16537077724933624,-0.36375662684440613,-0.307512104511261
1.5630202293395996,0.27082622051239014,-0.01961013674736023,-0.06155753135681152,-0.2982588087819878,-1.5394904293813447,1.9091871332147108,-0.9553812146186829,0.29385632276535034,-0.029918840155005455,0.22766000032424927,-0.5210133790969849,-0.3390520215034485
1.5798840522766113,0.2858080267906189,-0.010037779808044434,-0.05878525972366333,-0.29015403514613064,-1.5490347283760495,1.9166547637158582,-0.957973062992096,0.2860998213291168,-0.020850317552685738,0.5095019340515137,-0.5669873356819153,-0.4834747314453125
1.6033391952514648,0.23946475982666016,0.016528218984603882,-0.04402279853820801,-0.277644030562251,-1.5542164589988743,1.9303263331733163,-0.9615716934204102,0.2740906774997711,-0.015944192185997963,0.7632569670677185,-0.3091297149658203,-0.7456225156784058
1.6212682723999023,0.2330119013786316,-0.03370928764343262,-0.052476346492767334,-0.2600180313828963,-1.5527020091350967,1.9463359973782959,-0.9662272930145264,0.257097989320755,-0.017485132440924644,0.7259817719459534,-0.040922850370407104,-0.9717415571212769
1.643078088760376,0.3300154209136963,-0.1541992872953415,-0.06729060411453247,-0.24239676679771627,-1.552891583542627,1.954361714174979,-0.9706099629402161,0.24003000557422638,-0.017380379140377045,0.09317410737276077,-0.2180922031402588,-0.7209826111793518
1.6630780696868896,0.446776807308197,-0.25183814764022827,-0.07190108299255371,-0.23211195507443566,-1.5618608117435089,1.9525439553852315,-0.9731441140174866,0.23003335297107697,-0.008695774711668491,-0.15850861370563507,-0.6809043884277344,-0.311364084482193
1.683751106262207,0.42008936405181885,-0.10360172390937805,-0.08211612701416016,-0.22703763757186618,-1.5791054370896418,1.9504636120721268,-0.9743037819862366,0.22509217262268066,0.008095784112811089,-0.00036010704934597015,-0.9295830130577087,-0.2994396984577179
1.7040231227874756,0.247031569480896,0.0841236412525177,-0.12741172313690186,-0.2180143535536527,-1.596556243746035,1.9523575045958186,-0.9760050177574158,0.2162914127111435,0.025147370994091034,0.09884027391672134,-0.7988978624343872,-0.6035807132720947
1.723803997039795,0.1920543909072876,0.06186646223068237,-0.10094177722930908,-0.20450974430058536,-1.608990296822515,1.9531030422697795,-0.9784465432167053,0.20308715105056763,0.037388939410448074,-0.11768272519111633,-0.4683021306991577,-0.6867232322692871
1.7435359954833984,0.2850911617279053,-0.03996841609477997,-0.06632125377655029,-0.19277145121537714,-1.6175691730755577,1.9477295921661686,-0.9804036021232605,0.19157974421977997,0.04588973522186279,-0.44254499673843384,-0.32358142733573914,-0.4306066632270813
1.762681007385254,0.3113735318183899,-0.036072567105293274,-0.10290300846099854,-0.18739012031396196,-1.626406993146066,1.9386657396971216,-0.9809749722480774,0.18629534542560577,0.05460897833108902,-0.41269388794898987,-0.39432698488235474,-0.10116308182477951
1.783468246459961,0.1866995096206665,0.05369257926940918,-0.16414117813110352,-0.18628994811259286,-1.6349712150580793,1.933135790455206,-0.9806753396987915,0.1852143108844757,0.06302127242088318,-0.14417515695095062,-0.3255111873149872,-0.00516144186258316
1.8032431602478027,0.06111866235733032,0.07171528041362762,-0.13489258289337158,-0.18608598714225216,-1.6397641153068578,1.929810067206899,-0.9803997278213501,0.18501387536525726,0.06772340834140778,-0.24963515996932983,-0.08439167588949203,0.0020785704255104065
1.8226399421691895,0.0626685619354248,0.0025413334369659424,-0.0570908784866333,-0.18568825578493015,-1.6407113208584259,1.9217568898305515,-0.9804084300994873,0.18462300300598145,0.06865715235471725,-0.5145140886306763,0.12233185023069382,0.03249840438365936
1.8433470726013184,0.1335884928703308,-0.0002132207155227661,-0.04166866093873978,-0.18661240283788189,-1.640043097558084,1.9116830587614884,-0.9802833199501038,0.18553118407726288,0.06799016147851944,-0.3811109662055969,0.08911779522895813,0.1337319165468216
1.8633179664611816,0.15237873792648315,0.04961639642715454,-0.09422982484102249,-0.19019083508112847,-1.6402094704664127,1.9088706670001971,-0.9796034097671509,0.18904629349708557,0.0681067705154419,0.14985498785972595,-0.05270645022392273,0.22054485976696014
1.883018970489502,0.07176053524017334,0.07426030933856964,-0.12039767950773239,-0.19472926659552187,-1.6401294655542702,1.9162781569406127,-0.9787428975105286,0.19350092113018036,0.06796825677156448,0.5356118083000183,-0.0785888284444809,0.17383526265621185
1.903027057647705,-0.009332239627838135,0.05694197118282318,-0.0714731216430664,-0.19812048962687548,-1.6390484221409665,1.9264945044577975,-0.9781555533409119,0.19682693481445312,0.06686502695083618,0.44647136330604553,0.007727420888841152,0.09510583430528641
1.9224762916564941,-0.10094445943832397,0.055327221751213074,-0.03468251973390579,-0.1999701024780532,-1.6362479200089994,1.9336105197339437,-0.9779739379882812,0.19864003360271454,0.06410151720046997,0.26771795749664307,0.14203284680843353,0.0586947537958622
1.9418210983276367,-0.18359947204589844,0.0572839230298996,-0.010111689567565918,-0.2016482693030116,-1.6310382924708235,1.93785393886829,-0.9779605865478516,0.20028448104858398,0.0589856393635273,0.1683337539434433,0.2856016457080841,0.0871916264295578
1.9630422592163086,-0.2409490942955017,0.08179573714733124,0.014369010925292969,-0.20393185813326267,-1.6242874969103736,1.9400674150035864,-0.9778771996498108,0.20252126455307007,0.052357740700244904,0.0466790534555912,0.35153982043266296,0.12398530542850494
1.983152151107788,-0.27423709630966187,0.093772292137146,0.07077419757843018,-0.20687939769850341,-1.6168340360991438,1.939657790765372,-0.9776398539543152,0.20540684461593628,0.04504012688994408,-0.06745363771915436,0.40990114212036133,0.18535065650939941
2.001944065093994,-0.31031566858291626,0.09420986473560333,0.09722650051116943,-0.2112987648622451,-1.6088084624266998,1.9386039234781602,-0.9770531058311462,0.20972995460033417,0.03715777397155762,0.037970464676618576,0.3931478261947632,0.2494765669107437
2.0233590602874756,-0.35931533575057983,0.11004093289375305,0.09276854991912842,-0.21625624766308732,-1.6012078753364989,1.941529797006342,-0.9762560725212097,0.21457459032535553,0.02969861589372158,0.26556870341300964,0.30793827772140503,0.2199419140815735
2.0411031246185303,-0.37069034576416016,0.10860207676887512,0.11841845512390137,-0.22065299453017273,-1.5942762365173317,1.9487021011450683,-0.9754858016967773,0.21886682510375977,0.02290852926671505,0.4423390328884125,0.23654808104038239,0.22270523011684418
2.06013822555542,-0.3477814793586731,0.06295508146286011,0.13687312602996826,-0.22537067992694157,-1.587483222883257,1.959322464324802,-0.9745757579803467,0.22346767783164978,0.01626415364444256,0.5886459946632385,0.2054586112499237,0.21815399825572968
2.0813512802124023,-0.30627894401550293,0.053110912442207336,0.1502472162246704,-0.2299779140128185,-1.5817571104224857,1.971440679568827,-0.9736130237579346,0.22795601189136505,0.010671989060938358,0.5942142009735107,0.08943834900856018,0.22481156885623932
2.1026902198791504,-0.29534584283828735,-0.0024230629205703735,0.15799689292907715,-0.23531696097839694,-1.5779910763968013,1.9829975803674036,-0.9724153876304626,0.23315122723579407,0.006996405776590109,0.5454884767532349,-0.014441441744565964,0.3208398222923279
2.1227011680603027,-0.2871394157409668,-0.03729359805583954,0.1287555694580078,-0.2421054582087872,-1.577961486283981,1.9927668890913552,-0.9708103537559509,0.23974721133708954,0.006956130266189575,0.3711521625518799,-0.2048584371805191,0.3122769892215729
2.1414599418640137,-0.2664588689804077,-0.017487123608589172,0.13479280471801758,-0.24635076885310975,-1.5833871670423154,1.9985806830469177,-0.9697319269180298,0.24386653304100037,0.01221038494259119,0.28808072209358215,-0.5088931322097778,0.12655621767044067
2.1623172760009766,-0.24945753812789917,-0.004516571760177612,0.1471726894378662,-0.24765631402123284,-1.5917291183407967,2.007179438086217,-0.9692772030830383,0.2451324611902237,0.02029264159500599,0.6273038983345032,-0.4582664668560028,-0.02506907843053341
2.1824822425842285,-0.2798275947570801,0.048831045627593994,0.06815731525421143,-0.24378342776181117,-1.595237231211787,2.0289352566599543,-0.9701419472694397,0.2413759082555771,0.023715868592262268,1.4832004308700562,-0.3567376136779785,-0.44490593671798706
2.202381134033203,-0.26414424180984497,0.14017899334430695,0.04004716873168945,-0.23240617334702132,-1.5917699127774276,2.066543677303945,-0.9729010462760925,0.23031967878341675,0.02040821686387062,2.0475306510925293,-0.2829333543777466,-0.7407941818237305
2.222727060317993,-0.2442317008972168,0.02234436571598053,-0.0057675838470458984,-0.21887037758377698,-1.5897586139068285,2.108384803615676,-0.9759679436683655,0.21712708473205566,0.018508803099393845,1.9035621881484985,-0.44587114453315735,-0.6351335644721985
2.241361141204834,-0.23849892616271973,-0.03131668269634247,0.021111009642481804,-0.20856084264833397,-1.5938889495417947,2.139008363918862,-0.9780690670013428,0.20705214142799377,0.022590195760130882,1.0096579790115356,-0.5978356599807739,-0.5145285129547119
2.2620351314544678,-0.28324681520462036,0.05451560020446777,0.05579710006713867,-0.19893008671986953,-1.6030431002693304,2.1513121385084735,-0.9797689318656921,0.19762063026428223,0.03160534426569939,0.290764182806015,-0.5444585084915161,-0.4479464590549469
2.2819931507110596,-0.3017116189002991,0.04486721754074097,0.031088709831237793,-0.19330338161143457,-1.6115377966130728,2.155121475675271,-0.9805607199668884,0.19210179150104523,0.03997160494327545,0.09246692061424255,-0.41119253635406494,-0.12157611548900604
2.302396059036255,-0.30595290660858154,0.0802021324634552,0.021422147750854492,-0.19217300580003413,-1.6198926940661336,2.157494925421892,-0.980408787727356,0.1909923553466797,0.048173222690820694,0.1999855935573578,-0.4970751404762268,-0.04879358038306236
2.322277069091797,-0.3677250146865845,0.17285028100013733,-0.003504626452922821,-0.19071528219452016,-1.629537385962162,2.1654788317888536,-0.9801754951477051,0.18956126272678375,0.057642862200737,0.5827082991600037,-0.6154581904411316,-0.1446325033903122
2.3418800830841064,-0.38357335329055786,0.1616663634777069,0.05349016189575195,-0.18835284470891575,-1.6387996929931723,2.1801499072360637,-0.9800435900688171,0.18724112212657928,0.06674918532371521,0.793515682220459,-0.5788767337799072,-0.1632796823978424
2.361868143081665,-0.3643909692764282,0.07264339923858643,0.0904613733291626,-0.18697379101668926,-1.6467232406796295,2.195942101209745,-0.9797405004501343,0.18588627874851227,0.07453195005655289,0.7197399735450745,-0.543502926826477,-0.08704770356416702
2.380653142929077,-0.33067673444747925,0.02540251612663269,0.09164739400148392,-0.18646104469909364,-1.6555685430566884,2.2076827685486062,-0.9791378378868103,0.18538245558738708,0.08320308476686478,0.415363609790802,-0.5493243932723999,-0.03875192999839783
2.401623249053955,-0.3071777820587158,-0.043233439326286316,0.060315005481243134,-0.18727047164777946,-1.6654738704676455,2.2135031812245516,-0.9781157374382019,0.1861777901649475,0.09288328886032104,0.14523206651210785,-0.5415335297584534,0.05841457471251488
2.422187089920044,-0.2839806079864502,-0.033812567591667175,0.0406714603304863,-0.1890659597073277,-1.6760355741696773,2.213735633409225,-0.9767462611198425,0.18794158101081848,0.10317321121692657,-0.031135184690356255,-0.5542412400245667,0.11776190251111984
2.4404330253601074,-0.2773851156234741,0.013060659170150757,0.0030699968338012695,-0.1914297449096485,-1.6869564005084243,2.2136174072670576,-0.9751173257827759,0.19026271998882294,0.11378192156553268,0.09367552399635315,-0.5054575204849243,0.1080172136425972
2.4615092277526855,-0.3135271668434143,0.049182236194610596,-0.04584992676973343,-0.1937264952885623,-1.6951221715018603,2.2183021946191452,-0.9737194776535034,0.1925170123577118,0.12168610841035843,0.34385189414024353,-0.4044988453388214,0.07098492234945297
2.4804210662841797,-0.32880109548568726,0.011801019310951233,-0.04691646993160248,-0.19602552744712115,-1.7006507383451892,2.2232257416088053,-0.9725906252861023,0.19477252662181854,0.12700986862182617,0.1171882227063179,-0.24806822836399078,0.10129028558731079
2.50030517578125,-0.32618218660354614,-0.05267834663391113,-0.022989168763160706,-0.19823065435452342,-1.7047101619858516,2.221115667698176,-0.9716387987136841,0.19693493843078613,0.13089928030967712,-0.32984262704849243,-0.12141910940408707,0.15193191170692444
2.5213611125946045,-0.3111650347709656,-0.06341032683849335,0.007456034421920776,-0.20063316333380307,-1.7084963634376897,2.209702772178738,-0.9706646800041199,0.19928982853889465,0.1345118135213852,-0.724227249622345,-0.045074187219142914,0.23808281123638153
2.541123151779175,-0.27484893798828125,-0.02694012224674225,0.04190562665462494,-0.20340390696042568,-1.7127335656108993,2.191786124412235,-0.969535768032074,0.20200422406196594,0.13854487240314484,-0.9112951755523682,-0.02994103915989399,0.2698664665222168
2.560159206390381,-0.23989152908325195,0.022745072841644287,0.040772318840026855,-0.20647152683374223,-1.7167042181232075,2.1754758848306484,-0.968360424041748,0.2050076574087143,0.14230269193649292,-0.5639277696609497,-0.03518426790833473,0.26389431953430176
2.579928159713745,-0.22397029399871826,0.1198544055223465,0.0309361070394516,-0.2108674492147793,-1.7186807416985974,2.169123151086106,-0.9671764969825745,0.2093082070350647,0.1440822184085846,0.02623620256781578,-0.04051121696829796,0.2630353569984436
2.600013256072998,-0.22486388683319092,0.10893462598323822,0.018099188804626465,-0.21673278404266053,-1.7186696900787422,2.1721639707569964,-0.9659472703933716,0.21503999829292297,0.1438881903886795,0.2552908957004547,-0.002449760213494301,0.2691783905029297
2.621173143386841,-0.23113077878952026,0.02518509328365326,0.04489193856716156,-0.22310587705924212,-1.7167010201549375,2.175284518783707,-0.9648529887199402,0.22125957906246185,0.14178411662578583,0.15713858604431152,0.11040940880775452,0.3267023265361786
2.6409881114959717,-0.20258194208145142,-0.02735079824924469,0.032538414001464844,-0.229870345092226,-1.7138199793443534,2.1755714354018645,-0.9637541174888611,0.2278512865304947,0.13878725469112396,-0.049864768981933594,0.19207002222537994,0.3350256085395813
2.6602330207824707,-0.15745896100997925,-0.09058813750743866,0.03389476239681244,-0.23561489607054878,-1.7097861330593058,2.1705513399266794,-0.9629938006401062,0.23344093561172485,0.13471493124961853,-0.36200302839279175,0.318105012178421,0.30230915546417236
2.680716037750244,-0.08689981698989868,-0.09758204221725464,0.04867994785308838,-0.24015802387618504,-1.7052153493853173,2.160596462684386,-0.9625386595726013,0.23785611987113953,0.13016843795776367,-0.45766258239746094,0.3446235954761505,0.2710602879524231
2.700895071029663,-0.010965883731842041,-0.06163035333156586,0.06899523735046387,-0.24444700410790254,-1.7005297449273389,2.153156563525939,-0.962117612361908,0.24201980233192444,0.12552382051944733,-0.17821264266967773,0.30416417121887207,0.2562173902988434
2.7209341526031494,0.023923277854919434,-0.015611216425895691,0.07892309874296188,-0.24901161049154344,-1.6954477554058671,2.152404706174708,-0.9616368412971497,0.2464461773633957,0.12049413472414017,0.16299259662628174,0.2185334861278534,0.19681322574615479
2.7399260997772217,0.027948200702667236,-0.01894316077232361,0.10306310653686523,-0.25320762286898124,-1.6903257462146781,2.157632066623114,-0.961206316947937,0.250510573387146,0.11544274538755417,0.3400103747844696,0.186613991856575,0.1639327108860016
2.7598981857299805,0.028948068618774414,-0.06129738688468933,0.12071561813354492,-0.25749280747531306,-1.6843615851463285,2.1643114475563396,-0.9608023166656494,0.2546568214893341,0.10958527773618698,0.3257652521133423,0.24834677577018738,0.19989024102687836
2.779926061630249,0.029055476188659668,-0.13200557231903076,0.09964251518249512,-0.26238631689179837,-1.677913901835495,2.166283380573544,-0.9602383375167847,0.25938594341278076,0.10325362533330917,-0.15071699023246765,0.3494846522808075,0.26535564661026
2.7999250888824463,0.026615500450134277,-0.13265076279640198,0.07871687412261963,-0.26716539067989925,-1.6718878224500044,2.15851799343405,-0.9595988988876343,0.26399844884872437,0.09733910113573074,-0.4693135917186737,0.4584417939186096,0.2841911017894745
2.820479154586792,0.023775100708007812,-0.02146780490875244,0.040978558361530304,-0.2722553405170283,-1.6646799485472272,2.1496617508261227,-0.9589253664016724,0.2689043879508972,0.09029282629489899,-0.302677184343338,0.49767574667930603,0.3074529469013214
2.8417582511901855,0.014130473136901855,0.07160678505897522,0.028137080371379852,-0.2789829715956739,-1.654781282612147,2.146093276373824,-0.9579474925994873,0.2753780782222748,0.08064287155866623,0.034930333495140076,0.5929495096206665,0.4170646369457245
2.860240936279297,0.04593735933303833,0.047535985708236694,0.012028560042381287,-0.2887663556273487,-1.642403509404896,2.1473480838399412,-0.9561392068862915,0.28476986289024353,0.06858369708061218,0.10623664408922195,0.6032005548477173,0.5226025581359863
2.8806331157684326,0.1005251407623291,0.014550566673278809,0.03882836923003197,-0.2998754396573767,-1.6301710168154486,2.1496275077573115,-0.9536898136138916,0.2954012155532837,0.056691672652959824,0.19921572506427765,0.5533789396286011,0.5964995622634888
2.9003262519836426,0.11593621969223022,-0.023953497409820557,0.023021336644887924,-0.3128772523074763,-1.6186424170092562,2.153294810119341,-0.950363039970398,0.30779746174812317,0.045505885034799576,0.204057514667511,0.5022950768470764,0.6628996133804321
2.9200000762939453,0.0818566083908081,-0.001088857650756836,0.024759888648986816,-0.3254692240459183,-1.607076560858846,2.157196276012646,-0.9468773603439331,0.31975340843200684,0.034368012100458145,0.2619725465774536,0.5497739911079407,0.566889762878418
2.939918041229248,0.09191584587097168,0.011071741580963135,0.006187319755554199,-0.33629588556308815,-1.5936142728815064,2.1650501080697624,-0.9437377452850342,0.32999274134635925,0.021537896245718002,0.4931146204471588,0.5231072306632996,0.5030961036682129
2.9599242210388184,0.1527320146560669,-0.0008728504180908203,0.023862242698669434,-0.3461376393314054,-1.5800288676403624,2.1764907827496507,-0.940650224685669,0.3392670750617981,0.008684838190674782,0.5848456025123596,0.4585016965866089,0.4711969494819641
2.979928970336914,0.1820504069328308,-0.046107858419418335,0.02373194694519043,-0.3553261926501964,-1.5676178785046873,2.1881718734206284,-0.9375282526016235,0.34789618849754333,-0.0029798950999975204,0.49407458305358887,0.3807133436203003,0.4425409734249115
2.9999310970306396,0.18991237878799438,-0.05450361967086792,0.007730484940111637,-0.3636268882251778,-1.5571533117308534,2.1985808475900153,-0.9345260262489319,0.35566630959510803,-0.012750543653964996,0.48657533526420593,0.31375038623809814,0.40092146396636963
3.0200390815734863,0.18323951959609985,-0.005117505788803101,-0.019230900332331657,-0.3709584864676575,-1.5475669969396053,2.209034808334408,-0.9317288398742676,0.3625088930130005,-0.02164733037352562,0.48209062218666077,0.26879239082336426,0.3460080325603485
3.039926052093506,0.1671043038368225,-0.0053941309452056885,-0.035312529653310776,-0.3771897011224369,-1.538035095488479,2.21968211457607,-0.9292044639587402,0.3683091700077057,-0.030452776700258255,0.47030532360076904,0.3106035888195038,0.3028683364391327
3.05987811088562,0.1561487317085266,-0.015817195177078247,-0.040592316538095474,-0.382284237130829,-1.5282915683683884,2.2291321986591486,-0.9269770979881287,0.3730407953262329,-0.03942468389868736,0.41575202345848083,0.3264186680316925,0.23353803157806396
3.079975128173828,0.14190077781677246,-0.01576945185661316,-0.06058281660079956,-0.3858204819865164,-1.517927160762434,2.2382551667909514,-0.9251955151557922,0.37631943821907043,-0.048959940671920776,0.356048047542572,0.37227094173431396,0.15129539370536804
3.0999269485473633,0.11759555339813232,-0.01311635971069336,-0.051964160054922104,-0.38669557085736894,-1.507877232823177,2.243299345956667,-0.9243277311325073,0.37713006138801575,-0.05823472887277603,0.11631839722394943,0.4504793882369995,-0.03918839246034622
3.1199822425842285,0.10109424591064453,-0.01652178168296814,-0.07969104498624802,-0.384886890239736,-1.4972651894771651,2.2432261546449697,-0.9243363738059998,0.375454306602478,-0.06809026747941971,-0.11878049373626709,0.6101893782615662,-0.14264953136444092
3.139925956726074,0.16189628839492798,-0.007676601409912109,-0.08430474996566772,-0.382654228701206,-1.4846978726318099,2.2375982796014537,-0.9242407083511353,0.3733840584754944,-0.07977291196584702,-0.34262391924858093,0.8867858648300171,-0.08709502220153809
3.159925937652588,0.2726624608039856,0.026815950870513916,-0.13037879765033722,-0.3832874987111377,-1.4691833173509274,2.229711995288331,-0.9226564168930054,0.37397143244743347,-0.09407791495323181,-0.413994163274765,0.9511300325393677,0.07347311824560165
3.179901123046875,0.3699527382850647,0.024240344762802124,-0.11346316337585449,-0.3879280879909911,-1.4527623172330728,2.2222480347095894,-0.919253945350647,0.37827128171920776,-0.10900994390249252,-0.3052184581756592,0.9703373312950134,0.3483332693576813
3.1999270915985107,0.4123847484588623,-0.012364566326141357,-0.10403740406036377,-0.39828440146003474,-1.4358349025836967,2.21679923984771,-0.913345992565155,0.38783758878707886,-0.12402039021253586,-0.3508865237236023,0.8961007595062256,0.5929533839225769
3.219956159591675,0.38827812671661377,-0.06854742765426636,-0.08212234079837799,-0.4128313025182505,-1.4212474527661976,2.2115936167456667,-0.9057648181915283,0.401204377412796,-0.13647504150867462,-0.3206535279750824,0.7854734063148499,0.7511972784996033
3.2399370670318604,0.3207862973213196,-0.08013728260993958,-0.03680334985256195,-0.4287049508830355,-1.4074673263660855,2.2077989019550306,-0.8974006772041321,0.4156932830810547,-0.1478889435529709,-0.2690318822860718,0.7597167491912842,0.74004065990448
3.2599260807037354,0.24676817655563354,-0.07788756489753723,0.0019837617874145508,-0.4425155989618193,-1.3941889014942221,2.205947348505762,-0.8896209597587585,0.42821410298347473,-0.15876777470111847,-0.12385979294776917,0.6181371808052063,0.5780070424079895
3.279963970184326,0.18774724006652832,-0.0948343575000763,0.013958707451820374,-0.4517319031336407,-1.3833301929551536,2.206866053326862,-0.8839293718338013,0.436524361371994,-0.1676756739616394,0.02433963306248188,0.4311733841896057,0.33587872982025146
3.2999801635742188,0.1420077085494995,-0.09693890810012817,0.018818393349647522,-0.4558730895967014,-1.3754079275416302,2.2098869700431543,-0.8807924389839172,0.4402464032173157,-0.17432062327861786,0.16323107481002808,0.2548368275165558,0.11477895081043243
3.3200511932373047,0.15155303478240967,-0.08091491460800171,0.007135495543479919,-0.45486824171223844,-1.370665979652079,2.2146864043184,-0.8803892135620117,0.43934395909309387,-0.17858320474624634,0.2857300937175751,0.007881085388362408,-0.12995783984661102
3.339987277984619,0.16081595420837402,-0.057255834341049194,-0.04045139253139496,-0.4488211954299678,-1.3699410496503146,2.221478756523662,-0.8828465938568115,0.4339037835597992,-0.17974810302257538,0.43664103746414185,-0.23289823532104492,-0.3245489001274109
3.3599720001220703,0.1421707272529602,-0.03857767581939697,-0.04225967824459076,-0.4396097163093648,-1.3710295912826214,2.230777481174768,-0.8869216442108154,0.4255863130092621,-0.17957253754138947,0.5786266922950745,-0.25306421518325806,-0.4004409909248352
3.379953145980835,0.10373550653457642,-0.076046884059906,0.006895914673805237,-0.42982814952943643,-1.369387150769688,2.2428826434133615,-0.8906617760658264,0.4167145788669586,-0.18185313045978546,0.6369779109954834,-0.09069955348968506,-0.3153277039527893
3.400062084197998,0.05707430839538574,-0.10908105969429016,0.03650945425033569,-0.4223365900850791,-1.3660026339302558,2.2514188990714157,-0.8930728435516357,0.40989285707473755,-0.1854962259531021,0.2580192983150482,0.06887031346559525,-0.2960549592971802
3.419590950012207,-0.011519551277160645,-0.1141132116317749,-0.0062027424573898315,-0.41581827910172126,-1.3635920543766122,2.252122731481039,-0.8952187299728394,0.4039386212825775,-0.1881941705942154,-0.0499618798494339,0.13842923939228058,-0.31982868909835815
3.4398932456970215,-0.031004607677459717,-0.07444646954536438,-0.03627249598503113,-0.41047700499961975,-1.3620198889812727,2.248783184154437,-0.8970198035240173,0.39904674887657166,-0.19004586338996887,-0.10939350724220276,0.1386384665966034,-0.2637777328491211
3.4599571228027344,-0.029228031635284424,-0.02141571044921875,0.006657660007476807,-0.40639647912265187,-1.3609422853632172,2.2448644479384576,-0.8983995318412781,0.395301878452301,-0.19134999811649323,-0.12571854889392853,0.12037274241447449,-0.19826143980026245
3.479928970336914,-0.03737407922744751,-0.024030357599258423,0.057028889656066895,-0.40434336357697415,-1.3592947123023733,2.2423056944999016,-0.8988747596740723,0.3934151530265808,-0.19299989938735962,-0.07125678658485413,0.17779085040092468,-0.022616969421505928
3.499936103820801,-0.0517616868019104,-0.008487462997436523,0.09206405282020569,-0.4066579132329253,-1.3551870838133833,2.2409323207941108,-0.8971825242042542,0.3955419957637787,-0.1964951604604721,-0.11806928366422653,0.2673172652721405,0.20580947399139404
3.5199332237243652,-0.07583940029144287,0.03239521384239197,0.0822572261095047,-0.41360798794235754,-1.3500638690456161,2.240223174952643,-0.8934599161148071,0.40191569924354553,-0.20048224925994873,-0.11374194175004959,0.29511207342147827,0.47189635038375854
3.539926052093506,-0.12396156787872314,0.11768224835395813,0.05588461458683014,-0.42559838249756254,-1.3431778985138698,2.2406534709591734,-0.8872993588447571,0.41286584734916687,-0.20552748441696167,-0.12455184012651443,0.340962290763855,0.6817628741264343
3.5599260330200195,-0.12247830629348755,0.09692859649658203,0.06552910804748535,-0.4410513064226239,-1.335272213811379,2.24297971619303,-0.87933748960495,0.42689040303230286,-0.21102160215377808,-0.004435768350958824,0.3472146689891815,0.9035465717315674
3.579975128173828,-0.09176558256149292,0.1178523600101471,0.09532612562179565,-0.4606445919310683,-1.3247595641377552,2.250649405779412,-0.8687904477119446,0.4445255994796753,-0.21817459166049957,0.2452230602502823,0.3862355649471283,1.1612844467163086
3.5999269485473633,-0.12479501962661743,0.18983885645866394,0.049285486340522766,-0.4832982384138924,-1.3102507842840176,2.2649789319303397,-0.8555821180343628,0.46470218896865845,-0.2281031310558319,0.395427942276001,0.409819632768631,1.3524665832519531
3.619927167892456,-0.12038511037826538,0.16309484839439392,0.04859480261802673,-0.5094272775407606,-1.2937929684145764,2.2822708890447787,-0.8397437930107117,0.48767733573913574,-0.23874980211257935,0.31283122301101685,0.407153457403183,1.5675296783447266
3.6400091648101807,-0.10714948177337646,0.12340623140335083,0.06722533702850342,-0.5394135866127485,-1.2779662452805554,2.2981298828563133,-0.821485161781311,0.5136329531669617,-0.24767573177814484,0.1958540678024292,0.376787930727005,1.7061033248901367
3.6599271297454834,-0.0820508599281311,0.10546493530273438,0.06908559799194336,-0.5719935671430992,-1.2617570696812996,2.3152931532078624,-0.8009905815124512,0.5413093566894531,-0.25573107600212097,0.2612515091896057,0.3323793411254883,1.8416461944580078
3.6799349784851074,-0.0767865777015686,0.14781159162521362,0.024778544902801514,-0.6053456570143385,-1.2441288047399293,2.3376423235070183,-0.7788195013999939,0.5690463185310364,-0.26386845111846924,0.5287185907363892,0.1873907446861267,1.903489112854004
3.6999731063842773,-0.13295894861221313,0.23290890455245972,-0.09682795405387878,-0.6359403795198713,-1.2214801114411504,2.3721688786831456,-0.7559264898300171,0.5939342975616455,-0.27534911036491394,1.127243995666504,0.10815345495939255,1.923483967781067
3.71992826461792,-0.19250082969665527,0.27511221170425415,-0.1216089129447937,-0.66170129833517,-1.187066067195321,2.42266612077304,-0.7315714359283447,0.6144599914550781,-0.2953679859638214,1.635375738143921,0.2919200658798218,1.9252690076828003
3.73992919921875,-0.1597888469696045,0.1534619927406311,-0.09376856684684753,-0.6832055209963893,-1.1439405537110794,2.4812275252820033,-0.7059643864631653,0.6312823295593262,-0.32108739018440247,1.7313750982284546,0.334199994802475,1.8258354663848877
3.7599329948425293,-0.09272027015686035,0.026307642459869385,-0.08977407217025757,-0.7010868557240599,-1.0976679225912231,2.542170726297057,-0.6801984310150146,0.6450485587120056,-0.34819889068603516,1.6207752227783203,0.378798246383667,1.8073521852493286
3.7799291610717773,-0.05174219608306885,0.03737020492553711,-0.06127053499221802,-0.7156542332602741,-1.0511915104458973,2.602485438831398,-0.6550601720809937,0.6561112999916077,-0.3747187852859497,1.8533148765563965,0.34505999088287354,1.6866309642791748
3.7999351024627686,-0.03470271825790405,0.12223494052886963,-0.09314948320388794,-0.7217626403857998,-0.9974210928152092,2.673427345413075,-0.6305957436561584,0.6607087850570679,-0.4072014093399048,2.40889573097229,0.360322505235672,1.6104062795639038
3.81997013092041,-0.02102339267730713,0.15783220529556274,-0.049671292304992676,-0.717726599978647,-0.9383984114082339,2.7514730000711483,-0.6076234579086304,0.6576738357543945,-0.44526273012161255,2.6462385654449463,0.35905420780181885,1.3541395664215088
3.8399362564086914,0.027936220169067383,0.05450081825256348,0.0034769773483276367,-0.7019324424142656,-0.8785499656865726,2.8323066513443,-0.5878269672393799,0.6456944942474365,-0.48737892508506775,3.101102113723755,0.3558225631713867,1.2175042629241943
3.859929084777832,0.12153041362762451,0.02082991600036621,0.10922098159790039,-0.6786332371066524,-0.8229932357219589,2.9102509498700626,-0.5707339644432068,0.6277296543121338,-0.5293564796447754,3.0010340213775635,0.1876448094844818,0.9509527683258057
3.8799362182617188,0.2281147837638855,-0.03573507070541382,0.20125293731689453,-0.6467731249010882,-0.7778054514688836,2.9806345235255765,-0.5599935054779053,0.6026144027709961,-0.5685624480247498,3.254661798477173,0.008693704381585121,0.7107279300689697
3.899949073791504,0.33598124980926514,-0.02461332082748413,0.24010992050170898,-0.6080023199041589,-0.7393208863906543,3.051464161791816,-0.5530375242233276,0.5712289214134216,-0.6065039038658142,3.4772260189056396,-0.36906272172927856,0.7846742272377014
3.9199280738830566,0.3786159157752991,0.09738391637802124,0.22171944379806519,-0.5617664727718756,-0.7114172553618096,3.1226717171350438,-0.5525660514831543,0.5326820015907288,-0.6410309076309204,4.015194892883301,-0.7781171798706055,0.5904726982116699
3.939927101135254,0.3300929069519043,0.23978739976882935,0.21402597427368164,-0.5051654680495171,-0.6925900510508246,-3.089501261600566,-0.5587763786315918,0.48395225405693054,-0.6734681129455566,4.1319355964660645,-0.9327128529548645,0.4549759328365326
3.9599270820617676,0.27842390537261963,0.044232189655303955,0.325736403465271,-0.45292183629503346,-0.6839165230395525,-3.027206967775344,-0.5681272745132446,0.43759462237358093,-0.6969521641731262,3.3128902912139893,-1.1132512092590332,0.55540931224823
3.9799771308898926,0.2128891944885254,-0.04754039645195007,0.21586430072784424,-0.40854216208807087,-0.6897843666565413,-2.976205469886126,-0.5839981436729431,0.39727190136909485,-0.7078991532325745,3.209496021270752,-1.258906602859497,0.19715237617492676
3.999927043914795,-0.17638206481933594,-0.30367982387542725,-0.03968250751495361,-0.3645416122421103,-0.6946210414349302,-2.930177671200725,-0.5980319976806641,0.3565210700035095,-0.7178094983100891,2.752875804901123,-0.9332107305526733,0.29444026947021484
4.019931077957153,-0.2833506464958191,-0.42697200179100037,0.09856891632080078,-0.3351264002150964,-0.694700888459268,-2.8960143410559045,-0.6045430302619934,0.32888853549957275,-0.7255067825317383,1.582971215248108,-0.31508100032806396,0.3471311628818512
4.039935111999512,-0.045514583587646484,-0.2509766221046448,0.23735439777374268,-0.31910914494274456,-0.6933610415350056,-2.8696993427841364,-0.6068596839904785,0.31372079253196716,-0.7302743196487427,1.4575997591018677,-0.5603860020637512,0.5162472724914551
4.059967994689941,0.1851087212562561,0.026093721389770508,0.24318504333496094,-0.30029890148049393,-0.7027021468299598,-2.8400871064328808,-0.6173596978187561,0.29580575227737427,-0.7289485335350037,1.7570490837097168,-1.203580379486084,0.4166944622993469
4.079962253570557,0.0678335428237915,-0.13481074571609497,0.3236672282218933,-0.27974145801811906,-0.7177626151214043,-2.811230612235855,-0.6321340203285217,0.27610716223716736,-0.7239968180656433,1.507878065109253,-1.059449553489685,0.3764125108718872
4.099925994873047,0.015120923519134521,-0.27642950415611267,0.3901847004890442,-0.26850534332357806,-0.732316762378755,-2.7886572439263393,-0.6446375250816345,0.26529061794281006,-0.7169821858406067,0.7709735631942749,-1.1212786436080933,0.5120949149131775
4.119933128356934,0.0015200972557067871,-0.30453112721443176,0.3213447332382202,-0.270067181847066,-0.7546616789952704,-2.772924154228616,-0.6602115035057068,0.26679617166519165,-0.7020972967147827,0.13195115327835083,-1.4832206964492798,0.6990071535110474
4.13998007774353,-0.19211453199386597,-0.17757201194763184,0.20543277263641357,-0.28174882309801974,-0.7814481614754694,-2.76501958539512,-0.676537811756134,0.2780359387397766,-0.6819037199020386,-0.4292060434818268,-1.3113089799880981,0.6378631591796875
4.1599249839782715,-0.4103291630744934,-0.18869051337242126,0.13040417432785034,-0.30068388738060886,-0.8024170625353498,-2.768484536006626,-0.6867777705192566,0.29617348313331604,-0.6637904047966003,-1.1792079210281372,-0.6760739088058472,0.4767759144306183
4.179934978485107,-0.44527924060821533,-0.24547702074050903,0.07252514362335205,-0.32640705878810505,-0.8171181020859172,-2.786432296418268,-0.6906765699386597,0.3206418752670288,-0.6481934189796448,-1.7781574726104736,-0.2875343859195709,0.20839232206344604
4.199954986572266,-0.40300774574279785,-0.256747841835022,0.01105189323425293,-0.356066892762982,-0.8300688912013261,-2.8144651236076306,-0.6916882395744324,0.34859052300453186,-0.6324965953826904,-2.1998865604400635,-0.07010994106531143,0.22895501554012299
4.219937086105347,-0.4290519952774048,-0.21513718366622925,-0.04262423515319824,-0.3907459047721646,-0.8398040775783092,-2.8483969742872524,-0.6883949041366577,0.380878210067749,-0.6172878742218018,-2.3738272190093994,0.34062084555625916,0.1621294915676117
4.239985942840576,-0.45210158824920654,-0.01502150297164917,-0.031081318855285645,-0.4212280173960015,-0.8427835342055563,-2.8883035377901174,-0.6812449097633362,0.40888142585754395,-0.6072243452072144,-2.2297182083129883,0.9434171319007874,-0.2972617447376251
4.259974002838135,-0.35823220014572144,0.004852026700973511,-0.07367384433746338,-0.44389355551036286,-0.8357682671557448,-2.9262578775831285,-0.6699202656745911,0.4294589161872864,-0.6056169271469116,-1.8793787956237793,1.2665050029754639,-0.16462688148021698
4.279924154281616,-0.13524019718170166,0.05776599049568176,-0.04835468530654907,-0.46886896092126706,-0.8279229339002042,-2.961448001931454,-0.6570419669151306,0.4518775939941406,-0.6034092307090759,-1.9998270273208618,1.0493159294128418,-0.2158479392528534
4.299931049346924,-0.08360713720321655,0.04344090819358826,0.02034062147140503,-0.4917668394621606,-0.8231882808958609,-2.995419837299645,-0.6464190483093262,0.47218409180641174,-0.5993199944496155,-1.9148285388946533,1.0585745573043823,-0.0673699826002121
4.3199262619018555,-0.06880605220794678,0.03937658667564392,0.1292712688446045,-0.5185215770591695,-0.8163202866948972,-3.028774585220325,-0.6328541040420532,0.49559658765792847,-0.5948779582977295,-2.0067529678344727,1.238715410232544,-0.022431274875998497
4.339969158172607,-0.06815177202224731,0.005955100059509277,0.08486849069595337,-0.5428722234929544,-0.807473254412068,-3.06152466636253,-0.6186615824699402,0.5165973901748657,-0.5919332504272461,-1.7151591777801514,1.2955666780471802,-0.16133223474025726
4.359934091567993,-0.003332674503326416,0.012400031089782715,0.08306097984313965,-0.5605500150203523,-0.7978205708051492,-3.090894654653218,-0.6062864661216736,0.5316520929336548,-0.5914074778556824,-1.3387115001678467,1.1934937238693237,-0.2951834499835968
4.379938125610352,0.08279627561569214,-0.044677555561065674,0.15792101621627808,-0.5737501308943539,-0.791033149003274,-3.1190363139767427,-0.5972157716751099,0.5427854657173157,-0.590522825717926,-1.3678028583526611,1.0020922422409058,-0.42684653401374817
4.399930953979492,0.13624930381774902,-0.10060316324234009,0.25078141689300537,-0.5880448020592515,-0.7914155857645706,3.13117706766462,-0.5918614268302917,0.5547353029251099,-0.5847809910774231,-1.5756171941757202,0.7793144583702087,-0.4757079482078552
4.419929027557373,0.1157953143119812,-0.08069264888763428,0.2503228783607483,-0.6018104054738941,-0.7978149230603137,3.0955944337796666,-0.5900689363479614,0.5661357641220093,-0.575594425201416,-1.5392214059829712,0.6836618185043335,-0.6295924186706543
4.439929962158203,0.08322715759277344,-0.051052093505859375,0.29499107599258423,-0.6134165989394055,-0.8051507207225966,3.0568004818087697,-0.5894985198974609,0.5756645202636719,-0.5666584968566895,-1.586378574371338,0.7721686959266663,-0.7361969351768494
4.459928035736084,0.14186924695968628,-0.06103014945983887,0.3202288746833801,-0.6248256714879921,-0.8150286182087852,3.0147582735643565,-0.5902487635612488,0.5849558711051941,-0.5562670230865479,-1.6540874242782593,0.6344945430755615,-0.7995139956474304
4.479964256286621,0.1887739896774292,-0.04716992378234863,0.2604339122772217,-0.6338224952578975,-0.8308032668776871,2.9718292649147973,-0.5950393080711365,0.5922291278839111,-0.5433165431022644,-1.4950395822525024,0.32612723112106323,-0.9307371973991394
4.499925136566162,0.1808813214302063,0.02047884464263916,0.2216709852218628,-0.6353680679946238,-0.851856269608156,2.929706774268418,-0.6056555509567261,0.5934737920761108,-0.5300663113594055,-1.0950912237167358,0.10155431181192398,-1.275716781616211
4.5199291706085205,0.16384446620941162,-0.015559136867523193,0.27885276079177856,-0.6275376719008049,-0.8733746381747599,2.887028812502258,-0.6204636096954346,0.5871533155441284,-0.5198805332183838,-0.9837373495101929,0.3250900208950043,-1.3981724977493286
4.539515018463135,0.19121813774108887,-0.2627086043357849,0.16565334796905518,-0.6200591497551748,-0.8924374533916669,2.8468823369672553,-0.6336619853973389,0.5810832977294922,-0.5107002854347229,-1.2810382843017578,0.05873316898941994,-1.3962488174438477
4.559936046600342,0.1858699917793274,-0.22724604606628418,0.2607494294643402,-0.6154342934420194,-0.9265127250945075,2.790008723311532,-0.6528346538543701,0.5773131847381592,-0.49042463302612305,-1.9888139963150024,-0.1368979513645172,-1.7843070030212402
4.579935073852539,0.15391570329666138,-0.18144512176513672,0.23916354775428772,-0.6103489596109304,-0.9682530167869381,2.7226529795409586,-0.6751406788825989,0.5731534361839294,-0.46441373229026794,-2.2171576023101807,-0.11773817986249924,-1.8384718894958496
4.599925994873047,0.09160912036895752,-0.08045285940170288,0.2558096647262573,-0.6038163256465034,-1.0113315774477376,2.649145144239358,-0.697672963142395,0.5677881240844727,-0.43688568472862244,-2.467526912689209,0.01136973686516285,-2.067258834838867
4.61993408203125,0.03939235210418701,-0.03523367643356323,0.206780344247818,-0.5918079963213578,-1.055831604421565,2.5687740564412467,-0.7222993969917297,0.5578624606132507,-0.4087456166744232,-2.6232590675354004,0.00991041399538517,-2.3879098892211914
4.63992714881897,0.025447607040405273,-0.003502190113067627,0.15396010875701904,-0.5719803247107271,-1.1045426463441121,2.4836251282793476,-0.751079261302948,0.5412982106208801,-0.3779895305633545,-2.7379777431488037,-0.2115870863199234,-2.722172975540161
4.659927129745483,-0.05005413293838501,0.027403295040130615,0.11331427097320557,-0.543698878562703,-1.156089839142615,2.3965977908791176,-0.783258855342865,0.5173050165176392,-0.3448205292224884,-2.726632595062256,-0.296154260635376,-2.9895265102386475
4.679927110671997,-0.15371310710906982,0.06573852896690369,0.0812864899635315,-0.5072323268168686,-1.204889422108519,2.3112734618140247,-0.81622713804245,0.4857599139213562,-0.3127470016479492,-2.7499170303344727,-0.3125392496585846,-3.1946964263916016
4.699937105178833,-0.21793824434280396,0.1286017894744873,0.08229497075080872,-0.4651386222992999,-1.2514070271963698,2.226517590499626,-0.8485597372055054,0.44854670763015747,-0.28062868118286133,-2.9576094150543213,-0.4016522765159607,-3.289950132369995
4.719925165176392,-0.2663477063179016,0.2012600302696228,0.07937641441822052,-0.42055542541398655,-1.2984071677422413,2.138345923366045,-0.8792058229446411,0.4082675576210022,-0.24559032917022705,-3.3977584838867188,-0.5191434621810913,-3.299082040786743
4.740013122558594,-0.34584611654281616,0.27714741230010986,0.045148804783821106,-0.3757844666500101,-1.345381418612235,2.0455619917725825,-0.9066867828369141,0.36700236797332764,-0.20791420340538025,-3.747335910797119,-0.558506965637207,-3.13277268409729
4.759941101074219,-0.39528751373291016,0.37711554765701294,-0.034925833344459534,-0.33280576115598465,-1.3878581091562676,1.9550124892052967,-0.9293586015701294,0.32669612765312195,-0.17193754017353058,-3.601705312728882,-0.5704696178436279,-2.7944302558898926
4.7799391746521,-0.34630537033081055,0.4851163625717163,-0.1336493343114853,-0.2942423071911965,-1.4211594004606003,1.879646813247226,-0.9463276267051697,0.2900148034095764,-0.14267201721668243,-2.7538604736328125,-0.3815387487411499,-2.138371706008911
4.799926280975342,-0.23978108167648315,0.5527395606040955,-0.2012687772512436,-0.26713782066549147,-1.4388132165895704,1.8318459652803345,-0.9561417102813721,0.26397186517715454,-0.12693244218826294,-1.5564911365509033,-0.048413168638944626,-1.2529876232147217
4.819928169250488,-0.11436140537261963,0.5287282466888428,-0.1957263946533203,-0.2548440011706534,-1.443871855730184,1.8004589671591789,-0.9599183201789856,0.25209444761276245,-0.1224956288933754,-1.4723819494247437,0.43694189190864563,-0.27533435821533203
4.839962005615234,-0.03269380331039429,0.43426448106765747,-0.23934125900268555,-0.26121615283849753,-1.4406525399043897,1.76556267974512,-0.9579067826271057,0.25825563073158264,-0.12537425756454468,-1.8958274126052856,0.6701885461807251,0.3218234181404114
4.859927177429199,-0.030754148960113525,0.4368586838245392,-0.29936760663986206,-0.2741111259356769,-1.4372449272426402,1.7313936691889662,-0.9540939331054688,0.2706913650035858,-0.12818357348442078,-1.3434427976608276,0.5219900608062744,0.5356435179710388
4.879928112030029,0.04744476079940796,0.4433969259262085,-0.3218334913253784,-0.28871634973044413,-1.4350270367363758,1.7185434414799479,-0.949788510799408,0.2847219407558441,-0.1297503411769867,-0.08907187730073929,0.06933698803186417,0.7215774655342102
4.899936199188232,0.0743299126625061,0.318702757358551,-0.24154192209243774,-0.30251314873981555,-1.4337259891872078,1.7274221703944568,-0.9456372857093811,0.2979201674461365,-0.1304367482662201,0.614952802658081,-0.17881761491298676,0.7414141893386841
4.919950008392334,0.05769854784011841,0.1531369984149933,-0.11815427243709564,-0.314179717972851,-1.4330126252551794,1.743577926346123,-0.9420368671417236,0.3090364336967468,-0.13062499463558197,0.7186894416809082,-0.2200259417295456,0.6067081093788147
4.939929008483887,0.05182737112045288,0.05105036497116089,-0.07050591707229614,-0.3223628205148758,-1.4317825908503183,1.760351347533893,-0.9393395781517029,0.3168085515499115,-0.1314288079738617,0.7286445498466492,-0.20231866836547852,0.4334065914154053
4.9599289894104,0.05714660882949829,0.0019749999046325684,-0.04384332895278931,-0.32705120992374936,-1.4311652101865522,1.7751104690937123,-0.9377771615982056,0.32125192880630493,-0.1318005472421646,0.5451588034629822,-0.20043812692165375,0.2182205319404602
4.979928016662598,0.06403988599777222,-0.045676589012145996,0.016334712505340576,-0.32835497024715565,-1.432912426946443,1.7816089896961214,-0.9375903010368347,0.3224863111972809,-0.1301041692495346,0.02005256898701191,-0.1952793151140213,0.0006256321212276816
4.999928951263428,0.0662497878074646,-0.06774282455444336,0.054656922817230225,-0.32763174967291975,-1.4380132759826763,1.7767952685498192,-0.9384726881980896,0.32180166244506836,-0.12535083293914795,-0.4093017578125,-0.15799541771411896,-0.1229844018816948
5.019967079162598,0.05909842252731323,-0.049278974533081055,0.04583775997161865,-0.32610038146981835,-1.4445471444842164,1.766909747107841,-0.9397594332695007,0.32035136222839355,-0.11927825957536697,-0.46183302998542786,-0.1932012438774109,-0.14893527328968048
5.039371967315674,0.0388721227645874,0.0009830296039581299,0.029569149017333984,-0.3239915117140325,-1.4514681593825869,1.7585619459238746,-0.9412311315536499,0.31835293769836426,-0.11285153776407242,-0.2754322588443756,-0.24080125987529755,-0.15869930386543274
5.059905052185059,0.008427917957305908,0.005810052156448364,0.017873287200927734,-0.32094532136311066,-1.4572806997192675,1.7550041688917772,-0.9428303837776184,0.31546375155448914,-0.10748806595802307,-0.03462589532136917,-0.2262541800737381,-0.17764705419540405
5.079936981201172,0.005559861660003662,-0.02138495445251465,0.04152888059616089,-0.31752629215833056,-1.461348246210016,1.7548263517038416,-0.9443263411521912,0.31221747398376465,-0.10376938432455063,0.030378684401512146,-0.17342381179332733,-0.16034665703773499
5.099936008453369,0.009379148483276367,-0.03632265329360962,0.04999357461929321,-0.314314966555528,-1.4643726523484584,1.7550199559000255,-0.9456279873847961,0.3091650605201721,-0.10101887583732605,0.014856569468975067,-0.14160622656345367,-0.15419884026050568
5.119932174682617,0.0009045004844665527,-0.01811841130256653,0.035778746008872986,-0.31126746182826515,-1.467356211872236,1.7549955997258313,-0.9468579888343811,0.3062654435634613,-0.09829393029212952,0.03890404850244522,-0.16005732119083405,-0.14749518036842346
5.1399359703063965,-0.02599036693572998,0.009575217962265015,-0.0037755221128463745,-0.3084647093440711,-1.469980466023645,1.7567242693503375,-0.947962760925293,0.303596168756485,-0.09589479118585587,0.15449655055999756,-0.1485964059829712,-0.11245287954807281
5.159934043884277,-0.04174220561981201,0.04209354519844055,-0.03354710340499878,-0.3062695579401735,-1.4716449617120926,1.760363234657158,-0.9487821459770203,0.30150389671325684,-0.09438253939151764,0.19575577974319458,-0.12424083054065704,-0.06880351155996323
5.179967164993286,-0.03465145826339722,0.05833017826080322,-0.0354272797703743,-0.30505218352929314,-1.4724261381984045,1.7640804686536222,-0.9492201209068298,0.30034294724464417,-0.09367731958627701,0.17385853826999664,-0.06069140508770943,-0.012323377653956413
5.199926137924194,-0.014300227165222168,0.06449151039123535,-0.030256450176239014,-0.30529550263161137,-1.4718578996624092,1.7677907437992326,-0.9490939974784851,0.30057501792907715,-0.0942094624042511,0.18011969327926636,0.0064422679133713245,0.08351773023605347
5.21993613243103,0.008391141891479492,0.0675325095653534,-0.03331314027309418,-0.30754732989601674,-1.4706339654232012,1.7722802737786643,-0.9483019709587097,0.30272194743156433,-0.09530308842658997,0.2527252733707428,-0.01051354594528675,0.17305026948451996
5.240032196044922,0.010562717914581299,0.07438051700592041,-0.03308255970478058,-0.3107864714579874,-1.4688205636143903,1.7794872284315555,-0.9471473693847656,0.30580753087997437,-0.09692227840423584,0.403286874294281,-0.0462043434381485,0.20404158532619476
5.259935140609741,0.007852554321289062,0.06362548470497131,-0.018648795783519745,-0.3140870905546496,-1.4668737887973475,1.7894992764828512,-0.9459475874900818,0.3089483380317688,-0.09866070747375488,0.49054837226867676,-0.06534980982542038,0.2124296873807907
5.279935121536255,0.007790327072143555,0.026343315839767456,0.0037218332290649414,-0.3176078765265596,-1.464911163730386,1.7999374542319702,-0.9446647763252258,0.31229496002197266,-0.10040148347616196,0.4363895058631897,-0.0697489008307457,0.24077162146568298
5.299930095672607,0.005200982093811035,-0.005618453025817871,0.015971437096595764,-0.3217812598243132,-1.4636676537315745,1.8084206118234312,-0.943234920501709,0.31625688076019287,-0.10143584758043289,0.32887396216392517,-0.07375403493642807,0.2528480887413025
5.31997013092041,-0.003992438316345215,-0.016287624835968018,0.02703087031841278,-0.3262112075297177,-1.4629762561452277,1.814343880583175,-0.9417626857757568,0.3204563558101654,-0.1019362360239029,0.18689118325710297,-0.04265408217906952,0.23869198560714722
5.339935064315796,-0.012223601341247559,-0.02097514271736145,0.031508564949035645,-0.3300507291907095,-1.4624055514903438,1.8175760735556163,-0.9404741525650024,0.32409101724624634,-0.10233981907367706,0.08850953727960587,-0.007859616540372372,0.17198069393634796
5.359929084777832,-0.008082985877990723,-0.03273499011993408,0.027491748332977295,-0.33325724581017113,-1.4618669957041206,1.8194365759558633,-0.9393810629844666,0.3271228075027466,-0.10273279994726181,0.04969420284032822,-0.00905271340161562,0.16766858100891113
5.379961013793945,-0.008601188659667969,-0.022198587656021118,0.021988339722156525,-0.3360922394612453,-1.4615261506846002,1.820940875919449,-0.938420295715332,0.32980048656463623,-0.10295142233371735,0.06821895390748978,-0.011960707604885101,0.1244221180677414
5.399969100952148,-0.022555053234100342,-0.01843014359474182,0.014985084533691406,-0.3380006706399275,-1.4611756024408997,1.8229849204957917,-0.9377568364143372,0.3316015601158142,-0.10321133583784103,0.09960512071847916,-0.03025307133793831,0.08796125650405884
5.41993522644043,-0.03386133909225464,-0.03250882029533386,0.0135650634765625,-0.33935411565729073,-1.4610753115737907,1.8253416513986218,-0.9372995495796204,0.33287811279296875,-0.10325615108013153,0.10017411410808563,-0.028650827705860138,0.07213021069765091
5.4399330615997314,-0.04845023155212402,-0.043056100606918335,0.015742823481559753,-0.3401994043285447,-1.4609654956843283,1.8271621489591214,-0.9370083212852478,0.3336750864982605,-0.10332821309566498,0.06054983288049698,0.0011667234357446432,0.06193828582763672
5.459929943084717,-0.04739964008331299,-0.050772279500961304,0.01790410280227661,-0.3406475474212283,-1.4606117979748965,1.8279926776145239,-0.936822772026062,0.3340975046157837,-0.10364314913749695,0.02419639565050602,0.03770466893911362,0.048009298741817474
5.479928016662598,-0.023052096366882324,-0.07353124022483826,0.015478655695915222,-0.34130380207704447,-1.4600150415709188,1.8282196639130528,-0.9365427494049072,0.33471596240997314,-0.10417793691158295,-0.011006386950612068,0.03919941559433937,0.061576392501592636
5.499971151351929,-0.010985016822814941,-0.08586931228637695,0.010970428586006165,-0.341912481583666,-1.45973755835598,1.8276817923345547,-0.9363110661506653,0.33528947830200195,-0.10441519320011139,-0.039137594401836395,0.0337827242910862,0.04339195415377617
5.5199291706085205,-0.018649280071258545,-0.06828281283378601,-0.0034431740641593933,-0.3415310754684597,-1.4597952410882782,1.8266007146705765,-0.936444103717804,0.3349301218986511,-0.10437534004449844,-0.06537917256355286,0.03213360533118248,-0.005443896166980267
5.5392022132873535,-0.012183904647827148,-0.06625828146934509,-0.0024314522743225098,-0.34072673882222965,-1.4602618591964371,1.8240597756165025,-0.9367601871490479,0.3341721296310425,-0.1039680615067482,-0.17499271035194397,0.042752958834171295,-0.007379653863608837
5.559946060180664,-0.006809055805206299,-0.061752259731292725,0.009187527000904083,-0.3398637616439061,-1.461069844627823,1.819253339770961,-0.9371300935745239,0.33335864543914795,-0.1032426655292511,-0.25448715686798096,0.06985267251729965,-0.022061239928007126
5.579935073852539,-0.012998759746551514,-0.026849061250686646,0.004900403320789337,-0.3381743716073021,-1.461476574119159,1.8141502649732362,-0.937730610370636,0.33176541328430176,-0.10292280465364456,-0.1926489919424057,0.07370723783969879,-0.08141185343265533
5.5999321937561035,-0.005211830139160156,0.0033255815505981445,-0.0022347569465637207,-0.33546602571277934,-1.4613304144394128,1.811359249608927,-0.9386053085327148,0.32920926809310913,-0.1031576544046402,-0.0544993095099926,0.03114486299455166,-0.1146022230386734
5.619935989379883,0.003130018711090088,0.016251295804977417,-0.0014126300811767578,-0.33254095432253183,-1.4612165356150024,1.8108901526119725,-0.9395466446876526,0.3264458179473877,-0.10336939990520477,0.018804732710123062,-0.003242583479732275,-0.1350681185722351
5.639937162399292,0.0033951997756958008,0.013645261526107788,0.00436091423034668,-0.32947198613988055,-1.4614237612766232,1.8110480272869265,-0.9405595660209656,0.3235434591770172,-0.10328357666730881,0.009849120862782001,-0.011567358858883381,-0.1340712308883667
5.659964084625244,0.0037568211555480957,0.011864125728607178,0.010877788066864014,-0.3267918990889855,-1.4616359074287415,1.8103826406764445,-0.9414399266242981,0.3210063576698303,-0.10317812860012054,-0.03872271627187729,0.010006998665630817,-0.12156730145215988
5.679931163787842,0.009854674339294434,0.025141477584838867,0.0051751211285591125,-0.3246797216829858,-1.4618716408661385,1.8090832442093088,-0.9421361684799194,0.31900525093078613,-0.10302967578172684,-0.05556855723261833,0.004804601427167654,-0.105720654129982
5.6999430656433105,0.012723684310913086,0.0408555269241333,0.0026939064264297485,-0.3229440271788762,-1.4620260971164922,1.807942189624316,-0.942700982093811,0.3173597753047943,-0.10294409841299057,-0.03309815749526024,0.01435842551290989,-0.09237626940011978
5.719926118850708,0.014445662498474121,0.04970204830169678,-0.00135725736618042,-0.3216608600768014,-1.4620809325948587,1.8071996138413058,-0.9431108832359314,0.3161426782608032,-0.1029365286231041,-0.01921894960105419,0.00828801654279232,-0.07609547674655914
5.73995304107666,0.01716834306716919,0.05060860514640808,0.0008519142866134644,-0.3208180779372242,-1.462244466658516,1.806440928387506,-0.9433922171592712,0.3153429925441742,-0.10281112045049667,-0.04144340008497238,0.015379747375845909,-0.040714770555496216
5.759925127029419,0.01728999614715576,0.05397343635559082,0.0019456744194030762,-0.3208901092929838,-1.4623117256498324,1.8053248815774294,-0.9433764219284058,0.31541135907173157,-0.10274519771337509,-0.05983515456318855,0.025555774569511414,-0.004460235126316547
5.779926061630249,0.017244696617126465,0.06260481476783752,0.002327442169189453,-0.32190865926518913,-1.4621612497565795,1.8042973482198597,-0.943041205406189,0.31637775897979736,-0.10285228490829468,-0.033548805862665176,0.032562728971242905,0.03302968293428421
5.799966096878052,0.018897414207458496,0.06975013017654419,-0.0017769336700439453,-0.32346486799026886,-1.461343309812378,1.8046100224952846,-0.9424661993980408,0.3178536295890808,-0.10356968641281128,0.06494668871164322,0.02747209742665291,0.048581019043922424
5.819956064224243,0.024960577487945557,0.07288646697998047,-0.011644557118415833,-0.32511419755952287,-1.4602566360295246,1.8072280556420408,-0.9418308734893799,0.31941699981689453,-0.10453581064939499,0.16389726102352142,-0.00920930691063404,0.06833970546722412
5.839935064315796,0.03134411573410034,0.06051546335220337,-0.00937759131193161,-0.32713967362591734,-1.459328310180376,1.8116055642989193,-0.9410883188247681,0.32133570313453674,-0.10533788800239563,0.2282640039920807,-0.034926120191812515,0.10943573713302612
5.85958194732666,0.017194628715515137,0.05334934592247009,0.004132159054279327,-0.330003393783482,-1.458157826056475,1.817138771490002,-0.9400461912155151,0.32404622435569763,-0.10633548349142075,0.2636549174785614,-0.009852017275989056,0.14497701823711395
5.879970073699951,-0.006067216396331787,0.041716307401657104,0.006014108657836914,-0.33346330784427214,-1.4561483687979948,1.8228470892024313,-0.9387112259864807,0.3273175060749054,-0.10809534788131714,0.23942866921424866,0.02325533702969551,0.17179371416568756
5.899930953979492,-0.0144614577293396,0.005311131477355957,0.001566469669342041,-0.3376463456865279,-1.453708717509931,1.8278548717048688,-0.9370766878128052,0.33126723766326904,-0.11022423952817917,0.18964752554893494,0.04527435451745987,0.20572318136692047
5.919932126998901,-0.024337351322174072,-0.01232457160949707,-0.005118608474731445,-0.34210965015121797,-1.4513227189791245,1.8319683396465272,-0.9353336691856384,0.33547523617744446,-0.11228243261575699,0.15970507264137268,0.04581231251358986,0.19762104749679565
5.939947128295898,-0.03487372398376465,-0.03679487109184265,-0.011220872402191162,-0.34565401808661084,-1.4489307308481867,1.8356013995997933,-0.9338763356208801,0.33881208300590515,-0.11437415331602097,0.14976376295089722,0.07743974030017853,0.15434467792510986
5.958966255187988,-0.03488659858703613,-0.04611942172050476,-0.0237114354968071,-0.34739142575376825,-1.445838110282036,1.8395818425250616,-0.9329326152801514,0.34044623374938965,-0.11718817800283432,0.20838035643100739,0.09983142465353012,0.05663466826081276
5.97988224029541,-0.014407157897949219,-0.05187946557998657,-0.03242367506027222,-0.34759413917634957,-1.442703542209271,1.843801812144987,-0.9324922561645508,0.34063681960105896,-0.12010312080383301,0.1921214759349823,0.07492252439260483,0.016059068962931633
5.999901056289673,-0.0028043389320373535,-0.07091197371482849,-0.01913851499557495,-0.34696638738539354,-1.4402513863955484,1.8471268280720117,-0.9324069023132324,0.34004655480384827,-0.12241720408201218,0.11549059301614761,0.0734100267291069,-0.024640625342726707
6.019958972930908,-0.006100952625274658,-0.07549139857292175,-0.015006467700004578,-0.34560557251271196,-1.4381433313952947,1.8488832476728838,-0.9326043725013733,0.33876651525497437,-0.12444356083869934,0.0594840943813324,0.07166352868080139,-0.07446207851171494
6.039224147796631,-0.0030319690704345703,-0.06370162963867188,-0.012645944952964783,-0.3436657547143729,-1.437112917392576,1.8484931048000075,-0.9331251978874207,0.3369407653808594,-0.12549181282520294,-0.0893671065568924,0.03789721801877022,-0.07718802988529205
6.060011148452759,0.0031597018241882324,-0.06369784474372864,0.0010170936584472656,-0.3423007736976637,-1.437351337042405,1.8448478509718078,-0.9336101412773132,0.3356552720069885,-0.12533041834831238,-0.23983684182167053,0.04839318245649338,-0.052128251641988754
6.079981088638306,-0.010313868522644043,-0.01956963539123535,-0.002279147505760193,-0.3411672616786714,-1.4376345954693885,1.8392409233958356,-0.934022068977356,0.33458730578422546,-0.12511639297008514,-0.27423733472824097,0.07318383455276489,-0.051978278905153275
6.0999579429626465,-0.00469970703125,0.020716488361358643,-0.007308773696422577,-0.3399338374935385,-1.4378992065632108,1.83377790501935,-0.9344634413719177,0.33342471718788147,-0.12492381781339645,-0.23589682579040527,0.05833449587225914,-0.05064263939857483
6.119886159896851,0.007572054862976074,0.02850121259689331,0.003017023205757141,-0.3395587462698346,-1.4382808306469161,1.8290956450902367,-0.9346349239349365,0.3330710530281067,-0.12458371371030807,-0.20531734824180603,0.060051701962947845,-0.01641356386244297
6.139983177185059,0.008590757846832275,0.03231370449066162,0.012991197407245636,-0.3396743263323257,-1.438313486556463,1.8251722277025046,-0.9346008896827698,0.3331800401210785,-0.12454810738563538,-0.16596119105815887,0.06121647730469704,-0.0037111991550773382
6.159930229187012,0.012237846851348877,0.035128623247146606,0.01890159398317337,-0.3399741207652519,-1.438130481586113,1.8223214040146138,-0.9344790577888489,0.3334626853466034,-0.12470593303442001,-0.11069657653570175,0.050983283668756485,0.013516957871615887
6.179936170578003,0.017750561237335205,0.027929246425628662,0.027090847492218018,-0.3407481822633114,-1.4377722490467548,1.820467735258008,-0.9341782331466675,0.3341923654079437,-0.12500642240047455,-0.08069979399442673,0.0512111596763134,0.032798755913972855
6.199937105178833,0.016450107097625732,0.02308434247970581,0.0274495929479599,-0.34176052708058635,-1.437258265590546,1.8189142664801117,-0.9337781667709351,0.33514630794525146,-0.12544144690036774,-0.07924094051122665,0.05168049782514572,0.037941694259643555
6.2199482917785645,0.017621099948883057,0.01898863911628723,0.02235560119152069,-0.3430307582818984,-1.4367042642654793,1.8174916829079069,-0.9332858920097351,0.33634281158447266,-0.1259017437696457,-0.06130921468138695,0.05551154166460037,0.037825439125299454
6.2399492263793945,0.021210908889770508,0.0200577974319458,0.012111976742744446,-0.3444071795882912,-1.4362669145916733,1.8165830804981058,-0.9327709078788757,0.3376387357711792,-0.12624765932559967,-0.027241175994277,0.04133518412709236,0.03749844804406166
6.2599382400512695,0.017977654933929443,0.021400362253189087,0.0004351586103439331,-0.34549382335919093,-1.4360217805396793,1.8163588353600135,-0.932375967502594,0.3386613726615906,-0.12642696499824524,0.00601696502417326,0.025648808106780052,0.027168653905391693
6.279963970184326,0.013481736183166504,0.016748815774917603,-0.0045015811920166016,-0.34636707193806715,-1.4359714931029388,1.8164796666969345,-0.9320761561393738,0.3394828736782074,-0.12643402814865112,0.013663792982697487,0.013958596624433994,0.027307666838169098
6.299927234649658,0.005356013774871826,0.014622867107391357,-0.00990961492061615,-0.34723227962847525,-1.4359196436191646,1.816841241935695,-0.9317781329154968,0.34029656648635864,-0.1264428049325943,0.02867804281413555,0.008821891620755196,0.036355581134557724
6.31995415687561,-0.002853870391845703,0.017277151346206665,-0.011624038219451904,-0.348190667341027,-1.4356981062788314,1.8176966498659652,-0.9314265251159668,0.3411976099014282,-0.12660525739192963,0.05408920347690582,0.0029199712444096804,0.03789813444018364
6.3399341106414795,-0.008903741836547852,0.015624672174453735,-0.012452125549316406,-0.34915337682018516,-1.4350813369330597,1.8192922216233915,-0.9310224056243896,0.34210237860679626,-0.12713520228862762,0.08781226724386215,0.005011085420846939,0.04184494912624359
6.3599371910095215,-0.007153451442718506,0.013542205095291138,-0.018168196082115173,-0.34994067268114626,-1.4341504035239006,1.8218319841662258,-0.930636465549469,0.34284207224845886,-0.12796512246131897,0.13668696582317352,-0.004312464036047459,0.03894047811627388
6.37996506690979,-0.0035347342491149902,0.00978940725326538,-0.017650842666625977,-0.3505083257657685,-1.4330573856988698,1.8251902657410002,-0.930303156375885,0.3433752655982971,-0.12895551323890686,0.161299467086792,-0.011368154548108578,0.04108160361647606
6.4000701904296875,0.0033644437789916992,0.0019651949405670166,-0.01444864273071289,-0.35104074183450196,-1.4319990462210315,1.828655086249829,-0.929984986782074,0.3438752591609955,-0.12991471588611603,0.1499212235212326,-0.013900820165872574,0.03648124635219574
6.419989109039307,0.00631403923034668,-0.005247592926025391,-0.006150290369987488,-0.35155586802047956,-1.431039865839956,1.831663054077938,-0.9296844005584717,0.3443589210510254,-0.13078197836875916,0.11549016833305359,-0.00423931609839201,0.03631483390927315
6.4399590492248535,0.00751107931137085,-0.01274910569190979,0.004902943968772888,-0.35215112687163536,-1.4301982781448725,1.8338039838900915,-0.9293709397315979,0.3449177145957947,-0.131535604596138,0.06822948902845383,-0.002313850447535515,0.036062803119421005
6.45997428894043,0.003238856792449951,-0.015462547540664673,0.016574636101722717,-0.3529774564299876,-1.4296803321873375,1.8344943100609614,-0.9290200471878052,0.3456932306289673,-0.13197681307792664,-0.028338130563497543,0.01518888771533966,0.04317466914653778
6.479952096939087,-0.00032651424407958984,-0.02105545997619629,0.02485346794128418,-0.3542061472945644,-1.4293273063443366,1.8331028503495443,-0.9285523295402527,0.3468458950519562,-0.1322447955608368,-0.10188882052898407,0.04801270365715027,0.05752336606383324
6.49993896484375,0.004217982292175293,-0.00727999210357666,0.014669358730316162,-0.35544628809114176,-1.4289564768875256,1.83165580556928,-0.9280766248703003,0.34800878167152405,-0.13252820074558258,-0.04238926246762276,0.028743134811520576,0.042630162090063095
6.5199291706085205,0.0016977190971374512,0.01270204782485962,0.003447487950325012,-0.3558280366837475,-1.428779012055975,1.8317784772827685,-0.92792147397995,0.3483666479587555,-0.13267408311367035,0.027880892157554626,-0.001273264642804861,0.021331828087568283
6.539772987365723,-0.006331980228424072,-0.009200721979141235,0.010988295078277588,-0.35612792785274633,-1.4288420869265261,1.831570485025712,-0.9278264045715332,0.34864774346351624,-0.13260076940059662,-0.05292580649256706,0.028933994472026825,0.02570689097046852
6.560009002685547,-0.010682284832000732,-0.02019008994102478,0.006228223443031311,-0.35652190035398185,-1.4289355096190886,1.829791506020041,-0.9277027249336243,0.3490169644355774,-0.13249465823173523,-0.09796492010354996,0.05125989764928818,0.018036412075161934
6.579962253570557,-0.0018578171730041504,-0.0017380714416503906,-0.009692832827568054,-0.35692458267427063,-1.4289865307877112,1.8278339955976235,-0.9275702834129333,0.349394291639328,-0.13242745399475098,-0.0787392258644104,0.03473684564232826,0.01087711751461029
6.599970102310181,0.0012651681900024414,0.006008625030517578,-0.01919788122177124,-0.35745087033722545,-1.4289407764202813,1.8262934333120446,-0.9273821115493774,0.3498873710632324,-0.1324438750743866,-0.07059882581233978,0.028019998222589493,0.010193722322583199
6.619939088821411,0.002672135829925537,0.0024495720863342285,-0.018005967140197754,-0.35782954535720496,-1.429033888547777,1.824660931718754,-0.9272632002830505,0.35024207830429077,-0.13233880698680878,-0.07996075600385666,0.03175010904669762,0.011557105928659439
6.639902114868164,0.0072994232177734375,0.006825864315032959,-0.018368422985076904,-0.3579956209052259,-1.4291525959553775,1.8231908643553827,-0.9272213578224182,0.35039764642715454,-0.13222052156925201,-0.05714976787567139,0.018507985398173332,0.01735895313322544
6.6598961353302,0.009156465530395508,0.013547450304031372,-0.015446677803993225,-0.3583621328209155,-1.4292732579844747,1.8222893527774486,-0.9271100759506226,0.35074087977409363,-0.1320905238389969,-0.03739377111196518,-0.0034494223073124886,0.020143678411841393
6.680023193359375,0.00214231014251709,0.010693401098251343,-0.012849867343902588,-0.35885169052744864,-1.4292111597181432,1.8216789508798923,-0.9269317388534546,0.35119929909706116,-0.13212384283542633,-0.030689489096403122,0.008636890910565853,0.01388377696275711
6.700009107589722,-0.0013959407806396484,0.01219785213470459,-0.009401023387908936,-0.3591353389158728,-1.428816944216794,1.8213361428375106,-0.9267809391021729,0.3514648675918579,-0.1324751377105713,-0.016486333683133125,0.016814038157463074,0.009841151535511017
6.719994068145752,0.006803393363952637,0.012513935565948486,-0.01005333662033081,-0.35944969150292205,-1.4283019601721556,1.8212425823023644,-0.9266031980514526,0.351759135723114,-0.13293670117855072,-0.006690600421279669,0.012357504107058048,0.016381604596972466
6.739948272705078,0.013920605182647705,0.010724395513534546,-0.007499039173126221,-0.3600411152530062,-1.4280658370441623,1.8212154751264091,-0.9263656735420227,0.35231271386146545,-0.13312587141990662,-0.007257720455527306,-0.006047779694199562,0.024877479299902916
6.766417980194092,-0.002606987953186035,0.005926787853240967,0.0040585994720458984,-0.3613036601935456,-1.4276934497281872,1.8209824509233166,-0.9258750677108765,0.3534940183162689,-0.13340727984905243,-0.021623875945806503,0.018602704629302025,0.02152535691857338
6.784306049346924,0.005150198936462402,0.007348001003265381,0.001311466097831726,-0.3618723468366324,-1.4273992858635844,1.8206468202559296,-0.9256367683410645,0.3540259301662445,-0.13365091383457184,-0.015180304646492004,0.005107580684125423,0.019229581579566002
6.799913167953491,0.005150198936462402,0.007348001003265381,0.001311466097831726,-0.3618723468366324,-1.4273992858635844,1.8206468202559296,-0.9256367683410645,0.3540259301662445,-0.13365091383457184,-0.015180304646492004,0.005107580684125423,0.019229581579566002
6.827259063720703,0.0023711323738098145,0.009411782026290894,-0.006770908832550049,-0.36266781597610703,-1.4275319485738363,1.820874727679498,-0.9253752827644348,0.354769766330719,-0.13348783552646637,0.01876305416226387,-0.005086999852210283,0.002971622161567211
6.845293045043945,-0.0011250972747802734,0.00854027271270752,-0.011750280857086182,-0.36262069267452224,-1.4275069668209324,1.8213415408093208,-0.9253886342048645,0.35472571849823,-0.13351334631443024,0.028233934193849564,-0.007543943822383881,-0.0032211816869676113
6.865145206451416,0.007950127124786377,0.007870346307754517,-0.012592479586601257,-0.36250484405104255,-1.427631905028182,1.8221098752014275,-0.9254457354545593,0.3546173870563507,-0.13340356945991516,0.044989172369241714,-0.03138811141252518,-0.0027392753399908543
6.8851752281188965,0.004543185234069824,0.0047904253005981445,-0.013169705867767334,-0.3624860245306631,-1.4278939154782277,1.8231714640922965,-0.9254873991012573,0.35459980368614197,-0.13316205143928528,0.046475283801555634,-0.03366999700665474,-0.0037032789550721645
6.90444803237915,0.000338137149810791,-0.00025576353073120117,-0.007239103317260742,-0.3624160328047015,-1.4281010858673535,1.8241025903783137,-0.9255395531654358,0.3545343577861786,-0.13297384977340698,0.04280214384198189,-0.027122704312205315,-0.0016832135152071714
6.926891088485718,-0.00283735990524292,0.0015471279621124268,-0.004192173480987549,-0.3622829707044873,-1.4283113600357649,1.8249662323256317,-0.9256141781806946,0.35440993309020996,-0.13278593122959137,0.04332626610994339,-0.03618588298559189,-0.00870389211922884
6.942931175231934,-0.0015096068382263184,0.003446906805038452,-0.004322245717048645,-0.36202999677989317,-1.4285645677407615,1.826076667909786,-0.9257366061210632,0.35417336225509644,-0.13256427645683289,0.051118794828653336,-0.03908846527338028,-0.010364728979766369
6.963870048522949,-0.003331124782562256,0.002218782901763916,0.0012593120336532593,-0.36180950055434197,-1.4288600939375922,1.8271108017474986,-0.9258529543876648,0.35396715998649597,-0.13230173289775848,0.03988293185830116,-0.04298955202102661,-0.009247565641999245
6.9837541580200195,-0.0031973719596862793,0.003634214401245117,0.0015159398317337036,-0.36155231625858086,-1.4291900507495587,1.8278385383445623,-0.9259865283966064,0.3537266254425049,-0.13200904428958893,0.026188746094703674,-0.03023594245314598,-0.00853134784847498
7.003833055496216,-0.003305196762084961,0.002792179584503174,0.0027417540550231934,-0.3613758764436984,-1.4295236058600036,1.8284502893359837,-0.9260924458503723,0.3535615801811218,-0.13170897960662842,0.02959415689110756,-0.036657530814409256,-0.0028777888510376215
7.024592161178589,-0.005397796630859375,0.0014285743236541748,0.002207159996032715,-0.36118609102351384,-1.4298144219114512,1.8291550354165271,-0.9261971116065979,0.3533840477466583,-0.13144907355308533,0.02780868113040924,-0.015845993533730507,-0.010377245955169201
7.048176288604736,-0.002171635627746582,-0.00373956561088562,0.007748618721961975,-0.3609039132343669,-1.4298103674854146,1.8294814466174407,-0.9262951612472534,0.3531200587749481,-0.1314668208360672,0.010293789207935333,-0.0016282638534903526,-0.015631159767508507
7.068392276763916,0.01386725902557373,-0.008290350437164307,0.0025365501642227173,-0.3607120687470286,-1.4300113997593815,1.8294667484275786,-0.9263885617256165,0.35294055938720703,-0.13129009306430817,-0.011321984231472015,-0.019872337579727173,-0.0072678872384130955
7.085487127304077,0.016836166381835938,-0.007999181747436523,-0.0024662762880325317,-0.3606293027752392,-1.430672350972493,1.829147879779381,-0.9265042543411255,0.3528631329536438,-0.13068188726902008,-0.023463468998670578,-0.03479890897870064,-0.0059782410971820354
7.107553958892822,0.00022536516189575195,-0.0009320378303527832,0.0002219676971435547,-0.3603495667139675,-1.4314911837295665,1.8283452373297218,-0.9267085790634155,0.35260137915611267,-0.12993687391281128,-0.04246237874031067,-0.015682119876146317,-0.027078969404101372
7.12736701965332,-0.004099130630493164,0.006650418043136597,-0.0031523704528808594,-0.3597801796768061,-1.4322643074151884,1.8269641945499087,-0.9270074963569641,0.3520684838294983,-0.12924808263778687,-0.05268504470586777,-0.002447896171361208,-0.04568694159388542
7.147126197814941,0.00202256441116333,0.01815018057823181,-0.010472893714904785,-0.35905236756792924,-1.4329237432185655,1.8260492225791285,-0.9273461103439331,0.3513872027397156,-0.12867194414138794,-0.023268338292837143,-0.029035385698080063,-0.04171789437532425
7.165284156799316,0.0055321455001831055,0.02867063879966736,-0.00792066752910614,-0.3582462345677824,-1.4333560998100037,1.8261950878217132,-0.9276817440986633,0.35063233971595764,-0.1283097267150879,0.03896832466125488,-0.033638570457696915,-0.03376946970820427
7.185402154922485,0.004627645015716553,0.023570746183395386,-0.008877739310264587,-0.3574516491007853,-1.4336721532305488,1.827274979064614,-0.9279980063438416,0.3498880863189697,-0.12805457413196564,0.07150952517986298,-0.04330265149474144,-0.030814258381724358
7.205350160598755,0.008786320686340332,0.01893162727355957,-0.008534610271453857,-0.3568333077578203,-1.4340905035604052,1.828836460676877,-0.9282656908035278,0.3493087887763977,-0.12769579887390137,0.08633752912282944,-0.05932715907692909,-0.019450722262263298
7.224035263061523,0.002216935157775879,0.014410555362701416,-0.005044996738433838,-0.35646349359318824,-1.4344595795454638,1.8306397321443675,-0.9284406900405884,0.3489622175693512,-0.12737074494361877,0.08868466317653656,-0.04520982876420021,-0.015184629708528519
7.24592924118042,-0.0020116567611694336,0.00576096773147583,0.0006911009550094604,-0.35641242222921404,-1.4345456770629879,1.8321731710067777,-0.9284694194793701,0.34891438484191895,-0.12729324400424957,0.05785475671291351,-0.027823736891150475,-0.005769777111709118
7.264986038208008,0.0057106614112854,-0.002858787775039673,0.0044782161712646484,-0.3564922308588705,-1.4346535289187592,1.8333917874476091,-0.9284554123878479,0.3489891588687897,-0.12718930840492249,0.05942557007074356,-0.03793398663401604,0.0011504339054226875
7.283944129943848,0.00397038459777832,-0.0031947195529937744,0.0036667585372924805,-0.356720455709419,-1.4349077733836633,1.8343882623550796,-0.9284088611602783,0.3492030203342438,-0.1269424706697464,-0.0015962528996169567,-0.03837500140070915,0.006517576985061169
7.305889129638672,0.004992425441741943,-0.021326005458831787,0.014375969767570496,-0.35778327738564475,-1.435645369557257,1.8333280495941215,-0.928134024143219,0.35019874572753906,-0.12620756030082703,-0.07926661521196365,-0.014446502551436424,0.05215528607368469
7.3256471157073975,-0.00820314884185791,0.012519210577011108,0.005491361021995544,-0.35838473105406277,-1.4359972578642506,1.8324282863006875,-0.9279694557189941,0.3507620394229889,-0.12585262954235077,-0.01449615228921175,-0.002577946987003088,0.010890990495681763
7.345526218414307,0.0011751651763916016,0.010434269905090332,0.003789663314819336,-0.358525524981572,-1.4360973223753593,1.8329475004965672,-0.9279329776763916,0.35089388489723206,-0.12575311958789825,0.048740338534116745,-0.011099617928266525,0.01622741110622883
7.364552974700928,0.0061640143394470215,0.0009984374046325684,0.004097104072570801,-0.3584503315722213,-1.436246721092242,1.8341103319510697,-0.9279780387878418,0.3508234918117523,-0.12561804056167603,0.05438879877328873,-0.03328872099518776,-0.0035870021674782038
7.38571310043335,-0.0035490989685058594,-0.014066994190216064,0.003369733691215515,-0.3582439101080437,-1.4365805625266685,1.8347001914879362,-0.9280916452407837,0.35063016414642334,-0.12531793117523193,0.003551091067492962,-0.003501975443214178,0.003250955371186137
7.404956102371216,-0.009434819221496582,-0.022459745407104492,0.003118559718132019,-0.3583420506891513,-1.4367640296381745,1.8341547950500205,-0.9280806183815002,0.350722074508667,-0.12514305114746094,-0.0454477034509182,0.013238832354545593,0.001852841698564589
7.423628091812134,-0.0061969757080078125,-0.018489450216293335,0.002448737621307373,-0.35863216189670827,-1.4368627849828637,1.8329842968414223,-0.9279918670654297,0.3509937524795532,-0.1250377893447876,-0.0681593269109726,0.016376568004488945,-0.002621527761220932
7.443795204162598,-0.0021222829818725586,-0.015869557857513428,0.001990973949432373,-0.3588326476100765,-1.437181561535476,1.8315904209065657,-0.9279620051383972,0.3511814773082733,-0.1247325912117958,-0.07137472182512283,0.007495548576116562,0.00428718701004982
7.4640092849731445,-0.0029838085174560547,-0.008940815925598145,0.0011976957321166992,-0.3589942653870041,-1.4376993822788935,1.8297364401116314,-0.9279702305793762,0.35133278369903564,-0.12424452602863312,-0.09924621134996414,0.014831403270363808,-0.005092757288366556
7.485192060470581,-0.011153042316436768,-0.002946019172668457,-0.004032790660858154,-0.35891483712002986,-1.4380451647522272,1.8275724975870586,-0.9280406832695007,0.35125842690467834,-0.12392732501029968,-0.09904472529888153,0.02818751148879528,-0.003460394684225321
7.502572059631348,-0.008664548397064209,0.0049405694007873535,-0.001370251178741455,-0.3588683044076581,-1.4381708700111817,1.8255115319303459,-0.9280725121498108,0.35121485590934753,-0.12381283193826675,-0.09007345139980316,0.030287057161331177,-0.002209705300629139
7.524992942810059,-0.0007027983665466309,0.007148832082748413,0.0025792717933654785,-0.35892170714919,-1.4381709558301417,1.823879844705078,-0.9280539155006409,0.3512648642063141,-0.12381026893854141,-0.06465737521648407,0.0256956797093153,0.0028124437667429447
7.5451061725616455,0.004329800605773926,0.0048636794090271,0.002246484160423279,-0.35888522956927005,-1.4381696093281886,1.8227485139874606,-0.9280664920806885,0.3512307107448578,-0.1238132193684578,-0.04341058433055878,0.014580444432795048,-0.0024267968256026506
7.5622382164001465,0.0055348873138427734,0.0009460151195526123,0.0014724135398864746,-0.35886485142349833,-1.4382319837113493,1.821908188484741,-0.9280813336372375,0.35121163725852966,-0.1237562745809555,-0.04037000238895416,0.00541730597615242,0.00027986743953078985
7.582914113998413,0.0006183385848999023,0.0009680092334747314,0.004976935684680939,-0.35884129452899904,-1.4383864843387044,1.820967931539953,-0.9281085133552551,0.3511895537376404,-0.12361396104097366,-0.043278902769088745,0.015867816284298897,-0.015235626138746738
7.6059770584106445,-0.0016747117042541504,-0.0013322830200195312,-0.001162603497505188,-0.35867432043617525,-1.4382528107482735,1.819985517195633,-0.9281502366065979,0.35103321075439453,-0.12374579161405563,-0.034730613231658936,0.027646446600556374,-0.014294990338385105
7.625051021575928,0.008317708969116211,0.0005813837051391602,-0.006324246525764465,-0.35852095500237663,-1.4380512496492832,1.8193389273296796,-0.9281786680221558,0.3508896231651306,-0.12393999844789505,-0.02118593268096447,0.007036951836198568,-0.011210819706320763
7.64283013343811,0.011126220226287842,-0.0015307366847991943,-0.0030733346939086914,-0.35844628040371823,-1.4382185251660577,1.8189348464180937,-0.9282252788543701,0.3508196771144867,-0.12378818541765213,-0.020826859399676323,-0.00466009508818388,-0.0064322808757424355
7.665753126144409,-0.006862163543701172,-0.006180852651596069,0.0028271079063415527,-0.3583769919909481,-1.4384078790615131,1.8180844181606435,-0.9282727241516113,0.3507547974586487,-0.12361562252044678,-0.059950776398181915,0.016085663810372353,-0.01564086601138115
7.682689189910889,-0.011383116245269775,-0.0035630464553833008,0.00937885046005249,-0.3581398185134133,-1.4384463902189093,1.81657321710189,-0.9283599853515625,0.3505326807498932,-0.1235908567905426,-0.06990685313940048,0.023523250594735146,-0.020310916006565094
7.70375394821167,-0.0030234456062316895,0.006920754909515381,0.007920518517494202,-0.3580083494044825,-1.4384295124436,1.815250258742533,-0.9284034371376038,0.3504095673561096,-0.12361259013414383,-0.05375979095697403,0.018188849091529846,-0.011965231969952583
7.7216620445251465,-0.0026720166206359863,0.005375921726226807,0.0065538883209228516,-0.3580449120282714,-1.4382890611247146,1.8141654967018996,-0.9283735156059265,0.3504438102245331,-0.12374131381511688,-0.06396041810512543,0.0239908117800951,-0.0013320212019607425
7.744416236877441,4.756450653076172e-05,-0.003351151943206787,0.011242516338825226,-0.35846745011091713,-1.4383949358657429,1.8122233419556304,-0.9282397031784058,0.3508395254611969,-0.12362344563007355,-0.09654507040977478,0.03596252202987671,0.024596240371465683
7.765210151672363,-0.0033159255981445312,0.010215282440185547,3.5762786865234375e-06,-0.3587104589891353,-1.4384083779242327,1.8109532524862437,-0.928156852722168,0.35106706619262695,-0.12359972298145294,-0.02168290503323078,0.016681678593158722,-0.00940275564789772
7.783436059951782,-0.005989015102386475,0.00948023796081543,-0.0057173967361450195,-0.35838738186962904,-1.4383411430995787,1.8110866890403041,-0.928260862827301,0.35076454281806946,-0.1236770898103714,0.015375952236354351,0.0003563236095942557,-0.014582579024136066
7.804409027099609,-0.0017074942588806152,-0.010844767093658447,0.0009378865361213684,-0.358355058536447,-1.4385702500106026,1.8104331477466094,-0.9283004403114319,0.35073426365852356,-0.12346591055393219,-0.06337868422269821,0.008964459411799908,-0.009700742550194263
7.8232011795043945,-0.008853375911712646,-0.010913163423538208,-0.003754734992980957,-0.358314088323011,-1.4386632837240698,1.8088578685299017,-0.9283261895179749,0.3506959080696106,-0.12338145077228546,-0.06890281289815903,0.039850205183029175,-0.013906324282288551
7.845057010650635,-5.7756900787353516e-05,0.006301581859588623,-0.014199867844581604,-0.35818073168567505,-1.4384650109640442,1.807780710153813,-0.9283481240272522,0.35057100653648376,-0.12357168644666672,-0.027118125930428505,0.015394395217299461,-0.015284145250916481
7.863056182861328,0.009059906005859375,0.006639599800109863,-0.010223627090454102,-0.3581945128608679,-1.4385696972171613,1.8073594823335413,-0.9283561706542969,0.35058391094207764,-0.12347385287284851,-0.01681653782725334,-0.008820663206279278,-0.005136796738952398
7.885193109512329,-0.001791834831237793,0.001037508249282837,-0.0029030442237854004,-0.35803389276854464,-1.4387131144228167,1.8068446511247438,-0.9284297227859497,0.35043346881866455,-0.12334812432527542,-0.034110307693481445,0.012516583316028118,-0.009622891433537006
7.901401042938232,-0.003826439380645752,0.002196282148361206,-0.0016057491302490234,-0.3577578743736015,-1.4385129147702107,1.806407199878111,-0.9285008907318115,0.3501749634742737,-0.12354674935340881,-0.009248459711670876,0.014089357107877731,-0.0022283762227743864
7.923830032348633,0.004017353057861328,0.016491025686264038,-0.0009257346391677856,-0.35761421579413677,-1.4383628260770616,1.8061806677460794,-0.9285322427749634,0.35004037618637085,-0.12369275838136673,0.0008892486803233624,-0.0002612634561955929,-0.016914714127779007
7.943029165267944,0.0044484734535217285,0.007146000862121582,-0.003421187400817871,-0.35749095934711195,-1.4380492115116497,1.806648031289502,-0.928536057472229,0.3499249219894409,-0.12398964166641235,0.028085488826036453,0.0018018875271081924,-0.0008769884007051587
7.962045192718506,0.0038670897483825684,0.009688615798950195,-0.000963747501373291,-0.3572037717051813,-1.4378490662486447,1.8073626498534157,-0.9286107420921326,0.3496558666229248,-0.12418879568576813,0.0429358072578907,-0.013516170904040337,-0.020525014027953148
7.980737209320068,0.0005820393562316895,0.002749204635620117,-0.0045962855219841,-0.3567116165270688,-1.4377924938590991,1.8082677789753185,-0.9287741780281067,0.34919473528862,-0.12426413595676422,0.04436169192194939,-0.008011062629520893,-0.012585395947098732
8.003517150878906,-0.0005223751068115234,-0.0010025501251220703,-0.0025606155395507812,-0.3564653470708578,-1.4375516434977895,1.808895291688233,-0.9288294315338135,0.34896397590637207,-0.12449925392866135,0.02444782480597496,0.0006485611665993929,-0.017246510833501816
8.024476051330566,0.0012474656105041504,0.003201395273208618,-0.006035789847373962,-0.356212802175484,-1.4374615613125565,1.809388083598706,-0.9289054870605469,0.348727285861969,-0.12459462136030197,0.03133045881986618,-0.011651337146759033,-0.014100911095738411
8.041727066040039,-0.002505660057067871,0.002638906240463257,-0.0059598833322525024,-0.35598272960616445,-1.4374405562684058,1.8101324635781935,-0.9289825558662415,0.34851163625717163,-0.1246248260140419,0.04092676192522049,-0.008095928467810154,-0.01018381118774414
8.06139326095581,-0.00547027587890625,0.0020109713077545166,-0.0025047212839126587,-0.35570843934695606,-1.4371350311832556,1.8109957334155065,-0.9290391206741333,0.348254531621933,-0.12492138147354126,0.034996166825294495,-0.0025568194687366486,-0.009520418010652065
8.080572128295898,4.202127456665039e-05,0.0012469589710235596,-0.0035477876663208008,-0.35548174632324153,-1.4369059154815094,1.8116588398826958,-0.9290886521339417,0.3480420410633087,-0.12514476478099823,0.03162066265940666,-0.0031030341051518917,-0.004929034039378166
8.100870132446289,0.0016790032386779785,0.00249674916267395,-0.006341919302940369,-0.35538555259764076,-1.436797659033303,1.8123095836591567,-0.929108202457428,0.34795185923576355,-0.12524980306625366,0.02932608313858509,-0.00932595320045948,-0.0010256177047267556
8.1215181350708,-0.0029279589653015137,0.00271761417388916,-0.0011526942253112793,-0.35532901011107604,-1.4366513708438406,1.8129635873305532,-0.9291093945503235,0.34789884090423584,-0.12538835406303406,0.029377508908510208,-0.0033941171132028103,-0.00029495375929400325
8.142350196838379,-0.0037194490432739258,0.001809924840927124,0.001992747187614441,-0.3551579412896015,-1.4361978054179496,1.813736006651488,-0.9291114807128906,0.34773844480514526,-0.12581776082515717,0.046910203993320465,0.012732566334307194,-0.007035266607999802
8.162264108657837,0.008564651012420654,0.00021028518676757812,-0.003737717866897583,-0.3549761255719933,-1.4357069094724701,1.8148567490322125,-0.9291120171546936,0.34756797552108765,-0.12628231942653656,0.05250566452741623,-0.009174419566988945,0.0014237890718504786
8.180267095565796,0.014288067817687988,-0.0024277865886688232,-0.0013687610626220703,-0.35497440651502443,-1.4358342194128362,1.8159429181875757,-0.9291288256645203,0.3475663661956787,-0.12616412341594696,0.047257065773010254,-0.034777604043483734,0.0049424972385168076
8.204514026641846,-0.006083071231842041,-0.005994856357574463,0.001375734806060791,-0.3549055420936798,-1.4360041279740974,1.8166908545784666,-0.9291739463806152,0.3475017845630646,-0.1260094791650772,0.022281557321548462,-0.004823169205337763,-0.008616364561021328
8.223042964935303,-0.015509545803070068,0.0018068253993988037,-0.0013020634651184082,-0.35454287980181476,-1.4357677245498337,1.8169953606758587,-0.9292688965797424,0.3471617102622986,-0.12624607980251312,0.022594861686229706,0.014935266226530075,-0.021179405972361565
8.243935108184814,0.0025617480278015137,0.01244443655014038,-0.00938040018081665,-0.3541337382618693,-1.4354176240369243,1.8176520012265633,-0.929365336894989,0.3467779755592346,-0.1265905797481537,0.04805418848991394,-0.011936383321881294,-0.012834775261580944
8.261876106262207,0.01221400499343872,0.013165533542633057,-0.01026153564453125,-0.3538041981812861,-1.4353151036665082,1.8191374445776674,-0.9294655919075012,0.34646886587142944,-0.12670129537582397,0.09157860279083252,-0.0317806638777256,-0.0009949724189937115
8.279928207397461,0.0074536800384521484,0.0075053870677948,-0.005133450031280518,-0.35351047764810056,-1.4352465423513814,1.8210970747655464,-0.9295575618743896,0.3461933434009552,-0.1267787516117096,0.0896725058555603,-0.02585575170814991,0.0007885810919106007
8.301991939544678,0.002812027931213379,-0.00034883618354797363,-0.004392087459564209,-0.3532296917192573,-1.4351854219888749,1.822895645195119,-0.9296461939811707,0.345929890871048,-0.1268487125635147,0.08075807988643646,-0.027239173650741577,0.000793951447121799
