timestamp,acceleration_x,acceleration_y,acceleration_z,attitude_pitch,attitude_roll,attitude_yaw,gravity_x,gravity_y,gravity_z,rotation_x,rotation_y,rotation_z
0.0,0.16083163022994995,0.34511420130729675,-0.17668598890304565,-0.12037104546395479,-1.5127619715311444,1.9906240120398053,-0.9910929203033447,0.12008057534694672,-0.05758209899067879,-0.2661641836166382,-0.22318154573440552,0.22090034186840057
0.020103931427001953,0.15359079837799072,0.29763099551200867,-0.19347357749938965,-0.12661152724847322,-1.5168179703116003,1.9841275002885959,-0.9905508160591125,0.1262735277414322,-0.05352029576897621,-0.3871673345565796,-0.13735905289649963,0.3350754678249359
0.040544986724853516,0.15922820568084717,0.2598613500595093,-0.2162693738937378,-0.1338177848036097,-1.5199575552710058,1.977546192658788,-0.9897794723510742,0.1334187537431717,-0.050362568348646164,-0.3049665093421936,-0.09834036976099014,0.3540538251399994
0.060486793518066406,0.17597150802612305,0.24301029741764069,-0.21957159042358398,-0.14149464103230142,-1.5228418031019693,1.973092887782192,-0.9888682961463928,0.14102298021316528,-0.04745709151029587,-0.13774466514587402,-0.1449298858642578,0.3687744140625
0.08048582077026367,0.16165536642074585,0.23903107643127441,-0.2207397222518921,-0.14810654965243436,-1.5252288855725615,1.9730607662330963,-0.9880257844924927,0.14756567776203156,-0.045052994042634964,0.14437635242938995,-0.09854356944561005,0.30191537737846375
0.10048294067382812,0.1495174765586853,0.23724372684955597,-0.2481505274772644,-0.15377301812212174,-1.5274213783534702,1.978788673183245,-0.9872708916664124,0.1531677097082138,-0.04284970089793205,0.3580101430416107,-0.214218407869339,0.2946344017982483
0.1204838752746582,0.16819292306900024,0.24082499742507935,-0.2068071961402893,-0.1592460747799643,-1.5302844198173853,1.9881430631837873,-0.986536979675293,0.15857386589050293,-0.03998837247490883,0.551246702671051,-0.21109558641910553,0.29214149713516235
0.14052295684814453,0.15844190120697021,0.2071509212255478,-0.22230184078216553,-0.1649338307433713,-1.5326688247954212,2.0009329349304923,-0.985712468624115,0.16418705880641937,-0.03760097548365593,0.669206976890564,-0.24735212326049805,0.3376818299293518
0.16063189506530762,0.13950109481811523,0.2015102654695511,-0.19878196716308594,-0.1723582784803275,-1.5362100588345708,2.015508458991311,-0.9845938682556152,0.17150616645812988,-0.03406701236963272,0.7498549818992615,-0.4083946943283081,0.46154049038887024
0.18049907684326172,0.017083823680877686,0.23187409341335297,-0.21045571565628052,-0.18136533717206327,-1.5449706305637818,2.032345886144637,-0.9832704067230225,0.1803726851940155,-0.025399290025234222,0.9051838517189026,-0.7479658126831055,0.4548404812812805
0.20050692558288574,-0.2695789337158203,0.3364031910896301,-0.23323428630828857,-0.18842198611999877,-1.5548308575544025,2.0537120401350197,-0.9821760058403015,0.18730904161930084,-0.01568223349750042,1.192581295967102,-0.4967266321182251,0.2769967019557953
0.22050905227661133,-0.4284583330154419,0.3443909287452698,-0.12654924392700195,-0.1924858397731183,-1.5522107305528483,2.0796108597386698,-0.9813621640205383,0.1912994086742401,-0.01824130117893219,1.276042103767395,0.24859973788261414,0.21617569029331207
0.24053382873535156,-0.21021151542663574,0.19987793266773224,0.044812921434640884,-0.19977909632095295,-1.5382860013704134,2.0997978644635444,-0.9795926213264465,0.19845283031463623,-0.03185809776186943,0.6087552905082703,0.6191070675849915,0.5807938575744629
0.259814977645874,-0.048910319805145264,0.08204025030136108,0.03915262594819069,-0.2145701222865089,-1.525555874098833,2.107492401755455,-0.9760682582855225,0.2129274308681488,-0.04418792203068733,0.22310549020767212,0.4745199680328369,0.8636831641197205
0.2804989814758301,-0.10287529230117798,0.11006224155426025,-0.06999069452285767,-0.23168077649561652,-1.5153460823849176,2.116679134623465,-0.9717859625816345,0.22961372137069702,-0.053941067308187485,0.6796234250068665,0.30773308873176575,0.8223361968994141
0.30054593086242676,-0.12300491333007812,0.21865780651569366,-0.16394013166427612,-0.2442903769281075,-1.5077257533818498,2.140217895652617,-0.9683801531791687,0.2418678253889084,-0.061157405376434326,1.5758455991744995,-0.1699083000421524,0.4980589747428894
0.32050609588623047,-0.014047622680664062,0.22043797373771667,-0.11216568946838379,-0.2506696214635487,-1.5062019385053271,2.182145600410244,-0.9667263627052307,0.2480527013540268,-0.06253208965063095,2.3702893257141113,-0.7167218327522278,0.41590628027915955
0.34050703048706055,-0.042991816997528076,0.1413334310054779,0.01164257526397705,-0.25478594311179964,-1.507540934177075,2.2385924961022705,-0.9657820463180542,0.25203827023506165,-0.06117253005504608,2.9865732192993164,-0.7183803915977478,0.31924617290496826
0.36055803298950195,-0.15794599056243896,0.10746124386787415,0.1220928505063057,-0.25653412564163935,-1.5023349443004894,2.2999614233340084,-0.965009331703186,0.2537296414375305,-0.06616928428411484,2.861658811569214,-0.26964011788368225,0.26099318265914917
0.38050079345703125,-0.14638453722000122,-0.0049180686473846436,0.1500369906425476,-0.25930982706453537,-1.4908339273842173,2.351395897549115,-0.9634787440299988,0.2564135193824768,-0.07720669358968735,2.0806334018707275,0.07795415073633194,0.37800201773643494
0.4004979133605957,-0.07698404788970947,-0.09228008985519409,0.1971759796142578,-0.26713806410618157,-1.4768600832374883,2.386534543413719,-0.9602780938148499,0.26397210359573364,-0.09047117829322815,1.2178975343704224,0.3836323022842407,0.7010716795921326
0.4205019474029541,-0.017756640911102295,-0.07957857847213745,0.22943925857543945,-0.28079434474102694,-1.4611660499319863,2.405097125234189,-0.95506751537323,0.277118980884552,-0.10512581467628479,0.49103718996047974,0.640188455581665,0.7841488718986511
0.4406270980834961,0.03606516122817993,-0.09476771950721741,0.1505381464958191,-0.2956344250723826,-1.4461589655563998,2.414136874441678,-0.9491969347000122,0.29134681820869446,-0.11892183870077133,0.2643936276435852,0.5462120771408081,0.8071352243423462
0.4604978561401367,0.12108665704727173,-0.11570179462432861,0.11232228577136993,-0.31212073882654945,-1.436802617042951,2.4200021499124085,-0.9431538581848145,0.3070775866508484,-0.12713849544525146,0.02761084958910942,0.20590251684188843,0.8850404024124146
0.4804959297180176,0.13880831003189087,-0.15150496363639832,0.14916282892227173,-0.32979923335288885,-1.4349600678223524,2.4184745146857676,-0.9373923540115356,0.323853075504303,-0.12812085449695587,-0.47594153881073,0.05512402206659317,0.8403717875480652
0.5005497932434082,0.09642893075942993,-0.2202966809272766,0.19209130108356476,-0.34881803356839564,-1.4389323152976872,2.402166193425503,-0.9316186904907227,0.3417872488498688,-0.1235639899969101,-1.2957595586776733,0.11277808994054794,0.8182485103607178
0.5204999446868896,0.051675498485565186,-0.2912493348121643,0.19849056005477905,-0.3685191780137773,-1.4452168037073785,2.372286803470068,-0.92551589012146,0.36023443937301636,-0.11684069037437439,-1.6605926752090454,0.299834281206131,0.753097653388977
0.5402698516845703,0.03133201599121094,-0.24818482995033264,0.17986762523651123,-0.3866041719062127,-1.4504914457080984,2.3377321605681254,-0.9195004105567932,0.3770453929901123,-0.11115717887878418,-1.73342764377594,0.4421039819717407,0.635604202747345
0.5604968070983887,0.01615351438522339,-0.20337551832199097,0.1508679836988449,-0.4012677907869857,-1.4542013188815766,2.302852427484524,-0.9143165349960327,0.3905857503414154,-0.10709045827388763,-1.5276788473129272,0.48551321029663086,0.423806369304657
0.5806159973144531,0.030339360237121582,-0.18942278623580933,0.11765605211257935,-0.4115271379525338,-1.4553019071009925,2.2770953464237245,-0.9104052782058716,0.400009423494339,-0.10561675578355789,-0.9547534584999084,0.3858012557029724,0.3214874565601349
0.6006159782409668,0.06124216318130493,-0.1335505247116089,0.1279592663049698,-0.41753444924024974,-1.455847976465525,2.2613894698649677,-0.9080591201782227,0.4055079519748688,-0.10484206676483154,-0.5646916627883911,0.18718644976615906,0.09354041516780853
0.6205649375915527,0.06691014766693115,-0.15753188729286194,0.11694830656051636,-0.4186973873209532,-1.4579335390669863,2.253600588509628,-0.9078068137168884,0.406570702791214,-0.1028948724269867,-0.17496415972709656,-0.06929886341094971,-0.022840088233351707
0.6404979228973389,0.05419051647186279,-0.18896088004112244,0.12179148197174072,-0.41780785427135114,-1.461683983088325,2.252019422145208,-0.9085454344749451,0.4057578444480896,-0.09952881187200546,0.025551121681928635,-0.2484707534313202,-0.10894043743610382
0.6605820655822754,-0.01849043369293213,-0.16206321120262146,0.1300569772720337,-0.41407517286118545,-1.4667810298926574,2.2552071364218422,-0.9105409383773804,0.40234342217445374,-0.09505323320627213,0.329468697309494,-0.36820265650749207,-0.215081587433815
0.6804969310760498,-0.10974448919296265,-0.1086638867855072,0.13852053880691528,-0.407923540048846,-1.4709259078741244,2.2644840926754592,-0.9133725166320801,0.3967041075229645,-0.09152338653802872,0.5562711954116821,-0.4071192443370819,-0.3478638827800751
0.7005558013916016,-0.21521151065826416,-0.1090175211429596,0.16455429792404175,-0.3986694363594156,-1.4734979098254661,2.2757331922694424,-0.9172196984291077,0.38819247484207153,-0.0895267203450203,0.48409590125083923,-0.2640624940395355,-0.4444677233695984
0.7205181121826172,-0.23581629991531372,-0.16604682803153992,0.20009398460388184,-0.38869746891216567,-1.4733524933300635,2.2827444709090305,-0.9210137128829956,0.37898337841033936,-0.09003224968910217,0.26996251940727234,0.034248657524585724,-0.47628554701805115
0.7406578063964844,-0.17029666900634766,-0.13074460625648499,0.15951865911483765,-0.37961947542468333,-1.4698662842721022,2.2857285278881005,-0.9240788817405701,0.37056705355644226,-0.09358531981706619,0.10060564428567886,0.00952955149114132,-0.44070154428482056
0.7605829238891602,-0.14142102003097534,-0.006359279155731201,0.07033312320709229,-0.36949168183741277,-1.4746565643563778,2.2866108131286067,-0.9282048344612122,0.36114147305488586,-0.08951334655284882,0.031919363886117935,-0.5092570185661316,-0.4878981411457062
0.7807879447937012,-0.25525152683258057,0.04338076710700989,0.1154760792851448,-0.3621751785934181,-1.4882375383822057,2.281616705562738,-0.9319432973861694,0.3543091416358948,-0.07711539417505264,-0.43073055148124695,-0.48384377360343933,-0.3250826597213745
0.8005049228668213,-0.4385311007499695,-0.05355006456375122,0.19583618640899658,-0.3568522357927524,-1.4929694871595367,2.26555487925604,-0.934164822101593,0.3493265211582184,-0.07285024225711823,-1.0506824254989624,0.5993521213531494,-0.3359943628311157
0.8208808898925781,-0.23114478588104248,-0.10160192847251892,0.16973066329956055,-0.3538921084699941,-1.4861490806672453,2.2370363117701046,-0.9346725344657898,0.3465513288974762,-0.079306960105896,-1.5472368001937866,0.8592836260795593,-0.1299125701189041
0.8407230377197266,0.04863238334655762,-0.04839465022087097,0.0178179070353508,-0.35703360481978236,-1.48593164470202,2.2046124491718917,-0.9335660338401794,0.349496454000473,-0.07941753417253494,-1.3980333805084229,0.2543809413909912,0.1401926875114441
0.8605518341064453,0.06218928098678589,0.046771079301834106,-0.1172260046005249,-0.3621068418011178,-1.493598366983668,2.182139720158963,-0.9323675632476807,0.35424524545669556,-0.07212019711732864,-0.7037336826324463,-0.1629893034696579,0.15408314764499664
0.8806071281433105,-0.010793983936309814,0.04302865266799927,-0.11504357308149338,-0.3645434528714468,-1.5008300936559251,2.174223065177395,-0.9320008158683777,0.356522798538208,-0.06531519442796707,-0.09905967861413956,-0.21124348044395447,0.0373983196914196
0.9092540740966797,-0.002349674701690674,-0.13533324003219604,0.02169019728899002,-0.3631739473446605,-1.5033375346404163,2.177165894438202,-0.9326478838920593,0.35524293780326843,-0.06301090866327286,0.03381238132715225,0.07062113285064697,-0.12978513538837433
0.9196889400482178,-0.002349674701690674,-0.13533324003219604,0.02169019728899002,-0.3631739473446605,-1.5033375346404163,2.177165894438202,-0.9326478838920593,0.35524293780326843,-0.06301090866327286,0.03381238132715225,0.07062113285064697,-0.12978513538837433
0.9404819011688232,-0.0040847063064575195,-0.1227295994758606,0.03009503334760666,-0.3592757120294176,-1.5007768348990715,2.173728065152626,-0.9338579177856445,0.35159629583358765,-0.0654953271150589,-0.3662416934967041,0.27713409066200256,-0.28135982155799866
0.96822190284729,0.10302835702896118,-0.07865911722183228,0.014395304024219513,-0.3459884471202129,-1.5000278611706162,2.1374745134753774,-0.9383859634399414,0.33912670612335205,-0.06651921570301056,-1.2949974536895752,0.3173840343952179,-0.439592182636261
0.9888010025024414,0.1693359613418579,-0.07074961066246033,0.03044300526380539,-0.33953460048051687,-1.5032454010451801,2.107764926217916,-0.9407594799995422,0.3330482840538025,-0.06364601105451584,-1.3965306282043457,0.3545188903808594,-0.40780067443847656
1.0089659690856934,0.1907474398612976,0.059994518756866455,0.0027431845664978027,-0.3330131928218049,-1.5060585299739786,2.0791790680521913,-0.9430820941925049,0.3268921673297882,-0.06113848835229874,-1.2292125225067139,0.3073664903640747,-0.43017834424972534
1.0288679599761963,0.20397651195526123,0.12817522883415222,-0.06319570541381836,-0.3262351406758188,-1.510039937206061,2.0550861694331783,-0.9455079436302185,0.32047903537750244,-0.0575164370238781,-1.0232385396957397,0.0373639352619648,-0.38163918256759644
1.0477149486541748,0.2019558548927307,0.11131483316421509,-0.07696027308702469,-0.3204733701761736,-1.5197716703005815,2.0314690744525565,-0.9478514194488525,0.31501585245132446,-0.048405807465314865,-1.217564344406128,-0.21529902517795563,-0.34559667110443115
1.0686697959899902,0.14450544118881226,0.09382268786430359,-0.07637983560562134,-0.3151461991743902,-1.5331623222309316,2.0033350090934987,-0.950078010559082,0.3099554777145386,-0.03577212989330292,-1.4511064291000366,-0.21175125241279602,-0.3129250407218933
1.0886940956115723,0.08895272016525269,0.1548405885696411,-0.09462940692901611,-0.30894352796150204,-1.5450962848895866,1.9733747611694374,-0.952340841293335,0.30405235290527344,-0.024480588734149933,-1.2817111015319824,-0.08872111886739731,-0.41366398334503174
1.110680103302002,0.100136399269104,0.2382182776927948,-0.15010297298431396,-0.30106903463551743,-1.552343814586947,1.9518041156345804,-0.9548575282096863,0.29654133319854736,-0.017621520906686783,-0.7729821801185608,0.00526707386597991,-0.3873721957206726
1.1286909580230713,0.15658897161483765,0.2545444369316101,-0.2171195149421692,-0.2945415370414479,-1.5563995131117072,1.939261608629359,-0.9568361639976501,0.2903011739253998,-0.013776343315839767,-0.4790142774581909,-0.08462312817573547,-0.3057960569858551
1.148451805114746,0.1655535101890564,0.25650590658187866,-0.2529680132865906,-0.28833591913420514,-1.5612549464527532,1.9316245914029921,-0.9586749076843262,0.2843572199344635,-0.009147359058260918,-0.19976815581321716,-0.14889639616012573,-0.32774749398231506
1.1685118675231934,0.1513727307319641,0.25374019145965576,-0.2973911166191101,-0.28183657237250337,-1.5651701435236733,1.93099275819374,-0.9605311155319214,0.278120219707489,-0.005404181312769651,0.13047939538955688,-0.23651449382305145,-0.31029433012008667
1.1862430572509766,0.1498204469680786,0.2521341145038605,-0.3105182647705078,-0.27666578670462494,-1.568736382993469,1.9371810844292978,-0.9619695544242859,0.2731497585773468,-0.0019816060084849596,0.4652453064918518,-0.2952559292316437,-0.2001456618309021
1.2080860137939453,0.0885472297668457,0.2876500189304352,-0.3540729284286499,-0.2734382342887019,-1.5731976751154804,1.9492799209689593,-0.9628452658653259,0.2700435221195221,0.0023121312260627747,0.7135392427444458,-0.45468828082084656,-0.13355351984500885
1.2296979427337646,-0.03410923480987549,0.3168620467185974,-0.3699406385421753,-0.2711341332880853,-1.576979873617791,1.9667175937716412,-0.9634494185447693,0.26782432198524475,0.005957610439509153,0.9712379574775696,-0.34382131695747375,-0.09411419928073883
1.2456588745117188,-0.14294785261154175,0.29379335045814514,-0.34090209007263184,-0.2701179641520983,-1.5760112034605616,1.9868969097704865,-0.9637263417243958,0.26684513688087463,0.005025759804993868,0.8918225765228271,-0.07940076291561127,-0.024775581434369087
1.2685959339141846,-0.15932732820510864,0.23231041431427002,-0.23597228527069092,-0.2717862542122332,-1.5719635189587968,2.000549040018453,-0.9632923007011414,0.26845255494117737,0.0011243477929383516,0.36127766966819763,0.05957798287272453,0.20229479670524597
1.2881507873535156,-0.2588925361633301,0.20432302355766296,-0.21155297756195068,-0.27719471538622825,-1.5692629643662348,2.0024157276181205,-0.9618257284164429,0.27365854382514954,-0.0014748285757377744,-0.03601888567209244,0.22313176095485687,0.30143389105796814
1.3093838691711426,-0.4256511926651001,0.28159481287002563,-0.24941372871398926,-0.2832271496776737,-1.5603485382453977,2.0032408430304858,-0.9601063132286072,0.27945566177368164,-0.010031352750957012,0.08270829170942307,0.6146677732467651,0.2779911160469055
1.3276867866516113,-0.3331618905067444,0.3674648702144623,-0.2462235689163208,-0.28811616371103665,-1.5463569863910003,2.0053201166256507,-0.9584946632385254,0.2841465473175049,-0.023429641500115395,0.09242088347673416,0.6973558664321899,0.26831015944480896
1.351193904876709,-0.017089128494262695,0.20601916313171387,-0.0938495397567749,-0.2974473843479389,-1.5328437287547987,2.0058045192658134,-0.9553992748260498,0.2930806279182434,-0.03627730533480644,-0.09255779534578323,0.6020958423614502,0.6819120049476624
1.371377944946289,0.016511738300323486,0.1164110004901886,0.012319620698690414,-0.31435431390122276,-1.5222671240843104,2.0040620929852335,-0.9498767852783203,0.30920249223709106,-0.04613298550248146,-0.10860387235879898,0.5778093338012695,0.9343055486679077
1.385538101196289,-0.19527947902679443,0.14723187685012817,-0.058881282806396484,-0.3312508120406128,-1.5106510407415072,2.004280369497146,-0.9439265131950378,0.3252260982990265,-0.05684128776192665,0.21306851506233215,0.5588247179985046,0.7367016673088074
1.403350830078125,-0.1457241177558899,0.10284936428070068,-0.019771330058574677,-0.34475049919739104,-1.4978511713245888,2.015824831798003,-0.9386569857597351,0.337961882352829,-0.06859218329191208,0.7023614048957825,0.3066227436065674,0.7143008708953857
1.4228739738464355,-0.028805077075958252,0.062378138303756714,0.10840313881635666,-0.3571703011790337,-1.4881076654257097,2.032821799823087,-0.9336889982223511,0.34962451457977295,-0.07738193869590759,0.8036118745803833,0.14187783002853394,0.6486812829971313
1.4424400329589844,-0.013737201690673828,-0.011067003011703491,0.14749085903167725,-0.3678645139658763,-1.47753257645271,2.0526947777376128,-0.929042398929596,0.35962364077568054,-0.086898073554039,0.986332356929779,0.23101657629013062,0.5736579895019531
1.4629039764404297,0.01594221591949463,0.011480569839477539,0.11996787786483765,-0.3762724938212662,-1.4627588309372885,2.078522017915652,-0.9246184229850769,0.3674562871456146,-0.10028393566608429,1.3212718963623047,0.25167322158813477,0.5132167339324951
1.4824938774108887,0.0830036997795105,-0.009014248847961426,0.07161635160446167,-0.383932064772062,-1.448589090609731,2.110402724339434,-0.9202840328216553,0.3745691478252411,-0.11302860826253891,1.4825764894485474,-0.0005872641922906041,0.6405684947967529
1.5029189586639404,0.15803760290145874,-0.10626879334449768,0.17752891778945923,-0.3959366718792596,-1.43770862635727,2.141936658917,-0.9144768714904785,0.38567256927490234,-0.12242931872606277,1.1872831583023071,-0.02955562062561512,0.91109299659729
1.5222249031066895,0.14712566137313843,-0.10835784673690796,0.262104332447052,-0.41248170463753897,-1.4276136275427551,2.1651834151381735,-0.9067538976669312,0.40088412165641785,-0.13072605431079865,0.7480915784835815,0.11097459495067596,1.0032216310501099
1.546341896057129,0.11741608381271362,-0.08035585284233093,0.22067338228225708,-0.4309598263364612,-1.4167876315649415,2.1835872680734,-0.8978115916252136,0.417743057012558,-0.13937446475028992,0.6675055623054504,0.1695438027381897,1.0879642963409424
1.5643129348754883,0.15175145864486694,-0.16220179200172424,0.20691204071044922,-0.45118931759956743,-1.4071894142118944,2.2009873858642006,-0.8879117965698242,0.4360361397266388,-0.14657868444919586,0.575624942779541,0.03840283304452896,1.1325812339782715
1.5835790634155273,0.14556360244750977,-0.1909448802471161,0.21735471487045288,-0.47103426635816403,-1.3992245087671749,2.2186466081820524,-0.8780159950256348,0.45380815863609314,-0.1521385759115219,0.6594909429550171,-0.01676463708281517,1.0891146659851074
1.6077628135681152,0.10886996984481812,-0.1638634204864502,0.23470158874988556,-0.4900868054247521,-1.3894678188058034,2.23767126501847,-0.8678268194198608,0.47070246934890747,-0.15910941362380981,0.6660993695259094,0.07195067405700684,1.0152055025100708
1.6272377967834473,0.09438586235046387,-0.22517216205596924,0.25586479902267456,-0.5052978618640017,-1.37837984830923,2.2569782319958485,-0.8588817119598389,0.4840680956840515,-0.1673332303762436,0.6280490159988403,0.09785107523202896,0.772476077079773
1.6469130516052246,0.07771188020706177,-0.27945348620414734,0.23836608231067657,-0.515780475466535,-1.369304262741713,2.271921338556086,-0.8523090481758118,0.493213951587677,-0.17409595847129822,0.4651659429073334,0.07986132800579071,0.5167965292930603
1.6669719219207764,0.04468053579330444,-0.24885836243629456,0.19981259107589722,-0.5214714544038327,-1.3631871848236568,2.2829178451018137,-0.8484678268432617,0.4981565475463867,-0.17872485518455505,0.38641634583473206,-0.020120130851864815,0.2530708611011505
1.686161994934082,0.03831547498703003,-0.19473615288734436,0.21520651876926422,-0.5234795831667535,-1.3599741446896683,2.2921841604402498,-0.8469091653823853,0.499896764755249,-0.18124036490917206,0.3369775414466858,-0.10822451114654541,0.12344058603048325
1.7057149410247803,0.008838355541229248,-0.2336367964744568,0.2430230975151062,-0.5247907196929624,-1.3583152837991115,2.298109317967242,-0.845966100692749,0.5010318756103516,-0.18250668048858643,0.07691653072834015,-0.02469348907470703,0.11579745262861252
1.726619005203247,-0.02811974287033081,-0.24063360691070557,0.26742279529571533,-0.5266703021581498,-1.361039363813541,2.29439345050304,-0.845537543296814,0.5026576519012451,-0.18000511825084686,-0.3855893909931183,-0.07204999774694443,-0.015660149976611137
1.7459688186645508,-0.10743492841720581,-0.17999285459518433,0.2186533361673355,-0.5274796538004342,-1.3680322521154964,2.2832013076549975,-0.8463766574859619,0.5033571720123291,-0.17400600016117096,-0.5601629614830017,-0.06825241446495056,-0.10526197403669357
1.7666749954223633,-0.21079182624816895,-0.11817419528961182,0.19039137661457062,-0.5262201860373164,-1.3759621461905973,2.26901958151473,-0.848351240158081,0.5022684931755066,-0.16741153597831726,-0.6044571995735168,0.03961723670363426,-0.25831297039985657
1.786336898803711,-0.2757965922355652,-0.08339661359786987,0.1959713250398636,-0.5228322166495832,-1.3812879927263777,2.251566264486591,-0.8508971333503723,0.49933600425720215,-0.16321061551570892,-0.8260010480880737,0.289254754781723,-0.37990084290504456
1.8078639507293701,-0.21817362308502197,-0.09262728691101074,0.17338241636753082,-0.5171344288731516,-1.3864035395096126,2.230450364145106,-0.8545039892196655,0.4943912923336029,-0.15937475860118866,-0.8197025060653687,0.14437159895896912,-0.5245920419692993
1.826857089996338,-0.21288007497787476,0.0032594799995422363,0.0642780065536499,-0.5075227232375304,-1.3976324576689958,2.2121899195990076,-0.860880970954895,0.4860137104988098,-0.15058159828186035,-0.5502094626426697,-0.3697526156902313,-0.7297852039337158
1.8461439609527588,-0.4168444275856018,0.13365861773490906,-0.026009246706962585,-0.4912735106407461,-1.4106349037432047,2.1988453634768756,-0.8704480528831482,0.4717491567134857,-0.14061661064624786,-0.33392781019210815,-0.11637404561042786,-1.0547380447387695
1.8663849830627441,-0.45499980449676514,0.08283436298370361,0.0036132484674453735,-0.4712842734838911,-1.4109361867539256,2.1835362064291655,-0.8796254396438599,0.45403093099594116,-0.14182725548744202,-0.8674317002296448,0.7531911730766296,-1.0594068765640259
1.8864109516143799,-0.022473633289337158,-0.06997737288475037,0.04616190493106842,-0.45789727743763586,-1.4071287890723523,2.1526895946542854,-0.8849970102310181,0.44206297397613525,-0.14615261554718018,-1.5190659761428833,0.8238657116889954,-0.7049224376678467
1.9063529968261719,0.2850550413131714,-0.07777059078216553,-0.06005352735519409,-0.4520833155749021,-1.414040071613546,2.1190414249429805,-0.8885096907615662,0.4368405044078827,-0.14043159782886505,-1.223170280456543,-0.1203666552901268,-0.3730200529098511
1.9260778427124023,0.19977253675460815,0.16849815845489502,-0.22525036334991455,-0.44851622838622096,-1.4314219471717013,2.102484698762957,-0.8923537731170654,0.43362900614738464,-0.1251828819513321,-0.11468164622783661,-0.7630794048309326,-0.2726901173591614
1.9460389614105225,-0.10752654075622559,0.29932931065559387,-0.2944980263710022,-0.4395411392277399,-1.441313067169248,2.110494950434982,-0.8973714709281921,0.4255242645740509,-0.11684833467006683,0.8461012244224548,-0.447311669588089,-0.5234297513961792
1.9662749767303467,-0.14964425563812256,0.07685801386833191,-0.15730702877044678,-0.4276845202555129,-1.438745699949699,2.1279826947023115,-0.9020067453384399,0.41476500034332275,-0.11980774253606796,0.6164596676826477,-0.0805106833577156,-0.40719759464263916
1.9858298301696777,-0.010052144527435303,-0.09568601846694946,0.008656509220600128,-0.42138568404646587,-1.4373253063812272,2.129379554271341,-0.9044070839881897,0.40902531147003174,-0.12143408507108688,-0.36643218994140625,0.13980554044246674,-0.2275320142507553
2.0058140754699707,0.04019606113433838,-0.13412514328956604,-0.02117002010345459,-0.4200508396545862,-1.43930571234711,2.1143398839642096,-0.9051863551139832,0.4078068733215332,-0.11971425265073776,-0.8518092632293701,0.28890347480773926,-0.11007007211446762
2.0256900787353516,0.08877843618392944,0.007052063941955566,-0.08384376019239426,-0.41912871407803814,-1.4391138541999164,2.097843751791503,-0.9055356383323669,0.4069647490978241,-0.1199372261762619,-0.5572481751441956,0.37604087591171265,-0.20600375533103943
2.045653820037842,0.19962328672409058,0.11697623133659363,-0.1374918818473816,-0.41493988618276995,-1.4357404802633476,2.0923336180093544,-0.9068071842193604,0.40313491225242615,-0.12321970611810684,0.18862468004226685,0.14238578081130981,-0.25004416704177856
2.065040111541748,0.3401663303375244,0.09030270576477051,-0.13757333159446716,-0.40866391595863705,-1.4326270812990194,2.1030068394716253,-0.9089074730873108,0.3973836302757263,-0.12638837099075317,0.8697299361228943,-0.2838209271430969,-0.2212921679019928
2.0855050086975098,0.3392403721809387,0.0003159642219543457,-0.07385236024856567,-0.4027579408573846,-1.4319073138531466,2.1253745562825825,-0.911124587059021,0.3919571042060852,-0.12736521661281586,1.0837849378585815,-0.473228394985199,-0.09335638582706451
2.1071548461914062,0.23616665601730347,-0.01227271556854248,-0.007697045803070068,-0.39823447546757157,-1.4325666472860392,2.145245142383917,-0.9129550457000732,0.38779157400131226,-0.12700745463371277,0.7788681983947754,-0.3194985091686249,-0.12205497175455093
2.125527858734131,0.20349007844924927,-0.08405724167823792,-0.02247905731201172,-0.39447087003954595,-1.4334322206517576,2.1559156877073486,-0.9145039319992065,0.3843197524547577,-0.1264161318540573,0.2826337516307831,-0.2416088581085205,-0.11113986372947693
2.1453769207000732,0.278392493724823,-0.09698852896690369,-0.005560517311096191,-0.39137329780925867,-1.4374450136044572,2.1603135726402254,-0.9161794185638428,0.38145822286605835,-0.12290310114622116,0.22699996829032898,-0.3288021683692932,-0.14818152785301208
2.165527820587158,0.3386569619178772,-0.029647022485733032,0.006281614303588867,-0.3879209433409344,-1.4416405418014677,2.1671359401937176,-0.9179874658584595,0.3782646656036377,-0.1192270815372467,0.4531964957714081,-0.37727871537208557,-0.11347373574972153
2.1851301193237305,0.34807759523391724,-0.04435575008392334,-0.023145556449890137,-0.38380275104482503,-1.4464119778401914,2.179123465508896,-0.9200838804244995,0.3744492530822754,-0.11503791809082031,0.672270655632019,-0.552828311920166,-0.17425547540187836
2.2031919956207275,0.348261296749115,-0.06184428930282593,0.002891838550567627,-0.3787251166826585,-1.4526817320212548,2.193123953913907,-0.922663152217865,0.3697362244129181,-0.10948962718248367,0.5857452154159546,-0.5518000721931458,-0.1636514812707901
2.2241458892822266,0.3466002941131592,-0.15646162629127502,0.03937411308288574,-0.37347279641147785,-1.460088582172407,2.202538973695417,-0.925366222858429,0.3648510277271271,-0.1028658002614975,0.5096787810325623,-0.5671516060829163,-0.25467538833618164
2.2450239658355713,0.3092252016067505,-0.12870973348617554,0.03147284686565399,-0.3676001865403248,-1.4671307694509912,2.214064027974701,-0.92818284034729,0.3593769669532776,-0.09656675904989243,0.5829372406005859,-0.5788686275482178,-0.23360301554203033
2.265197992324829,0.2729361057281494,-0.04247739911079407,0.04929875582456589,-0.3603124319858459,-1.4761327439926597,2.2271781388093146,-0.9315971732139587,0.3525666296482086,-0.08845269680023193,0.7339808344841003,-0.8021950125694275,-0.3614255487918854
2.2852630615234375,0.2137649655342102,-0.07602399587631226,0.11470622569322586,-0.3525865770015615,-1.4881165246348311,2.242132918607411,-0.9352768063545227,0.34532642364501953,-0.0775051862001419,0.6593800187110901,-0.9170421957969666,-0.2807638943195343
2.304827928543091,0.10566037893295288,-0.09834417700767517,0.1611136794090271,-0.345860020976115,-1.5051791432547341,2.250507387823318,-0.9387598037719727,0.33900588750839233,-0.06168733164668083,0.12602803111076355,-1.049174427986145,-0.35243409872055054
2.3250319957733154,-0.02765446901321411,-0.06614315509796143,0.16958153247833252,-0.3381450202638695,-1.5245250921626028,2.247472196935438,-0.9423620700836182,0.3317377269268036,-0.043635401874780655,-0.3585436940193176,-0.6816226840019226,-0.40301910042762756
2.3445639610290527,-0.017493605613708496,-0.13097956776618958,0.1294955015182495,-0.33042577590244554,-1.5365973192900229,2.238811250629155,-0.9453511834144592,0.32444581389427185,-0.032342683523893356,-0.20667245984077454,-0.32357510924339294,-0.38866814970970154
2.3648180961608887,0.15241432189941406,-0.06182408332824707,0.05111777409911156,-0.32306019464478986,-1.5441292910290307,2.237741789147394,-0.9479314684867859,0.31746992468833923,-0.02528451569378376,0.203375443816185,-0.5322121977806091,-0.36264994740486145
2.3846077919006348,0.20190858840942383,0.007409214973449707,-0.07181739807128906,-0.3159037255196653,-1.556085215021658,2.24951635490118,-0.9504132866859436,0.31067559123039246,-0.013982645235955715,0.8520065546035767,-0.8871707320213318,-0.2947964072227478
2.4046099185943604,0.11473345756530762,-0.016467005014419556,0.017168283462524414,-0.30983755987907585,-1.5681986503074712,2.2646886773490835,-0.9523799419403076,0.30490392446517944,-0.0024739806540310383,0.4102681279182434,-0.6465151906013489,-0.34674301743507385
2.4249839782714844,0.02263331413269043,-0.11269304156303406,0.1631864309310913,-0.3026243343402292,-1.5751670324311322,2.263525356206204,-0.9545484781265259,0.29802632331848145,0.004172076936811209,-0.49626415967941284,-0.12766382098197937,-0.2742094397544861
2.4451351165771484,0.10890763998031616,-0.21628183126449585,0.1862267255783081,-0.3008152877915827,-1.5801816953451675,2.248522951825791,-0.9550533294677734,0.2962989807128906,0.008963790722191334,-0.8264039754867554,0.046888820827007294,0.09177067875862122
2.464369773864746,0.177523672580719,-0.0826844573020935,0.21301674842834473,-0.30349349661310276,-1.5854391682425764,2.2328856706202274,-0.9541962146759033,0.29885587096214294,0.013973142020404339,-0.5584329962730408,-0.15559451282024384,0.1511748880147934
2.485987901687622,0.09820592403411865,-0.018708646297454834,0.14758551120758057,-0.30679346553197473,-1.5940528363416604,2.227763097328477,-0.9530490636825562,0.3020033836364746,0.022168591618537903,0.06429105997085571,-0.4670085608959198,0.18775996565818787
2.5046210289001465,-0.009635090827941895,-0.10030767321586609,0.17191946506500244,-0.30914208896879586,-1.6011248059594996,2.2326431001305282,-0.9521570801734924,0.30424150824546814,0.028886333107948303,0.36366018652915955,-0.36696162819862366,-0.011216775514185429
2.5243000984191895,-0.020857930183410645,-0.19312459230422974,0.15957534313201904,-0.30749021122335174,-1.6028384139265186,2.240924760852295,-0.9526070952415466,0.3026675283908844,0.030533969402313232,0.2906551659107208,-0.13351371884346008,-0.1639804095029831
2.5444929599761963,0.10027551651000977,-0.31346896290779114,0.12434625625610352,-0.30276902853583737,-1.60584226402688,2.2439021712563507,-0.9539284706115723,0.298164427280426,0.03344501182436943,-0.05175979435443878,-0.22182077169418335,-0.3094118535518646
2.563333034515381,0.1505107283592224,-0.30976366996765137,0.09957361221313477,-0.29561797396656914,-1.6120460962936545,2.243715440832219,-0.9558085799217224,0.29133108258247375,0.039449259638786316,0.1492883712053299,-0.315792441368103,-0.36569055914878845
2.583475112915039,0.09814780950546265,-0.11612322926521301,0.09609067440032959,-0.28864825015599294,-1.6132223405201065,2.250260455259064,-0.957767128944397,0.2846566438674927,0.04065863788127899,0.43102800846099854,-0.10832872986793518,-0.3863524794578552
2.6038408279418945,0.04035627841949463,-0.09886607527732849,0.0907125473022461,-0.2812393949032335,-1.6135192665430713,2.259773615724554,-0.9598357081413269,0.27754655480384827,0.04103197157382965,0.36928069591522217,-0.1674240082502365,-0.3544151484966278
2.623199939727783,0.03528404235839844,-0.21528920531272888,0.19293999671936035,-0.2762067385908512,-1.616067922220209,2.2641447815148865,-0.9611112475395203,0.27270814776420593,0.04354079067707062,0.03078259341418743,-0.18532045185565948,-0.17622029781341553
2.64385986328125,-0.09001582860946655,-0.17987394332885742,0.15037286281585693,-0.27287810732953555,-1.6187010884933515,2.2641001585061877,-0.9618945717811584,0.2695041596889496,0.046114612370729446,0.019914567470550537,-0.08365143835544586,-0.16629862785339355
2.6630687713623047,-0.14245879650115967,-0.12988364696502686,0.0977562665939331,-0.26962873331971915,-1.6206117999297283,2.265299886278977,-0.9626743197441101,0.2663736045360565,0.04799578711390495,0.06572765111923218,-0.1611897349357605,-0.17436599731445312
2.6836438179016113,-0.15087509155273438,-0.14823666214942932,0.1403357982635498,-0.2667926885245318,-1.6233211631245459,2.2677078983926475,-0.9632911086082458,0.2636389434337616,0.05064329132437706,0.12938055396080017,-0.08525918424129486,-0.08969901502132416
2.703368902206421,-0.24169540405273438,-0.17382749915122986,0.16082239151000977,-0.2658773270653683,-1.6232508537970387,2.269468996129796,-0.9635354280471802,0.2627558708190918,0.050588201731443405,0.059940092265605927,0.015156279318034649,-0.05378268286585808
2.7234268188476562,-0.2970004081726074,-0.1580069363117218,0.17864882946014404,-0.2644887547725461,-1.620235088151075,2.2729293820315055,-0.9640470147132874,0.26141583919525146,0.04770015925168991,0.2963343560695648,0.17625364661216736,-0.10754743218421936
2.7436769008636475,-0.2517486810684204,-0.16754525899887085,0.1692904233932495,-0.2617881505938369,-1.6156652256469937,2.280504575076455,-0.9649568200111389,0.2588081955909729,0.04332562908530235,0.3866979777812958,0.049932900816202164,-0.20868144929409027
2.7626869678497314,-0.17611944675445557,-0.23207074403762817,0.17185044288635254,-0.25725305916305,-1.6145092733312185,2.2899371026598327,-0.9661688208580017,0.25442495942115784,0.04226100817322731,0.5436263084411621,-0.19365747272968292,-0.25798162817955017
2.783458948135376,-0.19545608758926392,-0.1902400255203247,0.1212393045425415,-0.25201179940898555,-1.6165133624263666,2.305913098399391,-0.9674011468887329,0.24935270845890045,0.044257551431655884,1.0349758863449097,-0.36153534054756165,-0.37369605898857117
2.8024439811706543,-0.34387826919555664,-0.028434842824935913,0.08542513847351074,-0.24344855285143202,-1.6170144478123363,2.33208412728844,-0.9694762825965881,0.24105091392993927,0.04483930394053459,1.4197942018508911,-0.3578290343284607,-0.5947138071060181
2.8235409259796143,-0.43570417165756226,-0.07054403424263,0.14136981964111328,-0.23262494175011153,-1.6163217986693135,2.3622322344337037,-0.9720565676689148,0.23053255677223206,0.04428393393754959,1.377996802330017,-0.2505528926849365,-0.5741447806358337
2.843287944793701,-0.45598387718200684,-0.09988708794116974,0.22236716747283936,-0.22339906287225317,-1.6144193437844447,2.3869791027907485,-0.9742224216461182,0.2215454876422882,0.04252550005912781,1.0090208053588867,-0.13655760884284973,-0.4804382920265198
2.8634469509124756,-0.44882941246032715,-0.05378168821334839,0.20588302612304688,-0.21507345282392829,-1.6120920777076606,2.4054126002465273,-0.9761278033256531,0.21341918408870697,0.0403328575193882,0.7992351055145264,-0.10672417283058167,-0.4364131689071655
2.8821768760681152,-0.34584760665893555,-0.05224458873271942,0.12256360054016113,-0.2073840508213908,-1.611921301524246,2.4219781307756034,-0.9777455925941467,0.20590071380138397,0.040232446044683456,0.8411576151847839,-0.218576580286026,-0.4066212475299835
2.9022738933563232,-0.2555968165397644,-0.0424681156873703,0.08920872211456299,-0.2009996854193871,-1.6127077651168902,2.4389030333781623,-0.9790072441101074,0.19964899122714996,0.04105564206838608,0.6865595579147339,-0.21886056661605835,-0.2842453718185425
2.9224491119384766,-0.265259325504303,-0.042043671011924744,0.11079108715057373,-0.1963641903468188,-1.6138611211540586,2.4511104189784487,-0.9798732399940491,0.1951046884059906,0.04222414642572403,0.4934040904045105,-0.05171924829483032,-0.22952817380428314
2.9430670738220215,-0.33168327808380127,-0.005103319883346558,0.1318272352218628,-0.193223655901524,-1.6123773880699745,2.4573789706929423,-0.9805421233177185,0.19202354550361633,0.040795497596263885,0.12012287974357605,0.07586578279733658,-0.09898466616868973
2.9622011184692383,-0.3238164782524109,-0.005801081657409668,0.1462489366531372,-0.1922400146325707,-1.6095824542705526,2.456704223946017,-0.9808405637741089,0.19105812907218933,0.038062095642089844,-0.14934903383255005,0.2347041666507721,-0.017351219430565834
2.9817678928375244,-0.23994767665863037,-0.013643085956573486,0.10447323322296143,-0.19031176369243435,-1.6064860741376514,2.4537105614083075,-0.9813200831413269,0.18916504085063934,0.03503794223070145,0.03260631486773491,-0.22074644267559052,-0.3105889558792114
3.0019640922546387,-0.25058019161224365,-0.019865378737449646,0.12101507186889648,-0.1829168583886003,-1.6134853383059418,2.4591554901494215,-0.9824215173721313,0.18189853429794312,0.0419640988111496,0.5027335286140442,-0.2172139286994934,-0.24262700974941254
3.022665023803711,-0.1758365035057068,-0.05103680491447449,0.20378410816192627,-0.17781159959129514,-1.6136885207484033,2.4714143751750277,-0.9833279252052307,0.17687609791755676,0.04220297560095787,0.7974383234977722,0.03516620397567749,-0.4110148549079895
3.0427517890930176,-0.13499873876571655,0.06009320914745331,0.09168636798858643,-0.17020441550707335,-1.609469582698665,2.4950441906144447,-0.9848134517669678,0.16938380897045135,0.038104940205812454,1.5447944402694702,-0.09969715774059296,-0.3924696743488312
3.06276798248291,-0.08464318513870239,0.1129692792892456,0.1387706995010376,-0.16535596670151048,-1.6056495920788563,2.531752093751567,-0.9857609272003174,0.16460345685482025,0.03437090665102005,1.8264018297195435,-0.060326408594846725,-0.2161012589931488
3.0821449756622314,-0.23229777812957764,0.007032021880149841,0.13566577434539795,-0.1612532458539671,-1.598410461812719,2.5582774948140465,-0.9866505861282349,0.16055531799793243,0.027252430096268654,0.848699688911438,0.45429715514183044,-0.2515642046928406
3.103996992111206,-0.14695101976394653,-0.12573355436325073,-0.005175115540623665,-0.15720304122796008,-1.582540533710729,2.571593854704165,-0.9876008629798889,0.15655635297298431,0.011599122546613216,0.5965341329574585,0.781309962272644,-0.1973922699689865
3.1225459575653076,-0.056338489055633545,0.1086665689945221,-0.19630950689315796,-0.15364072779451288,-1.5682076307016173,2.580327695950943,-0.9882171154022217,0.15303698182106018,-0.002558199455961585,0.1957578957080841,0.44177699089050293,-0.14509113132953644
3.1423869132995605,-0.1851758360862732,-0.1160336285829544,-0.2135142683982849,-0.15292975985162083,-1.5599406157768625,2.580401724363618,-0.9882708787918091,0.15233434736728668,-0.010728804394602776,-0.43340450525283813,0.6450155377388,0.15455412864685059
3.1604537963867188,-0.47950029373168945,-0.08704052865505219,-0.18828225135803223,-0.15705188736512427,-1.5492939527328626,2.5766622294613386,-0.9874644875526428,0.15640705823898315,-0.021236103028059006,-0.20932886004447937,0.5952944755554199,0.5583484172821045
3.1821279525756836,-0.27833259105682373,0.21647410094738007,0.15762925148010254,-0.16422228228074376,-1.5446638325572681,2.563172873910369,-0.9862092137336731,0.16348512470722198,-0.025777975097298622,-0.3105476498603821,-0.3576967716217041,0.0939217060804367
3.202263832092285,-0.4018639326095581,0.26246199011802673,0.02793157286942005,-0.17554149470650726,-1.5546552482023503,2.553757308622169,-0.9845038652420044,0.17464134097099304,-0.015892334282398224,-0.4939963221549988,-0.6304446458816528,0.9050430655479431
3.222080945968628,-0.4299551248550415,-0.03770805895328522,0.0905754566192627,-0.19947452440740912,-1.571528831967919,2.5416114017419966,-0.9801706075668335,0.1981543004512787,0.0007179802050814033,-0.7510789036750793,-0.812934160232544,1.4876359701156616
3.241161823272705,-0.4887980818748474,0.2587527632713318,0.09481954574584961,-0.22759745926333852,-1.5923171215366074,2.525922590886553,-0.9739859104156494,0.22563759982585907,0.020964186638593674,-0.7064898610115051,-0.8959968090057373,1.257956624031067
3.2623720169067383,-0.5084906220436096,0.2273600548505783,0.01837575063109398,-0.25155734837428273,-1.6141940387570004,2.514566900305084,-0.9676139950752258,0.24891258776187897,0.04201861843466759,-0.33197858929634094,-0.9753614068031311,1.2876148223876953
3.2821969985961914,-0.41823911666870117,0.07759180665016174,0.10233699530363083,-0.2808527693582376,-1.634064853349722,2.5062680290028716,-0.958897054195404,0.27717509865760803,0.060749080032110214,-0.3934241831302643,-0.7884420156478882,1.6348289251327515
3.3017687797546387,-0.36110085248947144,0.00853961706161499,0.1563786268234253,-0.3126453446968353,-1.6517321765864708,2.4945338703702458,-0.9484086036682129,0.3075768053531647,0.07692830264568329,-0.4521958529949188,-0.6875254511833191,1.6120707988739014
3.3226699829101562,-0.2749468684196472,0.015009313821792603,0.13423776626586914,-0.3419582279832087,-1.6691481201025615,2.4827073430763664,-0.9375471472740173,0.33533257246017456,0.09250791370868683,-0.3827521502971649,-0.5608027577400208,1.3752624988555908
3.3409829139709473,-0.24398624897003174,0.018512874841690063,0.07063638418912888,-0.3685915212520931,-1.6852829146488904,2.472236780079099,-0.9267290234565735,0.3603019118309021,0.10656403750181198,-0.23331411182880402,-0.8025075793266296,1.333999752998352
3.3619418144226074,-0.19774270057678223,0.006578534841537476,0.034093014895915985,-0.3924733271732424,-1.7041104346240545,2.465679482184841,-0.9157674312591553,0.3824748396873474,0.1228131502866745,-0.09849243611097336,-0.7791260480880737,1.1889567375183105
3.380718946456909,-0.14819884300231934,0.014807432889938354,0.10065044462680817,-0.4154858843625801,-1.7153745916227308,2.4621252564372407,-0.9053748846054077,0.40363451838493347,0.1318172663450241,0.10689996182918549,-0.3240894377231598,1.1427652835845947
3.4014768600463867,-0.11509144306182861,-0.03581809997558594,0.0630626529455185,-0.4355355872662829,-1.7179856787291288,2.4549400199037454,-0.8968408703804016,0.4218960404396057,0.1329670548439026,-0.13053752481937408,-0.03092697262763977,1.032549500465393
3.4206159114837646,0.038459181785583496,-0.11154091358184814,0.03603005409240723,-0.45195052358144217,-1.725987068225387,2.445867450034751,-0.8887857794761658,0.4367210566997528,0.13904941082000732,-0.5741369724273682,-0.02638956718146801,0.8207319974899292
3.4414467811584473,0.13158506155014038,-0.12887248396873474,-0.0026759207248687744,-0.4665190745862002,-1.7346745795538605,2.4321071415461457,-0.8811729550361633,0.44978007674217224,0.14571183919906616,-0.5016084909439087,-0.15179063379764557,0.8124052286148071
3.4615530967712402,0.16373282670974731,-0.056250542402267456,-0.04310204088687897,-0.4789557259190786,-1.7429042280062896,2.4174214228417346,-0.8743650913238525,0.46085265278816223,0.15198880434036255,-0.45630666613578796,-0.07882419228553772,0.6219003796577454
3.481355905532837,0.2082318663597107,-0.036510318517684937,-0.15080499649047852,-0.48939151273908305,-1.7498386663182754,2.406853447306046,-0.8685102462768555,0.4700888991355896,0.15718327462673187,-0.3531264364719391,-0.11345628648996353,0.5708799958229065
3.5004711151123047,0.2450386881828308,-0.0530945360660553,-0.13855603337287903,-0.498296336702943,-1.7565071882900098,2.396948196114977,-0.8632941842079163,0.4779297411441803,0.1621919870376587,-0.3542260229587555,-0.058852702379226685,0.47942158579826355
3.5211780071258545,0.26163458824157715,-0.11763250827789307,-0.11211121082305908,-0.5066111062366115,-1.7613100205097194,2.3853702397445877,-0.8585737347602844,0.48521679639816284,0.16557815670967102,-0.5194666385650635,0.15847526490688324,0.5245211124420166
3.541278839111328,0.30621522665023804,-0.17424452304840088,-0.10317134857177734,-0.5158335415589053,-1.7630629950959167,2.3715698565907752,-0.8538532257080078,0.49326011538505554,0.1662207841873169,-0.44754523038864136,0.2873777747154236,0.6034972071647644
3.5604701042175293,0.3532007336616516,-0.1277676820755005,-0.10225868225097656,-0.5251392086422353,-1.760748423702105,2.36260176433673,-0.8496912121772766,0.501333475112915,0.1633702665567398,-0.07425767928361893,0.3750239312648773,0.4362632632255554
3.5809409618377686,0.37112027406692505,-0.09711521863937378,-0.1890842765569687,-0.5323877350338798,-1.752827401105201,2.3650652208001213,-0.8473624587059021,0.5075920820236206,0.15597285330295563,0.4095477759838104,0.25964999198913574,0.21443158388137817
3.601266860961914,0.41169387102127075,-0.14402472972869873,-0.1829916089773178,-0.5349267889858119,-1.7424139215816727,2.3796737118965656,-0.8476681709289551,0.5097780823707581,0.14691999554634094,0.7823761105537415,0.007676080800592899,-0.18899275362491608
3.6207327842712402,0.4615458846092224,-0.2678059935569763,-0.08699321746826172,-0.531845701067808,-1.734353832985364,2.3987506667218925,-0.8503703474998474,0.5071249604225159,0.14033809304237366,0.7618809342384338,-0.10179484635591507,-0.2723207175731659
3.6410229206085205,0.4781532883644104,-0.44762760400772095,0.019337400794029236,-0.5299839491892642,-1.7285572461123326,2.4115750658451054,-0.8521004319190979,0.5055195093154907,0.13555459678173065,0.32348713278770447,0.0031447121873497963,-0.14441268146038055
3.660499095916748,0.3570289611816406,-0.39458125829696655,-0.09425985813140869,-0.5253489807250662,-1.7251592853925597,2.4189686359497133,-0.8548622727394104,0.5015149712562561,0.13301725685596466,0.32496926188468933,-0.015492621809244156,-0.45007458329200745
3.6806349754333496,0.3068188428878784,-0.14524108171463013,-0.1211380809545517,-0.5162412108795702,-1.7188735754658604,2.4338625184941725,-0.860163688659668,0.49361467361450195,0.12830986082553864,0.8825576305389404,-0.122907854616642,-0.571270763874054
3.7010278701782227,0.2822835445404053,-0.1071685254573822,-0.08500492572784424,-0.5085182992704864,-1.7106366082299806,2.4601390541233155,-0.8649404644966125,0.4868835508823395,0.12174816429615021,1.1023045778274536,-0.322043240070343,-0.5252417922019958
3.723421096801758,0.21568316221237183,-0.15259647369384766,0.027785181999206543,-0.5005206199614359,-1.7093347862055717,2.4817042964549563,-0.8689272403717041,0.4798823595046997,0.12115594744682312,0.6299947500228882,-0.5972537398338318,-0.5401365756988525
3.7406458854675293,0.07074236869812012,-0.11527666449546814,0.0420699268579483,-0.49165821980946917,-1.7166202092963185,2.4931910207019556,-0.8721951246261597,0.4720883369445801,0.12809614837169647,0.3497505187988281,-0.6761895418167114,-0.4393368065357208
3.7604849338531494,-0.11597204208374023,0.0013014674186706543,0.04358850419521332,-0.48531534106650387,-1.7258873898174583,2.5026244209493127,-0.8739113807678223,0.466487318277359,0.13663309812545776,0.39137938618659973,-0.6525206565856934,-0.32855895161628723
3.7808680534362793,-0.3290773034095764,0.09986725449562073,0.06482946872711182,-0.47980981954401275,-1.7328045214091772,2.5112405112839022,-0.8754668235778809,0.46161046624183655,0.14308685064315796,0.26210421323776245,-0.43924185633659363,-0.34106478095054626
3.800534963607788,-0.3867254853248596,-0.011075049638748169,0.07888948917388916,-0.47490886437094065,-1.7358262034423255,2.515482450858327,-0.8772515654563904,0.45725739002227783,0.14610148966312408,0.004535716958343983,-0.040205247700214386,-0.12629026174545288
3.8206419944763184,-0.26820313930511475,-0.11815017461776733,0.09370897710323334,-0.4752395160808039,-1.736007477724295,2.512471164481531,-0.877075731754303,0.45755141973495483,0.1462356001138687,-0.3176229000091553,0.2678430378437042,0.23120296001434326
3.840472936630249,-0.2749180197715759,-0.1929236352443695,-0.08668436110019684,-0.4805383188728788,-1.733958347509253,2.506008943235639,-0.8749690651893616,0.4622565805912018,0.1440422087907791,-0.21726396679878235,0.22091326117515564,0.30222809314727783
3.860562801361084,-0.22014904022216797,-0.1503218710422516,-0.06777560710906982,-0.48422523352693364,-1.7354438731186927,2.498222422174126,-0.8730669617652893,0.46552279591560364,0.14506152272224426,-0.32073652744293213,-0.03637642040848732,0.22721543908119202
3.8808579444885254,-0.12849533557891846,-0.2802889943122864,0.011114135384559631,-0.4867013855668841,-1.7430313922327183,2.4872207411852085,-0.8708029389381409,0.4677128493785858,0.1514836847782135,-0.5604743361473083,-0.18973605334758759,0.19694560766220093
3.900620937347412,-0.176017165184021,-0.2853816747665405,0.04244126379489899,-0.48823417422148374,-1.7514027595138617,2.4745523485114638,-0.8687980771064758,0.4690670967102051,0.15863914787769318,-0.5208361744880676,-0.034414201974868774,0.17716123163700104
3.9204840660095215,-0.14665734767913818,-0.24863752722740173,0.050009384751319885,-0.49022105027502866,-1.7551843137804166,2.4630453351863975,-0.8672740459442139,0.47082090377807617,0.16175222396850586,-0.4320979416370392,0.19251659512519836,0.18911685049533844
3.9421639442443848,-0.08469045162200928,-0.22393843531608582,0.02651943266391754,-0.4915588010587836,-1.7531250013392843,2.4548212673728047,-0.8669851422309875,0.47200068831443787,0.1598515510559082,-0.268435001373291,0.39945557713508606,0.1052401140332222
3.9626030921936035,0.0038225650787353516,-0.24111336469650269,0.017561540007591248,-0.49239972134518395,-1.7487386379782588,2.4458997257757646,-0.8672869205474854,0.47274187207221985,0.1559767723083496,-0.4938068687915802,0.44635453820228577,0.116729237139225
3.9804799556732178,0.06795865297317505,-0.2598547041416168,0.022798046469688416,-0.4937721764081486,-1.7459636439807653,2.430479098266444,-0.8670766949653625,0.4739508330821991,0.15345624089241028,-0.9039058685302734,0.5464754104614258,0.2698385417461395
4.001361846923828,0.11455005407333374,-0.15964579582214355,0.026516780257225037,-0.4929181622509928,-1.7466263896381522,2.4076865204407127,-0.8673728704452515,0.47319868206977844,0.15410158038139343,-1.0022341012954712,0.5343800187110901,-0.03989199176430702
4.020561933517456,0.1657124161720276,-0.054914385080337524,0.024034738540649414,-0.4870439836150559,-1.7415599380370246,2.3915912675770947,-0.8708668351173401,0.4680156409740448,0.15017491579055786,-0.3846624791622162,0.7501021027565002,-0.20032092928886414
4.040482997894287,0.2597506642341614,-0.027795404195785522,-0.01151229441165924,-0.48324445423350676,-1.726451248644833,2.390333916392769,-0.8747866153717041,0.4646545648574829,0.13727529346942902,0.06963140517473221,0.7976832389831543,-0.13300420343875885
4.0616209506988525,0.30812549591064453,-0.017932802438735962,-0.06754840910434723,-0.4780413372834278,-1.7117326103447312,2.390792712599827,-0.8790940046310425,0.46004095673561096,0.12472313642501831,-0.18967904150485992,0.668360710144043,-0.42779338359832764
4.080950975418091,0.3370562195777893,-0.01573878526687622,-0.14109311997890472,-0.4637819507662928,-1.7025414011860902,2.388047947529144,-0.8866168856620789,0.44733375310897827,0.11748793721199036,-0.12352411448955536,0.32545432448387146,-0.9154430627822876
4.1006529331207275,0.3881734013557434,0.016099631786346436,-0.19598567485809326,-0.4433509221877704,-1.6983059625439423,2.392007490056207,-0.8959859609603882,0.4289688169956207,0.11487006396055222,0.23582525551319122,-0.018217211589217186,-1.145193099975586
4.120541095733643,0.375394344329834,0.04181310534477234,-0.21170879900455475,-0.42046375706671274,-1.697018411579016,2.405593101204631,-0.9056372046470642,0.40818387269973755,0.11492238193750381,0.6836270093917847,-0.43946003913879395,-1.2802361249923706
4.140564918518066,0.27308619022369385,0.03741985559463501,-0.18762148916721344,-0.395427625425647,-1.7005939203235565,2.42464685148529,-0.9150691032409668,0.3852028548717499,0.1194453090429306,0.6703264117240906,-0.609957754611969,-1.4163011312484741
4.160531044006348,0.13441890478134155,0.07194021344184875,-0.17571796476840973,-0.36819219400076236,-1.7062998003924896,2.441004068033942,-0.9244274497032166,0.3599293828010559,0.12603546679019928,0.46241170167922974,-0.5469619631767273,-1.5083638429641724
4.180861949920654,0.05308490991592407,0.16457244753837585,-0.11914084851741791,-0.33841714787618815,-1.709875352092679,2.4522105889704995,-0.9341733455657959,0.3319944441318512,0.13076815009117126,0.23047804832458496,-0.2252810150384903,-1.5730643272399902
4.200511932373047,0.04779231548309326,0.19148418307304382,-0.0313488245010376,-0.3089038452195373,-1.7075498936712796,2.4616706679132094,-0.9437732100486755,0.30401453375816345,0.12987498939037323,0.17432473599910736,0.2030484974384308,-1.4301259517669678
4.220530033111572,0.07605689764022827,0.19483602046966553,0.024682044982910156,-0.2829859864553683,-1.6994286305850406,2.4638581661093424,-0.9522929191589355,0.27922409772872925,0.12317574769258499,-0.38436320424079895,0.5049771070480347,-1.1712419986724854
4.240470886230469,0.055383265018463135,0.19046390056610107,-0.08465982228517532,-0.258859062812179,-1.6929302918415774,2.453454720180832,-0.9594817757606506,0.2559778094291687,0.11777148395776749,-0.7810841798782349,0.3329986035823822,-1.1212821006774902
4.26046085357666,0.1140851378440857,0.19629578292369843,-0.08959867060184479,-0.23708676103413265,-1.6928671906956712,2.438383803746247,-0.9647930860519409,0.23487187922000885,0.11836162954568863,-0.9626664519309998,0.041577763855457306,-0.8754249215126038
4.28056001663208,0.11380821466445923,0.17401155829429626,-0.016972079873085022,-0.21915707102416737,-1.6966478127235762,2.4221767491186115,-0.9683613777160645,0.21740692853927612,0.12251723557710648,-0.8172668814659119,0.01010177657008171,-0.6950106024742126
4.300480842590332,0.06644302606582642,0.21839691698551178,-0.016293659806251526,-0.20557929807670547,-1.6980304732304758,2.4113435594525248,-0.9710297584533691,0.20413430035114288,0.12421917915344238,-0.2519874572753906,0.11360198259353638,-0.5339325070381165
4.320512771606445,0.04067891836166382,0.2546287775039673,-0.07162392139434814,-0.19716190335432499,-1.6921205306016762,2.4173156765156407,-0.9734182357788086,0.1958870142698288,0.11868207901716232,0.6691835522651672,0.2719256579875946,-0.43346479535102844
4.340483903884888,0.05358600616455078,0.2714102864265442,-0.1417161077260971,-0.18793074699668771,-1.6851221863774815,2.4383183783515756,-0.9759799838066101,0.18682648241519928,0.11206843703985214,1.2426960468292236,0.026479952037334442,-0.7173759937286377
4.360509872436523,0.16126060485839844,0.1027492880821228,-0.06863785535097122,-0.17702835180178755,-1.6805821260111438,2.464532700665421,-0.9784450531005859,0.17610515654087067,0.10785303264856339,1.0379847288131714,-0.033342812210321426,-0.5862026214599609
4.380481004714966,0.2155247926712036,-0.05182172358036041,0.04492795467376709,-0.16714673944677344,-1.6756669711452756,2.4794455122634775,-0.9806463122367859,0.16636952757835388,0.10321968793869019,0.42182019352912903,0.25376254320144653,-0.6247118711471558
4.400481939315796,0.26053810119628906,-0.09263955056667328,-0.010596871376037598,-0.15654116029906573,-1.6691786861626294,2.487930260296575,-0.9829960465431213,0.15590259432792664,0.09702270478010178,0.3292974829673767,0.22157567739486694,-0.46105843782424927
4.420526027679443,0.3071451783180237,0.017982780933380127,-0.041771300137043,-0.14879498846227887,-1.6652330489767742,2.4972011273965995,-0.9845439195632935,0.14824654161930084,0.09325448423624039,0.5596522688865662,-0.0046279896050691605,-0.4458666145801544
4.440517902374268,0.2101176381111145,0.10755087435245514,-0.038977742195129395,-0.14073125283945417,-1.6651825458761957,2.5120127510367594,-0.9857066869735718,0.14026717841625214,0.09331439435482025,0.7882304787635803,-0.09972210228443146,-0.5127114653587341
4.460509777069092,0.06581628322601318,0.07335329055786133,-0.002406001091003418,-0.13157012402575768,-1.6638770069117703,2.531148752066905,-0.9870656728744507,0.13119085133075714,0.09214300662279129,1.0151821374893188,-0.0351196750998497,-0.5416054725646973
4.480480909347534,0.005501151084899902,-0.0001260414719581604,0.024624355137348175,-0.12213368046525162,-1.662831197987882,2.550454582784007,-0.9883504509925842,0.12183026969432831,0.09122040867805481,0.8419140577316284,-0.18794207274913788,-0.5989860892295837
4.5004799365997314,-0.03454774618148804,-0.01512736827135086,0.09374057501554489,-0.11336200597703394,-1.6652867509612588,2.569563834935351,-0.9891490936279297,0.11311936378479004,0.09374428540468216,0.9241780638694763,-0.1640358418226242,-0.41633230447769165
4.520479917526245,-0.13664013147354126,-0.049075014889240265,0.1563718318939209,-0.10919800853207093,-1.6646166837107628,2.5855641241558156,-0.9896721243858337,0.10898111760616302,0.09312479197978973,0.6070669889450073,0.08465297520160675,-0.21431636810302734
4.540528774261475,-0.21007758378982544,-0.07701820880174637,0.19616997241973877,-0.10584125132158186,-1.6589244116729438,2.594978445791292,-0.9905449748039246,0.10564374923706055,0.08752153068780899,0.25503629446029663,0.322292685508728,-0.17884883284568787
4.560512065887451,-0.17804646492004395,-0.048363104462623596,0.16165459156036377,-0.10209878372198009,-1.65374803879354,2.5987171065424652,-0.9913718700408936,0.10192149132490158,0.08242513984441757,0.23168575763702393,0.15328653156757355,-0.23993396759033203
4.580482006072998,-0.11990731954574585,0.0025495365262031555,0.1436382532119751,-0.09730496157843266,-1.6520577703487673,2.6080337664571562,-0.9919854402542114,0.09715148061513901,0.08078807592391968,0.7039710283279419,-0.09234096854925156,-0.29007282853126526
4.600515842437744,-0.14326608180999756,0.06651570647954941,0.14595186710357666,-0.09313431233518679,-1.6542454908559496,2.626086828918605,-0.992201566696167,0.09299972653388977,0.08299112319946289,1.004468321800232,-0.2344394326210022,-0.301256388425827
4.620479106903076,-0.24786311388015747,-0.013208918273448944,0.14819276332855225,-0.08914795570012074,-1.6559852631445688,2.6456247927932703,-0.9924169778823853,0.08902992308139801,0.08474805951118469,0.8111434578895569,-0.06186269596219063,-0.2202799767255783
4.640477895736694,-0.23298609256744385,-0.06451993435621262,0.17965315282344818,-0.08816322308585937,-1.6550278452564713,2.6574049707039062,-0.9925844669342041,0.08804905414581299,0.08380518853664398,0.3143652379512787,-0.0015509732766076922,0.0026879003271460533
4.660599946975708,-0.17741751670837402,-0.06815201044082642,0.1709500551223755,-0.08984885346600466,-1.6554766092908753,2.6609653597597562,-0.992397665977478,0.08972801268100739,0.0842379555106163,0.11013491451740265,-0.0931147113442421,0.1027994230389595
4.680492877960205,-0.18082493543624878,0.032875873148441315,0.10947179794311523,-0.09155013181715212,-1.6587202346208914,2.664838188332822,-0.991965651512146,0.09142229706048965,0.08744294196367264,0.3506316840648651,-0.2374451756477356,0.023659002035856247
4.700460910797119,-0.16720688343048096,0.0884789451956749,0.10166382044553757,-0.09260742478271043,-1.6625093771709092,2.6753569720914423,-0.9915302395820618,0.09247511625289917,0.0911920890212059,0.732899010181427,-0.25078442692756653,0.020679282024502754
4.720524787902832,-0.17285305261611938,0.07138323038816452,0.07655012607574463,-0.09567865757263336,-1.6658284948879607,2.6932846327260282,-0.9909348487854004,0.09553274512290955,0.09445520490407944,1.0760362148284912,-0.14461153745651245,0.07053546607494354
4.740480899810791,-0.25042831897735596,0.06720548868179321,-0.057119861245155334,-0.0999071036064997,-1.6671189510326385,2.721785127853628,-0.9904010891914368,0.09974098205566406,0.0956941694021225,1.5294904708862305,-0.3383117914199829,0.07563655823469162
4.7605109214782715,-0.3627108335494995,0.17067399621009827,0.027437202632427216,-0.09202918708175735,-1.6762169838183674,2.743597027545629,-0.990240216255188,0.0918993353843689,0.10478021949529648,0.7838966846466064,-0.41407153010368347,-0.7008320093154907
4.78049898147583,-0.30158859491348267,-0.3625040054321289,0.10650192201137543,-0.08782137267297599,-1.6760600897732973,2.754417342936948,-0.9906324148178101,0.08770852535963058,0.10466455668210983,0.0472046434879303,0.13926073908805847,0.1183260828256607
4.800477981567383,-0.16248810291290283,-0.3487086892127991,0.19262707233428955,-0.09333579802021892,-1.6710396083514207,2.7458569644226403,-0.9906491637229919,0.09320034086704254,0.0996399000287056,-0.6913924217224121,0.48569199442863464,0.46943992376327515
4.820517063140869,-0.3606491684913635,0.005783580243587494,-0.17072796821594238,-0.09825636990200566,-1.664383398098736,2.7404033091128834,-0.9908218383789062,0.09809834510087967,0.09299978613853455,0.3577258586883545,0.3068908452987671,0.04951394721865654
4.840487957000732,-0.33108222484588623,0.09862913191318512,-0.17693829536437988,-0.10168031369641799,-1.6612117967403166,2.7538860090492467,-0.990771472454071,0.10150519758462906,0.08982597291469574,0.8881075382232666,-0.2042343020439148,0.23709696531295776
4.860480785369873,-0.18147146701812744,0.018113546073436737,0.03193758428096771,-0.11286329939387675,-1.6656873325989463,2.7689510808587086,-0.9891675114631653,0.11262384057044983,0.09414584189653397,0.7256032824516296,-0.4183630049228668,0.9302167892456055
4.8805060386657715,-0.2784993052482605,0.17232376337051392,0.03149423748254776,-0.13741931934353682,-1.6798880013621142,2.777063009117762,-0.9846842288970947,0.13698722422122955,0.10784902423620224,-0.3835258483886719,-0.6982147097587585,0.9829961061477661
4.900479793548584,-0.5537897348403931,0.28412696719169617,0.13818907737731934,-0.15092415581911278,-1.6919835718423544,2.771274565412414,-0.9813818335533142,0.1503518521785736,0.11951661854982376,0.2810475826263428,-0.38402101397514343,0.8640647530555725
4.920507907867432,-0.4714108109474182,0.0824805349111557,0.24457871913909912,-0.17562309283242103,-1.6905701697750244,2.769187315929555,-0.9775638580322266,0.17472167313098907,0.11764970421791077,-0.15679819881916046,0.42773231863975525,1.2892844676971436
4.940508842468262,-0.49904853105545044,0.24322761595249176,0.20138312876224518,-0.19702482115936212,-1.6812647097073083,2.7673951967078825,-0.9746760129928589,0.1957525759935379,0.10811100900173187,0.3086000680923462,0.45712941884994507,1.0151983499526978
4.960483074188232,-0.46314603090286255,0.23894590139389038,-0.005536913871765137,-0.21988354178856973,-1.6745323848120988,2.776648880706454,-0.9706766605377197,0.21811597049236298,0.10105692595243454,0.7076802849769592,-0.003651408711448312,1.111905813217163
4.980477809906006,-0.38279157876968384,0.0799391120672226,0.08979199826717377,-0.24306496351179632,-1.6751744322677373,2.7821388200948736,-0.9653223752975464,0.24067862331867218,0.1011260375380516,0.01709144189953804,-0.06249901279807091,1.1898189783096313
5.000478982925415,-0.3618772625923157,-0.08989104628562927,0.10355638712644577,-0.26820490309407596,-1.676086777187802,2.773688859742645,-0.9589082598686218,0.26500093936920166,0.10133863985538483,-0.4741848111152649,0.16031408309936523,1.3781284093856812
5.02048397064209,-0.31326234340667725,-0.07670044898986816,0.06277584284543991,-0.29389533725658623,-1.6769313105570254,2.7570246110219316,-0.9517370462417603,0.2896827161312103,0.10139360278844833,-0.7757044434547424,0.19860582053661346,1.345260739326477
5.0406389236450195,-0.28391915559768677,-0.02786433696746826,0.03493167459964752,-0.31724750778651534,-1.6790564912315624,2.735978881831781,-0.9445356130599976,0.3119526207447052,0.10265695303678513,-0.9669213891029358,0.22920385003089905,1.1826978921890259
5.059628963470459,-0.25877314805984497,-0.019926220178604126,-0.053327083587646484,-0.33636839456778883,-1.6821721560988898,2.713784908188048,-0.9381110072135925,0.3300611972808838,0.10491707175970078,-0.9741321802139282,0.22247421741485596,0.9828883409500122
5.080477952957153,-0.12952786684036255,-0.07580697536468506,0.0029271841049194336,-0.35282687671643465,-1.684869430481878,2.688298617890059,-0.9323007464408875,0.3455519378185272,0.10681415349245071,-1.1713340282440186,0.366359680891037,0.9400156736373901
5.100493907928467,-0.07951593399047852,-0.10893014073371887,-0.005450606346130371,-0.3686913712578827,-1.6851299044229735,2.6619299972639627,-0.9267097115516663,0.36039504408836365,0.10641814768314362,-1.0594098567962646,0.48449021577835083,0.8971607089042664
5.120476961135864,-0.04488503932952881,-0.03154650330543518,-0.052047714591026306,-0.3824789212149266,-1.6844279950596177,2.641593211349048,-0.9217593669891357,0.37322142720222473,0.10519421100616455,-0.6684576869010925,0.36276280879974365,0.7145581245422363
5.140476942062378,0.023725032806396484,-0.012055128812789917,-0.042267926037311554,-0.39507041568654466,-1.6833720365971017,2.6274267134989513,-0.9171271324157715,0.3848731815814972,0.10368461906909943,-0.49803653359413147,0.26801732182502747,0.7042658925056458
5.160577774047852,0.040114641189575195,-0.04414007067680359,-0.0149998739361763,-0.408677839273503,-1.6828222772810197,2.615003653945999,-0.9118950963020325,0.39739638566970825,0.10258541256189346,-0.4595129191875458,0.3078273832798004,0.7844569683074951
5.180476903915405,0.0288122296333313,-0.05157938599586487,-0.028246521949768066,-0.4236012253150748,-1.6797627610118517,2.604956256666961,-0.9062078595161438,0.41104602813720703,0.09913893789052963,-0.3275945484638214,0.37614572048187256,0.7721176147460938
5.200484991073608,0.08318543434143066,-0.05009418725967407,0.006936304271221161,-0.43702716332623026,-1.6759375156397698,2.596524924403007,-0.9010107517242432,0.42324790358543396,0.09508397430181503,-0.2934192419052124,0.3784453570842743,0.6644196510314941
5.219994068145752,0.13648533821105957,-0.13913071155548096,0.02984892576932907,-0.4487493301286942,-1.6714079316852573,2.5891453962254274,-0.8964340686798096,0.43383902311325073,0.09049723297357559,-0.175645649433136,0.3501449227333069,0.5425814986228943
5.24047589302063,0.1768033504486084,-0.12582489848136902,0.028765201568603516,-0.4593442285956937,-1.664696347251282,2.58888887985397,-0.8923948407173157,0.44336041808128357,0.08404304832220078,0.2401568740606308,0.37931549549102783,0.5628166198730469
5.260479927062988,0.22376692295074463,-0.09785336256027222,0.046382538974285126,-0.47134508224452687,-1.654629526458218,2.5964757570106376,-0.8878293633460999,0.454085111618042,0.07460442930459976,0.49336597323417664,0.20684705674648285,0.5329253077507019
5.280476093292236,0.19618064165115356,-0.04723277688026428,0.007954239845275879,-0.47998784555437424,-1.6494198537971088,2.606711827249818,-0.8842604756355286,0.46176838874816895,0.06966729462146759,0.49043509364128113,-0.14370207488536835,0.24825893342494965
5.3005359172821045,0.21092242002487183,-0.04333186149597168,0.0008099004626274109,-0.4838338759003875,-1.6495129625555396,2.6177463273091317,-0.8824769854545593,0.46517640352249146,0.06960944831371307,0.4908936023712158,-0.3521222174167633,0.09717193245887756
5.3205060958862305,0.23235875368118286,-0.1237923800945282,0.009896047413349152,-0.48493856023755505,-1.6532709355508663,2.6274873439534936,-0.8816966414451599,0.466154009103775,0.07288291305303574,0.3939237892627716,-0.4648173451423645,-0.0668107122182846
5.340539932250977,0.17563635110855103,-0.07029682397842407,0.014653094112873077,-0.4828030409676513,-1.6574011494870147,2.6371971906968104,-0.8823778629302979,0.4642636477947235,0.07660980522632599,0.5128782391548157,-0.3331890106201172,-0.1644386351108551
5.360479831695557,0.10066401958465576,-0.021051675081253052,-0.05367612838745117,-0.48050735579190207,-1.6563647893219267,2.651867427429954,-0.883516252040863,0.4622291326522827,0.07578618824481964,0.7818300724029541,-0.30271026492118835,-0.21502408385276794
5.380475997924805,0.03896534442901611,0.07838970422744751,-0.12445318698883057,-0.4770176273889329,-1.6544245809236136,2.6708844610670783,-0.8852636218070984,0.45913177728652954,0.07420612126588821,0.8013693690299988,-0.375331312417984,-0.24902939796447754
5.400475978851318,-0.045404255390167236,0.002264559268951416,-0.13103340566158295,-0.47409889105393316,-1.654939549156034,2.684137868370559,-0.8865570425987244,0.4565369188785553,0.07477431744337082,0.31665462255477905,-0.31085121631622314,-0.19290678203105927
5.420540809631348,-0.15631186962127686,-0.050173550844192505,-0.14478933811187744,-0.4698258258287494,-1.657804612114455,2.689413793090054,-0.8882743120193481,0.4527309834957123,0.07748284935951233,0.14328482747077942,-0.18231818079948425,-0.21698589622974396
5.440475940704346,-0.1286221146583557,-0.04043063521385193,-0.13363754749298096,-0.46670498929657134,-1.6594192667411638,2.693709966235262,-0.8895511627197266,0.4499461054801941,0.07904168218374252,0.33724910020828247,-0.2663085162639618,-0.15975724160671234
5.460475921630859,-0.15681159496307373,-0.006255060434341431,-0.16733109951019287,-0.4637729307893483,-1.661003962452127,2.709457222252771,-0.890734851360321,0.4473256766796112,0.08056974411010742,1.06536865234375,-0.5476816892623901,-0.2737950086593628
5.480500936508179,-0.266323983669281,-0.008928447961807251,-0.0853111743927002,-0.4593454591239718,-1.6592281323978983,2.7375886869229458,-0.8928405046463013,0.4433615207672119,0.07916196435689926,1.2593713998794556,-0.4542374014854431,-0.3510948121547699
5.500476837158203,-0.300403892993927,-0.17562314867973328,0.02412176877260208,-0.45576533623774146,-1.6548282347809204,2.7613481486512788,-0.8947561979293823,0.4401496648788452,0.07536555081605911,0.8469292521476746,-0.1625201553106308,-0.18979427218437195
5.520485877990723,-0.2895064353942871,-0.20506960153579712,0.02732432633638382,-0.4540464055352844,-1.648337436938326,2.7788049259358707,-0.8959795236587524,0.43860554695129395,0.06961482763290405,0.7788881659507751,0.01841288059949875,-0.14414174854755402
5.540524005889893,-0.2843799591064453,-0.15415075421333313,-0.025279052555561066,-0.4519755545768545,-1.6365493162655373,2.8012627957650222,-0.8976420760154724,0.4367435574531555,0.059107858687639236,1.2208499908447266,0.2171790599822998,-0.2401869297027588
5.559507846832275,-0.24371016025543213,-0.18439826369285583,-0.03273380175232887,-0.44551127901537757,-1.615032689489913,2.834425518437968,-0.9015076756477356,0.4309193193912506,0.03990545496344566,1.7914347648620605,0.45946308970451355,-0.5798707604408264
5.580474853515625,-0.12861847877502441,-0.2770390510559082,0.005599260330200195,-0.43302365811943017,-1.584077740583824,2.8829977588243563,-0.9076212048530579,0.41961729526519775,0.012055201455950737,2.4775474071502686,0.5709437727928162,-0.7945753335952759
5.600475788116455,-0.07118374109268188,-0.4197932183742523,0.16027337312698364,-0.4130352776472343,-1.5492257325933234,2.9398532265015436,-0.9156937599182129,0.4013912081718445,-0.01975512132048607,2.5649232864379883,0.6097288727760315,-1.1862537860870361
5.620503902435303,-0.059895455837249756,-0.6845389604568481,0.5229678153991699,-0.38825056742002517,-1.5167260372364784,2.9719539469730423,-0.9242200255393982,0.3785697817802429,-0.05002159997820854,0.290374219417572,1.473327875137329,-1.1435115337371826
5.640497922897339,-0.044914960861206055,-0.8699146509170532,0.4741625189781189,-0.36042536745331094,-1.4942323345922288,2.9451078159971313,-0.933005690574646,0.3526723086833954,-0.07157455384731293,-2.567763328552246,1.6547874212265015,-1.851546287536621
5.660478115081787,0.09170711040496826,-0.5524234771728516,0.3430429697036743,-0.33027663118176787,-1.4881027798510182,2.8710334874470993,-0.9427202939987183,0.3243047297000885,-0.07813507318496704,-3.7206907272338867,1.433363676071167,-1.6085296869277954
5.680481910705566,0.028239309787750244,0.022909700870513916,0.3766094446182251,-0.30552125858533163,-1.4814393913564619,2.7893975827516817,-0.9498854875564575,0.30079033970832825,-0.08510549366474152,-3.764876365661621,1.8603661060333252,-1.7761707305908203
5.700479984283447,-0.16426390409469604,0.3629983961582184,0.1902061551809311,-0.26580735083481044,-1.4661950645747799,2.7121275386275396,-0.9596071243286133,0.2626883387565613,-0.10074380785226822,-3.164594888687134,1.781557321548462,-2.77681040763855
5.720475912094116,-0.004454076290130615,0.3072584867477417,0.16808074712753296,-0.2209165923913463,-1.4458873774876102,2.6431788055024352,-0.9680954217910767,0.21912403404712677,-0.12155662477016449,-3.1894125938415527,1.9877811670303345,-2.259044885635376
5.74049711227417,0.18965351581573486,0.17236259579658508,0.2506061792373657,-0.2025704584610723,-1.403073452286178,2.560103605407061,-0.9658071398735046,0.2011878937482834,-0.16352419555187225,-4.210198402404785,3.2580339908599854,-1.1468868255615234
5.760479927062988,0.13327157497406006,0.3169955015182495,0.05753737688064575,-0.18957010604044258,-1.3614018882303396,2.458339392189311,-0.9606336951255798,0.18843671679496765,-0.20414374768733978,-5.502833843231201,2.8249118328094482,-1.779797077178955
5.780473947525024,0.4122009873390198,0.34980207681655884,-0.1438865065574646,-0.17403975557879364,-1.346978141427824,2.346665402667725,-0.9603272676467896,0.17316247522830963,-0.21860119700431824,-4.776681423187256,0.47267207503318787,-2.161714792251587
5.800490856170654,0.5728350281715393,0.35086753964424133,0.02063019573688507,-0.15202144763596762,-1.3606709308596667,2.245431535585138,-0.9667254686355591,0.15143656730651855,-0.20617695152759552,-4.2961320877075195,-0.36106956005096436,-2.0113565921783447
5.82047700881958,0.41935133934020996,0.06179961562156677,0.1312272995710373,-0.1288336528055378,-1.3858606094592847,2.1569949662890218,-0.9748019576072693,0.128477543592453,-0.18235942721366882,-3.8982129096984863,-0.818432092666626,-2.0590460300445557
5.840497016906738,0.3712425231933594,0.11628709733486176,0.3449573516845703,-0.10385500743421426,-1.4103566064630153,2.0784113900549825,-0.9818382859230042,0.10366841405630112,-0.15889154374599457,-3.369400978088379,-0.6945275068283081,-1.6412453651428223
5.860477924346924,0.33696866035461426,0.24852824211120605,0.3290141820907593,-0.08681643350554445,-1.4269188425212531,2.0117306536972963,-0.9859402775764465,0.08670742064714432,-0.14284160733222961,-3.0360419750213623,-0.3103509843349457,-1.128175973892212
5.880486965179443,0.25780433416366577,0.3632003366947174,0.28841614723205566,-0.07175202302637797,-1.4348727693015653,1.9480246991711792,-0.988227367401123,0.07169046998023987,-0.1351567655801773,-3.1103408336639404,0.020985761657357216,-1.3394516706466675
5.900436878204346,0.19413971900939941,0.43932729959487915,0.15600191056728363,-0.0500124553402426,-1.438043193538854,1.8805121319704856,-0.9899620413780212,0.049991607666015625,-0.13219806551933289,-3.251453399658203,-0.0021947482600808144,-1.6988532543182373
5.920474052429199,0.2516644597053528,0.49446815252304077,0.03042285144329071,-0.022776316332272648,-1.443285165341411,1.8146261412742961,-0.9916243553161621,0.02277434803545475,-0.12713295221328735,-2.8630900382995605,-0.3532002568244934,-1.8064639568328857
5.9405529499053955,0.33068346977233887,0.5102298855781555,0.03327781707048416,0.0036380676651151253,-1.4535550298735558,1.7605437831923612,-0.9931285977363586,-0.003638059599325061,-0.11697211861610413,-2.0844438076019287,-0.5559405088424683,-1.4409782886505127
5.960475921630859,0.25207704305648804,0.5781670808792114,-0.04120612144470215,0.025694898131564864,-1.4634303499620729,1.7268043322465436,-0.9939136505126953,-0.02569206990301609,-0.1071244552731514,-1.0853346586227417,-0.46599844098091125,-1.2356129884719849
5.9804768562316895,0.1302194595336914,0.7154813408851624,-0.13991773128509521,0.0508303478114606,-1.471362754759552,1.7124674939177822,-0.9937754273414612,-0.050808463245630264,-0.09914159029722214,-0.041835684329271317,-0.4680432379245758,-1.3784308433532715
6.000510931015015,0.16456544399261475,0.7406924962997437,-0.2316167950630188,0.0768735083076372,-1.4840862049598254,1.7167881607317976,-0.9933008551597595,-0.07679781317710876,-0.08634574711322784,0.5929338932037354,-0.7889906764030457,-1.142349123954773
6.020484924316406,0.2267981767654419,0.7033361792564392,-0.22671103477478027,0.09728839689896551,-1.502591928790597,1.725691997987295,-0.9929572939872742,-0.09713499993085861,-0.06782926619052887,0.303125262260437,-0.9886808395385742,-0.8628860116004944
6.040532112121582,0.1856987476348877,0.6339427828788757,-0.26009607315063477,0.11148368574157114,-1.5220994465016071,1.7247522733460554,-0.9926140904426575,-0.11125289648771286,-0.048375457525253296,-0.3059893846511841,-0.9142672419548035,-0.5319129824638367
6.060527801513672,0.15684545040130615,0.618533730506897,-0.30815279483795166,0.11802930885238666,-1.5357263234311054,1.7143472882934518,-0.9924321174621582,-0.1177554577589035,-0.034818872809410095,-0.6474501490592957,-0.5546565651893616,-0.14258046448230743
6.080475807189941,0.21631217002868652,0.6466454863548279,-0.3295111656188965,0.11399422848086507,-1.5428533514101852,1.6980826505865945,-0.9931219816207886,-0.1137474998831749,-0.027758007869124413,-0.9057281613349915,-0.45681846141815186,0.49999985098838806
6.100444793701172,0.11984372138977051,0.6877565383911133,-0.417938232421875,0.09862185958446908,-1.5520427222395587,1.6840649667338505,-0.9949660301208496,-0.0984620675444603,-0.018661387264728546,-0.450234979391098,-0.5728468298912048,0.9464187622070312
6.120514869689941,-0.1861310601234436,0.859182596206665,-0.532416582107544,0.07984843295521864,-1.5620932926981048,1.683947506586217,-0.9967762231826782,-0.07976361364126205,-0.008675196208059788,0.4978507459163666,-0.4341890513896942,0.8399553894996643
6.14047384262085,-0.31595152616500854,0.892730176448822,-0.5196681022644043,0.06448197934181582,-1.5705819411668291,1.7035303854727517,-0.997921884059906,-0.06443729996681213,-0.00021394010400399566,1.285616159439087,-0.3194766640663147,0.8142627477645874
6.16049599647522,-0.1767735481262207,0.8207467198371887,-0.36713719367980957,0.04327909822879464,-1.57981841665662,1.730128689260405,-0.9990230798721313,-0.04326558858156204,0.009013520553708076,1.378532886505127,-0.4401126205921173,1.3201930522918701
6.180478096008301,-0.2842211127281189,0.6941059827804565,-0.2936910390853882,0.012847169163041124,-1.5885346419356579,1.7597382905950305,-0.9997602701187134,-0.012846815399825573,0.0177359227091074,1.6770154237747192,-0.29808056354522705,1.6443681716918945
6.200472831726074,-0.48748207092285156,0.6929125785827637,-0.274277925491333,-0.02239086835142933,-1.5908692885696398,1.7976454910940614,-0.9995478987693787,0.022388996556401253,0.020066581666469574,2.250492572784424,0.042755596339702606,1.780261754989624
6.220474004745483,-0.4829140305519104,0.669181227684021,-0.2330327033996582,-0.05961392025168716,-1.5852579753707443,1.8502958897114063,-0.9981192946434021,0.05957861617207527,0.014435457065701485,3.078176736831665,0.2779143154621124,1.848390817642212
6.240509986877441,-0.36259645223617554,0.6217794418334961,-0.15470707416534424,-0.09963787523711329,-1.5723587723664005,1.9174805946177766,-0.9950391054153442,0.09947309643030167,0.0015546957729384303,3.6137795448303223,0.4126027822494507,2.0475075244903564
6.260504961013794,-0.30807632207870483,0.4793815016746521,-0.055264174938201904,-0.14157443822004082,-1.552882390155387,1.9918118882249283,-0.9898363351821899,0.14110197126865387,-0.01773376204073429,3.667245864868164,0.6636061668395996,2.1990442276000977
6.280430793762207,-0.27382856607437134,0.33944880962371826,0.05296480283141136,-0.1850740001472574,-1.5250299985150155,2.0636582290875256,-0.9818936586380005,0.1840192675590515,-0.044969066977500916,3.289599895477295,0.9299821853637695,2.3707737922668457
6.30043888092041,-0.2416747808456421,0.22229433059692383,0.12238914519548416,-0.22921632383127702,-1.4905671407043644,2.1312601521192636,-0.9707122445106506,0.22721441090106964,-0.07804698497056961,3.0936195850372314,1.097312331199646,2.4184484481811523
6.320518970489502,-0.2181377410888672,0.19958671927452087,0.19534194469451904,-0.27311046791269,-1.4509201324652268,2.1950154553242927,-0.9560260772705078,0.2697279155254364,-0.11515691131353378,2.640502691268921,1.2715928554534912,2.5894546508789062
6.340605974197388,-0.19328665733337402,0.06138649582862854,0.2905549705028534,-0.31859448878855307,-1.407472728311028,2.2526786859410617,-0.9370385408401489,0.31323209404945374,-0.15441595017910004,2.167654275894165,1.4503285884857178,2.683866500854492
6.360605955123901,-0.2011062502861023,0.03105190396308899,0.3561199903488159,-0.3637581700499325,-1.3597115003889844,2.3040738639117415,-0.9138230085372925,0.3557890057563782,-0.19581107795238495,1.8352159261703491,1.5883293151855469,2.634488821029663
6.380467891693115,-0.22565269470214844,0.007110953330993652,0.3623744249343872,-0.4048434158284658,-1.308795257754386,2.3545294282027887,-0.8877963423728943,0.3938748240470886,-0.23807623982429504,1.7722342014312744,1.6003804206848145,2.4690465927124023
6.3995819091796875,-0.24978327751159668,-0.014802038669586182,0.40569907426834106,-0.4398095034014533,-1.255405304588993,2.4069199989071044,-0.8602020740509033,0.42576709389686584,-0.2806684970855713,1.8310760259628296,1.6004904508590698,2.235910415649414
6.420511960983276,-0.295357882976532,-0.04726812243461609,0.4666847586631775,-0.46737318209020523,-1.1999088537757598,2.4597518889369154,-0.832053005695343,0.45054274797439575,-0.3235725164413452,1.7121927738189697,1.6596713066101074,1.9755386114120483
6.440497875213623,-0.2939269542694092,-0.11299377679824829,0.5398467183113098,-0.4895543252236321,-1.1426731782423467,2.509958908121556,-0.8028901219367981,0.47023260593414307,-0.36640000343322754,1.5171257257461548,1.738364577293396,1.817419171333313
6.460482120513916,-0.24879318475723267,-0.18310272693634033,0.5969640016555786,-0.5087178727109252,-1.0864640268517658,2.5556192314233073,-0.7729200720787048,0.4870578646659851,-0.40665632486343384,1.255926251411438,1.6787406206130981,1.666706919670105
6.480066776275635,-0.21102303266525269,-0.23807591199874878,0.6002604961395264,-0.5249303514767837,-1.0345767787105595,2.595877278987663,-0.7439025044441223,0.501152753829956,-0.4421030282974243,0.9778642058372498,1.4989771842956543,1.4572420120239258
6.500476837158203,-0.20399492979049683,-0.2686341404914856,0.5952017903327942,-0.5391070974976002,-0.9905241618618654,2.628583093787573,-0.717697024345398,0.5133699178695679,-0.4704916775226593,0.6935180425643921,1.287752389907837,1.2642766237258911
6.520497798919678,-0.2129420042037964,-0.30698341131210327,0.5871412754058838,-0.550942435799594,-0.951310802962097,2.6572435002675143,-0.6937047839164734,0.5234904289245605,-0.494703471660614,0.6556545495986938,1.148432970046997,1.098160743713379
6.540488958358765,-0.21178323030471802,-0.3319035768508911,0.618512749671936,-0.5593305284245418,-0.9161673083946434,2.6840190462975397,-0.6723873615264893,0.5306188464164734,-0.5160804390907288,0.7106919288635254,0.9553475975990295,0.9303858876228333
6.560427904129028,-0.21854346990585327,-0.4114408493041992,0.6892687678337097,-0.5637210576927424,-0.8847121102142633,2.710475960936363,-0.654015064239502,0.534335196018219,-0.5354906320571899,0.6877561807632446,0.801970899105072,0.8437485694885254
6.5805230140686035,-0.26462531089782715,-0.4889339208602905,0.7074485421180725,-0.5698270097432581,-0.8597792062957417,2.7305435964803344,-0.6379778981208801,0.5394864082336426,-0.5494895577430725,0.1874294877052307,0.6421513557434082,0.6525654196739197
6.600444793701172,-0.3076462745666504,-0.5346797704696655,0.7022300362586975,-0.5785501568870941,-0.8465553756031173,2.7340625142642123,-0.6271072030067444,0.5468106269836426,-0.5547385215759277,-0.5268421173095703,0.44941869378089905,0.18729445338249207
6.6204400062561035,-0.23107343912124634,-0.5474023222923279,0.6747050285339355,-0.5875759808929923,-0.8506381468346491,2.7218951862290615,-0.6256312727928162,0.5543451905250549,-0.5488962531089783,-0.7515612840652466,-0.2777141332626343,-0.16334305703639984
6.640472888946533,-0.28331321477890015,-0.43831032514572144,0.6667801141738892,-0.5926914868114419,-0.8730650897734006,2.7037519851646077,-0.6356015801429749,0.5585954785346985,-0.5328994393348694,-0.7263343930244446,-0.8457540273666382,-0.4468587040901184
6.660513877868652,-0.5954443216323853,-0.3371531367301941,0.6356027722358704,-0.5905876515778047,-0.9021449607398735,2.6795805447145886,-0.65174800157547,0.5568492412567139,-0.5149209499359131,-0.7563576698303223,-0.5492287874221802,-0.9993412494659424
6.680475950241089,-0.5991676449775696,-0.39799582958221436,0.6544366478919983,-0.5842337402035951,-0.9281265420331437,2.6434121459264777,-0.6677238345146179,0.5515604019165039,-0.4999260902404785,-1.286479115486145,-0.2282615303993225,-1.2684329748153687
6.700505971908569,-0.2397770881652832,-0.45317327976226807,0.550267219543457,-0.5813299289553557,-0.9654441718314484,2.5964642984046002,-0.6872249245643616,0.5491358637809753,-0.47557541728019714,-1.623450756072998,-1.0366907119750977,-1.2553383111953735
6.7204718589782715,-0.20736175775527954,-0.3329816460609436,0.42625248432159424,-0.5772478147556684,-1.0190987592179432,2.5491332988645836,-0.7136435508728027,0.5457197427749634,-0.43920716643333435,-1.4425768852233887,-1.5779446363449097,-1.3019520044326782
6.74050498008728,-0.43185389041900635,-0.22478878498077393,0.3549479842185974,-0.5645078112639774,-1.0734713779159029,2.5047713778332548,-0.7425083518028259,0.5350000262260437,-0.40305888652801514,-1.1954498291015625,-1.4109838008880615,-1.7033685445785522
6.760472774505615,-0.43010491132736206,-0.23310256004333496,0.30695560574531555,-0.5432623004618258,-1.1230158803572983,2.461007934352887,-0.7716315388679504,0.5169313549995422,-0.3706304430961609,-1.1862530708312988,-1.3285465240478516,-1.8228362798690796
6.78049898147583,-0.24642372131347656,-0.23505941033363342,0.22508132457733154,-0.5204452884416171,-1.1739634404985553,2.4187627698414484,-0.8001766204833984,0.4972665309906006,-0.3353259861469269,-1.2168054580688477,-1.6376477479934692,-1.7671185731887817
6.800510883331299,-0.2173624038696289,-0.18079793453216553,0.21983468532562256,-0.4961119124725413,-1.2281161963439176,2.376647586188281,-0.8283072113990784,0.4760098159313202,-0.2955029308795929,-1.3679225444793701,-1.63111412525177,-1.8516985177993774
6.8206048011779785,-0.2743232846260071,-0.17812448740005493,0.23503977060317993,-0.46976410955084735,-1.278662979634827,2.3302933102782726,-0.8538963794708252,0.4526759684085846,-0.25679874420166016,-1.7664918899536133,-1.2894961833953857,-1.9384613037109375
6.840473890304565,-0.2519034743309021,-0.12882694602012634,0.18051233887672424,-0.44134023840581,-1.3266651537060234,2.2759060343534907,-0.8773691654205322,0.4271516501903534,-0.21855242550373077,-2.142604351043701,-1.1606355905532837,-2.1130757331848145
6.8604819774627686,-0.1797122359275818,0.023455381393432617,0.05255359411239624,-0.4081302325065682,-1.3744494718759481,2.218862125036959,-0.9002286195755005,0.39689382910728455,-0.1790640950202942,-2.1624317169189453,-1.314030408859253,-2.2697010040283203
6.880468845367432,-0.13717377185821533,0.14714720845222473,-0.064618781208992,-0.3692920646992892,-1.4226359925258223,2.1660647647661175,-0.9223661422729492,0.3609553277492523,-0.13766688108444214,-2.1003975868225098,-1.4662795066833496,-2.3553993701934814
6.90048885345459,-0.11611640453338623,0.217174232006073,-0.14261497557163239,-0.3306579967368936,-1.4677749729892318,2.1122723894339415,-0.9408143162727356,0.32466545701026917,-0.09726832807064056,-2.449603796005249,-1.228508472442627,-2.1420652866363525
6.920474052429199,-0.19409668445587158,0.3019590675830841,-0.27219825983047485,-0.2903606636563316,-1.5044787366637287,2.05667147898416,-0.9560344815254211,0.2862977981567383,-0.06349501758813858,-2.573154926300049,-1.050654649734497,-2.3905348777770996
6.9404778480529785,-0.16647619009017944,0.40078794956207275,-0.34081804752349854,-0.24362865966610844,-1.540160713799003,2.0125502845530625,-0.9700137376785278,0.2412257045507431,-0.029726264998316765,-1.492936611175537,-1.2908214330673218,-2.340146780014038
6.960532903671265,-0.017674744129180908,0.5623411536216736,-0.3667874336242676,-0.20019346218243117,-1.5745608758232665,1.9865655352229563,-0.9800213575363159,0.19885893166065216,0.003689355915412307,-1.011129379272461,-1.5847567319869995,-2.113487720489502
6.980479955673218,-0.014683008193969727,0.5747473239898682,-0.444791316986084,-0.1587680845379195,-1.6105035676793351,1.9720863175719487,-0.9866447448730469,0.1581019014120102,0.039197541773319244,-0.5027629733085632,-1.6745352745056152,-1.951050043106079
7.000469923019409,-0.03817856311798096,0.6229693293571472,-0.4628058671951294,-0.12345308897470346,-1.6410208179187586,1.9674394857735324,-0.9899434447288513,0.12313974648714066,0.06963277608156204,-0.19354405999183655,-1.2819823026657104,-1.5655176639556885
7.020483016967773,-0.03989851474761963,0.5983835458755493,-0.4798746109008789,-0.09567106355810723,-1.6621619976789157,1.9660594249700316,-0.9912751317024231,0.09552518278360367,0.09082137793302536,-0.24573567509651184,-0.8370124697685242,-1.1932566165924072
7.040492057800293,0.04478752613067627,0.6045441031455994,-0.495114803314209,-0.07504603933924299,-1.6760046486994142,1.9602006994439458,-0.9916717410087585,0.07497561722993851,0.10471877455711365,-0.5290303826332092,-0.533398449420929,-0.7930656671524048
7.060472011566162,0.1296069622039795,0.5784757137298584,-0.5383633375167847,-0.06235757959733699,-1.6858850560214358,1.9496238206154817,-0.991454005241394,0.062317173928022385,0.1146116554737091,-0.6167995929718018,-0.40755271911621094,-0.3741427958011627
7.080477952957153,0.15485572814941406,0.6013655662536621,-0.6115133762359619,-0.05668488126321475,-1.6940188295109846,1.9393537229078386,-0.9908236861228943,0.05665453150868416,0.12271349132061005,-0.4197256863117218,-0.368918240070343,-0.09345758706331253
7.100439071655273,0.1438618302345276,0.6478086709976196,-0.6759607791900635,-0.05627687785801423,-1.701852435996016,1.936284819170812,-0.9898550510406494,0.056247178465127945,0.13047440350055695,0.14414817094802856,-0.38856908679008484,0.0788789764046669
7.120567798614502,0.09630030393600464,0.6667348146438599,-0.6574132442474365,-0.06044434922519155,-1.7084941032902046,1.9444708827597819,-0.9887259006500244,0.060407549142837524,0.13701240718364716,0.6616225838661194,-0.29244372248649597,0.2231580764055252
7.140469074249268,0.0025887489318847656,0.621124267578125,-0.574088454246521,-0.06792338811045234,-1.7107416277475715,1.957932238731087,-0.9879404902458191,0.06787116825580597,0.13916733860969543,0.7072376608848572,0.0039890231564641,0.3281967341899872
7.160468101501465,-0.08746892213821411,0.5461826920509338,-0.4750642776489258,-0.07735336991372273,-1.7053281587982636,1.968032764193769,-0.9880011081695557,0.07727625221014023,0.1337253302335739,0.36534032225608826,0.4700668156147003,0.49111783504486084
7.180469036102295,-0.1119455099105835,0.49416017532348633,-0.38990068435668945,-0.09025189946425155,-1.6924941630973003,1.9688012953188276,-0.988564133644104,0.09012942761182785,0.12090358138084412,-0.11472287774085999,0.774652361869812,0.7814719080924988
7.200516939163208,-0.15690886974334717,0.5146504044532776,-0.39772939682006836,-0.10739745500931087,-1.6757581950854492,1.962364805815689,-0.9887668490409851,0.10719111561775208,0.10416562855243683,-0.24018792808055878,0.9882454872131348,0.9882529973983765
7.220494985580444,-0.13884693384170532,0.548982560634613,-0.3710428476333618,-0.12938725637170967,-1.655075564403458,1.9575080437072157,-0.988121509552002,0.12902654707431793,0.08347586542367935,-0.03508458286523819,1.0685747861862183,1.2763671875
7.240498065948486,-0.08922481536865234,0.534512996673584,-0.2831847667694092,-0.15845584276788469,-1.6352588942424842,1.957499468172754,-0.9854212403297424,0.1577935814857483,0.06361091881990433,0.28262245655059814,0.9166063666343689,1.5947221517562866
7.260512828826904,-0.2112516164779663,0.5090736150741577,-0.21560072898864746,-0.19211825370670818,-1.6153564416495017,1.9659637051189962,-0.9806275963783264,0.19093860685825348,0.04372582212090492,0.7435062527656555,0.9460000395774841,1.6765496730804443
7.28049898147583,-0.33073365688323975,0.4675549864768982,-0.11738777160644531,-0.22635933166193994,-1.5910771804920103,1.9850045946327561,-0.9742897152900696,0.22443121671676636,0.019762137904763222,1.2093946933746338,1.0293692350387573,1.6424552202224731
7.30048394203186,-0.3578600287437439,0.4174066185951233,-0.033413589000701904,-0.25906552916566505,-1.563326561161015,2.0138637268875166,-0.9666028022766113,0.2561773657798767,-0.007220430765300989,1.6159751415252686,1.024646282196045,1.611943244934082
7.3205859661102295,-0.3548195958137512,0.36412155628204346,0.010498110204935074,-0.28934353855369555,-1.5328484957198376,2.053151665181869,-0.9577414393424988,0.2853231132030487,-0.03636166453361511,2.111767053604126,0.9547929763793945,1.478486180305481
7.340517044067383,-0.3629804849624634,0.31021660566329956,0.058251798152923584,-0.31553796814964247,-1.4989439829737121,2.1026015492869314,-0.9481768012046814,0.3103279173374176,-0.06824621558189392,2.357990026473999,0.9598806500434875,1.4477890729904175
7.360479831695557,-0.3201258182525635,0.2126089334487915,0.14781354367733002,-0.3402113678587702,-1.462261466488817,2.1543663587213433,-0.9371374845504761,0.33368635177612305,-0.10211335867643356,2.2855165004730225,1.077264428138733,1.459378719329834
7.380467891693115,-0.2612137794494629,0.15486544370651245,0.20684243738651276,-0.3624646649048083,-1.422258910371224,2.2059940171761343,-0.9247298240661621,0.3545798361301422,-0.1383761614561081,2.24479341506958,1.137660026550293,1.3608607053756714
7.4008378982543945,-0.17122328281402588,0.1332482397556305,0.22682823240756989,-0.38399270447310874,-1.379041486744855,2.2572660600561143,-0.9101822972297668,0.37462538480758667,-0.17670297622680664,2.0986928939819336,1.2315078973770142,1.6168630123138428
7.4207000732421875,-0.0846480131149292,0.04156312346458435,0.2935994267463684,-0.4092824383739099,-1.335572819127006,2.3049485942595807,-0.8921433687210083,0.3979511260986328,-0.21381111443042755,1.6838003396987915,1.3160185813903809,1.7801710367202759
7.440781116485596,-0.06430244445800781,0.012065112590789795,0.309969961643219,-0.4373527667790168,-1.2911881523591997,2.348969369637996,-0.8706951141357422,0.42354288697242737,-0.25000283122062683,1.5242195129394531,1.3112794160842896,1.9732086658477783
7.460570812225342,-0.07973939180374146,-0.01001119613647461,0.34613728523254395,-0.4678232525292826,-1.245531016922162,2.3937305573006604,-0.8457520008087158,0.4509444832801819,-0.2852241098880768,1.3934348821640015,1.308018445968628,2.1343109607696533
7.480609893798828,-0.14948773384094238,-0.05726975202560425,0.417745441198349,-0.5001148175386921,-1.1984642799832268,2.438054849888499,-0.8174006938934326,0.4795263111591339,-0.31923460960388184,1.198928713798523,1.3718236684799194,2.2387843132019043
7.500548839569092,-0.23555821180343628,-0.10454362630844116,0.48772236704826355,-0.5331286971268141,-1.1484479284417304,2.480719554638395,-0.7855448126792908,0.5082303285598755,-0.35301774740219116,0.9507651329040527,1.5349138975143433,2.2386605739593506
7.520598888397217,-0.2725379467010498,-0.15333789587020874,0.5447793006896973,-0.5661230751114765,-1.095947477291257,2.5206032153288787,-0.7506095767021179,0.5363640189170837,-0.3858741223812103,0.6833699941635132,1.6154518127441406,2.2220630645751953
7.540460109710693,-0.2584860324859619,-0.20587778091430664,0.597978949546814,-0.5994640381212047,-1.0435523677014888,2.557211416563563,-0.7135141491889954,0.5642000436782837,-0.4154227674007416,0.39375731348991394,1.61138916015625,2.1830639839172363
7.568100929260254,-0.2153998613357544,-0.316366970539093,0.6177850961685181,-0.6653461083852182,-0.9464401987127117,2.619990609907662,-0.6382836103439331,0.6173314452171326,-0.4598870873451233,0.014089355245232582,1.3276461362838745,1.9325058460235596
7.590243816375732,-0.18722867965698242,-0.3512216806411743,0.5865821838378906,-0.6944909140308638,-0.9047793427315577,2.6480724154519777,-0.6041683554649353,0.6399943232536316,-0.4747503697872162,0.004205484874546528,1.0588713884353638,1.6943145990371704
7.600536823272705,-0.18722867965698242,-0.3512216806411743,0.5865821838378906,-0.6944909140308638,-0.9047793427315577,2.6480724154519777,-0.6041683554649353,0.6399943232536316,-0.4747503697872162,0.004205484874546528,1.0588713884353638,1.6943145990371704
7.6279778480529785,-0.14523327350616455,-0.43512535095214844,0.550196647644043,-0.7308687973644794,-0.8428312871531496,2.7023833193968345,-0.555862307548523,0.6675167679786682,-0.4954175353050232,0.39832204580307007,0.20493198931217194,1.0084049701690674
7.64793586730957,-0.22082287073135376,-0.43795347213745117,0.5426207780838013,-0.7371437893795617,-0.8274088454155171,2.7250984904413698,-0.545061469078064,0.672175943851471,-0.5010862350463867,0.42118799686431885,-0.148810014128685,0.5579135417938232
7.668670892715454,-0.3356648087501526,-0.42502856254577637,0.573732316493988,-0.7363393918907024,-0.8219975416437899,2.738212159943158,-0.5427379012107849,0.6715801358222961,-0.5043963193893433,0.32481226325035095,-0.14120084047317505,0.057410527020692825
7.687842845916748,-0.33927804231643677,-0.4860084652900696,0.5915408730506897,-0.7309441112050841,-0.8217198560769556,2.740705577583033,-0.5452434420585632,0.6675728559494019,-0.5070070624351501,0.1614808291196823,-0.016769519075751305,-0.29315614700317383
7.709199905395508,-0.2137189507484436,-0.5682783126831055,0.5709607005119324,-0.725600428722638,-0.8304154562976909,2.732800373104129,-0.5522570013999939,0.6635847687721252,-0.5046458840370178,-0.2327733188867569,-0.4252849221229553,-0.5062821507453918
7.729959964752197,-0.21701937913894653,-0.5186195373535156,0.48613885045051575,-0.7194079491013535,-0.8572641836460976,2.7148548459738766,-0.5687013864517212,0.6589394211769104,-0.4923185706138611,-0.3066854178905487,-1.035575270652771,-0.879012405872345
7.749159812927246,-0.43340975046157837,-0.3583570122718811,0.4109141230583191,-0.7048346228048766,-0.8959299978835548,2.690694857415526,-0.5947427153587341,0.6479078531265259,-0.47591647505760193,-0.16814565658569336,-1.1436480283737183,-1.4485445022583008
7.767471790313721,-0.6005793213844299,-0.27016669511795044,0.40731239318847656,-0.67947167948775,-0.9348464501783772,2.659457829329398,-0.6258305907249451,0.62838214635849,-0.4620303511619568,-0.2893601655960083,-0.7466769814491272,-1.9916270971298218
7.788251876831055,-0.401120662689209,-0.3233427405357361,0.40420544147491455,-0.6522272263579963,-0.9763146548840449,2.617219407860753,-0.658388614654541,0.6069579720497131,-0.4451141953468323,-0.8877863883972168,-0.9243047833442688,-2.0966522693634033
7.808155059814453,-0.23106294870376587,-0.3264618515968323,0.3593021035194397,-0.6299399205222925,-1.0303997696652376,2.565975207874161,-0.6929177641868591,0.589096188545227,-0.4157290458679199,-1.3302947282791138,-1.3618394136428833,-2.000079393386841
7.828114032745361,-0.35842472314834595,-0.231589674949646,0.31153643131256104,-0.6094234513491685,-1.0886192155046408,2.5105668988182743,-0.7264904379844666,0.5723947882652283,-0.38023144006729126,-1.5952335596084595,-1.1821846961975098,-2.0554003715515137
7.84974479675293,-0.4624786376953125,-0.1757076382637024,0.22828137874603271,-0.5852057759643022,-1.1434188760839743,2.4511068195377677,-0.7586212158203125,0.5523709058761597,-0.34551453590393066,-1.740389347076416,-1.0177353620529175,-2.278742790222168
7.868305921554565,-0.34270405769348145,-0.08296042680740356,0.1290234923362732,-0.5558107533726416,-1.197477211872542,2.392793592616399,-0.7909629940986633,0.5276321768760681,-0.3098095655441284,-1.575097680091858,-1.2816686630249023,-2.326287031173706
7.887117862701416,-0.28413963317871094,0.036107778549194336,0.052244633436203,-0.521479486499253,-1.2504143303826372,2.3448295296101787,-0.8229617476463318,0.49816352128982544,-0.27306973934173584,-1.1397461891174316,-1.4884631633758545,-2.330152988433838
7.908102035522461,-0.3147263526916504,0.0943397581577301,0.034141138195991516,-0.4823960298921157,-1.2967599462241164,2.307983579588528,-0.8528304100036621,0.46390312910079956,-0.23973792791366577,-0.8445985317230225,-1.363381266593933,-2.3630642890930176
7.926964998245239,-0.23985332250595093,0.09165903925895691,0.014820367097854614,-0.44098980927045756,-1.3354917596342952,2.2784823844499047,-0.8794095516204834,0.4268347918987274,-0.21083469688892365,-0.6710869073867798,-1.1989620923995972,-2.288908004760742
7.9471189975738525,-0.09170264005661011,0.13135987520217896,-0.05053800344467163,-0.4011481148726849,-1.3690109087854305,2.2544153783872556,-0.9019345045089722,0.3904755711555481,-0.18450827896595,-0.666290283203125,-1.1874890327453613,-2.0737617015838623
7.967796802520752,0.00832068920135498,0.18106943368911743,-0.13666017353534698,-0.36549679933554574,-1.400652594342842,2.2300685761273,-0.9204607009887695,0.35741332173347473,-0.15813957154750824,-0.7747408151626587,-1.1630301475524902,-1.9424282312393188
7.9877989292144775,0.02270352840423584,0.23943254351615906,-0.27863574028015137,-0.329952771113749,-1.4347445918818045,2.2061386894903037,-0.9373154044151306,0.323998361825943,-0.12831607460975647,-0.7604542970657349,-1.3994033336639404,-1.892384648323059
8.007751941680908,0.11051762104034424,0.2569792568683624,-0.22997039556503296,-0.29636675615077235,-1.4689167991954677,2.188324237459183,-0.9514448046684265,0.29204729199409485,-0.09726952016353607,-0.6321842074394226,-1.5343095064163208,-1.6600788831710815
8.026604890823364,0.1079438328742981,0.3199365735054016,-0.2131139636039734,-0.26542937233192193,-1.504788623632092,2.1737381120111903,-0.9628785848617554,0.26232361793518066,-0.06364987045526505,-0.4763154983520508,-1.6473369598388672,-1.557660460472107
8.047863960266113,0.055282652378082275,0.353395938873291,-0.2645878195762634,-0.23589839532931237,-1.5401271461764388,2.163568604021137,-0.9718477725982666,0.23371659219264984,-0.029815124347805977,-0.37029165029525757,-1.6068869829177856,-1.441353678703308
8.06753396987915,0.014464199542999268,0.36866798996925354,-0.2997785806655884,-0.20839880065854427,-1.5726257395450682,2.1560051485343097,-0.978361964225769,0.20689360797405243,0.0017898299265652895,-0.35384729504585266,-1.4755984544754028,-1.3191019296646118
8.08706283569336,0.006118834018707275,0.3966822624206543,-0.3594353199005127,-0.18318276909973488,-1.6020704905215641,2.1476666550888557,-0.9827882051467896,0.18216000497341156,0.03074590303003788,-0.5198227167129517,-1.3101491928100586,-1.1850758790969849
8.108428955078125,0.019289731979370117,0.4202664792537689,-0.41217780113220215,-0.1608709115363335,-1.627953715287255,2.1361697493050102,-0.9854761958122253,0.16017793118953705,0.05638866499066353,-0.7404937744140625,-1.072383165359497,-0.9771775007247925
8.126710891723633,0.059073686599731445,0.41903313994407654,-0.4301251173019409,-0.14279202172577107,-1.6496473068472257,2.1195858036323862,-0.9867472052574158,0.14230726659297943,0.07796763628721237,-0.9969779253005981,-0.861055850982666,-0.7080396413803101
8.146770000457764,0.0648077130317688,0.4296797513961792,-0.4791187047958374,-0.13016637011553828,-1.6674592165972797,2.09942871957575,-0.9869118332862854,0.12979911267757416,0.09569598734378815,-1.074515461921692,-0.648867666721344,-0.3865281641483307
8.167438983917236,0.02856355905532837,0.4705135226249695,-0.5568549633026123,-0.12270503753840846,-1.680683720235379,2.0801256795265557,-0.9864952564239502,0.12239734828472137,0.10884184390306473,-0.8848376274108887,-0.42342543601989746,-0.16358056664466858
8.18617582321167,0.02162301540374756,0.4903748631477356,-0.5598433017730713,-0.12006667570449721,-1.6884887420095904,2.0646812781310224,-0.9859327673912048,0.11977840214967728,0.11657555401325226,-0.6819506287574768,-0.19095294177532196,0.07445751130580902
8.206309795379639,-0.017514467239379883,0.5005496740341187,-0.5630816221237183,-0.12188327334026035,-1.692435820143863,2.0530023878744506,-0.9852473735809326,0.12158172577619553,0.12043959647417068,-0.42298439145088196,-0.04438552260398865,0.2230730950832367
8.227113962173462,-0.11468517780303955,0.5339736938476562,-0.5651472806930542,-0.12645840356698151,-1.6914577273887934,2.047183515257345,-0.9848023653030396,0.1261216253042221,0.11940768361091614,-0.09917592257261276,0.2258632630109787,0.30638840794563293
8.246454954147339,-0.15755689144134521,0.530055820941925,-0.5151268243789673,-0.1341185934696529,-1.6839188549713433,2.046418804777262,-0.9846855998039246,0.1337168663740158,0.11186771094799042,0.05794542282819748,0.5224521160125732,0.49959197640419006
