timestamp,acceleration_x,acceleration_y,acceleration_z,attitude_pitch,attitude_roll,attitude_yaw,gravity_x,gravity_y,gravity_z,rotation_x,rotation_y,rotation_z
0.0,0.05821293592453003,0.30607789754867554,-0.11620163917541504,-0.2889924493816304,-1.3537186916838744,-2.4620806702320746,-0.9360358119010925,0.28498661518096924,-0.20644542574882507,-1.638600468635559,0.5451380610466003,0.3191964030265808
0.024094820022583008,0.0497552752494812,0.27291837334632874,-0.10748837888240814,-0.3019301664608252,-1.3519310699592901,-2.4915655737817977,-0.9319878816604614,0.29736360907554626,-0.20730042457580566,-1.3981447219848633,0.49374863505363464,0.3269747793674469
0.044500112533569336,0.05445009469985962,0.2603459358215332,-0.12476551532745361,-0.3136817445031067,-1.3500508697579476,-2.516177671852997,-0.9281225800514221,0.3085628151893616,-0.20827282965183258,-1.1414117813110352,0.44553592801094055,0.2994159162044525
0.0664360523223877,0.10376983880996704,0.2542904317378998,-0.13052570819854736,-0.32370578473257955,-1.3485897344243887,-2.5348430626015674,-0.924753725528717,0.3180820643901825,-0.20893655717372894,-0.7885765433311462,0.27530747652053833,0.2907972037792206
0.08222794532775879,0.1697765588760376,0.21665224432945251,-0.10009746253490448,-0.3328723037350255,-1.3487911286572658,-2.546069041723585,-0.9219127893447876,0.32675901055336,-0.20809952914714813,-0.4865697920322418,0.07042959332466125,0.36814168095588684
0.1057131290435791,0.17909735441207886,0.1851957142353058,-0.07886265218257904,-0.3422280446990893,-1.3513749890623785,-2.5514977221551605,-0.9194232821464539,0.3355867564678192,-0.20504233241081238,-0.1750524342060089,-0.14466477930545807,0.4106929898262024
0.12453699111938477,0.15377432107925415,0.19530344009399414,-0.11074762046337128,-0.34976356487778254,-1.355053755853979,-2.547201285106257,-0.9176750183105469,0.34267568588256836,-0.2011115401983261,0.45193782448768616,-0.3674079179763794,0.40717506408691406
0.14438605308532715,0.1233019232749939,0.20056909322738647,-0.12395153939723969,-0.35411849080391095,-1.3578886712928486,-2.528497309827141,-0.9167741537094116,0.3467637002468109,-0.19819198548793793,1.159279465675354,-0.5471360683441162,0.39542534947395325
0.16611599922180176,0.1028897762298584,0.14865544438362122,-0.10894793272018433,-0.3562539587291169,-1.3598111537937603,-2.4979993253041513,-0.9164273738861084,0.34876585006713867,-0.19627362489700317,1.54069185256958,-0.6973176598548889,0.40604841709136963
0.18287205696105957,0.06883186101913452,0.09393692016601562,-0.09699344635009766,-0.35724782394602544,-1.3619391608084996,-2.4618997603275234,-0.916503369808197,0.34969714283943176,-0.19425104558467865,1.7502591609954834,-0.7735798954963684,0.4178871214389801
0.201552152633667,0.04482942819595337,0.0872516930103302,-0.10868339240550995,-0.3587812285383424,-1.3626022745603994,-2.420853958300914,-0.9161062836647034,0.3511333167552948,-0.19353219866752625,1.856094241142273,-0.73148512840271,0.3782888650894165
0.22759199142456055,0.03724098205566406,0.05876857042312622,-0.059184834361076355,-0.35753760859222333,-1.3647988391478885,-2.3823411419657265,-0.9169559478759766,0.3499686121940613,-0.19160862267017365,1.7715952396392822,-0.7721248865127563,0.34552714228630066
0.23861384391784668,0.05285900831222534,0.049696773290634155,-0.06668320298194885,-0.35806757574683584,-1.3665947896271216,-2.345264319536422,-0.9171169400215149,0.3504650294780731,-0.18992388248443604,1.591899037361145,-0.7505026459693909,0.37202197313308716
0.2575690746307373,0.0664244294166565,0.031316518783569336,-0.041753754019737244,-0.3595271955802257,-1.3697468642592203,-2.312004486220983,-0.917208731174469,0.35183170437812805,-0.18692974746227264,1.4363442659378052,-0.7198704481124878,0.40433216094970703
0.27739500999450684,0.07375037670135498,0.023461848497390747,-0.023190021514892578,-0.3617738535065643,-1.3735422231278707,-2.2826317942279313,-0.917134165763855,0.35393381118774414,-0.18329191207885742,1.2265807390213013,-0.7059313654899597,0.3409327566623688
0.3005080223083496,0.07984012365341187,0.021327495574951172,-0.015485227108001709,-0.3643345225272343,-1.3766950982811816,-2.255161831186243,-0.9168152809143066,0.3563275635242462,-0.1802240014076233,1.280989408493042,-0.5914592742919922,0.4124838709831238
0.3204319477081299,0.07972031831741333,0.0321352481842041,-0.02452544867992401,-0.3671563594563629,-1.3778895893691923,-2.226020332504145,-0.916039228439331,0.3589627742767334,-0.178935244679451,1.3506419658660889,-0.5840380191802979,0.3798307776451111
0.33965182304382324,0.08401626348495483,0.03167301416397095,-0.021092399954795837,-0.3687801577445455,-1.3779841447318089,-2.195126998779229,-0.9154828786849976,0.36047786474227905,-0.17873670160770416,1.4598170518875122,-0.5365084409713745,0.32319924235343933
0.36058497428894043,0.0791776180267334,0.035083502531051636,-0.02138848602771759,-0.3681176251321755,-1.3769242426263872,-2.162787269269516,-0.9155272245407104,0.35985979437828064,-0.179752916097641,1.4453216791152954,-0.5520195364952087,0.18558786809444427
0.382188081741333,0.07377505302429199,0.010017931461334229,-0.0025835037231445312,-0.365905714430278,-1.3778503755504348,-2.133832310274242,-0.9164721965789795,0.35779520869255066,-0.17905712127685547,1.2721198797225952,-0.6002706289291382,0.16603688895702362
0.40151381492614746,0.021894216537475586,0.02618098258972168,-0.00404144823551178,-0.3673235120470432,-1.3822157619974367,-2.106349588554262,-0.9167460203170776,0.359118789434433,-0.17495942115783691,1.2533308267593384,-0.8517877459526062,0.4854673743247986
0.42119598388671875,-0.10161817073822021,0.08602553606033325,-0.0016193389892578125,-0.3736425083003803,-1.3924367063946446,-2.082224596026798,-0.91623455286026,0.36500903964042664,-0.16517449915409088,0.9129407405853271,-0.8846151828765869,0.2993374764919281
0.44188809394836426,-0.21941936016082764,0.10975316166877747,-0.04258100688457489,-0.3719547016979011,-1.3994158639996261,-2.0595500229269303,-0.9179707169532776,0.3634371757507324,-0.158880814909935,1.1960740089416504,-0.7095198035240173,0.03845490887761116
0.4609568119049072,-0.12457764148712158,0.1785162389278412,-0.04060506820678711,-0.36890260700149374,-1.4024343505228183,-2.0313865297390157,-0.9195355176925659,0.3605920970439911,-0.15629437565803528,1.4361225366592407,-0.6309844255447388,0.045364148914813995
0.4816930294036865,-0.04632383584976196,0.13189566135406494,-0.007996559143066406,-0.36413535888172677,-1.4044006520845975,-1.9998958357654275,-0.9215258359909058,0.35614147782325745,-0.1547689437866211,1.5034499168395996,-0.6981468796730042,0.01668654754757881
0.5020699501037598,-0.06943583488464355,0.121910959482193,0.039790987968444824,-0.36162764951660537,-1.4069617866496515,-1.9694082191878777,-0.922797441482544,0.3537970781326294,-0.1525534689426422,1.3504244089126587,-0.6287584900856018,0.18180164694786072
0.5211739540100098,-0.10257291793823242,0.12489664554595947,0.05245006084442139,-0.36194301689205743,-1.4082215647798817,-1.9413560943436923,-0.9228788018226624,0.3540920317173004,-0.1513727754354477,1.264311671257019,-0.5003470778465271,0.24462354183197021
0.5406079292297363,-0.01677095890045166,0.15213748812675476,0.03242230415344238,-0.3636199022272237,-1.4077785048261608,-1.9126529666695335,-0.9222244024276733,0.3556597828865051,-0.15168507397174835,1.3482369184494019,-0.5043774247169495,0.32396793365478516
0.5598838329315186,0.10477316379547119,0.14825791120529175,0.02970026433467865,-0.3661721875561003,-1.4062167007031545,-1.8797516333237554,-0.9210879802703857,0.3580440282821655,-0.15297600626945496,1.6777726411819458,-0.5606725811958313,0.47640782594680786
0.5814709663391113,0.2005520462989807,0.134214848279953,0.020865872502326965,-0.3713631428838056,-1.4043220359428705,-1.8382505884101337,-0.9189510345458984,0.362885981798172,-0.15441079437732697,2.082181930541992,-0.762015163898468,0.6501938700675964
0.6015560626983643,0.2089255452156067,0.11542004346847534,0.02621854841709137,-0.3775068213470849,-1.4031368362316248,-1.7873000601583215,-0.9165518283843994,0.36860400438308716,-0.15512484312057495,2.498283863067627,-0.9808815121650696,0.724124014377594
0.6204111576080322,0.13598597049713135,0.11554476618766785,0.049157872796058655,-0.38246606647819076,-1.4019279848590482,-1.7281402240732477,-0.9145504236221313,0.37320947647094727,-0.15592356026172638,2.8266491889953613,-1.0917307138442993,0.6519358158111572
0.6401660442352295,0.03561514616012573,0.09872841835021973,0.09117920696735382,-0.38391510639329807,-1.3998929238730042,-1.6640456143247953,-0.9136974215507507,0.3745534420013428,-0.15769228339195251,2.9710357189178467,-1.0941509008407593,0.49059730768203735
0.6613790988922119,-0.05396151542663574,0.08340013027191162,0.14726561307907104,-0.38175289273268187,-1.39714456475232,-1.6012275905350635,-0.914056122303009,0.3725477457046509,-0.16034241020679474,2.786973237991333,-0.9697275161743164,0.27707427740097046
0.6813449859619141,-0.09827536344528198,0.06049346923828125,0.191456601023674,-0.37602454466768287,-1.3933940724561373,-1.545164440030514,-0.9155340194702148,0.36722567677497864,-0.164143368601799,2.4221885204315186,-0.7348284721374512,0.0813111662864685
0.7014920711517334,-0.07308322191238403,0.054963767528533936,0.22892093658447266,-0.36910109657451956,-1.3890355867753335,-1.4992393186240947,-0.9172884821891785,0.36077719926834106,-0.16858768463134766,1.9191772937774658,-0.5255413055419922,-0.005506192333996296
0.7259070873260498,-0.04887211322784424,0.0700959861278534,0.2446851134300232,-0.36250459652589745,-1.3849825706549506,-1.4642023430162958,-0.9189165830612183,0.354617178440094,-0.17273998260498047,1.4317471981048584,-0.33445265889167786,-0.05455394461750984
0.7385509014129639,-0.023399055004119873,0.09144294261932373,0.2532045245170593,-0.3567664678910996,-1.3807411912740066,-1.4387465741877576,-0.9201587438583374,0.34924614429473877,-0.17701739072799683,1.0512619018554688,-0.1564822942018509,-0.06482260674238205
0.7582509517669678,0.02654653787612915,0.09913137555122375,0.2518702745437622,-0.35240799328221756,-1.3763880744412456,-1.4195792769637927,-0.9208643436431885,0.34515881538391113,-0.181313619017601,0.8253035545349121,-0.10322821140289307,-0.0203777514398098
0.780358076095581,0.06291019916534424,0.13030019402503967,0.247996985912323,-0.34960197001460797,-1.3730606288165756,-1.4031454559684418,-0.9212018251419067,0.34252387285232544,-0.18456625938415527,0.7763974666595459,-0.14492115378379822,0.03000982291996479
0.8001759052276611,0.07661902904510498,0.15543144941329956,0.2489832490682602,-0.3475725985356932,-1.3709960729879114,-1.3861459886481764,-0.9214982986450195,0.3406165540218353,-0.1866053342819214,0.8485091328620911,-0.2428169995546341,0.07463371008634567
0.8197529315948486,0.06719011068344116,0.1601349115371704,0.25601592659950256,-0.34597858567755335,-1.3701213423638683,-1.3670831447986658,-0.9218654632568359,0.3391174376010895,-0.18751928210258484,0.9432862401008606,-0.31877729296684265,0.11172515153884888
0.8387148380279541,0.056861937046051025,0.15577295422554016,0.2558847665786743,-0.34458180792496446,-1.3701837357215951,-1.346413097938663,-0.922340452671051,0.33780309557914734,-0.1875559687614441,1.0034117698669434,-0.40108999609947205,0.13303832709789276
0.8623688220977783,0.05389910936355591,0.14528733491897583,0.24345554411411285,-0.3436446756323139,-1.371286600927225,-1.3240080302784063,-0.9228565096855164,0.33692091703414917,-0.18660128116607666,1.0773613452911377,-0.47543832659721375,0.1927388310432434
0.8797860145568848,0.04201453924179077,0.15377113223075867,0.23281514644622803,-0.34333689285923846,-1.3735456837274154,-1.300293914836054,-0.9233774542808533,0.33663108944892883,-0.18453632295131683,1.1244207620620728,-0.5409975647926331,0.198454812169075
0.8986599445343018,0.02944958209991455,0.14879560470581055,0.22366249561309814,-0.3428196290570658,-1.3762390711313586,-1.2762069904913487,-0.9240418672561646,0.33614397048950195,-0.18208229541778564,1.1119180917739868,-0.5329186916351318,0.19851966202259064
0.9194140434265137,0.03411269187927246,0.11230793595314026,0.2147914171218872,-0.3430830049113528,-1.3784556664861911,-1.2530258753030379,-0.92435622215271,0.33639201521873474,-0.1800166815519333,1.0018093585968018,-0.47579309344291687,0.24507127702236176
0.9395039081573486,0.035747647285461426,0.10191860795021057,0.21339327096939087,-0.34470173832931883,-1.3807806552921909,-1.2334739607781458,-0.9242364764213562,0.33791598677635193,-0.17776402831077576,0.7948877811431885,-0.4112866222858429,0.26041489839553833
0.9597499370574951,0.03549867868423462,0.09580224752426147,0.19911205768585205,-0.3472619591230596,-1.3828158881547683,-1.2176772267474987,-0.9237433075904846,0.3403244912624359,-0.17572034895420074,0.6192545294761658,-0.33176594972610474,0.2748733460903168
0.9766459465026855,0.03948485851287842,0.09006470441818237,0.18178534507751465,-0.35080203899756984,-1.3843157869014553,-1.2049924808048118,-0.9228161573410034,0.3436511158943176,-0.17411017417907715,0.49717047810554504,-0.2645070254802704,0.2934911549091339
0.9994490146636963,0.042345523834228516,0.08209335803985596,0.15867029130458832,-0.35510169390479074,-1.3853890171323784,-1.1941018447803053,-0.9215418100357056,0.34768572449684143,-0.17284570634365082,0.44126734137535095,-0.22032368183135986,0.317101389169693
1.0182759761810303,0.042053282260894775,0.08105173707008362,0.13983386754989624,-0.3601883196197331,-1.3859687432692658,-1.1838071268697283,-0.9198914766311646,0.3524504601955414,-0.17198418080806732,0.42908817529678345,-0.2140318751335144,0.3586024343967438
1.0393030643463135,0.010176420211791992,0.08123520016670227,0.12367744743824005,-0.36581914485177025,-1.38674575925223,-1.1732443377868096,-0.9180590510368347,0.35771435499191284,-0.17090342938899994,0.43849700689315796,-0.25857672095298767,0.379045307636261
1.059865951538086,-0.08782088756561279,0.08735620975494385,0.1393723487854004,-0.3716567391658619,-1.3891970638619413,-1.1631864480721932,-0.9164057970046997,0.36315956711769104,-0.1682724803686142,0.34939903020858765,-0.32436859607696533,0.3429098129272461
1.0801808834075928,-0.24676495790481567,0.08403670787811279,0.16958071291446686,-0.3761568794501919,-1.391978737030681,-1.1575278732726513,-0.9152528047561646,0.3673487603664398,-0.16543032228946686,0.06637688726186752,-0.11772193759679794,0.1800924837589264
1.10030198097229,-0.2774786353111267,0.05019691586494446,0.1934455782175064,-0.3791071188846451,-1.3922844062690953,-1.1599298062927106,-0.9142327308654785,0.37009114027023315,-0.16495738923549652,-0.35210976004600525,0.1591465026140213,0.09185178577899933
1.119748830795288,-0.1289239525794983,0.03464186191558838,0.16316074132919312,-0.3834210555540546,-1.3921183007139124,-1.1710553950724625,-0.9126257300376892,0.3740953207015991,-0.1648239642381668,-0.7077959775924683,0.2328394502401352,0.14976926147937775
1.1396470069885254,0.04166799783706665,0.053500592708587646,0.06537497043609619,-0.39004546788745625,-1.3938010281954318,-1.1855101745375731,-0.9104424118995667,0.38023045659065247,-0.16284812986850739,-0.6608713865280151,0.12019822001457214,0.2650006413459778
1.1598141193389893,0.16996276378631592,0.07383689284324646,-0.026696965098381042,-0.3982297530047575,-1.3970921520387465,-1.194421571964929,-0.9078778028488159,0.38778722286224365,-0.15930765867233276,-0.24743077158927917,-0.10300291329622269,0.38916030526161194
1.178753137588501,0.23055166006088257,0.07033216953277588,-0.09089256823062897,-0.4071310193522504,-1.4006780316406582,-1.1920521016909837,-0.9050055146217346,0.3959764838218689,-0.15546058118343353,0.33272743225097656,-0.34495100378990173,0.5094773769378662
1.1998169422149658,0.1993262767791748,0.0465884804725647,-0.12774376571178436,-0.41632292336600907,-1.4027811825920848,-1.1760765833772289,-0.9017034769058228,0.40440019965171814,-0.15294168889522552,0.9494428038597107,-0.4796241223812103,0.6334285140037537
1.2195539474487305,0.09860777854919434,-0.0007447600364685059,-0.10813391208648682,-0.4257530306413278,-1.4009219407475548,-1.1481959726834017,-0.8976190090179443,0.4130066931247711,-0.15396635234355927,1.3574703931808472,-0.45446693897247314,0.7093236446380615
1.2394640445709229,-0.037882208824157715,-0.06135457754135132,-0.056420907378196716,-0.4347876446984955,-1.395186817028069,-1.1153062596640981,-0.893010675907135,0.42121779918670654,-0.15845336019992828,1.3686336278915405,-0.3323903977870941,0.6822956800460815
1.2598330974578857,-0.1787545084953308,-0.12078991532325745,-0.004456564784049988,-0.4431851592477948,-1.3879016571445744,-1.086933520416866,-0.8883230686187744,0.42881909012794495,-0.1643056869506836,0.9754250645637512,-0.14966726303100586,0.6006267070770264
1.279932975769043,-0.29765599966049194,-0.17046955227851868,0.010020896792411804,-0.4515764527877432,-1.3809112345341568,-1.0695362593044455,-0.8835880160331726,0.43638449907302856,-0.1698262244462967,0.41149958968162537,0.11873951554298401,0.518208384513855
1.3010361194610596,-0.29038554430007935,-0.20166239142417908,0.026060327887535095,-0.46133835382212807,-1.3742022997851358,-1.0654768011960367,-0.8782089948654175,0.44514694809913635,-0.17490984499454498,-0.23296597599983215,0.33745890855789185,0.5077002048492432
1.3199188709259033,-0.1748051643371582,-0.21901580691337585,0.008754834532737732,-0.47356425578291966,-1.370960180469343,-1.0730437262124368,-0.8722378611564636,0.4560611844062805,-0.17666257917881012,-0.5929834246635437,0.3141186833381653,0.5619103312492371
1.339224100112915,-0.09886288642883301,-0.17962440848350525,-0.048481106758117676,-0.4869402455128577,-1.3696497091648732,-1.0826762994624273,-0.865950345993042,0.46792396903038025,-0.17657078802585602,-0.44728055596351624,0.27031031250953674,0.5634587407112122
1.3592629432678223,-0.03775894641876221,-0.14432036876678467,-0.07686829566955566,-0.4981152963745902,-1.3664435291057848,-1.0861448615936515,-0.8602055907249451,0.47777071595191956,-0.17827393114566803,-0.056452684104442596,0.2049647718667984,0.46484848856925964
1.3792188167572021,0.03135043382644653,-0.1636371612548828,-0.06869518756866455,-0.5061043588579639,-1.3611710214819168,-1.0816936769565533,-0.8554929494857788,0.4847736656665802,-0.18200677633285522,0.23282817006111145,0.10887879878282547,0.4011642038822174
1.3997550010681152,0.05373084545135498,-0.20527970790863037,-0.029913589358329773,-0.5121872416290505,-1.356246292475934,-1.0746107892176238,-0.8516891598701477,0.4900849759578705,-0.1855863332748413,0.20202890038490295,0.04823356866836548,0.3057684004306793
1.4191839694976807,0.022550761699676514,-0.23253753781318665,-0.010264337062835693,-0.5167158278957849,-1.353320757062456,-1.0708603567615083,-0.8489667773246765,0.49402740597724915,-0.187596395611763,0.007359904237091541,0.07617057114839554,0.19791701436042786
1.4388659000396729,-0.00432741641998291,-0.21444293856620789,0.003730684518814087,-0.5198275524369934,-1.3521146997496614,-1.0726296135249787,-0.8472349643707275,0.4967304766178131,-0.1882857233285904,-0.21063482761383057,0.11879677325487137,0.06817179173231125
1.4589450359344482,0.00232088565826416,-0.18745827674865723,0.005610942840576172,-0.5213320446630837,-1.3527299758985432,-1.0785052278416856,-0.8466202616691589,0.4980356693267822,-0.18760253489017487,-0.2958555817604065,0.09844258427619934,-0.027660345658659935
1.4793198108673096,0.013872981071472168,-0.14571943879127502,-0.004772603511810303,-0.5214130436307209,-1.3549090377413813,-1.0850489024742287,-0.8469876050949097,0.49810591340065,-0.1857486069202423,-0.24782755970954895,0.003936499822884798,-0.0910269245505333
1.5007350444793701,0.015006542205810547,-0.11729288101196289,-0.007337987422943115,-0.5197779266827611,-1.3583192177799783,-1.0901156604629063,-0.8484111428260803,0.4966874122619629,-0.18303066492080688,-0.15496006608009338,-0.09529376775026321,-0.15172713994979858
1.5155961513519287,0.01682460308074951,-0.1078910231590271,-0.011271357536315918,-0.5168591500811464,-1.3628195371181964,-1.093110919639889,-0.850641131401062,0.4941520094871521,-0.17950929701328278,-0.023365318775177002,-0.20569856464862823,-0.19520317018032074
1.540092945098877,0.014150798320770264,-0.080996572971344,-0.040229663252830505,-0.512256929420569,-1.36810279777228,-1.0925166213829465,-0.853796124458313,0.4901457130908966,-0.1754685789346695,0.17064520716667175,-0.36442652344703674,-0.25520747900009155
1.560168981552124,0.000503838062286377,-0.051795125007629395,-0.06539593636989594,-0.5057610138018646,-1.3740300766092048,-1.0876622076106572,-0.8579257130622864,0.484473317861557,-0.17102371156215668,0.3699239194393158,-0.47804078459739685,-0.30316272377967834
1.5766561031341553,-0.01369011402130127,-0.04949954152107239,-0.07494966685771942,-0.49762586798539593,-1.38010394330329,-1.0797143888393979,-0.8627899885177612,0.4773406982421875,-0.16655118763446808,0.4603118300437927,-0.46952542662620544,-0.3527849614620209
1.5986268520355225,0.010249733924865723,-0.06278356909751892,-0.08176557719707489,-0.4893022177202252,-1.3851134534093845,-1.0719327983704257,-0.8674885034561157,0.47001010179519653,-0.16295486688613892,0.3385738134384155,-0.40663760900497437,-0.32719504833221436
1.6184940338134766,0.044355928897857666,-0.06855630874633789,-0.1019771546125412,-0.4828016710116235,-1.3903753388101527,-1.0680402910145113,-0.8713212013244629,0.4642624258995056,-0.1589328944683075,0.11175499111413956,-0.2821463942527771,-0.24511972069740295
1.6373918056488037,0.03687673807144165,-0.04267182946205139,-0.1616085320711136,-0.47912946874079465,-1.3954590435034613,-1.070154035239594,-0.873790979385376,0.46100685000419617,-0.1547977179288864,-0.23761126399040222,-0.13978791236877441,-0.1286647468805313
1.6582658290863037,0.024200737476348877,0.021515369415283203,-0.2176496982574463,-0.47979027973552013,-1.3998459746057634,-1.0802996605603175,-0.8741610646247864,0.4615931510925293,-0.1509110927581787,-0.70145183801651,0.12431546300649643,0.01344748493283987
1.678267002105713,0.011590003967285156,0.06304720044136047,-0.26557713747024536,-0.484494805719152,-1.4049296546448664,-1.1016459381125454,-0.8727654814720154,0.46576136350631714,-0.14610503613948822,-1.2555444240570068,0.3521060049533844,0.14112964272499084
1.6986000537872314,0.010445475578308105,0.10998061299324036,-0.28666943311691284,-0.4932084465124597,-1.4120571856109294,-1.1348276311404628,-0.8697441220283508,0.47345438599586487,-0.13923388719558716,-1.6832294464111328,0.5195484757423401,0.23544280230998993
1.7175450325012207,0.006573617458343506,0.16059133410453796,-0.31743472814559937,-0.5038964395315447,-1.4180063681082877,-1.1717754777531464,-0.8655062317848206,0.4828413426876068,-0.13327941298484802,-1.6531261205673218,0.5781778693199158,0.3120947480201721
1.7381670475006104,-0.009461462497711182,0.1933848261833191,-0.2929069995880127,-0.5151152503320258,-1.4250274900972608,-1.2053067687332677,-0.8610067963600159,0.49263516068458557,-0.1264045387506485,-1.4392191171646118,0.3182216286659241,0.33218351006507874
1.7574551105499268,-0.1554945707321167,0.18574339151382446,-0.27114373445510864,-0.5240238437053572,-1.4363047508568374,-1.231326457851287,-0.8579941987991333,0.500368058681488,-0.11609379947185516,-0.7970793843269348,-0.12162604182958603,0.216962993144989
1.778087854385376,-0.3180024027824402,0.2308596968650818,-0.2507176101207733,-0.5255269117947812,-1.4413712242999663,-1.2362922821089832,-0.8578245043754578,0.5016688704490662,-0.11164811998605728,0.39501088857650757,-0.050608325749635696,-0.15804645419120789
1.798043966293335,-0.2725411653518677,0.20860227942466736,-0.10174345970153809,-0.517513859909741,-1.4272920549262127,-1.2160248719704179,-0.8601188063621521,0.49472108483314514,-0.12428504973649979,1.3213311433792114,0.39700326323509216,-0.3481411933898926
1.8177411556243896,-0.05735057592391968,0.06264790892601013,0.026580333709716797,-0.5053574900222073,-1.4036025520651108,-1.1841496576129533,-0.8628001809120178,0.48412027955055237,-0.14561417698860168,1.5485974550247192,0.38529664278030396,-0.4194077253341675
1.8375840187072754,0.13053148984909058,0.000703662633895874,0.04261280596256256,-0.4929239112749792,-1.3817474509716048,-1.1507606977908116,-0.8652573227882385,0.47320374846458435,-0.16555289924144745,1.5269328355789185,0.20551764965057373,-0.23096439242362976
1.8577678203582764,0.24081259965896606,-0.050047069787979126,0.07778966426849365,-0.48647445853742344,-1.3657120714671451,-1.1215573106154753,-0.8654617071151733,0.4675122797489166,-0.18002358078956604,1.0994268655776978,0.024623490869998932,0.10245921462774277
1.8777070045471191,0.2230057716369629,-0.12843772768974304,0.08783866465091705,-0.4870857445196842,-1.3583274471689122,-1.1014696920129146,-0.8638290762901306,0.46805253624916077,-0.18634939193725586,0.6436203718185425,-0.17891232669353485,0.29609233140945435
1.897758960723877,0.10465675592422485,-0.095723956823349,0.05155211687088013,-0.4913740826269916,-1.3553915028745551,-1.08663658966742,-0.8613095879554749,0.4718378484249115,-0.18845400214195251,0.6724447011947632,-0.22716960310935974,0.36671358346939087
1.917349100112915,-0.02805924415588379,0.03393861651420593,-0.010023415088653564,-0.49300909358917355,-1.3494581320350734,-1.064259524384963,-0.8594224452972412,0.4732787609100342,-0.19339150190353394,1.2441537380218506,-0.2561628222465515,0.1944820135831833
1.938770055770874,-0.10493588447570801,0.06835418939590454,0.025236666202545166,-0.4886585224712875,-1.3395752523228441,-1.0310241831987284,-0.8594654202461243,0.46944183111190796,-0.20234544575214386,1.6445581912994385,-0.3168983459472656,0.04726558178663254
1.9559400081634521,-0.19523292779922485,-0.001286149024963379,0.11940473318099976,-0.48131007592987624,-1.3282600190202831,-0.9962904512051343,-0.8604463934898376,0.4629408121109009,-0.21288010478019714,1.4318429231643677,-0.12715955078601837,-0.0435415543615818
1.9762308597564697,-0.28547728061676025,-0.049659013748168945,0.2030591517686844,-0.47402767942109375,-1.3154364399028022,-0.9718420987153386,-0.860884964466095,0.45647355914115906,-0.2247418910264969,0.795497477054596,0.3177555203437805,-0.12335092574357986
1.9953138828277588,-0.25464731454849243,-0.08079850673675537,0.23403030633926392,-0.4702542711419023,-1.3013583379596527,-0.964419021799627,-0.8592900633811951,0.45311295986175537,-0.23729568719863892,-0.046726007014513016,0.6944544315338135,-0.049379199743270874
2.01725697517395,-0.15312063694000244,-0.10046344995498657,0.2110748291015625,-0.47359078636867846,-1.290026440389299,-0.9730502821543432,-0.8550886511802673,0.4560847878456116,-0.24659734964370728,-0.747832715511322,0.8303989171981812,0.17800290882587433
2.0362250804901123,-0.08357280492782593,-0.09845593571662903,0.18831020593643188,-0.4847236727594386,-1.2809631637161025,-0.9911908281860875,-0.8479000329971313,0.46596387028694153,-0.2528701424598694,-1.0646700859069824,0.9072911143302917,0.4326154291629791
2.056046962738037,-0.0320623517036438,-0.08726304769515991,0.1734279990196228,-0.5015696979539914,-1.2724163257957921,-1.0117829997703083,-0.8380853533744812,0.4808024764060974,-0.2577633261680603,-1.1368536949157715,0.9071261882781982,0.6467403173446655
2.0753591060638428,0.004446566104888916,-0.09350022673606873,0.16670861840248108,-0.5218665125736355,-1.264448821337116,-1.0306165704736396,-0.8265292048454285,0.4984990656375885,-0.26143524050712585,-1.0114775896072388,0.7980799078941345,0.7960703372955322
2.097447156906128,-0.0009919404983520508,-0.10651528835296631,0.16080963611602783,-0.5431905084828001,-1.2569174467602884,-1.0445104970804446,-0.8142393827438354,0.5168699026107788,-0.2643100321292877,-0.7722702622413635,0.6762332916259766,0.8587167263031006
2.1168410778045654,-0.02737194299697876,-0.14318585395812988,0.1698761284351349,-0.5632813782942452,-1.2480479074450543,-1.0524111757835632,-0.8018518090248108,0.5339635014533997,-0.2681732773780823,-0.5256022214889526,0.629724383354187,0.8318662047386169
2.13598895072937,-0.03009819984436035,-0.18128544092178345,0.17976993322372437,-0.580920138689053,-1.2385072234169543,-1.0567071499420597,-0.7902296185493469,0.548793375492096,-0.27269601821899414,-0.3995499014854431,0.5498238205909729,0.7193608283996582
2.1571638584136963,-0.016044914722442627,-0.21963459253311157,0.18770354986190796,-0.5954509482402424,-1.2307114648322286,-1.0600685907288216,-0.7804791331291199,0.5608821511268616,-0.27615877985954285,-0.3623075783252716,0.4224446415901184,0.5589941740036011
2.178079843521118,-0.007930994033813477,-0.2490193247795105,0.19770550727844238,-0.6065097568318443,-1.2260154617132537,-1.0648641145025572,-0.7732884883880615,0.5700032114982605,-0.2777073085308075,-0.3834596872329712,0.32317307591438293,0.3451608419418335
2.196197986602783,-0.005565762519836426,-0.267561137676239,0.19176000356674194,-0.613195248474742,-1.2247031915048303,-1.072305514186381,-0.7693213224411011,0.575483500957489,-0.2774229049682617,-0.428600013256073,0.22814306616783142,0.07482198625802994
2.2153589725494385,0.004164695739746094,-0.26895326375961304,0.1861659288406372,-0.6149732607669349,-1.2277368521334242,-1.0836296066893163,-0.7691946029663086,0.576936662197113,-0.2747431695461273,-0.5067983865737915,0.11676061153411865,-0.22566565871238708
2.236541986465454,0.00903385877609253,-0.2599138617515564,0.17566299438476562,-0.611401976737095,-1.2355939007797447,-1.0993721184876883,-0.773270308971405,0.5740160346031189,-0.2693672478199005,-0.5900706052780151,0.01599547080695629,-0.5381901860237122
2.255434989929199,0.012299060821533203,-0.23681199550628662,0.1640854775905609,-0.6027813637490492,-1.2470806096200198,-1.1189104726648653,-0.7809756994247437,0.5669358372688293,-0.2620316445827484,-0.6534051299095154,-0.042593006044626236,-0.7939133048057556
2.275357961654663,0.010579705238342285,-0.21746814250946045,0.14918163418769836,-0.5900241082691633,-1.2613631766734,-1.1416806466587364,-0.7914633750915527,0.5563810467720032,-0.253032922744751,-0.7467190623283386,-0.11010067909955978,-1.0017905235290527
2.296743154525757,-0.0068787336349487305,-0.19416415691375732,0.13730132579803467,-0.574072700658543,-1.2788778756419035,-1.16811719898328,-0.8041716814041138,0.5430563688278198,-0.24165621399879456,-0.8995456695556641,-0.1877925544977188,-1.1824597120285034
2.3178980350494385,-0.0548667311668396,-0.16046971082687378,0.13056594133377075,-0.5549423471563254,-1.2989974720917934,-1.198292902637176,-0.8187294602394104,0.5268942713737488,-0.22817641496658325,-1.0147024393081665,-0.19992421567440033,-1.363268494606018
2.338263988494873,-0.09465962648391724,-0.11468416452407837,0.11778952181339264,-0.5326956673325579,-1.3195134595158098,-1.231030184084566,-0.834386944770813,0.5078573226928711,-0.21419453620910645,-1.1162680387496948,-0.166227325797081,-1.5124640464782715
2.356665849685669,-0.1048966646194458,-0.05639052391052246,0.09234967827796936,-0.5077009948205176,-1.3398806727147405,-1.2650853038400907,-0.8506696820259094,0.4861695170402527,-0.20000045001506805,-1.145829677581787,-0.1890646368265152,-1.6113121509552002
2.375380039215088,-0.09583914279937744,-0.0004819333553314209,0.0568418949842453,-0.48098817538260785,-1.35958826259019,-1.2978086236877364,-0.8668379783630371,0.4626554548740387,-0.18585501611232758,-1.0756455659866333,-0.22919592261314392,-1.6291004419326782
2.395357847213745,-0.10129570960998535,0.05541744828224182,0.0063129812479019165,-0.45324357238703106,-1.377574274893213,-1.3272827843797266,-0.8823010325431824,0.4378839135169983,-0.1726337969303131,-0.9511305689811707,-0.24053315818309784,-1.6271718740463257
2.41603684425354,-0.09169495105743408,0.10020551085472107,-0.03647738695144653,-0.42493428999203725,-1.3939789569132428,-1.352902474232322,-0.8968609571456909,0.41226091980934143,-0.16025416553020477,-0.8166576027870178,-0.3301362991333008,-1.5814317464828491
2.4364521503448486,-0.12251758575439453,0.147443950176239,-0.06976264715194702,-0.3972382188756179,-1.410243667523383,-1.3748030739540589,-0.910273551940918,0.3868730962276459,-0.1474156677722931,-0.7074089646339417,-0.40089139342308044,-1.500990390777588
2.457411050796509,-0.2208181619644165,0.18334105610847473,-0.07601344585418701,-0.37032295731199427,-1.4248061192761787,-1.3945824196968188,-0.9222940802574158,0.36191651225090027,-0.1356106996536255,-0.7387838363647461,-0.2976139485836029,-1.4461581707000732
2.4760401248931885,-0.3160949945449829,0.21633055806159973,-0.06506508588790894,-0.34491089347115045,-1.4367966246756965,-1.416993619837216,-0.9326690435409546,0.33811283111572266,-0.12573081254959106,-1.0313708782196045,-0.09542479366064072,-1.367044448852539
2.495988130569458,-0.3561251759529114,0.2480314075946808,-0.050777971744537354,-0.3220837048263456,-1.4454123167976412,-1.4469117646790504,-0.9411313533782959,0.3165438175201416,-0.11862511187791824,-1.5069142580032349,0.22463515400886536,-1.2436200380325317
2.5158209800720215,-0.24786239862442017,0.24039459228515625,-0.03530269116163254,-0.30414404241888227,-1.4491527132359723,-1.485413437227167,-0.9470533132553101,0.29947662353515625,-0.11577459424734116,-1.8778012990951538,0.5945995450019836,-0.9599526524543762
2.535562038421631,-0.04860872030258179,0.25578761100769043,-0.06857424974441528,-0.29364117024459574,-1.4469535142376015,-1.5280087408129492,-0.949865460395813,0.28943943977355957,-0.11823911219835281,-2.012310266494751,0.8453060984611511,-0.583328366279602
2.5553579330444336,0.1479346752166748,0.2585564851760864,-0.11828392744064331,-0.2905586400011908,-1.441767198334362,-1.569766845106676,-0.9501197934150696,0.28648748993873596,-0.12327802181243896,-1.894136667251587,0.8480280041694641,-0.23594588041305542
2.5759079456329346,0.27491694688796997,0.2320442497730255,-0.15008419752120972,-0.2935781160572566,-1.4361187148259287,-1.6058767646566605,-0.9485467672348022,0.2893790900707245,-0.1285260170698166,-1.560369849205017,0.7709600925445557,0.07565239071846008
2.5953590869903564,0.31119298934936523,0.2021712362766266,-0.16593313217163086,-0.30145848115152574,-1.4287512210138307,-1.632979760118042,-0.9452871680259705,0.2969132363796234,-0.13518384099006653,-1.1172058582305908,0.7658735513687134,0.33951863646507263
2.61535906791687,0.28681957721710205,0.1581423580646515,-0.1233692616224289,-0.3135375301225035,-1.418983239580543,-1.6517372971598963,-0.9403076767921448,0.308425635099411,-0.14385788142681122,-0.8954285979270935,0.7677531242370605,0.6070036292076111
2.635399103164673,0.17954212427139282,0.09108853340148926,-0.04984843730926514,-0.3305151956994963,-1.4094206463891301,-1.6685947410461832,-0.9335857033729553,0.32453039288520813,-0.15197961032390594,-0.9888935685157776,0.7319948673248291,0.8090461492538452
2.6553571224212646,-0.03600931167602539,0.054410725831985474,-0.009247586131095886,-0.3505846196786917,-1.4004855949033492,-1.688948524746603,-0.9255842566490173,0.34344691038131714,-0.1591789573431015,-1.2640206813812256,0.8972787261009216,0.8263641595840454
2.6753389835357666,-0.2565348744392395,0.03958028554916382,0.02723081409931183,-0.3704948930082327,-1.3882032694254447,-1.7160562735813536,-0.916652262210846,0.3620767891407013,-0.16925959289073944,-1.614526629447937,1.3067620992660522,0.6891924142837524
2.6954739093780518,-0.26810771226882935,0.0038085877895355225,0.08973526954650879,-0.3898411812977888,-1.3726173267425203,-1.7527795469293974,-0.9068648219108582,0.3800415098667145,-0.1821119785308838,-2.1285810470581055,1.5853973627090454,0.585424542427063
2.7153618335723877,-0.13924658298492432,-0.03870636224746704,0.10911735892295837,-0.4108887042086152,-1.3584200695687803,-1.8001836039532448,-0.8961691856384277,0.3994242250919342,-0.19323909282684326,-2.5644590854644775,1.6662540435791016,0.5998761653900146
2.7353579998016357,-0.04632687568664551,-0.042255014181137085,0.07283896207809448,-0.43430477814203733,-1.3477372141563861,-1.8545468017301685,-0.884688138961792,0.420779824256897,-0.20067709684371948,-2.764228343963623,1.6441726684570312,0.6136712431907654
2.755397081375122,0.052854716777801514,-0.05862659215927124,0.029308095574378967,-0.45846064949302623,-1.3390159041656204,-1.9101162350762841,-0.8727551102638245,0.44256824254989624,-0.20598956942558289,-2.603078603744507,1.6054171323776245,0.6276070475578308
2.775359869003296,0.16587930917739868,-0.06174442172050476,-0.012833893299102783,-0.4820710159269719,-1.331165569709359,-1.9580607274641537,-0.8607187867164612,0.46361517906188965,-0.21029545366764069,-2.0765180587768555,1.3198384046554565,0.6633309721946716
2.795361042022705,0.21118050813674927,-0.05493396520614624,-0.06295984983444214,-0.5027757805136375,-1.3247215414294624,-1.9918828884192783,-0.8498523831367493,0.48185965418815613,-0.21345312893390656,-1.3141595125198364,0.9301291108131409,0.6224216222763062
2.8153579235076904,0.16983109712600708,-0.0896727442741394,-0.08975332975387573,-0.5185106378857065,-1.318307128269621,-2.011035372061091,-0.8410194516181946,0.4955870807170868,-0.21697889268398285,-0.7339102029800415,0.6759862899780273,0.46232113242149353
2.8353588581085205,0.11892801523208618,-0.1605549454689026,-0.08178649842739105,-0.5272343999358777,-1.3108156749173632,-2.0204023696798776,-0.8351602554321289,0.5031452178955078,-0.22215332090854645,-0.30781620740890503,0.5581637620925903,0.1818242222070694
2.8553600311279297,0.1263231635093689,-0.17647945880889893,-0.0733913779258728,-0.5286764046181426,-1.3036697054633783,-2.0237851473682555,-0.8328509330749512,0.5043908953666687,-0.2279239147901535,-0.03087981417775154,0.3105646073818207,-0.1219184473156929
2.8753578662872314,0.13432180881500244,-0.16524171829223633,-0.07574158906936646,-0.5231281124491696,-1.3004943615287086,-2.024441706113915,-0.8348069787025452,0.4995923340320587,-0.23131103813648224,0.0857495591044426,0.04998433217406273,-0.4243142008781433
2.895366907119751,0.10006064176559448,-0.15756359696388245,-0.08203011751174927,-0.5120626305086245,-1.302327276022909,-2.0268148473731045,-0.8405086398124695,0.48997634649276733,-0.23123285174369812,-0.004278362728655338,-0.12065762281417847,-0.695151686668396
2.915400981903076,0.06236422061920166,-0.16525527834892273,-0.07678776979446411,-0.49716006051834366,-1.3093730070971246,-2.03385464837433,-0.8490769267082214,0.4769313335418701,-0.2271672785282135,-0.23604054749011993,-0.2439500093460083,-0.8881603479385376
2.935452938079834,0.049147963523864746,-0.13945695757865906,-0.064089834690094,-0.4807793438432002,-1.3221809511986349,-2.047805201209144,-0.8593744039535522,0.46247032284736633,-0.2181672602891922,-0.5200995802879333,-0.3827947676181793,-1.0071122646331787
2.9556591510772705,0.04457372426986694,-0.07523360848426819,-0.08501392602920532,-0.4632027524333818,-1.3387785802410406,-2.065019629381246,-0.8706539869308472,0.4468156695365906,-0.20571179687976837,-0.5109079480171204,-0.4911457598209381,-1.0501164197921753
2.9758520126342773,0.05834972858428955,0.0014563202857971191,-0.10135388374328613,-0.44527174402953135,-1.3555529281093157,-2.07944372155957,-0.881668210029602,0.43070313334465027,-0.19275932013988495,-0.3635324537754059,-0.5443039536476135,-0.9805883169174194
2.9954869747161865,0.07579445838928223,0.011425822973251343,-0.09427161514759064,-0.4286601217696159,-1.3712101689329421,-2.090185580395756,-0.891468346118927,0.4156525135040283,-0.18032552301883698,-0.2577241063117981,-0.5725930333137512,-0.840086042881012
3.015509843826294,0.10054934024810791,0.028133928775787354,-0.07531797885894775,-0.41506270855546157,-1.3862979816745178,-2.0978198113763207,-0.8995605707168579,0.40324732661247253,-0.16787658631801605,-0.16100004315376282,-0.6366192102432251,-0.6273658275604248
3.0353870391845703,0.11293810606002808,0.05449208617210388,-0.07909594476222992,-0.4050397255932004,-1.4014370226127502,-2.102206749023734,-0.9059373140335083,0.3940552771091461,-0.15491284430027008,-0.03954150527715683,-0.7022092938423157,-0.43962550163269043
3.0554258823394775,0.12111401557922363,0.06510895490646362,-0.0720335990190506,-0.39799803262191774,-1.4162227577297093,-2.1022930702268194,-0.9108480215072632,0.38757362961769104,-0.1419251710176468,0.14356711506843567,-0.7890504002571106,-0.2598353922367096
3.07539701461792,0.13853788375854492,0.06179589033126831,-0.06686745584011078,-0.3938654599774633,-1.4311818700274836,-2.097894349190668,-0.9144472479820251,0.3837607502937317,-0.12850609421730042,0.32609283924102783,-0.8792341351509094,-0.0941978171467781
3.0954389572143555,0.14973121881484985,0.043858498334884644,-0.06469112634658813,-0.3919749710214039,-1.445772838239827,-2.0882435848359013,-0.9169431328773499,0.38201433420181274,-0.11524049192667007,0.600722074508667,-0.937995195388794,0.02414250560104847
3.1153550148010254,0.16763025522232056,0.036324262619018555,-0.07351303100585938,-0.39140975230249725,-1.4587546852273898,-2.072430450769808,-0.9185763001441956,0.38149192929267883,-0.10335163027048111,0.8642075657844543,-0.967250645160675,0.07191068679094315
3.135434865951538,0.21153634786605835,0.019960224628448486,-0.07308702915906906,-0.3906906368425903,-1.469378176285111,-2.0506055528938423,-0.9198949933052063,0.3808270990848541,-0.09361523389816284,1.142674446105957,-0.9271266460418701,0.07524943351745605
3.1553571224212646,0.2825678586959839,-0.018902629613876343,-0.064076729118824,-0.38986441259648896,-1.4774600431904217,-2.0238205671853495,-0.9209347367286682,0.380062997341156,-0.08620710670948029,1.3254005908966064,-0.9293105602264404,0.07648561149835587
3.175398111343384,0.31047534942626953,-0.05766385793685913,-0.04178934544324875,-0.3884337398444572,-1.48511908065312,-1.9938859762704064,-0.9221085906028748,0.37873929738998413,-0.07919760793447495,1.4463660717010498,-0.9537575244903564,0.0163677129894495
3.195369005203247,0.2806047201156616,-0.05910345911979675,-0.040977828204631805,-0.38511129657914467,-1.4918404354639616,-1.9626702041341584,-0.9238694310188293,0.37566229701042175,-0.07309689372777939,1.4498542547225952,-0.9016431570053101,-0.12863165140151978
3.215369939804077,0.24718528985977173,-0.04698491096496582,-0.022551052272319794,-0.3786129475173674,-1.497817137754572,-1.933175319028008,-0.9267048835754395,0.3696320056915283,-0.0677504912018776,1.2891454696655273,-0.7771650552749634,-0.2932262420654297
3.2354040145874023,0.24041998386383057,-0.045901328325271606,0.018585681915283203,-0.3704478678837569,-1.503270709492771,-1.9096672272053077,-0.9300410151481628,0.362032949924469,-0.0628972202539444,0.9360000491142273,-0.6268535256385803,-0.3633124530315399
3.255363941192627,0.21736228466033936,-0.05663108825683594,0.06444662064313889,-0.3623281494068452,-1.5084760791206364,-1.8952260520294517,-0.9332590103149414,0.3544521927833557,-0.058236345648765564,0.440784752368927,-0.4072549343109131,-0.3564010560512543
3.2753641605377197,0.1833527684211731,-0.03705981373786926,0.09933608770370483,-0.355342950439376,-1.5141418448814674,-1.892660884422571,-0.9360230565071106,0.34791192412376404,-0.05308670923113823,-0.21019132435321808,-0.2633083164691925,-0.3282831013202667
3.2953898906707764,0.14349365234375,-0.02860480546951294,0.19965094327926636,-0.34955327597271657,-1.5215123281596896,-1.9073130206193052,-0.938385009765625,0.3424781262874603,-0.04628484696149826,-1.1756242513656616,0.08832719177007675,-0.3156645894050598
3.3155879974365234,0.20690840482711792,-0.093496173620224,0.3105643391609192,-0.34523199264491344,-1.5269655101446615,-1.943215279866304,-0.9400931596755981,0.3384149968624115,-0.04123145714402199,-2.132936477661133,0.5720352530479431,-0.2581571638584137
3.334937810897827,0.37341541051864624,-0.09968838095664978,0.32683926820755005,-0.3437051247548433,-1.5302079459782096,-1.992238241930888,-0.9407371282577515,0.3369778096675873,-0.03820398077368736,-2.257551908493042,0.6709388494491577,-0.09532728046178818
3.3554069995880127,0.4378071427345276,0.034533411264419556,0.17635893821716309,-0.34413690268280434,-1.530816102511605,-2.028296822096586,-0.940614640712738,0.33738431334495544,-0.03762603551149368,-0.9980049729347229,0.48473668098449707,0.0011351372813805938
3.375419855117798,0.3946002125740051,0.12995010614395142,0.04566293954849243,-0.3445060700809488,-1.5249740607541131,-2.0315891162173054,-0.9402545690536499,0.33773180842399597,-0.04311477392911911,0.6375263333320618,0.20517534017562866,0.022317199036478996
3.395326852798462,0.3327627182006836,-0.02532079815864563,0.04260200262069702,-0.3448438411712668,-1.5159197804445184,-2.010009373506413,-0.9397116303443909,0.3380497097969055,-0.05161995440721512,1.1454790830612183,-0.03100106678903103,0.11017441749572754
3.415318012237549,0.22654128074645996,-0.16779553890228271,0.11159265041351318,-0.34570693146649567,-1.5115918129008563,-1.9905605713471637,-0.93918776512146,0.338861882686615,-0.05566921457648277,0.6713777780532837,-0.20495013892650604,0.04759814962744713
3.4353010654449463,0.07191866636276245,-0.07507133483886719,0.05648798495531082,-0.3459214148841324,-1.5114302863868119,-1.9809308790564495,-0.9391061067581177,0.3390636444091797,-0.05581659823656082,0.29389601945877075,-0.13074451684951782,0.04558749496936798
3.4553020000457764,-0.1293986439704895,0.06062352657318115,-0.002980884164571762,-0.34555000992255186,-1.5117688785915238,-1.974506318838534,-0.9392505884170532,0.33871421217918396,-0.05550604313611984,0.30881616473197937,-0.06345123797655106,-0.06488476693630219
3.475360155105591,-0.29440730810165405,0.08327460289001465,0.012594044208526611,-0.34299762866508055,-1.5089868607343224,-1.9701764217383904,-0.9399524331092834,0.33631160855293274,-0.05817205831408501,0.022663798183202744,0.25207504630088806,-0.15768937766551971
3.4953789710998535,-0.28048717975616455,-0.011640578508377075,0.1057964563369751,-0.3403475108056194,-1.5016136258024018,-1.9781689543459828,-0.940383791923523,0.33381468057632446,-0.0651622861623764,-0.8164950609207153,0.728203296661377,-0.14424258470535278
3.5153138637542725,-0.10824441909790039,-0.10512134432792664,0.11702961474657059,-0.3403208406026996,-1.4931225803418473,-2.003645097327891,-0.9398055076599121,0.33378955721855164,-0.07314537465572357,-1.4854475259780884,0.8927589058876038,-0.023130139335989952
3.5353100299835205,-0.02593994140625,-0.06209409236907959,0.041396498680114746,-0.34306051742430105,-1.4864904431716346,-2.0346437592938935,-0.938385009765625,0.3363708555698395,-0.07929933816194534,-1.3076187372207642,0.804989755153656,0.02451050467789173
3.5549399852752686,-0.03700876235961914,0.003026247024536133,-0.028208382427692413,-0.3447344003591216,-1.479191047276893,-2.05478672690735,-0.9372193217277527,0.33794671297073364,-0.08609519153833389,-0.5592607259750366,0.5893330574035645,-0.015083197504281998
3.5753629207611084,-0.059583187103271484,-0.0389041006565094,-0.08592766523361206,-0.3448469850963693,-1.4718692983436925,-2.058084863751512,-0.936525821685791,0.3380526602268219,-0.09295113384723663,0.22145570814609528,0.2590651214122772,0.010598734021186829
3.5953500270843506,-0.11543005704879761,-0.03305426239967346,-0.053472332656383514,-0.34417622190917074,-1.465701542908612,-2.0483383874396455,-0.9361599087715149,0.33742132782936096,-0.09874934703111649,0.6634246706962585,0.03654051572084427,-0.02656502090394497
3.6153690814971924,-0.2075028419494629,-0.03615298867225647,0.012842714786529541,-0.34062990446938657,-1.4598909101816084,-2.0324685302720913,-0.9367536902427673,0.33408087491989136,-0.10431911796331406,0.7769635319709778,0.04701774939894676,-0.14472101628780365
3.6353580951690674,-0.23139452934265137,-0.07658499479293823,0.05849914252758026,-0.33549866584391624,-1.4542502942582407,-2.020914692122416,-0.9378408789634705,0.329240083694458,-0.10979921370744705,0.3047886788845062,0.14070570468902588,-0.24074721336364746
3.6553709506988525,-0.24392294883728027,-0.09750676155090332,0.04202795773744583,-0.3298664436673128,-1.4504573107717427,-2.020175242970202,-0.939243495464325,0.3239166736602783,-0.11357641965150833,-0.1285526156425476,0.20379449427127838,-0.2878181040287018
3.675400972366333,-0.2584635019302368,-0.033623725175857544,-0.008145451545715332,-0.32552087455766526,-1.4489999550162769,-2.0266656260885068,-0.9404653310775757,0.31980234384536743,-0.11511505395174026,-0.3767918348312378,0.1322912722826004,-0.22848545014858246
3.695361852645874,-0.28712648153305054,-0.00791478157043457,-0.0052722543478012085,-0.3223843421501345,-1.4496101481414838,-2.0334675131139406,-0.9415264129638672,0.31682896614074707,-0.11466185003519058,-0.1568448543548584,0.011617322452366352,-0.1660001575946808
3.715367078781128,-0.33779990673065186,0.05694618821144104,0.0157969668507576,-0.3195425489982761,-1.4498418319840076,-2.0344762020480056,-0.9424429535865784,0.31413230299949646,-0.11455188691616058,0.05880836769938469,-0.012104162946343422,-0.13647693395614624
3.735450029373169,-0.3017813563346863,-0.0011802315711975098,0.028400540351867676,-0.3169299010243139,-1.4512244811616786,-2.0331149177405523,-0.9434121251106262,0.3116508424282074,-0.11334622651338577,0.10948337614536285,-0.14645086228847504,-0.0940755307674408
3.755418062210083,-0.2870248556137085,-0.009328097105026245,0.029658138751983643,-0.31493893093369674,-1.4535100311075613,-2.0282313275893555,-0.944283127784729,0.30975839495658875,-0.11126211285591125,0.4073307514190674,-0.24229341745376587,-0.05805749446153641
3.77537202835083,-0.3263416886329651,0.02333870530128479,0.007785677909851074,-0.31259917675750526,-1.4557697772187645,-2.017964107180966,-0.9452495574951172,0.3075328767299652,-0.10921087861061096,0.5703464150428772,-0.28845086693763733,-0.079502634704113
3.7953689098358154,-0.3296055197715759,-0.003817617893218994,0.02825886756181717,-0.3092929780150183,-1.4582024156560256,-2.006447710535906,-0.9465174674987793,0.304385244846344,-0.10702475160360336,0.5171962976455688,-0.3243541121482849,-0.1316462904214859
3.8154549598693848,-0.32771390676498413,-0.025118708610534668,0.051037974655628204,-0.3052106180615153,-1.4621981860837052,-1.998046270489452,-0.9481649398803711,0.30049407482147217,-0.10337565839290619,0.33149224519729614,-0.3295026123523712,-0.1645762026309967
3.835359811782837,-0.2785705327987671,-0.045366376638412476,0.047532208263874054,-0.3019638701101031,-1.4683318143518582,-1.9932913894000668,-0.9497466683387756,0.297395795583725,-0.09765733778476715,0.18423491716384888,-0.41411054134368896,-0.13414216041564941
3.8553709983825684,-0.2694176435470581,-0.03353986144065857,0.026707656681537628,-0.29943872085901474,-1.4759667319497078,-1.989875827878745,-0.9512090682983398,0.29498395323753357,-0.09047413617372513,0.22407278418540955,-0.5117601156234741,-0.10803946852684021
3.875411033630371,-0.2792787551879883,0.06011402606964111,0.06279344111680984,-0.2950867502655007,-1.483797585635438,-1.9811211000830955,-0.9531583786010742,0.2908228635787964,-0.08313342183828354,0.7105607986450195,-0.40485748648643494,-0.2344476729631424
3.895374059677124,-0.348677396774292,0.14924302697181702,0.026096582412719727,-0.2882654922045317,-1.483400343484273,-1.9609754080471846,-0.9550793170928955,0.28428971767425537,-0.08368325978517532,1.2486884593963623,-0.18816307187080383,-0.3072400689125061
3.915369987487793,-0.3248123526573181,0.07032492756843567,-0.0013418272137641907,-0.280348453654859,-1.4807207002394915,-1.9349739930351872,-0.9570633769035339,0.2766905128955841,-0.0864419937133789,1.154049038887024,-0.33314627408981323,-0.21727776527404785
3.9353909492492676,-0.3215746283531189,-0.023588240146636963,0.02759791910648346,-0.2749964502283545,-1.485878157271159,-1.9169091794470101,-0.958958089351654,0.2715435326099396,-0.08162926882505417,0.64601731300354,-0.6380600929260254,-0.17164607346057892
3.9554409980773926,-0.4223862290382385,0.03908419609069824,0.07541084289550781,-0.27095113792699543,-1.4962142416614468,-1.9083006708028425,-0.9608381986618042,0.26764798164367676,-0.07179448753595352,0.239122211933136,-0.5742466449737549,-0.1874687522649765
3.975372076034546,-0.49293285608291626,0.018157213926315308,0.0944281816482544,-0.2674445824275459,-1.504703259767372,-1.9055405919261397,-0.962343692779541,0.2642677426338196,-0.06369702517986298,0.10931991040706635,-0.3591564893722534,-0.10209360718727112
3.995371103286743,-0.45254749059677124,0.03180322051048279,0.09162521362304688,-0.26696514399402427,-1.5105719209911026,-1.9057336297055292,-0.9628273248672485,0.2638052999973297,-0.05805590748786926,-0.15078938007354736,-0.292341411113739,0.002354008611291647
4.0154149532318115,-0.3974350094795227,0.006937950849533081,0.04798603057861328,-0.2676386596569243,-1.518293249446113,-1.9092345324548359,-0.9630691409111023,0.2644549012184143,-0.050610605627298355,-0.12086984515190125,-0.3877566158771515,0.07970081269741058
4.035367965698242,-0.3423067331314087,0.05960005521774292,0.022389531135559082,-0.26958110438972077,-1.5274177601327963,-1.9091080728687748,-0.9629759192466736,0.2663276791572571,-0.04179873690009117,0.11073694378137589,-0.5118364095687866,0.0934237539768219
4.0547778606414795,-0.36314332485198975,0.028628826141357422,0.030337214469909668,-0.27163540384503665,-1.5370329194958459,-1.9056108299622423,-0.9627844095230103,0.26830723881721497,-0.03251923993229866,0.20191389322280884,-0.5357649922370911,0.14208662509918213
4.075387001037598,-0.37657999992370605,0.0027092695236206055,0.050652023404836655,-0.2751799437626637,-1.5463523689084882,-1.9017239480704553,-0.962088942527771,0.27172011137008667,-0.023521946743130684,0.16619721055030823,-0.5001481175422668,0.21018700301647186
4.095381021499634,-0.36032992601394653,0.031803250312805176,0.013047754764556885,-0.27980154781717687,-1.5549495915623517,-1.8958611789705857,-0.9609896540641785,0.2761649191379547,-0.015229823999106884,0.42517760396003723,-0.528101921081543,0.2764360308647156
4.11535906791687,-0.3192065954208374,0.04381254315376282,0.01027840469032526,-0.28599814478989694,-1.5618957458011309,-1.8842805177808477,-0.9593425393104553,0.2821151912212372,-0.008538931608200073,0.6795719861984253,-0.49204397201538086,0.34252017736434937
4.135401010513306,-0.3014400005340576,0.013521790504455566,0.012876451015472412,-0.2931969233318455,-1.5671642453669725,-1.8689143210307149,-0.9573184251785278,0.28901419043540955,-0.0034770737402141094,0.7637441158294678,-0.48821496963500977,0.40133213996887207
4.155449151992798,-0.2963748574256897,-0.008414685726165771,0.031867265701293945,-0.30206510001748177,-1.571732056510134,-1.8520372082103997,-0.9547237157821655,0.29749244451522827,0.000893363612703979,0.8720431923866272,-0.454973042011261,0.49681901931762695
4.1753809452056885,-0.3283947706222534,0.029196828603744507,0.03684735298156738,-0.3123599830577425,-1.574631366492398,-1.8331291319838092,-0.9516040682792664,0.3073052763938904,0.0036494573578238487,0.9053148031234741,-0.40277355909347534,0.5156468749046326
4.19536280632019,-0.30354881286621094,-0.053583741188049316,0.09748208522796631,-0.3231238482149435,-1.575775316568544,-1.8152479233954242,-0.9482365250587463,0.3175302743911743,0.004721298813819885,0.788945198059082,-0.3119296729564667,0.5678802132606506
4.2153918743133545,-0.2573623061180115,-0.09965381026268005,0.1117333173751831,-0.33444579179610673,-1.5772812476209432,-1.7990840158291574,-0.9445725083351135,0.32824572920799255,0.006125563755631447,0.7743052244186401,-0.34953072667121887,0.5538911819458008
4.2353949546813965,-0.22689026594161987,-0.09145215153694153,0.12090051174163818,-0.3455894960272668,-1.5782835030075923,-1.7809789927887325,-0.9408496022224426,0.3387513756752014,0.007044438272714615,1.0161468982696533,-0.3766559660434723,0.5350447297096252
4.255363941192627,-0.2068982720375061,-0.056544482707977295,0.07951641082763672,-0.35625362575875796,-1.5772569436680397,-1.7546619894571842,-0.9371904134750366,0.3487655520439148,0.006054912693798542,1.4426182508468628,-0.4310227632522583,0.5259449481964111
4.275370836257935,-0.1654980182647705,-0.04601815342903137,0.03718411922454834,-0.3661243337668339,-1.574736395322636,-1.720369214842174,-0.9337145090103149,0.357999324798584,0.003678918117657304,1.7769205570220947,-0.5070762634277344,0.4704553782939911
4.295408010482788,-0.1332087516784668,-0.04818439483642578,0.035710811614990234,-0.3769813040307345,-1.569658280629761,-1.6830340618554818,-0.9297794103622437,0.3681154251098633,-0.0010581323876976967,1.6079449653625488,-0.3173463046550751,0.6089996695518494
4.315361976623535,-0.13138556480407715,-0.09446245431900024,0.023283421993255615,-0.38926863423463054,-1.5636895413874428,-1.6549560665302856,-0.9251635074615479,0.37951186299324036,-0.00657504890114069,0.9730300307273865,-0.14518214762210846,0.6266793608665466
4.3353588581085205,-0.09312492609024048,-0.10361191630363464,0.014612138271331787,-0.40282447761805074,-1.5587605411467322,-1.6405938492460357,-0.9198908805847168,0.39201828837394714,-0.011072143912315369,0.36254873871803284,0.09634676575660706,0.756100058555603
4.355401992797852,-0.08713400363922119,-0.07764077186584473,-0.02856677770614624,-0.4183341491560645,-1.553414548319413,-1.6367869830215294,-0.9136289954185486,0.4062388241291046,-0.0158820953220129,0.00870304275304079,0.28236323595046997,0.7875370979309082
4.375367879867554,-0.0605771541595459,-0.04260721802711487,-0.05430138111114502,-0.434373422681695,-1.5462470041406673,-1.6379715100013752,-0.9068606495857239,0.42084208130836487,-0.022267287597060204,-0.11724289506673813,0.4883193373680115,0.8316376805305481
4.395367860794067,-0.01664280891418457,-0.05625230073928833,-0.06736534833908081,-0.45165538093839086,-1.5367667861043266,-1.6414208520640978,-0.8992049098014832,0.43645551800727844,-0.030611347407102585,-0.24139001965522766,0.5943969488143921,0.8675918579101562
4.415369987487793,0.010945141315460205,-0.029960691928863525,-0.0798686146736145,-0.4688904385460511,-1.5268613261323565,-1.6470163471425328,-0.8912094831466675,0.4518967568874359,-0.03918050229549408,-0.31717267632484436,0.6675384640693665,0.8524613976478577
4.435403108596802,0.0383296012878418,-0.05078709125518799,-0.04599469155073166,-0.48593071688544665,-1.5157951378426935,-1.6547141217874946,-0.8829033970832825,0.4670315384864807,-0.048609763383865356,-0.41171741485595703,0.7826420068740845,0.8105461001396179
4.455371141433716,0.07882809638977051,-0.07704576849937439,-0.035020168870687485,-0.5024295476009145,-1.503071507780833,-1.6622803625290314,-0.8744060397148132,0.481556236743927,-0.0593096986413002,-0.34089675545692444,0.8402100801467896,0.7994040846824646
4.475360155105591,0.1155012845993042,-0.06831389665603638,-0.026895172894001007,-0.5183038860759541,-1.4884176183553417,-1.6672774167201576,-0.8657150268554688,0.49540749192237854,-0.07147824764251709,-0.2095804214477539,0.8482078909873962,0.7477797269821167
4.4953930377960205,0.12375396490097046,-0.06904524564743042,-0.01997368037700653,-0.532376914960109,-1.4730242787372243,-1.6695880811023416,-0.8574879765510559,0.5075827240943909,-0.08410652726888657,-0.1268972009420395,0.8332623243331909,0.6392080783843994
4.515368938446045,0.12319791316986084,-0.06420564651489258,-0.03304731100797653,-0.5443886454705612,-1.456079279847024,-1.6694762650966881,-0.8498213887214661,0.5178952217102051,-0.09791891276836395,0.019312504678964615,0.8736212253570557,0.5686141848564148
4.535360097885132,0.17349594831466675,-0.08029001951217651,-0.029855482280254364,-0.555002329679582,-1.4371397958823677,-1.667198001440635,-0.842319130897522,0.5269452929496765,-0.11325667053461075,0.002626188565045595,0.9001832604408264,0.5103275179862976
4.5546300411224365,0.20453518629074097,-0.074118971824646,-0.027421772480010986,-0.5647371942298133,-1.4190977885666636,-1.667551568367785,-0.835028350353241,0.5351938605308533,-0.12765328586101532,-0.18986082077026367,0.9405881762504578,0.4580286741256714
4.575363874435425,0.2120181918144226,-0.05918443202972412,-0.02530384063720703,-0.5748537161145625,-1.4016773809692324,-1.6722247580664518,-0.8272984027862549,0.5437120199203491,-0.14126114547252655,-0.3741932511329651,1.0675832033157349,0.4923897385597229
4.595369100570679,0.2220621109008789,-0.053274452686309814,-0.025686606764793396,-0.5861617592629697,-1.3839727623681302,-1.6805800238882544,-0.8185738921165466,0.5531675815582275,-0.1547333151102066,-0.47853827476501465,1.1533253192901611,0.5024130344390869
4.6153600215911865,0.23945266008377075,-0.0010256767272949219,-0.051277339458465576,-0.5985367123197025,-1.3656322664276956,-1.6889561179877557,-0.8088343739509583,0.5634341835975647,-0.1683119386434555,-0.4424876868724823,1.1375068426132202,0.5733575820922852
4.6353600025177,0.19946354627609253,0.008518755435943604,-0.030502617359161377,-0.6108617600508771,-1.3466423523865942,-1.6960318522594802,-0.798660933971405,0.5735735893249512,-0.1820828765630722,-0.3574731647968292,1.1494499444961548,0.5971205830574036
4.655373811721802,0.21228677034378052,0.011195480823516846,0.008011221885681152,-0.624291984036698,-1.3254815827004904,-1.6991336663589345,-0.7870853543281555,0.5845229625701904,-0.19705241918563843,-0.18972906470298767,1.0815821886062622,0.6275833249092102
4.6753740310668945,0.2476254105567932,-0.0020973682403564453,0.04155939817428589,-0.6377314966332714,-1.304539481592458,-1.6960532742685475,-0.7751370072364807,0.595374345779419,-0.21140499413013458,0.09169274568557739,0.760205090045929,0.8573057651519775
4.695410966873169,0.17965435981750488,-0.01475059986114502,0.07244488596916199,-0.653996797605677,-1.2823117092963874,-1.6840133807718316,-0.7608616948127747,0.6083633303642273,-0.22579576075077057,0.32402315735816956,0.7579371333122253,0.8568134307861328
4.715368986129761,0.11362260580062866,-0.05700528621673584,0.1360493004322052,-0.6677624751706775,-1.2575507703147353,-1.669181478651535,-0.7469996809959412,0.6192306280136108,-0.2419605255126953,0.3895971477031708,0.7977730631828308,0.8474481105804443
4.735370874404907,0.17332273721694946,-0.09831035137176514,0.12578406929969788,-0.6804768197354569,-1.2316547809668548,-1.6503093171775303,-0.7329999208450317,0.6291637420654297,-0.25858134031295776,0.6407955288887024,0.6108608841896057,0.8293396234512329
4.755362033843994,0.1836026906967163,-0.07043707370758057,0.09073150157928467,-0.690218923743149,-1.2033874794547366,-1.622860077608383,-0.7196439504623413,0.6367059946060181,-0.27698031067848206,1.0311945676803589,0.5009000897407532,0.8246173858642578
4.7753589153289795,0.1467648148536682,-0.08536350727081299,0.08532610535621643,-0.696174331268691,-1.169982223726934,-1.5875135407117127,-0.7064876556396484,0.6412869691848755,-0.29937639832496643,1.2436153888702393,0.5982549786567688,0.7188212871551514
4.795361042022705,0.15376198291778564,-0.10020077228546143,0.07037276029586792,-0.6974154697906194,-1.1345015165458705,-1.5511053316465422,-0.6947013139724731,0.6422387957572937,-0.3239128291606903,1.2219393253326416,0.5957783460617065,0.5273892879486084
4.815361022949219,0.17394793033599854,-0.11675477027893066,0.07188770174980164,-0.6957620708939762,-1.1006265580649144,-1.5181253421297787,-0.684278130531311,0.6409705877304077,-0.347736120223999,1.0893876552581787,0.6708136796951294,0.46055564284324646
4.835361003875732,0.1828364133834839,-0.12689495086669922,0.06790691614151001,-0.693786516074457,-1.06932615330817,-1.4906371082993,-0.6741694211959839,0.6394529342651367,-0.3695884048938751,0.8926066756248474,0.7072737216949463,0.35401058197021484
4.855375051498413,0.1752457618713379,-0.09074622392654419,0.03910914063453674,-0.6915252064455936,-1.0410629773251545,-1.468587693757639,-0.6647018790245056,0.6377127766609192,-0.38922208547592163,0.7216445207595825,0.7225567698478699,0.29070669412612915
4.875422954559326,0.17028462886810303,-0.0714728832244873,0.03504067659378052,-0.6896033891302479,-1.0147095613863513,-1.4504408182550024,-0.6552547812461853,0.6362312436103821,-0.4072483479976654,0.5689182281494141,0.7539616823196411,0.26939868927001953
4.895374059677124,0.16980749368667603,-0.06190145015716553,0.044481873512268066,-0.6882537703538522,-0.9901169419967059,-1.4356407054778106,-0.6457595825195312,0.635189414024353,-0.42370861768722534,0.48076799511909485,0.7701541781425476,0.23715749382972717
4.915369033813477,0.1741076111793518,-0.04936307668685913,0.055064111948013306,-0.6868771721384469,-0.9662999770014341,-1.4224137081053436,-0.636204719543457,0.6341255903244019,-0.4394635260105133,0.45415112376213074,0.7731161117553711,0.21853983402252197
4.93541693687439,0.16326665878295898,-0.04913020133972168,0.0458255410194397,-0.6849593785914467,-0.942678333570165,-1.4095934928817033,-0.6266303062438965,0.6326415538787842,-0.455081582069397,0.4719056487083435,0.7716694474220276,0.20159991085529327
4.955404043197632,0.18770486116409302,-0.04668128490447998,0.05503442883491516,-0.682331936830789,-0.9199000946650266,-1.397008797241373,-0.6174228191375732,0.6306045651435852,-0.4702413082122803,0.4582732319831848,0.7082139253616333,0.15803231298923492
4.975387811660767,0.22540044784545898,-0.06772816181182861,0.07657730579376221,-0.6789418089295134,-0.8998784789435754,-1.3856776117283438,-0.609555721282959,0.6279698610305786,-0.4838343858718872,0.4306911826133728,0.5638722777366638,0.10868573188781738
4.995195150375366,0.2584460973739624,-0.06470024585723877,0.0639733076095581,-0.6734749704388663,-0.8850717168720124,-1.375593093802356,-0.6049731373786926,0.6237059831619263,-0.4949730932712555,0.5861513614654541,0.29073166847229004,-0.03150459751486778
5.015362977981567,0.28915661573410034,-0.011083483695983887,0.09286725521087646,-0.6638909825338084,-0.8731730676275777,-1.3630281759771747,-0.6035944819450378,0.6161860227584839,-0.5059531927108765,0.7720975875854492,0.13747289776802063,-0.04991031438112259
5.035408020019531,0.2713456153869629,-0.03797435760498047,0.1452418565750122,-0.6543811575577008,-0.8627070131889473,-1.3493350688949521,-0.6026902198791504,0.608668327331543,-0.516030490398407,0.5802808403968811,0.08491071313619614,0.03522555157542229
5.05446195602417,0.21097731590270996,-0.017867445945739746,0.10054385662078857,-0.6498364149256489,-0.8569627649886697,-1.3399388576291524,-0.6018006801605225,0.6050561666488647,-0.5212897062301636,0.36838454008102417,-0.08841047435998917,0.12879961729049683
5.075359106063843,0.06397956609725952,0.04857945442199707,0.05588608980178833,-0.6495937947607648,-0.8593682476559693,-1.336531050076956,-0.6031641960144043,0.6048629879951477,-0.5199365019798279,-0.08201299607753754,-0.3366239368915558,-0.1472705602645874
5.0954248905181885,-0.5578166842460632,-0.4278140664100647,-0.31482529640197754,-0.6403504946396675,-0.8563172446006737,-1.3305805077953203,-0.6057727932929993,0.5974765419960022,-0.5254152417182922,0.536037266254425,0.5530008673667908,-0.004114334471523762
5.115370035171509,-0.22940093278884888,-0.03435784578323364,0.029236197471618652,-0.6427589109475838,-0.8412721507271333,-1.3352339182736366,-0.5967251658439636,0.5994060635566711,-0.5335087180137634,-0.6410732865333557,0.7723913788795471,-0.2771257758140564
5.135365962982178,0.24045097827911377,0.1024213433265686,-0.12157851457595825,-0.64331261336279,-0.8397693552208734,-1.3434632189839137,-0.5956755876541138,0.5998491644859314,-0.5341832041740417,0.125974640250206,0.029001105576753616,0.12261150032281876
5.155382871627808,0.07895088195800781,0.11636364459991455,-0.07710444927215576,-0.6426314767111984,-0.8329435007835212,-1.332202986862264,-0.5923175811767578,0.5993040800094604,-0.5385113954544067,0.5222389101982117,0.03967585787177086,0.19520333409309387
5.175400018692017,-0.14084351062774658,-0.02501368522644043,-0.05587327480316162,-0.6343143524029977,-0.8235355576993705,-1.3207355082803083,-0.5908612012863159,0.5926253795623779,-0.5474287271499634,0.7001001834869385,0.22911421954631805,-0.06454028189182281
5.195359945297241,-0.03303712606430054,-0.09173274040222168,0.007927238941192627,-0.6258819872759677,-0.8108603891546043,-1.3077214105467125,-0.5874767303466797,0.5858123302459717,-0.5582965016365051,0.5723240971565247,0.26304635405540466,0.17397864162921906
5.215359926223755,0.01956075429916382,-0.05611848831176758,0.04962122440338135,-0.6212953808539704,-0.801746097818912,-1.2971457183351338,-0.5842885375022888,0.5820889472961426,-0.5654903650283813,0.408615380525589,0.10423283278942108,0.12264623492956161
5.2353599071502686,0.011226058006286621,-0.025089144706726074,0.06762504577636719,-0.6194473521083395,-0.7956530402202425,-1.2893286271161009,-0.5815995335578918,0.5805853009223938,-0.5697917342185974,0.20791597664356232,0.06753775477409363,0.16932137310504913
5.255386114120483,-0.0020049214363098145,-0.00785142183303833,0.07451969385147095,-0.6186288554144279,-0.7911313161751524,-1.2830276812659087,-0.5793549418449402,0.5799186825752258,-0.572749674320221,0.25504860281944275,0.024753453209996223,0.15368413925170898
5.275386095046997,0.002934575080871582,-0.0027677416801452637,0.060910046100616455,-0.616847514399509,-0.7867938480390306,-1.2750360256081035,-0.5775957703590393,0.578466534614563,-0.5759857296943665,0.2991311252117157,-0.04961035028100014,0.18000146746635437
5.29535984992981,-0.013852477073669434,-0.07021433115005493,0.05338865518569946,-0.6161964789806957,-0.7843177601900083,-1.2680089388561788,-0.5764337778091431,0.5779353380203247,-0.5776807069778442,0.10426923632621765,-0.10470093786716461,0.1737951785326004
5.3153698444366455,-0.026788055896759033,-0.09886258840560913,0.0648568868637085,-0.6191067258657705,-0.7853578293213883,-1.2659278489987913,-0.575842559337616,0.5803079009056091,-0.575888991355896,-0.15882259607315063,-0.10980826616287231,0.1508302241563797
5.335361957550049,-0.05112642049789429,-0.04993623495101929,0.03994739055633545,-0.6233581246488168,-0.7875295352523038,-1.266600290778176,-0.5753384232521057,0.5837649703025818,-0.572891116142273,-0.15672551095485687,-0.055421363562345505,0.11402822285890579
5.355406999588013,-0.06758326292037964,-0.010414659976959229,0.029668986797332764,-0.6270071243188814,-0.7885089654019911,-1.2678274349679959,-0.5743844509124756,0.586723804473877,-0.5708218812942505,-0.1828678995370865,0.0205155648291111,0.07275370508432388
5.375358819961548,-0.07760733366012573,-0.008343935012817383,0.009076535701751709,-0.6303708616169269,-0.7890723443927795,-1.2697491758003576,-0.5733020901679993,0.5894443988800049,-0.5691046118736267,-0.15376189351081848,0.026900937780737877,0.06784296780824661
5.395364046096802,-0.09057778120040894,-0.0024207234382629395,0.019134521484375,-0.6329765641183301,-0.7899466324038447,-1.2720664092820835,-0.5727064609527588,0.5915473103523254,-0.5675201416015625,-0.19242960214614868,0.06903064250946045,0.02764606475830078
5.415386915206909,-0.08479976654052734,-0.019364774227142334,0.019814133644104004,-0.6357888653454021,-0.7907892950214338,-1.276170015311748,-0.5719995498657227,0.5938124060630798,-0.5658650994300842,-0.25735706090927124,0.10212627053260803,-0.016163835301995277
5.435363054275513,-0.03618210554122925,-0.029014408588409424,0.033466994762420654,-0.6392522850640019,-0.7928527516987511,-1.282023917392059,-0.571697473526001,0.5965955257415771,-0.5632368326187134,-0.31060293316841125,0.057477667927742004,-0.03716851770877838
5.4553821086883545,-0.013050258159637451,-0.041251420974731445,0.017102420330047607,-0.6425830034888927,-0.7969880785556737,-1.288994640411357,-0.5725972652435303,0.5992652773857117,-0.5594760775566101,-0.34439265727996826,-0.022788142785429955,-0.09413476288318634
5.47536301612854,-0.05158334970474243,-0.06756788492202759,-7.94529914855957e-05,-0.6452097914991203,-0.8035306209700768,-1.2991437808219537,-0.5751103162765503,0.6013660430908203,-0.5546232461929321,-0.443905234336853,0.06493283063173294,-0.21859534084796906
5.4953999519348145,-0.06412142515182495,-0.08345252275466919,-0.0029526352882385254,-0.6480205461340351,-0.8087885675825246,-1.312952912051785,-0.5767934918403625,0.6036093831062317,-0.5504226088523865,-0.5633979439735413,0.1683441698551178,-0.31239068508148193
5.515361070632935,-0.017622172832489014,-0.06519746780395508,0.013245820999145508,-0.6513862504840185,-0.8151161107429034,-1.329921600524289,-0.578782856464386,0.6062893867492676,-0.5453656315803528,-0.6063668727874756,0.21257396042346954,-0.3444790542125702
5.535370111465454,0.021975696086883545,-0.03294569253921509,0.018707871437072754,-0.6554477912193153,-0.8214199204454482,-1.3467356322273965,-0.580401599407196,0.6095142960548401,-0.54002445936203,-0.6559888124465942,0.1739504039287567,-0.28913190960884094
5.554759979248047,0.024615347385406494,-0.012120425701141357,0.03215581178665161,-0.6601757836963806,-0.8289566879322617,-1.3638532998361448,-0.5823240280151367,0.6132557392120361,-0.5336816906929016,-0.6502733826637268,0.1345168799161911,-0.2824235260486603
5.575360059738159,0.021052241325378418,0.03187417984008789,0.026104390621185303,-0.6640988139745302,-0.8361554671776897,-1.3795154500836853,-0.5843609571456909,0.6163496971130371,-0.5278591513633728,-0.5072788000106812,0.09031781554222107,-0.2559623122215271
5.595401048660278,0.012218654155731201,0.04662656784057617,0.013218164443969727,-0.6651685938103217,-0.8428393279210991,-1.3920759195354535,-0.5873834490776062,0.6171917915344238,-0.5235025882720947,-0.3388868570327759,0.03616509959101677,-0.36568304896354675
5.615389108657837,-0.03850764036178589,-0.05854445695877075,-0.029207289218902588,-0.6646545454814158,-0.8494215653520787,-1.4071192805094457,-0.5910547375679016,0.6167872548103333,-0.5198344588279724,-0.3629057705402374,0.21955205500125885,-0.3696499764919281
5.635359048843384,-0.03556525707244873,-0.1352807879447937,-0.07315206527709961,-0.665527026759216,-0.8536417891983179,-1.4204987934158082,-0.5928374528884888,0.6174737811088562,-0.5169816017150879,-0.6902899146080017,0.17148332297801971,-0.3695555031299591
5.655359983444214,-0.03145211935043335,-0.05875730514526367,-0.030770599842071533,-0.6671956634211331,-0.8628075467625809,-1.4407047456256399,-0.5967674851417542,0.6187854409217834,-0.5108554363250732,-0.5340990424156189,0.16876815259456635,-0.4750402569770813
5.6753809452056885,-0.026417672634124756,-0.08491885662078857,-0.02401137351989746,-0.6670115250105537,-0.8705254887778707,-1.4587519378023335,-0.6007795333862305,0.6186407804489136,-0.50630784034729,-0.5553011298179626,0.16782689094543457,-0.4937978982925415
5.695425987243652,-0.03691291809082031,-0.10637378692626953,-0.0013321638107299805,-0.6655571418050826,-0.8796401440628914,-1.478727593316054,-0.6060619354248047,0.617497444152832,-0.5013839602470398,-0.559558629989624,0.1655758172273636,-0.6192024946212769
5.715364933013916,-0.018953680992126465,-0.11941647529602051,0.026066184043884277,-0.662742868436708,-0.8899187749772942,-1.5007407069387155,-0.6125312447547913,0.6152814030647278,-0.49622005224227905,-0.616205096244812,0.15867920219898224,-0.7086825966835022
5.735358953475952,0.005654335021972656,-0.14945000410079956,0.052937984466552734,-0.658438933555904,-0.902808854300568,-1.5258799313709557,-0.6209497451782227,0.6118828654289246,-0.4899192154407501,-0.6540220975875854,0.08533122390508652,-0.867470383644104
5.755360841751099,0.025375008583068848,-0.17351508140563965,0.07230764627456665,-0.6512846105030229,-0.9182696087119099,-1.5528098137477886,-0.6319118738174438,0.6062085628509521,-0.48290643095970154,-0.5959010124206543,0.0111552644520998,-1.0118639469146729
5.7753918170928955,0.019908785820007324,-0.16701990365982056,0.08506739139556885,-0.6406663197887553,-0.9352904091519737,-1.5805013847873297,-0.6451834440231323,0.5977297425270081,-0.47587552666664124,-0.5388920307159424,-0.04970178380608559,-1.1709293127059937
5.7953619956970215,0.006359219551086426,-0.16524821519851685,0.0922747552394867,-0.6266147700016433,-0.9535502269518306,-1.6086065555583582,-0.6605491638183594,0.5864060521125793,-0.4688311815261841,-0.4772721230983734,-0.09548844397068024,-1.2797775268554688
5.815358877182007,-0.011662840843200684,-0.18292295932769775,0.10225251317024231,-0.6114080131841665,-0.9725223384480006,-1.6377698188307594,-0.676615297794342,0.5740209817886353,-0.4611850082874298,-0.6584486365318298,-0.1204301044344902,-1.3518743515014648
5.835402965545654,-0.04045665264129639,-0.199937641620636,0.10992658138275146,-0.5965229744714122,-0.9951419719993077,-1.6732337928869836,-0.6939641237258911,0.5617693662643433,-0.4503653943538666,-0.9476416110992432,-0.12470651417970657,-1.5047640800476074
5.85536003112793,-0.059083640575408936,-0.18227797746658325,0.1019887924194336,-0.5815234921393122,-1.0210601269889772,-1.715049777240921,-0.7125075459480286,0.5492976307868958,-0.4365835189819336,-1.182043194770813,-0.14489825069904327,-1.6250299215316772
5.875370979309082,-0.07747215032577515,-0.15715950727462769,0.09348821640014648,-0.5652817368864116,-1.0494431084609457,-1.7613010955271213,-0.7322507500648499,0.5356537699699402,-0.4205755591392517,-1.3150690793991089,-0.17821332812309265,-1.7666932344436646
5.895359992980957,-0.0904279351234436,-0.12520313262939453,0.07694065570831299,-0.5460757553338433,-1.0788128692280743,-1.809316639149811,-0.7532152533531189,0.5193377137184143,-0.4036771357059479,-1.2970863580703735,-0.22663119435310364,-1.901848554611206
5.915387868881226,-0.10953700542449951,-0.08673343062400818,0.05519294738769531,-0.5228618057515594,-1.1074569355576975,-1.85590287330384,-0.7750455141067505,0.49936163425445557,-0.3872241973876953,-1.2174193859100342,-0.2727024555206299,-2.011963367462158
5.93536114692688,-0.12510955333709717,-0.07424256205558777,0.05620649456977844,-0.4966634366259258,-1.135302070009474,-1.9013363068332694,-0.7971163392066956,0.47649475932121277,-0.37088847160339355,-1.254193902015686,-0.29693830013275146,-2.0681984424591064
5.955372095108032,-0.14506524801254272,-0.0686286985874176,0.07131323218345642,-0.46991943191752106,-1.1631470959690782,-1.948414962314569,-0.8185424208641052,0.4528144598007202,-0.35347872972488403,-1.4920657873153687,-0.28992486000061035,-2.0811383724212646
5.975315809249878,-0.16591644287109375,-0.050424396991729736,0.07302409410476685,-0.4445795868037947,-1.1915593899277384,-2.000886551862947,-0.8386459350585938,0.430078387260437,-0.33422404527664185,-1.9115052223205566,-0.22873537242412567,-2.0719735622406006
5.995402097702026,-0.1763134002685547,-0.020274370908737183,0.06314033269882202,-0.42119874969688814,-1.2204066636686468,-2.0606366534315055,-0.8571491241455078,0.40885472297668457,-0.313262403011322,-2.309690475463867,-0.16231292486190796,-2.0558977127075195
6.015362024307251,-0.17208421230316162,0.03792071342468262,0.03238597512245178,-0.39852461764604513,-1.2486056997629218,-2.124576218559442,-0.8742110729217529,0.38805899024009705,-0.29183119535446167,-2.4288148880004883,-0.10912161320447922,-2.024604558944702
6.035362005233765,-0.1670941710472107,0.10620972514152527,0.0032263100147247314,-0.374924625080265,-1.273051586465105,-2.1851421178054946,-0.8895921111106873,0.36620238423347473,-0.27298638224601746,-2.1834824085235596,-0.04570082947611809,-1.9344233274459839
6.055366039276123,-0.15197718143463135,0.14579370617866516,0.006258189678192139,-0.35087916644389294,-1.2924968184820804,-2.238520792658571,-0.9029391407966614,0.3437235355377197,-0.257982462644577,-1.9464830160140991,0.0026522348634898663,-1.7949918508529663
6.0754029750823975,-0.1255292296409607,0.14869895577430725,0.012805700302124023,-0.3281196916415973,-1.3077920929537403,-2.2868086139733217,-0.9140978455543518,0.32226359844207764,-0.24611258506774902,-1.8579567670822144,0.07036416977643967,-1.6179721355438232
6.095378160476685,-0.0945557951927185,0.15604951977729797,0.01558549702167511,-0.30831514523545883,-1.3201336958354672,-2.33238142189759,-0.9230680465698242,0.303453654050827,-0.23634961247444153,-1.843371868133545,0.11677001416683197,-1.399173617362976
6.115390062332153,-0.06917053461074829,0.16848719120025635,0.018533021211624146,-0.29246689997950487,-1.3302218243426627,-2.3763957205032096,-0.9299598336219788,0.2883152365684509,-0.22814303636550903,-1.8583506345748901,0.17871513962745667,-1.1647617816925049
6.135319948196411,-0.0463947057723999,0.17155340313911438,0.01651248335838318,-0.2808548299795326,-1.3377807228042815,-2.418867575859879,-0.9348521828651428,0.277177095413208,-0.2218652367591858,-1.8376191854476929,0.2709847092628479,-0.9190399050712585
6.155378103256226,-0.013199985027313232,0.17666050791740417,0.004656434059143066,-0.2735461173943675,-1.3431892931446268,-2.458889307174382,-0.9379871487617493,0.2701473832130432,-0.21725715696811676,-1.7476375102996826,0.26615825295448303,-0.6715360283851624
6.175364017486572,-0.017212331295013428,0.1780216097831726,-0.04969584941864014,-0.26977309262905297,-1.3470390349634693,-2.4950674415801575,-0.9398036599159241,0.26651275157928467,-0.21386916935443878,-1.536444067955017,0.3160082697868347,-0.4857935309410095
6.1953980922698975,-0.0317690372467041,0.14367777109146118,-0.1714615821838379,-0.26739532061076937,-1.3485188002413742,-2.524879736626587,-0.9407346248626709,0.2642202079296112,-0.21261736750602722,-1.2444205284118652,0.3211655914783478,-0.4007425904273987
6.215394020080566,-0.012212574481964111,0.09505769610404968,-0.10204240679740906,-0.26540821094733696,-1.3488932309273394,-2.5532584933202465,-0.9413244724273682,0.2623032033443451,-0.21238026022911072,-1.5194323062896729,0.4077194631099701,-0.38991984724998474
6.235458135604858,0.016155004501342773,-0.022872179746627808,0.04499766230583191,-0.2663199701602222,-1.34913855026861,-2.5933060876160248,-0.9411429166793823,0.26318293809890747,-0.2120966762304306,-2.3212640285491943,0.6316565871238708,-0.3509030342102051
6.255456924438477,0.029463469982147217,-0.11591517925262451,0.09463401138782501,-0.27244069649337116,-1.349017810700775,-2.648756077257708,-0.9395281672477722,0.2690829038619995,-0.21185196936130524,-2.9621644020080566,0.845922589302063,-0.2053033411502838
6.275426149368286,0.04083126783370972,-0.1032899022102356,0.04605656862258911,-0.2835577620776809,-1.3473652550273023,-2.7096850215545363,-0.9362017512321472,0.279773086309433,-0.21272830665111542,-2.933279514312744,0.9790272116661072,-0.021954620257019997
6.295664072036743,0.04279828071594238,-0.02183377742767334,0.02949175238609314,-0.29519094993983536,-1.3447212297290991,-2.7676072012678437,-0.9324008226394653,0.2909225523471832,-0.21445877850055695,-2.721463441848755,0.9164748787879944,-0.1283702701330185
6.31538200378418,0.02638334035873413,0.016975820064544678,0.012659311294555664,-0.3022730580044977,-1.3432533843070336,-2.8204839106774875,-0.9300546050071716,0.2976909875869751,-0.21535702049732208,-2.362762928009033,0.7973077893257141,-0.2847233712673187
6.335528135299683,0.03161311149597168,0.03493747115135193,-0.01959681510925293,-0.30604520157401904,-1.3420415358708684,-2.8649742627590316,-0.9286925792694092,0.30128997564315796,-0.21622775495052338,-1.8423172235488892,0.6401764750480652,-0.30230003595352173
6.355360984802246,0.05176156759262085,0.06296342611312866,-0.06405910849571228,-0.3070902238553656,-1.3420118136730679,-2.897717070974868,-0.9283791184425354,0.3022862672805786,-0.2161838412284851,-1.210361123085022,0.34211045503616333,-0.30602553486824036
6.375424146652222,0.05385679006576538,0.07754567265510559,-0.09057500958442688,-0.30504725248936004,-1.3435702464871009,-2.9170382183938477,-0.9293144941329956,0.3003382384777069,-0.21487541496753693,-0.568418025970459,0.06827811896800995,-0.30062615871429443
6.395344018936157,0.02342355251312256,0.04725527763366699,-0.07692724466323853,-0.30079662111479993,-1.3469681510600753,-2.9265481360322974,-0.9312757253646851,0.2962811589241028,-0.21199792623519897,-0.28942203521728516,-0.08088207244873047,-0.3213507831096649
6.422868013381958,-0.01411747932434082,-0.015388697385787964,-0.0016650855541229248,-0.29252254040767545,-1.353905475847254,-2.942560574977946,-0.9350861310958862,0.2883685231208801,-0.20605282485485077,-0.47752657532691956,0.01202824804931879,-0.20857228338718414
6.435351133346558,-0.01411747932434082,-0.015388697385787964,-0.0016650855541229248,-0.29252254040767545,-1.353905475847254,-2.942560574977946,-0.9350861310958862,0.2883685231208801,-0.20605282485485077,-0.47752657532691956,0.01202824804931879,-0.20857228338718414
6.4641101360321045,0.02562081813812256,0.014662325382232666,-0.019903242588043213,-0.29458803951321605,-1.358211315420964,-2.9672065515596757,-0.9353803396224976,0.2903456687927246,-0.2018984705209732,-0.586020827293396,0.09477071464061737,0.06399795413017273
6.483876943588257,0.053477466106414795,0.04131200909614563,-0.04575161635875702,-0.2991434363659272,-1.3593477092993413,-2.9768176193697213,-0.9343063235282898,0.29470178484916687,-0.2005557119846344,-0.4041535258293152,0.06406943500041962,0.19477511942386627
6.503577947616577,0.08448320627212524,0.03190559148788452,-0.06369239091873169,-0.3056883416074746,-1.360639577402724,-2.982234653643955,-0.9326582551002502,0.30094966292381287,-0.1989419013261795,-0.2592526376247406,-0.04033065214753151,0.33391618728637695
6.522572994232178,0.07654678821563721,-0.000982522964477539,-0.04946702718734741,-0.3142179233562663,-1.3633975210873104,-2.9853885383396443,-0.9306575655937195,0.3090727925300598,-0.195833221077919,-0.22150591015815735,-0.12333552539348602,0.4231521487236023
6.54349684715271,0.019393324851989746,-0.0077065229415893555,-0.010717064142227173,-0.3233393850048928,-1.3666838395879923,-2.9875601601505037,-0.9284968376159668,0.31773465871810913,-0.19219429790973663,-0.15295849740505219,-0.12523578107357025,0.41115155816078186
6.563426971435547,-0.03081876039505005,0.029724478721618652,0.0007914900779724121,-0.330685504989554,-1.3691450671643834,-2.9876536846448647,-0.9266549944877625,0.3246914744377136,-0.18943582475185394,0.009079493582248688,-0.1394410878419876,0.3055223226547241
6.583457946777344,-0.038955748081207275,0.0636121928691864,0.012709319591522217,-0.33501452615223365,-1.3716245029014895,-2.983912914047213,-0.9257354140281677,0.3287828862667084,-0.18685781955718994,0.27011221647262573,-0.23912160098552704,0.19933205842971802
6.60222601890564,-0.04383254051208496,0.09416469931602478,0.014026358723640442,-0.33620568506783677,-1.3742225747881591,-2.9741053956339263,-0.9258329272270203,0.3299075961112976,-0.18437543511390686,0.6216911673545837,-0.3356708586215973,0.09872028231620789
6.622156858444214,-0.028056800365447998,0.11873722076416016,0.0137404203414917,-0.3342443353972624,-1.3760009506076747,-2.957250427536248,-0.9267924427986145,0.32805541157722473,-0.182853564620018,0.9681330919265747,-0.4086410105228424,0.0310097336769104
6.642941951751709,0.035786986351013184,0.10321277379989624,0.037714168429374695,-0.3310222566646712,-1.3778788099945414,-2.934996157540634,-0.928166925907135,0.3250099718570709,-0.1813146024942398,1.1220777034759521,-0.5122630000114441,0.07365769147872925
6.663550138473511,0.0880318284034729,0.06644707918167114,0.06353257596492767,-0.3291105457620742,-1.381192275740457,-2.911400666436421,-0.9293710589408875,0.323201447725296,-0.17835493385791779,1.1086455583572388,-0.580581545829773,0.16444557905197144
6.6823179721832275,0.1103435754776001,0.0333954393863678,0.07313279807567596,-0.32916007435031636,-1.3851910455845349,-2.887844490646031,-0.9300611615180969,0.3232482969760895,-0.17463421821594238,1.0899786949157715,-0.5834184885025024,0.25138628482818604
6.701306104660034,0.126848042011261,0.03427073359489441,0.07263864576816559,-0.33044439916020696,-1.3897414094289282,-2.8641586827884025,-0.9304367899894714,0.324463427066803,-0.170325368642807,1.0989840030670166,-0.6623557209968567,0.26707568764686584
6.722904920578003,0.10519677400588989,0.04717323184013367,0.07049961388111115,-0.33095132186389314,-1.3964662698040335,-2.8397939275124764,-0.9313990473747253,0.3249428868293762,-0.16403596103191376,1.1828314065933228,-0.804711639881134,0.1751815676689148
6.741985082626343,0.025792956352233887,0.06734538078308105,0.06922473013401031,-0.3286449998852256,-1.4051363912081816,-2.813895092676568,-0.9335229992866516,0.32276085019111633,-0.15607774257659912,1.285163402557373,-0.8916113376617432,-0.006312651559710503
6.763296842575073,-0.08416944742202759,0.09977084398269653,0.03943304717540741,-0.32122174519877117,-1.4142933240499613,-2.78610992991097,-0.937254011631012,0.31572604179382324,-0.14789249002933502,1.4370338916778564,-0.9053429961204529,-0.3147769868373871
6.785274028778076,-0.13609379529953003,0.1382761299610138,0.01581592857837677,-0.30789555445452227,-1.4229740853670056,-2.7571811307472998,-0.9425804615020752,0.3030538260936737,-0.14035817980766296,1.4571537971496582,-0.8669867515563965,-0.5693549513816833
6.8062660694122314,-0.09977638721466064,0.13006457686424255,0.013097867369651794,-0.29165530905077686,-1.4315768188997446,-2.7302710922784397,-0.9485026001930237,0.2875380218029022,-0.1329098641872406,1.2989001274108887,-0.78777676820755,-0.6445835828781128
6.821166038513184,-0.03726845979690552,0.12530970573425293,0.013468548655509949,-0.276547875428969,-1.4399040715425548,-2.7087190049724748,-0.9537747502326965,0.27303633093833923,-0.12555961310863495,0.9319213032722473,-0.646710216999054,-0.5570904016494751
6.841766119003296,0.0212213397026062,0.11404210329055786,0.014983542263507843,-0.26545303136365095,-1.4475417909710435,-2.6957564243805594,-0.9576532244682312,0.26234644651412964,-0.11863647401332855,0.4440162479877472,-0.46760493516921997,-0.3716934621334076
6.861531019210815,0.06979161500930786,0.09410884976387024,0.01271599531173706,-0.26005453581478244,-1.4538542962714551,-2.691846490234823,-0.9597757458686829,0.25713324546813965,-0.11275257170200348,0.019703390076756477,-0.27170971035957336,-0.1164875328540802
6.881688833236694,0.10038065910339355,0.09695157408714294,0.008762717247009277,-0.2604603598986695,-1.4580553155713294,-2.6937447977258513,-0.960137128829956,0.25752541422843933,-0.10870780050754547,-0.15263237059116364,-0.10813722014427185,0.12944671511650085
6.90208888053894,0.10796177387237549,0.13703817129135132,-0.008318543434143066,-0.26518313528430665,-1.4598594620896486,-2.695916237070346,-0.959112286567688,0.26208600401878357,-0.10683955997228622,-0.09054668247699738,-0.03660879284143448,0.29847875237464905
6.922415018081665,0.0827133059501648,0.15611237287521362,-0.02164006233215332,-0.2716075159043716,-1.460906183732727,-2.6955300061626986,-0.9575302004814148,0.26828035712242126,-0.10564874112606049,0.07068277895450592,-0.08645597845315933,0.32665902376174927
6.943828821182251,0.02270960807800293,0.15214160084724426,-0.012524321675300598,-0.27727034484351576,-1.4615695057928753,-2.691565928135162,-0.956074595451355,0.2737312614917755,-0.1048462763428688,0.23441912233829498,-0.08307456225156784,0.26950711011886597
6.964237928390503,-0.044210851192474365,0.14108973741531372,0.009439408779144287,-0.2808622817785579,-1.4612422964511373,-2.6856700316323114,-0.9550567865371704,0.27718424797058105,-0.10505092889070511,0.26277080178260803,-0.03280216082930565,0.14770342409610748
6.97955584526062,-0.061908185482025146,0.12209168076515198,0.026684105396270752,-0.2821815523593293,-1.4600949746619687,-2.681045059793592,-0.9545713067054749,0.2784515917301178,-0.10610612481832504,0.15263637900352478,0.014562246389687061,0.04154186695814133
7.000836133956909,-0.026764392852783203,0.11297526955604553,0.03936944901943207,-0.28225231734846024,-1.4591600267987612,-2.6794239474104464,-0.9544521570205688,0.27851954102516174,-0.10699636489152908,0.001366632990539074,0.01800180785357952,-0.011464421637356281
7.020236015319824,0.027553200721740723,0.11260354518890381,0.039419278502464294,-0.2822104111776052,-1.4595886771147617,-2.6806043613045993,-0.9545094966888428,0.27847930788993835,-0.10658852010965347,-0.09556790441274643,-0.030889833346009254,-0.015147573314607143
7.041980981826782,0.06298166513442993,0.1290827989578247,0.02615106850862503,-0.28235357091302044,-1.4613831434448008,-2.6822341518631365,-0.9546594619750977,0.2786167860031128,-0.10487114638090134,-0.03296663984656334,-0.10542842745780945,-0.014136698096990585
7.062034845352173,0.07614833116531372,0.15840229392051697,0.004535384476184845,-0.2819646369335247,-1.4640098376149533,-2.680891699049602,-0.9550392627716064,0.2782432436943054,-0.10237472504377365,0.19597353041172028,-0.18146345019340515,-0.031747445464134216
7.081118822097778,0.0774085521697998,0.17954105138778687,-0.011866740882396698,-0.2805137451789221,-1.4663211498084867,-2.6736942625824285,-0.95567387342453,0.2768493592739105,-0.1002090573310852,0.5218532681465149,-0.23597747087478638,-0.06582868099212646
7.099187135696411,0.08342850208282471,0.1849251091480255,-0.02491314709186554,-0.2778177133497108,-1.467869919753634,-2.6596830292545257,-0.9565670490264893,0.27425768971443176,-0.09880516678094864,0.8383806347846985,-0.29589414596557617,-0.07330988347530365
7.119744062423706,0.08512300252914429,0.1788022816181183,-0.02046310156583786,-0.27460231445756783,-1.4687826001094226,-2.6405643433361394,-0.9575288891792297,0.2711641788482666,-0.09802135825157166,0.9958981275558472,-0.3146824836730957,-0.05927750840783119
7.1417858600616455,0.07772070169448853,0.14679226279258728,-0.0073629021644592285,-0.2716360578136407,-1.4690501501030462,-2.6200824796482287,-0.958351194858551,0.2683078646659851,-0.09784644842147827,0.9763876795768738,-0.248772531747818,-0.03351571410894394
7.161195993423462,0.07782995700836182,0.12346255779266357,-0.003833770751953125,-0.26956066754638663,-1.4681177652610904,-2.6012243958966885,-0.9588114023208618,0.2663080096244812,-0.09879682213068008,0.8554587960243225,-0.170579731464386,0.011296947486698627
7.181883096694946,0.07172650098800659,0.12772119045257568,-0.008309796452522278,-0.26841960663782977,-1.4664690283482618,-2.584467230503964,-0.9589489102363586,0.265207976102829,-0.10040910542011261,0.7677026987075806,-0.1132487952709198,0.039164964109659195
7.200358152389526,0.03944277763366699,0.14020296931266785,0.00010770559310913086,-0.26786562420317517,-1.4641675120880084,-2.569495233468946,-0.9588611125946045,0.26467376947402954,-0.10263147950172424,0.6787340044975281,-0.0358564518392086,0.04494183883070946
7.220266103744507,-0.002857387065887451,0.14352819323539734,0.00957692414522171,-0.26705995622929346,-1.4596465343132772,-2.556436850412912,-0.9585988521575928,0.26389676332473755,-0.10698901861906052,0.5803599953651428,0.12985412776470184,0.013122273609042168
7.241213083267212,0.0017704367637634277,0.15137842297554016,0.04072083532810211,-0.2666728269483424,-1.4548495767203926,-2.5460267518069863,-0.9581759572029114,0.2635233402252197,-0.1115979328751564,0.41654881834983826,0.026288677006959915,0.06745672971010208
7.260311841964722,-0.10076618194580078,0.17483937740325928,0.06725893914699554,-0.267360425958825,-1.4532156589937602,-2.5391676002670978,-0.9578124284744263,0.2641865611076355,-0.11314211040735245,0.22202007472515106,0.03439658135175705,0.05317292734980583
7.281583070755005,-0.22579950094223022,0.1883229911327362,0.08330570161342621,-0.2674448865816655,-1.448103135221236,-2.537673674349347,-0.9571992754936218,0.26426801085472107,-0.1180347129702568,-0.09681185334920883,0.4566398859024048,-0.02582632750272751
7.3011720180511475,-0.07092928886413574,0.14717626571655273,0.1125682145357132,-0.2690366604799894,-1.4383986311418329,-2.543675299168415,-0.9555903673171997,0.26580286026000977,-0.1272624433040619,-0.5002994537353516,0.6021908521652222,0.14826644957065582
7.320099115371704,0.13929647207260132,0.15124869346618652,0.09746365249156952,-0.2769771347240234,-1.431423805842146,-2.5557341693452087,-0.9525595307350159,0.27344924211502075,-0.13362696766853333,-0.6919222474098206,0.3949279487133026,0.4779461622238159
7.3400280475616455,0.20248085260391235,0.14815863966941833,0.0475589781999588,-0.29108474581673977,-1.4287461156782524,-2.5661102543824983,-0.9482846260070801,0.28699150681495667,-0.1356174349784851,-0.45052340626716614,0.18628419935703278,0.7590512037277222
7.360050916671753,0.18423676490783691,0.14788058400154114,0.01880013942718506,-0.30833696559326174,-1.4269256551973364,-2.5688475781741666,-0.9429953098297119,0.30347445607185364,-0.13661324977874756,-0.024983562529087067,0.07441652566194534,0.8780470490455627
7.380036115646362,0.17168432474136353,0.15473902225494385,0.013584613800048828,-0.32506126547047104,-1.424384883664778,-2.560546150504054,-0.9374924898147583,0.31936684250831604,-0.13824889063835144,0.5873528122901917,-0.09979415684938431,0.8888339400291443
7.400843858718872,0.1403104066848755,0.13531464338302612,0.025001898407936096,-0.34020410846211263,-1.421577955845343,-2.538797586217695,-0.9322109818458557,0.3336794972419739,-0.1401447057723999,1.2005890607833862,-0.3245798647403717,0.9087069630622864
7.422307014465332,0.037522077560424805,0.08155238628387451,0.06344397366046906,-0.3536285159328715,-1.4187020282262968,-2.5077093076450794,-0.92729252576828,0.3463040590286255,-0.14213357865810394,1.4183961153030396,-0.4203175902366638,0.8383832573890686
7.442147970199585,-0.0772290825843811,0.0007964968681335449,0.11035090684890747,-0.36486562603003214,-1.4159861243261096,-2.4765614286692506,-0.9229997992515564,0.35682377219200134,-0.14404234290122986,1.262595772743225,-0.3905515968799591,0.7217596173286438
7.45986008644104,-0.1583554744720459,-0.03760221600532532,0.11051328480243683,-0.3747747402624886,-1.4135821192377689,-2.4503175828688875,-0.9191133379936218,0.3660629093647003,-0.14570003747940063,1.0071293115615845,-0.32996904850006104,0.633114218711853
7.481091022491455,-0.18869352340698242,-0.030924707651138306,0.09874218702316284,-0.3836509765650758,-1.4116444404510433,-2.429481612413092,-0.9155850410461426,0.3743085265159607,-0.14695999026298523,0.7747838497161865,-0.2306622564792633,0.5543522238731384
7.499458074569702,-0.1695857048034668,-0.04320710897445679,0.05619530379772186,-0.3924362546733306,-1.4083792363294507,-2.4126744931451105,-0.9118199944496155,0.38244059681892395,-0.14941126108169556,0.6411948800086975,-0.08955901116132736,0.5474937558174133
7.521991014480591,-0.11091351509094238,-0.053433626890182495,0.0012366175651550293,-0.40160598316863066,-1.4034752972858695,-2.3975490046228174,-0.9075801968574524,0.3908970355987549,-0.15329045057296753,0.6022055149078369,-0.03701901435852051,0.5840495228767395
7.539904832839966,-0.010895371437072754,-0.054425060749053955,-0.03616023063659668,-0.4114736266911409,-1.3988345040938517,-2.3814054456188423,-0.9030145406723022,0.39996039867401123,-0.1568329781293869,0.7325122356414795,-0.17789232730865479,0.6351478099822998
7.558750867843628,0.06182175874710083,-0.03894957900047302,-0.0448942631483078,-0.4211301451422701,-1.3966721588830469,-2.3602697715913052,-0.898827314376831,0.408792108297348,-0.1581086963415146,1.0115922689437866,-0.46156567335128784,0.6363282799720764
7.578930139541626,0.0586361289024353,-0.03667798638343811,-0.031038179993629456,-0.4293234238483519,-1.396903118659231,-2.3329995791272253,-0.8955350518226624,0.4162557125091553,-0.15731635689735413,1.283403754234314,-0.658616840839386,0.5853797197341919
7.6008219718933105,0.006806612014770508,-0.07524499297142029,-0.014114215970039368,-0.4354999618739369,-1.3971342124088368,-2.3016723786245996,-0.8930220007896423,0.42186373472213745,-0.15666216611862183,1.3769457340240479,-0.667522132396698,0.5141957998275757
7.62070107460022,-0.0025740861892700195,-0.11206945776939392,0.018979907035827637,-0.4406277731597268,-1.3969031914108498,-2.270765853216689,-0.8908432126045227,0.4265073537826538,-0.15649208426475525,1.2969485521316528,-0.6252024173736572,0.46832889318466187
7.637638807296753,-0.00215911865234375,-0.10662391781806946,0.024939239025115967,-0.4449868266122728,-1.3969764944091942,-2.241297737897258,-0.8890151977539062,0.43044599890708923,-0.15610378980636597,1.2717136144638062,-0.6424010396003723,0.40886038541793823
7.659214019775391,-0.028030097484588623,-0.0949791669845581,0.01939445734024048,-0.44769081166898994,-1.3966698001161018,-2.2115556293197467,-0.8878176808357239,0.432885080575943,-0.1561742126941681,1.3181918859481812,-0.6122517585754395,0.31704333424568176
7.680478811264038,-0.051312267780303955,-0.10075530409812927,0.023463726043701172,-0.4486820434893541,-1.3957831377629828,-2.182286203246979,-0.887255847454071,0.43377840518951416,-0.15688654780387878,1.251632809638977,-0.5740297436714172,0.23808977007865906
7.699389934539795,-0.04876464605331421,-0.10635644197463989,0.020057260990142822,-0.4486494733249662,-1.3952053084630793,-2.155471733170026,-0.8871790170669556,0.4337490499019623,-0.1574016809463501,1.1434285640716553,-0.5455794930458069,0.1802452653646469
7.717982053756714,-0.034495651721954346,-0.09227332472801208,0.0028365403413772583,-0.4479898703949979,-1.3952715819813912,-2.1309989424922695,-0.8874708414077759,0.4331546425819397,-0.15739278495311737,1.0638383626937866,-0.5290890336036682,0.13980451226234436
7.7379820346832275,-0.010582149028778076,-0.08158323168754578,0.0014159232378005981,-0.44665989018929,-1.395472369365439,-2.1073564013356094,-0.8880688548088074,0.4319555163383484,-0.1573149412870407,1.0687427520751953,-0.5272902250289917,0.10323350876569748
7.758793115615845,0.013294875621795654,-0.08509469032287598,0.0077887773513793945,-0.44500472926964524,-1.395738576693247,-2.083846522919008,-0.8888136744499207,0.43046215176582336,-0.1572028547525406,1.0351479053497314,-0.5080716609954834,0.10166352242231369
7.778995037078857,0.03404796123504639,-0.10488823056221008,0.016302824020385742,-0.4435546045519034,-1.3963070858735867,-2.0618929068050775,-0.8895167112350464,0.42915281653404236,-0.15680572390556335,0.9310668706893921,-0.4959677755832672,0.0958787277340889
7.798619031906128,0.05144822597503662,-0.11418011784553528,0.02389848232269287,-0.44237159162885986,-1.397832358656539,-2.042712840165429,-0.8902543783187866,0.42808395624160767,-0.15553607046604156,0.7953593134880066,-0.4881838858127594,0.08581464737653732
7.816718816757202,0.050845324993133545,-0.10496553778648376,0.021003007888793945,-0.4416982403949605,-1.4005904730472114,-2.026550259455808,-0.8909637331962585,0.42747533321380615,-0.15312881767749786,0.6728135943412781,-0.4768231213092804,0.08707103133201599
7.83938193321228,0.0234186053276062,-0.07428976893424988,0.0032420754432678223,-0.44118573291564345,-1.4039524655437556,-2.012911442033687,-0.8916894793510437,0.42701196670532227,-0.15016892552375793,0.5412948727607727,-0.4418237507343292,0.07957736402750015
7.859523057937622,0.003312528133392334,-0.04419979453086853,-0.01503060758113861,-0.44154045621499166,-1.4075603791221885,-2.00273887484621,-0.8920758366584778,0.42733269929885864,-0.1469261646270752,0.3799916207790375,-0.3454364836215973,0.10258202254772186
7.87952995300293,-0.02507007122039795,-0.0016974806785583496,-0.06606797873973846,-0.4426811653024464,-1.4092815165578996,-1.9951532992749643,-0.8918456435203552,0.42836371064186096,-0.14531207084655762,0.28637462854385376,-0.13545885682106018,0.1250338852405548
7.899266004562378,-0.039329707622528076,0.037438541650772095,-0.11525420844554901,-0.4449482745290838,-1.407863439958995,-1.9892062095524616,-0.8906782269477844,0.4304111897945404,-0.1464187353849411,0.19648659229278564,0.006675206124782562,0.18600474298000336
7.916429042816162,-0.04389297962188721,0.03670918941497803,-0.1187998503446579,-0.44944638300595474,-1.4066905198689978,-1.986689767675482,-0.8885868191719055,0.4344669580459595,-0.14714555442333221,-0.07562096416950226,-0.03915371373295784,0.3044465482234955
7.939100027084351,-0.1449655294418335,0.05580711364746094,-0.12671589851379395,-0.4560878947174872,-1.4119715279576293,-1.989852194217973,-0.886482834815979,0.44043925404548645,-0.14199139177799225,-0.23730936646461487,-0.45358097553253174,0.23644647002220154
7.958416938781738,-0.3166872262954712,0.12788346409797668,-0.13293296098709106,-0.4579651725088834,-1.421351737231134,-1.9893210612006953,-0.8869565725326538,0.4421238899230957,-0.13354654610157013,0.26439592242240906,-0.4339679777622223,-0.030840935185551643
7.977063894271851,-0.30348825454711914,0.12876510620117188,-0.04574084281921387,-0.4548921154992933,-1.4239105923243096,-1.9796468880950924,-0.8886351585388184,0.439365416765213,-0.13147473335266113,0.6079241633415222,-0.22777901589870453,-0.11132632941007614
7.999125957489014,-0.13593149185180664,0.08662885427474976,-0.014563143253326416,-0.4511321540989432,-1.4197190696747657,-1.963909008611407,-0.8897032737731934,0.43598470091819763,-0.1354459822177887,0.85999995470047,-0.05771399289369583,-0.048957906663417816
8.019083023071289,-0.0433078408241272,0.10044622421264648,-0.07905341684818268,-0.4472102294137603,-1.410746861597123,-1.9415286443236661,-0.8901334404945374,0.4324518144130707,-0.1436944305896759,1.1573013067245483,-0.06991473585367203,-0.01950361207127571
8.038887023925781,0.03842353820800781,-0.008659452199935913,-0.05483168363571167,-0.44576120110967804,-1.4037732819267836,-1.9175973961855972,-0.8897265791893005,0.4311448335647583,-0.15000230073928833,0.9057244062423706,-0.2375434935092926,0.26297128200531006
8.058779001235962,0.14117854833602905,-0.14469078183174133,0.06304651498794556,-0.45136553000705754,-1.4026769616998513,-1.90298502867292,-0.8871654868125916,0.4361947178840637,-0.15057095885276794,0.31792110204696655,-0.24789494276046753,0.4820077419281006
8.078402996063232,0.20878517627716064,-0.13933706283569336,0.05204184353351593,-0.4610391930902494,-1.4033935234801949,-1.8949100145698468,-0.8830710649490356,0.44487902522087097,-0.1492251306772232,0.36136800050735474,-0.2635672986507416,0.5877776145935059
8.098851919174194,0.23523777723312378,-0.012592732906341553,-0.004879593849182129,-0.4707176174554109,-1.4037569303186408,-1.8784577431189389,-0.8788382411003113,0.45352596044540405,-0.14818137884140015,1.0250015258789062,-0.5145496129989624,0.5975655913352966
8.11873197555542,0.17499440908432007,0.0013553798198699951,-0.012922510504722595,-0.4766829655089548,-1.4011692797106907,-1.8441408881642842,-0.8757695555686951,0.4588344395160675,-0.1499955952167511,1.838571310043335,-0.7835126519203186,0.4664250314235687
8.138792037963867,0.012988150119781494,-0.0392797589302063,0.03831334412097931,-0.4754823072789195,-1.395686915154378,-1.7971244130779764,-0.8754758834838867,0.4577673077583313,-0.15489046275615692,2.2366113662719727,-0.7928101420402527,0.10606297850608826
8.158852815628052,-0.156765878200531,-0.07267022132873535,0.06968168914318085,-0.4653190021274569,-1.3878932949673457,-1.748323357479974,-0.8787719011306763,0.4487079083919525,-0.16254669427871704,2.1899735927581787,-0.644740104675293,-0.33404234051704407
