timestamp,acceleration_x,acceleration_y,acceleration_z,attitude_pitch,attitude_roll,attitude_yaw,gravity_x,gravity_y,gravity_z,rotation_x,rotation_y,rotation_z
0.0,0.21241158246994019,0.15949922800064087,-0.0876016616821289,-0.7146669931837015,-0.8449684462511599,-1.4088234075613058,-0.5649354457855225,0.6553659439086914,-0.5013417601585388,0.117047019302845,-1.1488536596298218,0.2892136573791504
0.020016908645629883,0.22457915544509888,0.17966985702514648,-0.07737559080123901,-0.7184934878444519,-0.8621950483431543,-1.4008047608740686,-0.5715793371200562,0.6582513451576233,-0.4899003505706787,0.08216312527656555,-1.1006265878677368,0.40687698125839233
0.03918600082397461,0.21013498306274414,0.17721599340438843,-0.05581319332122803,-0.7244442383835966,-0.8774530169412538,-1.3911885524826644,-0.5759645104408264,0.6627193689346313,-0.4786105751991272,0.09494279325008392,-1.076829433441162,0.5120309591293335
0.05998396873474121,0.20166146755218506,0.18006712198257446,-0.03482043743133545,-0.7313350003064799,-0.8903444495713119,-1.3785725429480238,-0.5785230994224548,0.6678638458251953,-0.46826180815696716,0.213351309299469,-1.0563315153121948,0.6243877410888672
0.07970476150512695,0.17381775379180908,0.17053598165512085,-0.02439349889755249,-0.7377423172099197,-0.9000053973482007,-1.3611552688525241,-0.5796558260917664,0.6726189851760864,-0.45998144149780273,0.3998473286628723,-1.080553412437439,0.6770725846290588
0.09983301162719727,0.15182435512542725,0.1472172737121582,-0.019753336906433105,-0.7426446875483418,-0.9075509893224128,-1.3396663134827882,-0.580504834651947,0.6762385964393616,-0.4535589814186096,0.5393003225326538,-1.136610746383667,0.6816158294677734
0.12001180648803711,0.12426173686981201,0.12511569261550903,-0.024043619632720947,-0.7456615577677659,-0.914299902073984,-1.3155129414537188,-0.5819339156150818,0.6784579753875732,-0.4483836591243744,0.704166829586029,-1.186212420463562,0.6393055319786072
0.14000296592712402,0.10059255361557007,0.12850958108901978,-0.04664042592048645,-0.7454449922736676,-0.9197354887161411,-1.2886934411781645,-0.5844792723655701,0.678298830986023,-0.4453028440475464,0.8209372758865356,-1.1906217336654663,0.5739901065826416
0.1606287956237793,0.09965723752975464,0.11187916994094849,0.006897687911987305,-0.745442870956717,-0.9251905037607145,-1.2628228109549435,-0.5869009494781494,0.6782972812652588,-0.4421088397502899,0.7047187089920044,-1.0945119857788086,0.5685624480247498
0.17999982833862305,0.08745968341827393,0.06403672695159912,0.020168662071228027,-0.7453058024938615,-0.9289529855738883,-1.2381414314549513,-0.5886346101760864,0.6781965494155884,-0.43995311856269836,0.7939302921295166,-0.9769303202629089,0.5314606428146362
0.2000129222869873,0.08979374170303345,0.07739883661270142,0.00861591100692749,-0.7439217875318914,-0.928458933458032,-1.2106973712100864,-0.5891681909561157,0.6771788597106934,-0.4408057928085327,0.9297407269477844,-0.8691228628158569,0.5632824301719666
0.22001409530639648,0.06413596868515015,0.06811380386352539,0.008982419967651367,-0.7403711759539261,-0.9253108462840038,-1.1808191004335293,-0.5896944403648376,0.6745619773864746,-0.4441019594669342,1.008640170097351,-0.8066276907920837,0.48863330483436584
0.24010181427001953,0.07442057132720947,0.04266244173049927,0.031870365142822266,-0.7363476441631548,-0.9224146862655653,-1.1524411671545112,-0.5905643701553345,0.671586275100708,-0.447443425655365,0.8840644955635071,-0.8051781058311462,0.4647120237350464
0.2596309185028076,0.05358761548995972,0.06332099437713623,0.05717945098876953,-0.7340871322027774,-0.9215468140208306,-1.1278440493076847,-0.5913836359977722,0.669909656047821,-0.44887253642082214,0.7423037886619568,-0.7392977476119995,0.45816653966903687
0.2800130844116211,0.028880059719085693,0.09090137481689453,0.08779788017272949,-0.7314080875898663,-0.9185420851351764,-1.1034361604314855,-0.591456413269043,0.6679182648658752,-0.4517351984977722,0.8754532337188721,-0.5528846979141235,0.4549296796321869
0.3000187873840332,0.009908139705657959,0.11577099561691284,0.07254037261009216,-0.7276448829346046,-0.9089078708389319,-1.075961961853962,-0.5890554189682007,0.6651127934455872,-0.4589538872241974,0.9376293420791626,-0.35642629861831665,0.47990521788597107
0.32001590728759766,0.0005735158920288086,0.061402320861816406,0.06499022245407104,-0.7245861715788404,-0.898704500249083,-1.051141494329575,-0.5859312415122986,0.6628256440162659,-0.46620476245880127,0.6798891425132751,-0.2788999080657959,0.419179230928421
0.3391990661621094,-0.0027588605880737305,0.033219099044799805,0.08137732744216919,-0.7236698287963886,-0.8916545432160574,-1.033296820445053,-0.5831024050712585,0.6621392369270325,-0.4707052707672119,0.44874149560928345,-0.19327084720134735,0.3513505458831787
0.3600609302520752,-0.020938456058502197,0.04845595359802246,0.08329498767852783,-0.7234956071848578,-0.8854135210405166,-1.019662685365993,-0.5802426338195801,0.6620086431503296,-0.47440823912620544,0.3672578036785126,-0.08436814695596695,0.27619069814682007
0.38045501708984375,-0.036379456520080566,0.05074810981750488,0.07262587547302246,-0.7227990676747743,-0.8788078449086122,-1.0083089132439906,-0.5774511098861694,0.6614864468574524,-0.4785248637199402,0.33409950137138367,-0.003940065391361713,0.2199680060148239
0.40088891983032227,-0.06580913066864014,0.036666691303253174,0.07378244400024414,-0.7218602560417735,-0.8712901477628502,-0.9983000951128229,-0.5743123888969421,0.6607820987701416,-0.48325201869010925,0.30275917053222656,0.10066766291856766,0.1886647343635559
0.41997694969177246,-0.0915372371673584,0.027550160884857178,0.07267177104949951,-0.7206505225344437,-0.8625925460575575,-0.9896241237262766,-0.5706942081451416,0.6598736047744751,-0.48874837160110474,0.2711202800273895,0.19656001031398773,0.13737836480140686
0.43995189666748047,-0.11834138631820679,0.01688462495803833,0.07589665055274963,-0.7188034454422808,-0.8532537053948178,-0.9830118625965211,-0.5670223832130432,0.6584846377372742,-0.49485716223716736,0.22453410923480988,0.30483001470565796,0.04470202326774597
0.46014976501464844,-0.14079487323760986,-0.00861656665802002,0.06899833679199219,-0.7164388094525082,-0.8438181243413356,-0.9794242647976387,-0.5634898543357849,0.6567031741142273,-0.5012187361717224,0.13864904642105103,0.39250075817108154,-0.0460231639444828
0.4800868034362793,-0.21371275186538696,0.005597293376922607,0.04912996292114258,-0.7132762933382819,-0.8358610173578739,-0.9797401497265701,-0.5610217452049255,0.6543148756027222,-0.5070766806602478,0.05650988966226578,0.4265889525413513,-0.22304482758045197
0.5000147819519043,-0.2995334267616272,0.07824200391769409,0.019017398357391357,-0.7085875218766388,-0.8311350608069131,-0.9864021969590951,-0.5608792304992676,0.6507619619369507,-0.5117846727371216,-0.1442980170249939,0.4997573494911194,-0.4531758725643158
0.5200018882751465,-0.22482341527938843,0.09669089317321777,0.015154898166656494,-0.7061370070205316,-0.829354718122901,-1.000923339078673,-0.5611415505409241,0.6488993763923645,-0.5138578414916992,-0.5101763010025024,0.63910311460495,-0.4251493811607361
0.5394558906555176,-0.04052644968032837,0.04802834987640381,-0.007436633110046387,-0.7096145352325401,-0.8267190652229504,-1.0178032528789627,-0.5581216812133789,0.6515414118766785,-0.5138035416603088,-0.593566358089447,0.7195943593978882,-0.16098521649837494
0.5600249767303467,0.07769262790679932,-0.00408858060836792,-0.033143579959869385,-0.7151294603026405,-0.8174972823507628,-1.0261691411925635,-0.5507303476333618,0.6557151675224304,-0.5164626240730286,-0.20843899250030518,0.737407386302948,0.10671409964561462
0.580096960067749,0.08968955278396606,-0.09589433670043945,-0.018366217613220215,-0.7174475929931647,-0.8025759738861467,-1.0240638206265062,-0.5418685078620911,0.6574636101722717,-0.5235649347305298,0.13849849998950958,0.6086483597755432,0.12758193910121918
0.6000089645385742,0.07685935497283936,-0.16361838579177856,0.008006572723388672,-0.7151890436601821,-0.7879183712197491,-1.0181698305722446,-0.5351876616477966,0.6557601690292358,-0.5324968695640564,0.30806463956832886,0.48027995228767395,0.0226554274559021
0.6199898719787598,0.07218760251998901,-0.14054107666015625,0.02604156732559204,-0.7103807403697698,-0.7763638962588817,-1.0132048606543986,-0.531202495098114,0.652122437953949,-0.5408883094787598,0.2750377058982849,0.36369600892066956,-0.10833369195461273
0.6400308609008789,0.07350963354110718,-0.06274658441543579,0.02392709255218506,-0.7054733209086064,-0.7698141404204293,-1.0130457896939018,-0.529869556427002,0.6483942270278931,-0.5466473698616028,0.0569741427898407,0.2762119770050049,-0.2148006558418274
0.6600260734558105,0.06483757495880127,0.005558133125305176,-0.017403483390808105,-0.7035223226403695,-0.7697594522411301,-1.0189056865134274,-0.530718982219696,0.6469076871871948,-0.5475835800170898,-0.18188107013702393,0.10728339850902557,-0.23099924623966217
0.6800129413604736,0.044871389865875244,0.11122274398803711,-0.1142810583114624,-0.7036057117907363,-0.7733593447018772,-1.0258444928591237,-0.5326491594314575,0.6469712853431702,-0.5456309914588928,-0.17418737709522247,-0.014325860887765884,-0.12032733112573624
0.7000980377197266,0.05752652883529663,0.17879974842071533,-0.1708834171295166,-0.704491971728342,-0.7760672953215719,-1.0278130620072807,-0.5337228775024414,0.6476468443870544,-0.5437771677970886,0.05115048587322235,-0.14729084074497223,0.09048984199762344
0.7200019359588623,0.11190801858901978,0.19580823183059692,-0.18332648277282715,-0.7046187650711685,-0.7747691678303342,-1.0193374191378801,-0.5329591035842896,0.6477434039115906,-0.5444108843803406,0.3986181318759918,-0.2705504596233368,0.3852135241031647
0.7400009632110596,0.1524876356124878,0.14597177505493164,-0.15111476182937622,-0.703639385354608,-0.7683304168728328,-0.9991907897723638,-0.5298832654953003,0.6469969749450684,-0.5482869744300842,0.7255059480667114,-0.3979380428791046,0.6398548483848572
0.7600278854370117,0.19754761457443237,0.0716102123260498,-0.09719687700271606,-0.7020067614143289,-0.7590887823653041,-0.9702970428607259,-0.5255199670791626,0.6457512378692627,-0.5539261102676392,0.8994977474212646,-0.5534984469413757,0.8334041237831116
0.7793738842010498,0.20481640100479126,-0.004385411739349365,-0.04623699188232422,-0.7006975455374741,-0.7502727444622758,-0.936870860532616,-0.521192193031311,0.6447510719299316,-0.5591554641723633,0.9412428736686707,-0.7343631386756897,0.923996090888977
0.8000059127807617,0.20061731338500977,-0.03764665126800537,-0.01753866672515869,-0.6996163280884983,-0.7443638492115068,-0.9018750511499394,-0.5183510780334473,0.6439241766929626,-0.562737762928009,0.9683995246887207,-0.9315705895423889,0.9638028740882874
0.8200020790100098,0.17223119735717773,-0.035324037075042725,0.008903861045837402,-0.6978582386410528,-0.7413484129169449,-0.8657412871843875,-0.5174155831336975,0.642578125,-0.5651324391365051,1.0450931787490845,-1.0956435203552246,0.9499072432518005
0.8401598930358887,0.1745181679725647,-0.021445631980895996,0.02823042869567871,-0.6946456942419507,-0.7409364766921054,-0.8284833721249223,-0.5185734033584595,0.6401132941246033,-0.5668656826019287,1.1288368701934814,-1.263776183128357,0.9559304118156433
0.8600249290466309,0.1859816312789917,-0.003608524799346924,0.03539496660232544,-0.6910170756255699,-0.7432669513996765,-0.7897517018483178,-0.5214613676071167,0.6373212933540344,-0.5673620104789734,1.1496467590332031,-1.4527297019958496,0.9944072961807251
0.8800029754638672,0.19124233722686768,0.005342662334442139,0.039557576179504395,-0.6881765512781607,-0.7490407479737169,-0.7503370752571857,-0.5259591341018677,0.6351298093795776,-0.5656653046607971,1.1328452825546265,-1.6311906576156616,1.0640043020248413
0.9000048637390137,0.18513381481170654,0.025208592414855957,0.03564399480819702,-0.6865984144671176,-0.7569902259686981,-0.7091057271273936,-0.531126856803894,0.633910059928894,-0.5621942281723022,1.1738680601119995,-1.7761626243591309,1.1632866859436035
0.9200019836425781,0.1699618697166443,0.04623454809188843,0.013399720191955566,-0.6862047547114795,-0.7655299289185347,-0.6649726987796567,-0.5360812544822693,0.6336055397987366,-0.5578179359436035,1.2291737794876099,-1.8790708780288696,1.29452645778656
0.9400038719177246,0.1729644536972046,0.053583383560180664,0.011267364025115967,-0.6868042648817213,-0.7725607693367794,-0.6162328193498453,-0.5397247672080994,0.6340692639350891,-0.5537630319595337,1.3719323873519897,-1.9160975217819214,1.4786993265151978
0.9600028991699219,0.15827226638793945,0.053992390632629395,0.05370461940765381,-0.6883878062867199,-0.775575548952517,-0.5610098479056499,-0.5406880974769592,0.6352929472923279,-0.551415741443634,1.5075844526290894,-1.8979047536849976,1.6633796691894531
0.9800257682800293,0.12898051738739014,0.04682791233062744,0.06630516052246094,-0.6897426034001072,-0.7755162637466131,-0.5017602578654734,-0.5400523543357849,0.6363386511802673,-0.5508326888084412,1.602874517440796,-1.8731262683868408,1.708950400352478
1.000013828277588,0.1290869116783142,0.03407478332519531,0.09229838848114014,-0.6916586259600835,-0.7736860862205114,-0.44033719606541855,-0.5381903648376465,0.637815535068512,-0.5509470105171204,1.578958511352539,-1.880943775177002,1.8049482107162476
1.0200119018554688,0.1467587947845459,0.041297852993011475,0.12949156761169434,-0.6948849104635192,-0.771205369334332,-0.37755818787237083,-0.5353848934173584,0.6402970552444458,-0.5508019924163818,1.5487686395645142,-1.8966370820999146,1.9108686447143555
1.0400447845458984,0.09790581464767456,0.09199303388595581,0.13685882091522217,-0.7001536035168093,-0.76917492705279,-0.3138162547349223,-0.5319116115570068,0.644335150718689,-0.5494564175605774,1.4812875986099243,-2.03208327293396,1.9145160913467407
1.0600008964538574,-0.035827577114105225,0.18158918619155884,0.12335819005966187,-0.7065604072807201,-0.7730224159781599,-0.2549983680005163,-0.5311280488967896,0.6492214798927307,-0.5444397330284119,1.1722395420074463,-2.1996304988861084,1.7295897006988525
1.080009937286377,-0.08170497417449951,0.3030063509941101,0.04754000902175903,-0.7133771575420969,-0.7864940709343751,-0.20505047626955586,-0.5352688431739807,0.6543911695480347,-0.5340969562530518,1.1377557516098022,-2.413422107696533,1.499606728553772
1.1000328063964844,-0.05603295564651489,0.4681965708732605,-0.08045142889022827,-0.7148934515042695,-0.7968613684385936,-0.14817918168616404,-0.5400668978691101,0.655536949634552,-0.527824878692627,1.8872841596603394,-2.2849888801574707,1.683536171913147
1.1200060844421387,-0.11351114511489868,0.5488902926445007,-0.016875147819519043,-0.7099064303003653,-0.7909303810333478,-0.07454898329375752,-0.5392446517944336,0.6517627835273743,-0.5333109498023987,2.3142595291137695,-1.979482889175415,1.8190951347351074
1.1400489807128906,-0.10631012916564941,0.44290870428085327,0.10277271270751953,-0.7039785529312148,-0.7807774009686846,-0.0004639177752124715,-0.5365121364593506,0.647255539894104,-0.5414933562278748,2.0084311962127686,-1.8491168022155762,1.7590903043746948
1.1600017547607422,-0.05712777376174927,0.36048072576522827,0.12638473510742188,-0.7027980905368342,-0.7749388186302145,0.06422985296226248,-0.5338757038116455,0.6463552713394165,-0.5451621413230896,1.6225063800811768,-1.7480018138885498,1.6862448453903198
1.1800050735473633,-0.004952132701873779,0.3489851951599121,0.11172682046890259,-0.7035256233720552,-0.768154290071586,0.12517382425136703,-0.5298378467559814,0.6469102501869202,-0.548433244228363,1.6043328046798706,-1.5169717073440552,1.7074024677276611
1.2000360488891602,0.0495944619178772,0.2719406485557556,0.1879536509513855,-0.7040697730795014,-0.7569910657607521,0.18610413911079665,-0.5234408974647522,0.6473250985145569,-0.5540577173233032,1.557326316833496,-1.3456052541732788,1.681099772453308
1.2200570106506348,0.11816734075546265,0.152154803276062,0.2810555696487427,-0.7050569164529643,-0.7453070842205429,0.2446727180210299,-0.5164980888366699,0.6480771899223328,-0.5596657395362854,1.4227807521820068,-1.314131736755371,1.6525530815124512
1.2400250434875488,0.1835147738456726,0.06467336416244507,0.293346643447876,-0.7070458658563432,-0.7362766304950585,0.3004258753371192,-0.5105563998222351,0.6495906114578247,-0.5633508563041687,1.3074333667755127,-1.435349464416504,1.6154873371124268
1.2600040435791016,0.23379111289978027,0.004788577556610107,0.31072843074798584,-0.7090466248898182,-0.7319757342205001,0.35445356957800095,-0.5072591304779053,0.6511104702949524,-0.5645735263824463,1.3214970827102661,-1.6663568019866943,1.5824098587036133
1.2800078392028809,0.259135901927948,0.030887603759765625,0.3118881583213806,-0.7091989413544121,-0.731228175007316,0.40988690929754024,-0.5067707300186157,0.6512260437011719,-0.5648788213729858,1.5087543725967407,-1.858609676361084,1.5633758306503296
1.3000218868255615,0.23621201515197754,0.07811623811721802,0.3229120969772339,-0.7054615400027728,-0.7315885123935744,0.4684645841746311,-0.5085967183113098,0.6483852863311768,-0.5665033459663391,1.7363073825836182,-1.9896705150604248,1.4948292970657349
1.3200087547302246,0.23306190967559814,0.1090654730796814,0.31387364864349365,-0.6983221203661318,-0.7347183307555157,0.5274207106495643,-0.5134574770927429,0.6429334878921509,-0.5683292150497437,1.8003681898117065,-2.1523232460021973,1.380856990814209
1.3400108814239502,0.21589124202728271,0.12238234281539917,0.27403485774993896,-0.6890596913725364,-0.7427003833543666,0.584795070533476,-0.5219825506210327,0.6358116865158081,-0.5685752630233765,1.876110315322876,-2.3292810916900635,1.264072299003601
1.3600239753723145,0.1644800901412964,0.2319241166114807,0.1794757843017578,-0.6775504151319854,-0.7547220694763096,0.6411937403631546,-0.5337580442428589,0.6268864274024963,-0.5675525665283203,1.9427871704101562,-2.4279699325561523,1.1512129306793213
1.3800220489501953,0.07679075002670288,0.3556786775588989,0.12335914373397827,-0.6643535756345281,-0.7681312228874289,0.6955331238169847,-0.5470208525657654,0.6165503263473511,-0.566245436668396,1.944769263267517,-2.2589216232299805,1.0483393669128418
1.4001350402832031,0.04495108127593994,0.36840248107910156,0.15002375841140747,-0.6522421957966511,-0.7785142862204195,0.7471740582077954,-0.5580736398696899,0.6069698333740234,-0.5658104419708252,1.736306071281433,-1.9527751207351685,1.0270814895629883
1.420093059539795,0.04106718301773071,0.3610379099845886,0.17600423097610474,-0.6440624050926478,-0.7882689507931802,0.7915754983664343,-0.5670681595802307,0.6004489660263062,-0.5638216137886047,1.3478686809539795,-1.7319393157958984,0.9047619104385376
1.440004825592041,0.07414859533309937,0.29449015855789185,0.17217761278152466,-0.6397621110996657,-0.799783713037952,0.8274528684269578,-0.5753692388534546,0.5970045924186707,-0.5590488910675049,1.023206114768982,-1.594684362411499,0.8236678242683411
1.4600977897644043,0.12299579381942749,0.23283201456069946,0.16057109832763672,-0.639055296943411,-0.8129243378221055,0.8575534892934034,-0.58297199010849,0.5964374542236328,-0.5517300367355347,0.809879720211029,-1.5290273427963257,0.8060598373413086
1.4800939559936523,0.13085728883743286,0.20970064401626587,0.12815964221954346,-0.639947898126643,-0.825813936568588,0.8855720259296381,-0.5896432995796204,0.5971536636352539,-0.5438089966773987,0.8032332062721252,-1.4326831102371216,0.8023677468299866
1.4999628067016602,0.11549258232116699,0.19233906269073486,0.09932482242584229,-0.6404198599872699,-0.8357659138414134,0.9143304956940987,-0.5948169231414795,0.5975321531295776,-0.537725031375885,0.8577959537506104,-1.284608006477356,0.7961301207542419
1.5200591087341309,0.09641879796981812,0.1602076292037964,0.07642555236816406,-0.6411387765157761,-0.8422875502404352,0.9431351189214583,-0.5979904532432556,0.5981084704399109,-0.5335483551025391,0.7933772802352905,-1.0905133485794067,0.7947925925254822
1.5400028228759766,0.06409603357315063,0.11769962310791016,0.06693828105926514,-0.6430593806705862,-0.8461032188474767,0.969355227223558,-0.5991606712341309,0.5996465682983398,-0.5305002331733704,0.6444715261459351,-0.8675675988197327,0.7424338459968567
1.5600037574768066,0.019358932971954346,0.08976298570632935,0.057344138622283936,-0.6460918524611179,-0.8478783629981326,0.9911406495267905,-0.5987351536750793,0.6020705699920654,-0.5282303690910339,0.4455376863479614,-0.6204122304916382,0.6303737759590149
1.580002784729004,-0.020268559455871582,0.05287325382232666,0.05900979042053223,-0.6507362184168606,-0.8488301537851202,1.0060933995347352,-0.5971325039863586,0.6057723164558411,-0.5258065462112427,0.13223987817764282,-0.38513997197151184,0.5005813241004944
1.6000518798828125,-0.04769545793533325,0.014825582504272461,0.05531013011932373,-0.6578417178923928,-0.8500928589362002,1.0126453710005625,-0.5945469737052917,0.61141037940979,-0.522198498249054,-0.20644104480743408,-0.14571966230869293,0.38238680362701416
1.6200549602508545,-0.087810218334198,-0.008285462856292725,0.0262908935546875,-0.6663854153835196,-0.8515552552042994,1.012470650526938,-0.591358482837677,0.6181487441062927,-0.5178680419921875,-0.29220888018608093,-0.007871956564486027,0.24078620970249176
1.6400048732757568,-0.19386422634124756,0.03973180055618286,-0.018684208393096924,-0.6704127251173942,-0.8505123644823417,1.0121144971157843,-0.5889421701431274,0.6213094592094421,-0.5168381929397583,0.0017870666924864054,0.13603319227695465,0.03456972539424896
1.6600439548492432,-0.24193161725997925,0.07802015542984009,0.02197021245956421,-0.669278667528602,-0.8476901961624826,1.0104571443612684,-0.5880091190338135,0.6204204559326172,-0.5189641714096069,-0.13054248690605164,0.23525920510292053,-0.1846882849931717
1.680006980895996,-0.11718600988388062,0.03387326002120972,0.04353433847427368,-0.6717366859452796,-0.8488215869087147,1.0004878733444014,-0.5874496102333069,0.6223462820053101,-0.5172892212867737,-0.6223745942115784,0.26937082409858704,-0.10046911239624023
1.7000548839569092,-0.029932856559753418,0.01878875494003296,0.007556617259979248,-0.6817296839114083,-0.8517711237995219,0.9865575473937869,-0.5842639207839966,0.630137026309967,-0.5114323496818542,-0.7718318104743958,0.30701711773872375,0.13414902985095978
1.7200019359588623,-0.02687370777130127,0.018240809440612793,-0.030387043952941895,-0.693555917612288,-0.8504957794625996,0.9784574511886377,-0.5779693722724915,0.6392756104469299,-0.5072258114814758,-0.4306654930114746,0.3254767060279846,0.32939428091049194
1.7400078773498535,-0.0696648359298706,-0.04485297203063965,-0.03602391481399536,-0.7016777209437266,-0.8429451208739595,0.9807191647112258,-0.5702276825904846,0.6454999446868896,-0.5081043839454651,-0.0007515386678278446,0.2867570221424103,0.36494681239128113
1.760110855102539,-0.11097103357315063,-0.10635620355606079,0.015813112258911133,-0.7051125218577118,-0.8327527582079882,0.9880658594447852,-0.5633758902549744,0.6481195092201233,-0.5123950839042664,0.11936628073453903,0.2520412802696228,0.244043231010437
1.7800078392028809,-0.13239574432373047,-0.14622724056243896,0.06564319133758545,-0.7068568282885086,-0.8258530473956568,0.9912711136353551,-0.558995246887207,0.6494469046592712,-0.5155028104782104,-0.07893741130828857,0.23263420164585114,0.0493030920624733
1.8000059127807617,-0.14356881380081177,-0.1202046275138855,0.07816886901855469,-0.7096812405714374,-0.8244975051946897,0.9858381307373391,-0.5569469928741455,0.6515920162200928,-0.5150126814842224,-0.4138043522834778,0.24842311441898346,-0.12312270700931549
1.8200209140777588,-0.10234564542770386,-0.07405734062194824,0.034622371196746826,-0.7136646000104746,-0.8277670270507428,0.9736261659255424,-0.5567119121551514,0.6546084880828857,-0.5114288926124573,-0.4827955365180969,0.2263631820678711,-0.17326751351356506
1.8400039672851562,-0.04474765062332153,-0.024732887744903564,-0.020911335945129395,-0.7171308880820794,-0.8304483605792475,0.963253364126497,-0.5564028024673462,0.6572249531745911,-0.5084007382392883,-0.2998279333114624,0.18665198981761932,-0.09709639102220535
1.8600139617919922,0.009515106678009033,-0.03216773271560669,-0.04233461618423462,-0.7189798462785771,-0.8295475543603696,0.9593331249776165,-0.5550473928451538,0.658617377281189,-0.5080804228782654,-0.06483396142721176,0.16344758868217468,0.0388537161052227
1.8800110816955566,0.042310893535614014,-0.07142436504364014,-0.04471886157989502,-0.719988481929142,-0.8252423101587593,0.9610627880951289,-0.5523664355278015,0.6593760251998901,-0.5100143551826477,0.09970320016145706,0.1608201116323471,0.11612755805253983
1.9000020027160645,0.06174015998840332,-0.10409849882125854,-0.054197609424591064,-0.7200560960350394,-0.8180137726322526,0.9667061098879745,-0.5486328601837158,0.6594268679618835,-0.5139633417129517,0.18780173361301422,0.19615964591503143,0.17089810967445374
1.9200530052185059,0.06271475553512573,-0.1408277153968811,-0.05588501691818237,-0.7197332033043786,-0.8090541783148593,0.9732367678326385,-0.5441600680351257,0.6591840982437134,-0.5190051198005676,0.15872125327587128,0.27508971095085144,0.13175871968269348
1.9400300979614258,0.061547279357910156,-0.16608625650405884,-0.015076816082000732,-0.7206740553231319,-0.8006439560495549,0.9761925557757836,-0.5393304824829102,0.6598913073539734,-0.5231311917304993,-0.09408735483884811,0.3657572865486145,0.09052728861570358
1.9600138664245605,0.0894741415977478,-0.19625264406204224,0.004968404769897461,-0.7251502554803276,-0.7957809391781715,0.9724819384041536,-0.5346645712852478,0.6632478833198547,-0.5236756801605225,-0.4073944687843323,0.3516564965248108,0.03897109627723694
1.9800148010253906,0.11874914169311523,-0.17972588539123535,-0.02528458833694458,-0.7321633822547897,-0.7961975763248215,0.9629109011792516,-0.531545102596283,0.6684801578521729,-0.5201865434646606,-0.5134255290031433,0.23273487389087677,-0.033009082078933716
2.000013828277588,0.132362961769104,-0.1262967586517334,-0.08277177810668945,-0.7368400768098817,-0.7972293810946255,0.9557268948191148,-0.5298391580581665,0.6719510555267334,-0.5174478888511658,-0.12440039217472076,0.13184821605682373,0.00438667181879282
2.020054817199707,0.14884322881698608,-0.05508124828338623,-0.10018151998519897,-0.7364655910212972,-0.7947932944261189,0.9577636830149864,-0.5287566184997559,0.6716736555099487,-0.5189133286476135,0.18305335938930511,-0.04556438699364662,0.06883659213781357
2.0400619506835938,0.16768836975097656,-0.06121772527694702,-0.12953835725784302,-0.734699105196905,-0.7943996831427409,0.9634747628962855,-0.5293979644775391,0.6703639030456543,-0.5199519991874695,0.26179248094558716,-0.29579782485961914,0.10901724547147751
2.0600171089172363,0.18384867906570435,-0.03341031074523926,-0.15292465686798096,-0.7327393373479234,-0.7961507577652687,0.9725879471109639,-0.5312455892562866,0.668908417224884,-0.5199421644210815,0.37818074226379395,-0.4827921390533447,0.21623462438583374
2.0800039768218994,0.17761313915252686,0.012277424335479736,-0.16324084997177124,-0.7297833539948255,-0.7970260479264739,0.9866100884617209,-0.5331124067306519,0.6667081713676453,-0.5208563804626465,0.54339998960495,-0.508168637752533,0.3255839943885803
2.1000590324401855,0.18056213855743408,0.008444547653198242,-0.1703472137451172,-0.7283551603443957,-0.7951748188797338,1.0038227343551627,-0.5328265428543091,0.665643036365509,-0.5225085616111755,0.43658068776130676,-0.4694512188434601,0.4582214653491974
2.120007038116455,0.21355468034744263,-0.024926722049713135,-0.17066258192062378,-0.7306273996197624,-0.7937729260992903,1.0202302997931978,-0.5310137867927551,0.6673370003700256,-0.522193193435669,0.2916106879711151,-0.4923892021179199,0.5670834183692932
2.1400837898254395,0.2044960856437683,-0.0033593177795410156,-0.19364744424819946,-0.7353611604197606,-0.7927563160612239,1.0366324084685836,-0.5282264947891235,0.6708550453186035,-0.5205096006393433,0.2770253121852875,-0.5046871304512024,0.6103944182395935
2.160001754760742,0.17125707864761353,0.008123397827148438,-0.20585417747497559,-0.7394731345020055,-0.7906608729803545,1.0546689942810628,-0.5251694917678833,0.6738987565040588,-0.5196707248687744,0.3739764988422394,-0.509209156036377,0.611975371837616
2.1802849769592285,0.12050700187683105,0.03729212284088135,-0.22304433584213257,-0.7424801480017147,-0.7886488756785288,1.0734241150798018,-0.5226829051971436,0.6761173605918884,-0.5192956924438477,0.3684179484844208,-0.5673861503601074,0.5724503397941589
2.200037956237793,0.05158591270446777,0.09715574979782104,-0.2589508891105652,-0.7455241079467898,-0.7882668196746629,1.090461845352234,-0.521022617816925,0.6783570051193237,-0.5180419087409973,0.3171723186969757,-0.5295429229736328,0.5436394810676575
2.2200307846069336,-0.021108031272888184,0.19088411331176758,-0.2914108633995056,-0.7487566278717595,-0.7867321629969907,1.106888006255808,-0.5186716318130493,0.6807284951210022,-0.5172896981239319,0.3260915279388428,-0.42761462926864624,0.5211160182952881
2.2400829792022705,-0.08724212646484375,0.2512492537498474,-0.2880430817604065,-0.7511527847520709,-0.7833860298163254,1.1221834168930422,-0.5157852172851562,0.6824817657470703,-0.5178650617599487,0.2870784401893616,-0.2863540053367615,0.4398725628852844
2.2602877616882324,-0.07902467250823975,0.21417051553726196,-0.26280319690704346,-0.7537445313249646,-0.7791550842394018,1.1344477580665309,-0.5123448967933655,0.6843737959861755,-0.5187824368476868,0.1302238404750824,-0.1366543471813202,0.40483441948890686
2.280104875564575,-0.019439518451690674,0.14415359497070312,-0.19998949766159058,-0.7600125494309083,-0.7746433704216752,1.1431415034261512,-0.5069887042045593,0.6889305710792542,-0.5180127620697021,-0.11030622571706772,-0.0026939723175019026,0.46486157178878784
2.3003010749816895,-0.010230779647827148,0.0795665979385376,-0.10667109489440918,-0.7682502569924314,-0.7685979146003332,1.149846632246712,-0.49988582730293274,0.6948780417442322,-0.5169708728790283,-0.10007765889167786,0.12892992794513702,0.4742788076400757
2.3201799392700195,0.0025888681411743164,0.039825618267059326,-0.03580892086029053,-0.7749444090619548,-0.7586866905961483,1.159531980744652,-0.4915262460708618,0.6996763348579407,-0.5185123085975647,0.08580204844474792,0.14662013947963715,0.4614732265472412
2.340056896209717,-0.005062788724899292,0.019636034965515137,0.01933187246322632,-0.778906278255284,-0.7497368359326422,1.1697809945972244,-0.4849731922149658,0.7025014758110046,-0.5208576917648315,0.09953831881284714,0.0052940016612410545,0.3384803235530853
2.3600869178771973,-0.027983784675598145,0.01163393259048462,0.03148365020751953,-0.7814915110570552,-0.7455761978582861,1.1778380165042635,-0.48156824707984924,0.7043389678001404,-0.5215349197387695,0.11770803481340408,-0.14713424444198608,0.2605092227458954
2.379997968673706,-0.04740935564041138,0.061537861824035645,0.05396014451980591,-0.7827927963894413,-0.7425834237094568,1.1866487644367818,-0.479385107755661,0.7052621245384216,-0.5222981572151184,0.2113037109375,-0.16713519394397736,0.3072760999202728
2.4000329971313477,-0.0455266535282135,0.05071234703063965,0.10109186172485352,-0.7842673684416357,-0.7377230000713747,1.1976698540438637,-0.4761408269405365,0.7063067555427551,-0.5238518118858337,0.1735852211713791,-0.14815281331539154,0.37837597727775574
2.428431987762451,-0.01944825053215027,-0.033119797706604004,0.13396596908569336,-0.7932100159558821,-0.7264278578222227,1.2218989054477254,-0.4659796357154846,0.7126089930534363,-0.5244535803794861,0.1301785260438919,-0.1630122810602188,0.5285905599594116
2.4400289058685303,-0.01944825053215027,-0.033119797706604004,0.13396596908569336,-0.7932100159558821,-0.7264278578222227,1.2218989054477254,-0.4659796357154846,0.7126089930534363,-0.5244535803794861,0.1301785260438919,-0.1630122810602188,0.5285905599594116
2.4673259258270264,0.04388943314552307,-0.1387847661972046,0.13927268981933594,-0.7993815971243744,-0.7087903870715585,1.257183928806143,-0.45378628373146057,0.7169250845909119,-0.5292415022850037,0.49985480308532715,-0.22429241240024567,0.5768501162528992
2.489190101623535,0.06303471326828003,-0.1637173295021057,0.15435075759887695,-0.79739139943898,-0.6961383655620775,1.281044794013793,-0.4479682147502899,0.7155362367630005,-0.5360340476036072,0.7099018096923828,-0.20758605003356934,0.5648317337036133
2.5079598426818848,0.07867276668548584,-0.20223891735076904,0.17391598224639893,-0.792609631502723,-0.6816202110509838,1.3066604812231988,-0.44228968024253845,0.712187647819519,-0.5451317429542542,0.7528976202011108,-0.17974740266799927,0.5044127106666565
2.5280728340148926,0.10262009501457214,-0.2225387692451477,0.1810091733932495,-0.7876525888254906,-0.670363680759608,1.3281692708838402,-0.43831345438957214,0.708699107170105,-0.5528353452682495,0.568778395652771,-0.22814635932445526,0.35760512948036194
2.548448085784912,0.09228459000587463,-0.19269835948944092,0.15830087661743164,-0.7835813673780255,-0.6648344544406396,1.3429565073568073,-0.43702641129493713,0.7058209180831909,-0.5575165748596191,0.4006747305393219,-0.2628224194049835,0.21431203186511993
2.567868947982788,0.07275223731994629,-0.11898422241210938,0.14129602909088135,-0.7798847399438231,-0.6631893587306926,1.352528958421778,-0.4377119541168213,0.7031974792480469,-0.5602870583534241,0.33069875836372375,-0.2430485188961029,0.11303836852312088
2.5878639221191406,0.06343773007392883,-0.034723103046417236,0.11193931102752686,-0.776539495864382,-0.6632658171134543,1.3592333384088409,-0.43920066952705383,0.7008150815963745,-0.5621040463447571,0.2193589061498642,-0.22123873233795166,0.0679958313703537
2.6080660820007324,0.04016205668449402,0.02814352512359619,0.09507280588150024,-0.775384378219685,-0.6648654744077637,1.3629169222766828,-0.44059842824935913,0.6999906301498413,-0.562037467956543,0.028741292655467987,-0.1804143488407135,0.07736189663410187
2.6277518272399902,0.006325811147689819,0.0888856053352356,0.08641219139099121,-0.777313642612782,-0.667320402942605,1.3636224408775977,-0.4411402642726898,0.7013671398162842,-0.5598923563957214,-0.1427091807126999,-0.12342678010463715,0.0748475044965744
2.6480319499969482,0.027615219354629517,0.10264706611633301,0.07932049036026001,-0.7820369400536992,-0.6714041975492983,1.361113232730427,-0.4413573145866394,0.7047260403633118,-0.555486261844635,-0.351777583360672,-0.12597720324993134,0.08098380267620087
2.6678900718688965,0.05517706274986267,0.06269645690917969,0.06959080696105957,-0.7897922298435721,-0.6794854728630291,1.3547693420944613,-0.44238409399986267,0.7102070450782776,-0.5476333498954773,-0.5153245329856873,-0.2487422674894333,0.04957697167992592
2.687601089477539,0.0435541570186615,0.04559272527694702,0.029962539672851562,-0.7978645628286307,-0.6925140856504176,1.3465664787971592,-0.4458063542842865,0.7158666849136353,-0.5373935103416443,-0.42222923040390015,-0.4817572236061096,-0.003971688449382782
2.7079238891601562,-0.021295487880706787,0.06822174787521362,-0.017286181449890137,-0.8017179842607275,-0.7095588316830964,1.3392005534096363,-0.4531002640724182,0.7185519337654114,-0.5276203751564026,-0.2090757191181183,-0.7003735303878784,-0.15583059191703796
2.727890968322754,-0.09153136610984802,0.08614218235015869,-0.052156150341033936,-0.7999547727799108,-0.7309153791494072,1.3312467321466026,-0.4651092290878296,0.7173245549201965,-0.5187666416168213,-0.04929906129837036,-0.850979208946228,-0.3736341595649719
2.7476189136505127,-0.09670907258987427,0.09855043888092041,-0.06756806373596191,-0.7945346138731488,-0.7567842044107508,1.3207413336232279,-0.4810344874858856,0.7135376334190369,-0.5093819499015808,-0.060503795742988586,-0.98074871301651,-0.516664981842041
2.76568603515625,-0.0963418185710907,0.10970312356948853,-0.10313031077384949,-0.7886521433446054,-0.7859170427677403,1.3076680447145645,-0.4986288845539093,0.709403932094574,-0.49811169505119324,-0.15956906974315643,-0.9803757071495056,-0.5364798903465271
2.787348985671997,-0.12617361545562744,0.1488659381866455,-0.12963446974754333,-0.7839527575938096,-0.8142425154102515,1.2929139011593245,-0.5149548649787903,0.7060840129852295,-0.4860728681087494,-0.24844783544540405,-0.7851295471191406,-0.5347418785095215
2.8086490631103516,-0.0749320387840271,0.13279575109481812,-0.11571720242500305,-0.7803858742504157,-0.8374062394912014,1.2783132768343441,-0.5279427170753479,0.7035536766052246,-0.4756981432437897,-0.32126128673553467,-0.5082577466964722,-0.40492674708366394
2.827457904815674,-0.015721917152404785,0.07724833488464355,-0.11368507146835327,-0.7820482704174814,-0.8562521194446454,1.2628725938114427,-0.5359291434288025,0.7047340869903564,-0.46489766240119934,-0.638201117515564,-0.28123027086257935,-0.21070444583892822
2.847208023071289,-0.054963648319244385,0.003059208393096924,-0.12581482529640198,-0.7904292909878341,-0.8743777619440642,1.241897780158745,-0.5397170782089233,0.7106553316116333,-0.45130303502082825,-1.0182517766952515,-0.06658640503883362,-0.1205807626247406
2.8671388626098633,-0.12523925304412842,0.006570160388946533,-0.14968550205230713,-0.8054417982116009,-0.8937894047283286,1.21352073307998,-0.5399981737136841,0.7211368083953857,-0.43400895595550537,-1.4784698486328125,0.18036408722400665,0.0028822594322264194
2.887053966522217,-0.22515350580215454,0.02038472890853882,-0.07535749673843384,-0.8257817531115351,-0.9132668360089579,1.1764141068173337,-0.5366263389587402,0.7350780367851257,-0.41435810923576355,-1.7367401123046875,0.5808030366897583,0.020488204434514046
2.9062159061431885,-0.294763445854187,0.06115072965621948,-0.08088135719299316,-0.8458601368063953,-0.9272754979706115,1.1371038037904504,-0.530462384223938,0.7485417127609253,-0.39786314964294434,-1.550918459892273,0.9487705826759338,-0.037602927535772324
2.9268250465393066,-0.36173194646835327,0.10544300079345703,-0.14603883028030396,-0.8606251341090925,-0.9339505888184525,1.0996271800968804,-0.5241628289222717,0.7582502961158752,-0.38769832253456116,-1.3441542387008667,1.1843754053115845,-0.2558874189853668
2.945962905883789,-0.39012402296066284,0.11324232816696167,-0.1309727430343628,-0.8715512180363929,-0.9392259812156621,1.0580148642062472,-0.5194829702377319,0.7653282880783081,-0.3800135552883148,-1.534708023071289,1.3915141820907593,-0.47056975960731506
2.96694278717041,-0.3397716283798218,0.05147188901901245,-0.06109786033630371,-0.8827971241971613,-0.9491960322422333,1.0053540895347688,-0.5162159204483032,0.7725180387496948,-0.3697797656059265,-1.8507521152496338,1.7087440490722656,-0.5640607476234436
2.987032890319824,-0.15037322044372559,-0.04192221164703369,-0.046640366315841675,-0.8961630427339135,-0.9588480412614628,0.9461201856362035,-0.5112631916999817,0.780936062335968,-0.3588161766529083,-1.9413262605667114,1.8769997358322144,-0.4811410903930664
3.007910966873169,0.06264132261276245,-0.18649762868881226,-0.0649268627166748,-0.9106564808303922,-0.9638809729636167,0.8911403444121844,-0.5037118792533875,0.7899065017700195,-0.3497459590435028,-1.6228725910186768,1.9180221557617188,-0.28976795077323914
3.0271620750427246,0.21254655718803406,-0.2909136414527893,-0.09184989333152771,-0.9218605686112091,-0.959145677222032,0.8503117772075068,-0.4947732090950012,0.7967274188995361,-0.3470233678817749,-1.0341728925704956,1.7913764715194702,-0.22313125431537628
3.046705961227417,0.2880845069885254,-0.37849295139312744,-0.04868596792221069,-0.9266372601607138,-0.9441292998047875,0.826794195803229,-0.4864182472229004,0.7996050715446472,-0.3521776497364044,-0.438090056180954,1.5781471729278564,-0.24532140791416168
3.06679105758667,0.2830420732498169,-0.4189074635505676,-0.01103883981704712,-0.9239388208245454,-0.9236145236729637,0.8147740966271517,-0.4808112680912018,0.7979816794395447,-0.3633812963962555,-0.006681852042675018,1.4541113376617432,-0.40034589171409607
3.085587978363037,0.26399335265159607,-0.4053758382797241,-0.00572928786277771,-0.9157592987547167,-0.9042297955406504,0.8044362036005475,-0.4787912964820862,0.7930253744125366,-0.3766559064388275,-0.07242708653211594,1.302531361579895,-0.6624431610107422
3.1062679290771484,0.27852752804756165,-0.34937572479248047,-0.004581570625305176,-0.9065214867358314,-0.8977122486904177,0.7814283105074818,-0.48203399777412415,0.7873640656471252,-0.38431912660598755,-0.5043451189994812,1.1769012212753296,-0.9260736107826233
3.126357078552246,0.30290332436561584,-0.3031656742095947,0.006838083267211914,-0.9002739264566413,-0.906228192905118,0.7415804827686816,-0.48915213346481323,0.783497154712677,-0.38322657346725464,-1.0680525302886963,1.1045788526535034,-1.0842583179473877
3.1464600563049316,0.34554868936538696,-0.26599109172821045,-0.010417819023132324,-0.8991139039759036,-0.9289410981249533,0.6860777838584794,-0.49845701456069946,0.7827758193016052,-0.3725624680519104,-1.5382219552993774,0.9601779580116272,-1.0963106155395508
3.1662650108337402,0.4200161099433899,-0.16149085760116577,-0.07527542114257812,-0.9011633497495609,-0.9569643581315814,0.6273474650913006,-0.5073879361152649,0.7840495109558105,-0.3575248420238495,-1.4420472383499146,0.862575352191925,-0.8454016447067261
3.186135768890381,0.5182262063026428,-0.06112563610076904,-0.15281879901885986,-0.9028482462852397,-0.9734146850164636,0.5856708571675635,-0.5121074318885803,0.7850942015647888,-0.34838658571243286,-0.7393847107887268,0.7184802293777466,-0.4920082986354828
3.2061309814453125,0.6129857897758484,-0.11829936504364014,-0.14142131805419922,-0.9026003112015869,-0.9716927260461445,0.5720714449595462,-0.5116674304008484,0.7849406599998474,-0.3493776023387909,-0.03281997889280319,0.5075111985206604,0.02729923464357853
3.22636079788208,0.6424724459648132,-0.19651633501052856,-0.07406973838806152,-0.9070713890997328,-0.9596196551057465,0.5789466016201017,-0.5045329928398132,0.7877029180526733,-0.3535120189189911,0.05883608013391495,0.1809702217578888,0.5406795144081116
3.2462010383605957,0.5811123847961426,-0.2351313829421997,0.046349018812179565,-0.9182649404280614,-0.9511317116078442,0.5912939384708967,-0.49430516362190247,0.794549286365509,-0.35263869166374207,-0.08663161098957062,-0.44501572847366333,0.7570340037345886
3.266126871109009,0.4014061689376831,-0.0097159743309021,-0.09148895740509033,-0.9289487958635543,-0.9583437937917805,0.6047797622912084,-0.4898613691329956,0.8009910583496094,-0.3441646993160248,0.21921545267105103,-1.3095571994781494,0.5350853204727173
3.286482810974121,-0.04607498645782471,0.48356640338897705,-0.3582756817340851,-0.9289297388020682,-0.9718208876324752,0.6248201147895673,-0.49446767568588257,0.8009796142578125,-0.33754032850265503,0.8170872926712036,-1.5617411136627197,0.06958023458719254
3.3058509826660156,-0.5634077191352844,0.7370115518569946,-0.19791051745414734,-0.9095599172474239,-0.9703875074445012,0.6592446017204854,-0.5066910982131958,0.7892335653305054,-0.3469502329826355,1.9404932260513306,-1.0390441417694092,-0.47223255038261414
3.325674057006836,-0.689540684223175,0.751848042011261,-0.04819956421852112,-0.8767909745004796,-0.9541269334590846,0.6999058193838449,-0.5218087434768677,0.768690288066864,-0.3699064552783966,1.812382698059082,-0.5181447267532349,-0.6932516098022461
3.345974922180176,-0.494138240814209,0.45857685804367065,0.10372591018676758,-0.8509205613282151,-0.9446744460489394,0.7204497737253764,-0.5342278480529785,0.7518876194953918,-0.3863491415977478,0.7452142834663391,-0.12441668659448624,-0.6410114169120789
3.3655788898468018,-0.33291101455688477,0.21760880947113037,0.1389847695827484,-0.8362098129455118,-0.9450482059356856,0.7187385654700478,-0.5432791113853455,0.7421079874038696,-0.39258578419685364,0.14635422825813293,0.19252745807170868,-0.6069401502609253
3.385565757751465,-0.14363867044448853,0.1354384422302246,0.06324934959411621,-0.8257555830411754,-0.9451253354370049,0.712824643284184,-0.5495681166648865,0.7350602746009827,-0.39706581830978394,0.23076453804969788,0.17967166006565094,-0.47902125120162964
3.405524969100952,-0.01020890474319458,0.03801518678665161,-0.016703426837921143,-0.8135197910742774,-0.9423006256928078,0.7148199729569389,-0.5556785464286804,0.7267095446586609,-0.40387454628944397,0.602576732635498,-0.04914216324687004,-0.46187347173690796
3.425625801086426,0.06800758838653564,-0.06859928369522095,0.08033797144889832,-0.7965910001572477,-0.9375300092200766,0.7249353381715472,-0.5635824799537659,0.7149768471717834,-0.4137424826622009,0.9645222425460815,-0.15840518474578857,-0.4957520365715027
3.444614887237549,0.11871767044067383,-0.14186447858810425,0.16959607601165771,-0.7752699846979495,-0.92943272640121,0.741114158256013,-0.5723004937171936,0.6999089121818542,-0.4273170232772827,1.134429931640625,-0.15988510847091675,-0.5407966375350952
3.464405059814453,0.20434874296188354,-0.23847585916519165,0.21676427125930786,-0.7558526903280206,-0.9242763364192472,0.7525823217242852,-0.5808289051055908,0.6859093904495239,-0.43836769461631775,0.6049984693527222,-0.175297349691391,-0.541501522064209
3.4850897789001465,0.26326197385787964,-0.3626219630241394,0.22316181659698486,-0.7441956537139408,-0.932525988227074,0.7474850291546274,-0.5908071398735046,0.6773803234100342,-0.43829548358917236,-0.18423517048358917,-0.24025531113147736,-0.6044301986694336
3.5051639080047607,0.28001296520233154,-0.3436289429664612,0.23446917533874512,-0.7383675201609408,-0.9496461552235996,0.7299317487867988,-0.6014240980148315,0.6730814576148987,-0.43040725588798523,-0.3827519714832306,-0.2705337703227997,-0.6570024490356445
3.524275779724121,0.27601832151412964,-0.22209525108337402,0.14709389209747314,-0.7276940122807085,-0.9645343301972618,0.7160460804357548,-0.6136342883110046,0.6651495099067688,-0.42547523975372314,0.16732507944107056,-0.29531776905059814,-0.776302695274353
3.5434858798980713,0.28127962350845337,-0.218159019947052,0.17036575078964233,-0.7105976148337622,-0.9740423865182096,0.7114856244438651,-0.6269674897193909,0.6522868871688843,-0.42595043778419495,0.4987959563732147,-0.3632800281047821,-0.8692352771759033
3.5651650428771973,0.251971960067749,-0.2852456569671631,0.21414440870285034,-0.6892436943705117,-0.9834900395703896,0.7091335222572892,-0.642413854598999,0.6359537243843079,-0.42763006687164307,0.45206955075263977,-0.41945603489875793,-0.992851734161377
3.5847718715667725,0.20623433589935303,-0.2786370515823364,0.25894618034362793,-0.6682651399451752,-0.9972101803155571,0.6996560945225153,-0.6592830419540405,0.6196252107620239,-0.42592301964759827,0.08805227279663086,-0.3585244119167328,-1.1884263753890991
3.6039958000183105,0.17377138137817383,-0.2475813627243042,0.25987011194229126,-0.6466308331748222,-1.0146301501388861,0.6819176617922018,-0.6778302192687988,0.602500855922699,-0.42135387659072876,-0.06071881204843521,-0.3071579337120056,-1.3652328252792358
3.6238489151000977,0.11753988265991211,-0.1977919340133667,0.26068615913391113,-0.6234497609683092,-1.0308430539194793,0.6624874339808119,-0.6963668465614319,0.5838393568992615,-0.417378693819046,-0.10121901333332062,-0.15129941701889038,-1.4360867738723755
3.644774913787842,0.04739189147949219,-0.1861611008644104,0.28178685903549194,-0.6012918616663893,-1.0462249113139832,0.6385034145753833,-0.7137279510498047,0.5657082200050354,-0.41299715638160706,-0.4842236340045929,0.01100506167858839,-1.4667656421661377
3.664728879928589,0.07632553577423096,-0.1720571517944336,0.2525752782821655,-0.5840851300759404,-1.0625242574715534,0.6066497341100744,-0.728760838508606,0.5514364242553711,-0.40598705410957336,-0.9320260286331177,0.09566944092512131,-1.3245609998703003
3.6838319301605225,0.13571834564208984,-0.15889590978622437,0.2452932596206665,-0.5724501266316602,-1.0816254056522436,0.5703692727491817,-0.7419958710670471,0.5416932106018066,-0.3949819505214691,-1.189756155014038,-0.01916509121656418,-1.1867396831512451
3.7037220001220703,0.04451620578765869,-0.125480055809021,0.25181689858436584,-0.56278753199223,-1.1015999176043398,0.5300207815159805,-0.7543703317642212,0.5335459113121033,-0.38243207335472107,-1.3866196870803833,0.24452362954616547,-1.2240835428237915
3.7244300842285156,0.14146310091018677,-0.1621653437614441,0.1869298219680786,-0.555249857119829,-1.117858731444722,0.488991647194244,-0.7640827894210815,0.5271556377410889,-0.3718663156032562,-1.27651846408844,0.1746443212032318,-0.9793380498886108
3.7446298599243164,0.17132842540740967,-0.17809689044952393,0.113249272108078,-0.5483529068403425,-1.1337346401441275,0.4611033589210316,-0.7731655240058899,0.5212823152542114,-0.3612197935581207,-0.5245768427848816,-0.2962094843387604,-0.7012806534767151
3.7643089294433594,-0.20164477825164795,-0.06865948438644409,0.04870051145553589,-0.5359532970077444,-1.1488191043120137,0.4501253377972028,-0.7843629717826843,0.5106608867645264,-0.3521367609500885,0.09869719296693802,-0.557528555393219,-0.9354658722877502
3.7841200828552246,-0.5140660405158997,-0.015819579362869263,0.08264988660812378,-0.5127570429787879,-1.1638138903004112,0.44084009850321765,-0.8002192974090576,0.49058157205581665,-0.3449331820011139,-0.022512519732117653,-0.46161264181137085,-1.497962236404419
3.8042099475860596,-0.356772243976593,-0.11685994267463684,0.14062657952308655,-0.4855020375179533,-1.1799503040931583,0.4218570102400316,-0.8177425265312195,0.46665245294570923,-0.3369460701942444,-0.4643213450908661,-0.2820358872413635,-1.5536359548568726
3.8233449459075928,-0.11266767978668213,-0.18661102652549744,0.1674448549747467,-0.4641450884268219,-1.197058757552916,0.39652110774741456,-0.8324771523475647,0.447658509016037,-0.3264719545841217,-0.750400185585022,-0.27856123447418213,-1.3249789476394653
3.844388008117676,-0.11678177118301392,-0.17208710312843323,0.18622589111328125,-0.4473412481982184,-1.2168010304829904,0.36809058032950176,-0.8456969261169434,0.4325699210166931,-0.31253811717033386,-1.0527576208114624,-0.3909304141998291,-1.1541868448257446
3.864198923110962,-0.20599335432052612,-0.1865459382534027,0.21946877241134644,-0.43375403100591886,-1.2359889237959467,0.3364087551375065,-0.8570101857185364,0.4202801287174225,-0.29815828800201416,-1.1659890413284302,-0.16290228068828583,-1.0979762077331543
3.883906841278076,-0.14829838275909424,-0.25822800397872925,0.23903495073318481,-0.42232811477291576,-1.2508969726708277,0.30559191996300705,-0.8658617734909058,0.40988510847091675,-0.2868407070636749,-1.0969715118408203,-0.06705716252326965,-0.8562638163566589
3.903244972229004,-0.07718390226364136,-0.2519571781158447,0.2567483186721802,-0.41611430426598606,-1.263563791463721,0.27646008402671735,-0.8718365430831909,0.4042094051837921,-0.2766152322292328,-1.3216655254364014,-0.07022898644208908,-0.620140790939331
3.9263319969177246,-0.10314351320266724,-0.2217945158481598,0.24346104264259338,-0.4128012196946802,-1.279171331005323,0.24171826863844392,-0.877325177192688,0.4011768102645874,-0.2633584141731262,-1.5660569667816162,-0.05848577618598938,-0.655113697052002
3.943250894546509,-0.12798672914505005,-0.1957811415195465,0.22943830490112305,-0.4092423419554422,-1.2919763580197958,0.20782897259529082,-0.8819925785064697,0.3979143500328064,-0.25249433517456055,-1.2207005023956299,0.09107149392366409,-0.5150717496871948
3.961122989654541,-0.07793790102005005,-0.13872361183166504,0.1796945333480835,-0.40677674435698546,-1.2976688638069152,0.18838104962282057,-0.8843576908111572,0.3956511616706848,-0.24773341417312622,-0.46724754571914673,0.057346370071172714,-0.21706588566303253
3.9799537658691406,-0.01138448715209961,-0.13091498613357544,0.1944865733385086,-0.4041739082724187,-1.3000075171514764,0.184644624537377,-0.8859238624572754,0.3932593762874603,-0.24593915045261383,0.25767871737480164,-0.13218361139297485,-0.17246077954769135
4.000010013580322,0.01713085174560547,-0.21300053596496582,0.21795982122421265,-0.39824933742526214,-1.2999254010125414,0.195918278429551,-0.8881331086158752,0.3878052830696106,-0.24663101136684418,0.7973846793174744,-0.30610162019729614,-0.1040906012058258
4.019938945770264,-0.04256629943847656,-0.3268332779407501,0.23183977603912354,-0.39160610726080636,-1.3008706592772765,0.21342237587860097,-0.8908291459083557,0.3816734254360199,-0.24647292494773865,0.9177666306495667,-0.4542451798915863,-0.12280211597681046
4.039030075073242,-0.15453064441680908,-0.3306446373462677,0.24559499323368073,-0.3838063858122652,-1.3025447939582206,0.23327348381692314,-0.8940838575363159,0.3744526207447052,-0.24576278030872345,1.0297460556030273,-0.41387486457824707,-0.1250825822353363
4.059966087341309,-0.2412239909172058,-0.2630062699317932,0.2556600570678711,-0.3768265406198163,-1.3024662204055912,0.2521783832281499,-0.896562933921814,0.3679715394973755,-0.24651998281478882,0.8241838216781616,-0.29159510135650635,-0.10472273826599121
4.079952955245972,-0.22325032949447632,-0.2212926745414734,0.32530301809310913,-0.3718305487959902,-1.302187941026046,0.26417758179100737,-0.898255467414856,0.3633214831352234,-0.24725425243377686,0.3688878118991852,-0.15622715651988983,-0.037764839828014374
4.099952936172485,-0.257474422454834,-0.19274282455444336,0.3431207537651062,-0.3723376407659531,-1.3039051404596893,0.26955309614734235,-0.8985009789466858,0.36379387974739075,-0.24566280841827393,0.15426293015480042,-0.20766860246658325,0.2181389033794403
4.119953870773315,-0.45725417137145996,-0.1361244022846222,0.26950788497924805,-0.3772642649772626,-1.306798664547456,0.2724239847206192,-0.8974669575691223,0.36837849020957947,-0.24259132146835327,-0.0009048567153513432,-0.20419229567050934,0.28115978837013245
4.139970779418945,-0.5099972486495972,-0.09563976526260376,0.22497887909412384,-0.38052921717423377,-1.310977456663251,0.2745388294026234,-0.8973056077957153,0.37141188979148865,-0.23852860927581787,0.13683253526687622,-0.31172123551368713,0.07513434439897537
4.159970760345459,-0.43428629636764526,-0.10000172257423401,0.21166813373565674,-0.3793768514431551,-1.3176943800817693,0.2796556442906944,-0.8993014097213745,0.3703416883945465,-0.23260317742824554,0.36338359117507935,-0.5420486330986023,-0.055106278508901596
4.182224988937378,-0.41927075386047363,-0.11343640089035034,0.1644791066646576,-0.37444473454242305,-1.3248572876395543,0.29027265058790364,-0.9027051329612732,0.3657557964324951,-0.2265976220369339,0.7421969175338745,-0.5225611329078674,-0.21265387535095215
4.2030909061431885,-0.39536672830581665,-0.06066134572029114,0.03730925917625427,-0.36366868776008304,-1.3291512286152096,0.30782303034217284,-0.9074441194534302,0.3557053804397583,-0.22364960610866547,1.0829907655715942,-0.5962607860565186,-0.42615702748298645
4.22298002243042,-0.3288280963897705,0.019218266010284424,-0.07656300067901611,-0.3483820236630675,-1.3360055328267433,0.3274449293453756,-0.9141376614570618,0.34137746691703796,-0.2186640352010727,0.9810314774513245,-0.7753051519393921,-0.6421733498573303
4.24306583404541,-0.37818145751953125,0.0790591835975647,-0.12954860925674438,-0.3292467905313285,-1.347090073500664,0.3421389010474806,-0.922706663608551,0.3233303725719452,-0.20992891490459442,0.8304463624954224,-0.7480429410934448,-0.8691048622131348
4.2629170417785645,-0.47021716833114624,0.13561168313026428,-0.1367911696434021,-0.30856199703225656,-1.3552444872521496,0.3535252388956818,-0.9307228326797485,0.3036888539791107,-0.2037849724292755,0.6907468438148499,-0.4163552224636078,-0.918129563331604
4.283067941665649,-0.4780094027519226,0.10112336277961731,-0.14858022332191467,-0.28779712786248485,-1.3601959438426934,0.36113487198989336,-0.9376857280731201,0.2838406562805176,-0.20044925808906555,0.3303447961807251,-0.3867371380329132,-0.9779222011566162
4.302957057952881,-0.506525993347168,-0.18264055252075195,-0.12949369847774506,-0.27567279132913314,-1.3637997684135668,0.36076176417627703,-0.9417009353637695,0.27219438552856445,-0.19776149094104767,0.04317373409867287,-0.07391941547393799,-0.06544099748134613
4.3242409229278564,-0.5725181698799133,-0.09953451156616211,-0.0930618941783905,-0.2856386189926497,-1.3616579667829105,0.3622915033850743,-0.9385749101638794,0.281770259141922,-0.19920484721660614,-0.455953985452652,0.24725700914859772,0.790016233921051
4.344629764556885,-0.6191434264183044,0.18841853737831116,-0.1611965298652649,-0.30263000950115393,-1.3574767206111897,0.34728438284529567,-0.9329196214675903,0.2980317175388336,-0.20208469033241272,-1.0999090671539307,0.5892276763916016,0.7007607817649841
4.362896919250488,-0.5577259659767151,0.46671396493911743,-0.3237070143222809,-0.32244445379812603,-1.35113086543633,0.3325580136851174,-0.9256725907325745,0.31688597798347473,-0.20667323470115662,-0.7025194764137268,0.45617586374282837,0.788413941860199
4.3825178146362305,-0.5984682440757751,0.5287600755691528,-0.296201229095459,-0.3368904499296849,-1.350097005806423,0.3174701337284168,-0.9208952188491821,0.33055394887924194,-0.20660635828971863,-0.658954381942749,0.07667470723390579,0.3472867012023926
4.402663946151733,-0.6159902215003967,0.13227638602256775,-0.32938075065612793,-0.34498504882384895,-1.3551727892669145,0.3128481790196797,-0.919288158416748,0.33818259835243225,-0.2013503760099411,-0.08465023338794708,-0.41431090235710144,0.4494880139827728
4.424932956695557,-0.5422819256782532,-0.009488046169281006,-0.07745067775249481,-0.3630532829776793,-1.3578235613345786,0.31471343867044216,-0.9136964678764343,0.355130136013031,-0.19758890569210052,-0.34018203616142273,0.2811773121356964,1.5467990636825562
4.443356037139893,-0.6897759437561035,0.10976707935333252,-0.1656995415687561,-0.39580217835122966,-1.3553942548577032,0.3049632014925521,-0.9013648629188538,0.38554847240448,-0.1972154676914215,-1.0997798442840576,0.2121453583240509,1.1691906452178955
4.462694883346558,-0.585465669631958,0.3402163088321686,-0.27876991033554077,-0.41979273894925817,-1.35999162066452,0.2889475826575011,-0.892958402633667,0.4075711965560913,-0.19107867777347565,-0.7141242623329163,-0.023479055613279343,1.0086003541946411
4.483604907989502,-0.5115392208099365,0.21114397048950195,-0.2909786105155945,-0.4426175310092104,-1.3643290056316575,0.28372913813693273,-0.8844417333602905,0.4283062219619751,-0.18524812161922455,-0.37711837887763977,-0.16390745341777802,1.1450397968292236
4.499958038330078,-0.5408821702003479,0.05381867289543152,-0.162082239985466,-0.46703430805017393,-1.3690502304618297,0.2785082798695694,-0.8747977614402771,0.45024019479751587,-0.17892110347747803,-0.6068536043167114,-0.08027362823486328,1.1400978565216064
4.521300792694092,-0.532087504863739,0.04615378379821777,-0.09726715087890625,-0.49192628563088875,-1.3739156068380924,0.26871726706439447,-0.8643969297409058,0.4723246395587921,-0.17241661250591278,-0.7170400023460388,0.05166514217853546,1.133795976638794
4.540427923202515,-0.5307762622833252,0.061917394399642944,-0.10242058336734772,-0.514919774427206,-1.3774279171143713,0.2579687328844619,-0.8541115522384644,0.4924650192260742,-0.1672479510307312,-0.6268019080162048,0.11037825047969818,0.9157211780548096
4.561101913452148,-0.4471270442008972,0.056210994720458984,-0.09325121343135834,-0.5331069806075516,-1.3794941647109191,0.24887560796215483,-0.8455212116241455,0.508211612701416,-0.16375252604484558,-0.5414100885391235,0.1428396999835968,0.7565263509750366
4.582019805908203,-0.37075525522232056,-0.015185058116912842,-0.05208951234817505,-0.5490756142706427,-1.3802764365893705,0.23986750760691897,-0.8375729918479919,0.5218989253044128,-0.16153350472450256,-0.5462489128112793,0.27904999256134033,0.683181643486023
4.602154970169067,-0.33042097091674805,-0.0032631754875183105,-0.07239353656768799,-0.5632457676058514,-1.380824159866005,0.22977862572219296,-0.830315113067627,0.5339334011077881,-0.15966211259365082,-0.5295054912567139,0.11769723892211914,0.5193972587585449
4.6222779750823975,-0.25292444229125977,0.045485734939575195,-0.026495635509490967,-0.5740237778379018,-1.383861973184654,0.22238032531226154,-0.8250938057899475,0.5430153012275696,-0.15606044232845306,-0.26207447052001953,-0.002472930122166872,0.4679858088493347
4.642212867736816,-0.24089652299880981,0.027538418769836426,0.04993093013763428,-0.5837615616197405,-1.3837953603397923,0.2197500517841394,-0.8198487758636475,0.5511664748191833,-0.1551249474287033,-0.13254493474960327,0.1335601955652237,0.446553111076355
4.660721778869629,-0.18319976329803467,0.009596467018127441,0.014962837100028992,-0.5932063302574364,-1.3813185738877574,0.21828912524203792,-0.8143131732940674,0.5590224266052246,-0.1561676263809204,-0.20851477980613708,0.17484600841999054,0.4513019621372223
4.680866956710815,-0.12219536304473877,0.012271881103515625,0.004223048686981201,-0.602800766995482,-1.3812840197117457,0.21311914789103883,-0.8090028166770935,0.5669518113136292,-0.15517818927764893,-0.39805206656455994,0.14493542909622192,0.41237279772758484
4.701617956161499,-0.10374671220779419,-0.01704728603363037,0.03158433735370636,-0.6129587349317424,-1.3817251695510728,0.20496759439789375,-0.8033729791641235,0.5752900838851929,-0.15373089909553528,-0.44957974553108215,0.26612603664398193,0.4696106016635895
4.721481800079346,-0.036203742027282715,-0.027591168880462646,0.04693366587162018,-0.6239708246723761,-1.3817716044653423,0.19522540599800542,-0.7971091866493225,0.5842623114585876,-0.1524939090013504,-0.4703878164291382,0.30378925800323486,0.493435800075531
4.741559028625488,0.0327109694480896,-0.041925251483917236,0.024810388684272766,-0.6369561323145074,-1.3802757474361607,0.18817203902879404,-0.7893638014793396,0.5947511792182922,-0.1522364765405655,-0.3588525056838989,0.24528200924396515,0.6233072280883789
4.762814998626709,0.06453192234039307,-0.06126445531845093,0.07495421171188354,-0.6504128693387178,-1.3783725134338447,0.1829166669299606,-0.7811457514762878,0.6055150032043457,-0.15219412744045258,-0.3009316921234131,0.2595248520374298,0.6454351544380188
4.783111095428467,0.12841057777404785,-0.1338394284248352,0.08154632151126862,-0.6657315001258889,-1.375852845436129,0.17924671942966508,-0.7715684771537781,0.6176345944404602,-0.15234702825546265,-0.204591304063797,0.27113091945648193,0.73591148853302
4.8020288944244385,0.16912919282913208,-0.14725041389465332,0.08433032035827637,-0.6797375761947057,-1.3721068315008051,0.17874584471693283,-0.7624367475509644,0.6285889744758606,-0.15351362526416779,-0.1418551802635193,0.18345512449741364,0.7018552422523499
4.8199849128723145,0.1575062870979309,-0.15774744749069214,0.10769523680210114,-0.6945597498638241,-1.3667786892459188,0.18085169160054582,-0.7524006366729736,0.6400472521781921,-0.15566882491111755,0.012588554993271828,0.17751513421535492,0.8206737637519836
4.840634822845459,0.16889899969100952,-0.1286560297012329,0.09125472605228424,-0.7103626586152777,-1.3599270093925877,0.18683570242925493,-0.741332471370697,0.6521087288856506,-0.15868327021598816,0.15783651173114777,0.10625115036964417,0.8037571907043457
4.860004901885986,0.2458726167678833,-0.15573233366012573,0.09420020878314972,-0.7264652621841354,-1.3498037530439095,0.19887328387762418,-0.7293473482131958,0.6642314791679382,-0.16385652124881744,0.33488935232162476,0.10965405404567719,1.0094908475875854
4.880001068115234,0.2624790668487549,-0.19886040687561035,0.13645167648792267,-0.7453520067047869,-1.3393394008369615,0.21186268281973744,-0.7152531147003174,0.6782305240631104,-0.168571338057518,0.2068038284778595,0.11006000638008118,1.0456624031066895
4.901148796081543,0.23145288228988647,-0.22988152503967285,0.11209219694137573,-0.7661092988517023,-1.3307027896740686,0.22066983039374752,-0.699943482875824,0.6933367848396301,-0.17135725915431976,-0.03867330029606819,0.1512233465909958,1.0702060461044312
4.920891761779785,0.26214897632598877,-0.22510451078414917,0.08273816108703613,-0.7868991228049296,-1.3217863518683108,0.2285470788855095,-0.6842681765556335,0.708167314529419,-0.17400091886520386,0.08372322469949722,0.24373231828212738,1.1412451267242432
4.94127082824707,0.24269461631774902,-0.2106056809425354,0.09131647646427155,-0.8092560478457584,-1.3085590836944654,0.2376575018451812,-0.6664464473724365,0.7237740159034729,-0.17888657748699188,-0.042879194021224976,0.396557092666626,1.1300071477890015
4.960031986236572,0.2523113489151001,-0.2566431164741516,0.09400498867034912,-0.8311378988503852,-1.2949377003506621,0.24306715740609244,-0.6485516428947449,0.7386988401412964,-0.18358929455280304,-0.1633167266845703,0.5560153722763062,1.1456336975097656
4.980905055999756,0.2848201394081116,-0.2741966247558594,0.07472628355026245,-0.8539587912140221,-1.279780748808583,0.24770438369197545,-0.6293788552284241,0.7538872361183167,-0.18851101398468018,-0.1524042934179306,0.6226624250411987,1.1012076139450073
5.0007548332214355,0.26464933156967163,-0.2517310380935669,0.04795244336128235,-0.8749457965202938,-1.2606773809163765,0.254914149494416,-0.6104593276977539,0.7675087451934814,-0.19562698900699615,-0.0845666453242302,0.7103015184402466,1.0511243343353271
5.02125096321106,0.24203413724899292,-0.2636415958404541,0.05036558210849762,-0.8941280323852636,-1.2404746148775223,0.2621410588931277,-0.5923453569412231,0.7796633243560791,-0.20310597121715546,-0.08881058543920517,0.7848495841026306,0.9365901350975037
5.040045976638794,0.22835487127304077,-0.2610068917274475,0.08254797756671906,-0.9122764486847624,-1.218935061880019,0.2683119816058771,-0.5744547247886658,0.790898859500885,-0.21090483665466309,-0.15786394476890564,0.9033494591712952,0.9328228235244751
5.060708999633789,0.21415215730667114,-0.26893502473831177,0.06960143148899078,-0.930509661613288,-1.1951436469005163,0.27431396744042597,-0.5557659268379211,0.8019245266914368,-0.2191832810640335,-0.1290675550699234,0.9597823023796082,0.8891366124153137
5.080642938613892,0.1850055456161499,-0.21561932563781738,0.029892385005950928,-0.9465674146446479,-1.167739868822629,0.2845848391628011,-0.5376361608505249,0.8114140629768372,-0.22924843430519104,0.09801372140645981,0.9713059663772583,0.8315513134002686
5.100362777709961,0.1544855237007141,-0.19814008474349976,0.0657774806022644,-0.9603134124870392,-1.1335158733279183,0.30140803234065855,-0.5193231701850891,0.8193712830543518,-0.24276410043239594,0.25729072093963623,1.0884623527526855,0.8228182792663574
5.120003938674927,0.09042710065841675,-0.19751405715942383,0.030254095792770386,-0.9709068214477776,-1.0917219033166892,0.32536299136742547,-0.5009953379631042,0.8253980278968811,-0.2602344751358032,0.4787251651287079,1.1554445028305054,0.7335594892501831
5.14000391960144,0.10972684621810913,-0.20420819520950317,0.09780314564704895,-0.9779356212961088,-1.0428731484493288,0.3550657090002247,-0.4826669692993164,0.829345703125,-0.28145790100097656,0.6490430235862732,1.266072154045105,0.7030485272407532
5.160198926925659,0.12824591994285583,-0.22529828548431396,0.0508551299571991,-0.9827359032844775,-0.990109295220086,0.38894875465650547,-0.46381720900535583,0.8320181965827942,-0.30433404445648193,0.665133535861969,1.1792443990707397,0.6758326888084412
5.180002927780151,0.08844366669654846,-0.2316606044769287,0.10692071914672852,-0.9856570894008506,-0.9433533597161269,0.417407679165315,-0.44711676239967346,0.8336352109909058,-0.32425159215927124,0.4674920439720154,1.1660016775131226,0.45918163657188416
5.2000041007995605,0.0566658079624176,-0.25012797117233276,0.10705378651618958,-0.9881557081161682,-0.9050995251386268,0.4350480586844062,-0.4327491819858551,0.8350126147270203,-0.3398265540599823,0.13008475303649902,1.1853158473968506,0.33015507459640503
5.219998836517334,0.09640181064605713,-0.3121400475502014,0.1261681318283081,-0.9923572900948848,-0.8791442481719228,0.4385721074914905,-0.42107832431793213,0.8373170495033264,-0.34870225191116333,-0.1978762149810791,1.103145718574524,0.11111045628786087
5.240360975265503,0.11688727140426636,-0.29495924711227417,0.09763798117637634,-0.9962496499616232,-0.8641902259467662,0.43115676046369417,-0.41333508491516113,0.8394387364387512,-0.35284122824668884,-0.3991793692111969,1.0232226848602295,-0.05676470696926117
5.260138988494873,0.11331716179847717,-0.2986447215080261,0.16275084018707275,-1.0013950673295302,-0.8616079156199383,0.40986026402993664,-0.4091393053531647,0.8422239422798157,-0.3510900139808655,-0.7928079962730408,1.062596082687378,-0.3059569299221039
5.280010938644409,0.11027905344963074,-0.3066074848175049,0.1250934600830078,-1.0067337924653075,-0.8703262375875197,0.3744857468043346,-0.4087409973144531,0.8450901508331299,-0.3446063697338104,-0.9502386450767517,1.0685006380081177,-0.5065246224403381
5.29973292350769,0.18557238578796387,-0.2674846649169922,0.11853361129760742,-1.008306993449092,-0.8812311099364988,0.3362566983369865,-0.41144827008247375,0.8459301590919495,-0.33928245306015015,-0.7326178550720215,1.0853254795074463,-0.6954326629638672
5.320004940032959,0.25247588753700256,-0.23107272386550903,0.1352740228176117,-1.0051591863541574,-0.8923181666127269,0.2974786873627398,-0.4172556400299072,0.8442472815513611,-0.3363695442676544,-0.695530116558075,1.0859949588775635,-0.831061840057373
5.340049982070923,0.2713432013988495,-0.29182350635528564,0.1527220606803894,-1.0018186269294926,-0.9051804600550198,0.2560972807572383,-0.423763245344162,0.8424522280693054,-0.332714706659317,-0.8950641751289368,1.0794283151626587,-0.8151997327804565
5.360063076019287,0.17724746465682983,-0.15436702966690063,0.038559019565582275,-1.0013841762993647,-0.9261533790093922,0.2069133343601554,-0.4309401214122772,0.8422180414199829,-0.323974609375,-1.1618578433990479,0.9821425080299377,-0.849247395992279
5.380002975463867,-0.017090678215026855,0.17569488286972046,-0.09360706806182861,-1.0024339649730019,-0.9508176204297687,0.15276632341344826,-0.43807899951934814,0.8427835702896118,-0.312734454870224,-1.2059104442596436,1.1502974033355713,-0.7519837617874146
5.400003910064697,-0.12084990739822388,0.3434075117111206,-0.18589875102043152,-1.0053258825701104,-0.9682931715538106,0.10305905857085251,-0.4414669871330261,0.8443366289138794,-0.30364885926246643,-1.1735152006149292,1.2858433723449707,-0.5444597601890564
5.42000675201416,-0.1563526690006256,0.40133047103881836,-0.22061678767204285,-1.011046161382269,-0.9795703864224111,0.057944325856994695,-0.440845787525177,0.8473877906799316,-0.295954167842865,-1.12043035030365,1.4138147830963135,-0.3409332036972046
5.440004825592041,-0.1997191309928894,0.3533365726470947,-0.22643166780471802,-1.0184853984910087,-0.9834285307461398,0.018247860230480032,-0.4367249608039856,0.8513143658638,-0.2907496988773346,-1.0849734544754028,1.5733258724212646,-0.22745253145694733
5.460004806518555,-0.17400527000427246,0.2343074083328247,-0.19415423274040222,-1.0258200495142298,-0.9833004771837588,-0.020023431157559064,-0.43147870898246765,0.8551396131515503,-0.2873367369174957,-0.9720874428749084,1.6822975873947144,-0.25359398126602173
5.480048894882202,-0.06409528851509094,0.07671588659286499,-0.14543718099594116,-1.0316146738550567,-0.9799749718585905,-0.05580484733434355,-0.42639851570129395,0.8581291437149048,-0.28600504994392395,-0.8889849781990051,1.7021396160125732,-0.31292733550071716
5.500179767608643,0.03969880938529968,-0.06420749425888062,-0.07532033324241638,-1.0352379560813663,-0.9772788753220416,-0.09175612020470796,-0.4230453073978424,0.8599838018417358,-0.28541260957717896,-0.8638057112693787,1.648503303527832,-0.4036002457141876
5.520004987716675,0.10825592279434204,-0.1282694935798645,-0.05970466136932373,-1.0372559665539318,-0.9789056491636905,-0.1300864327424817,-0.42206820845603943,0.8610119223594666,-0.283755362033844,-0.8586880564689636,1.511332392692566,-0.5173553824424744
5.540042877197266,0.1256667971611023,-0.10730355978012085,-0.056967735290527344,-1.0378255939397982,-0.9843489306086385,-0.1699576873089475,-0.4231979250907898,0.8613014817237854,-0.28118225932121277,-0.8796916604042053,1.390699863433838,-0.566240668296814
5.560175895690918,0.15252161026000977,-0.048042237758636475,-0.045749157667160034,-1.03807323857572,-0.993126313352864,-0.21147370898443282,-0.4254707992076874,0.8614272475242615,-0.2773403525352478,-0.8773888349533081,1.3056243658065796,-0.5496321320533752
5.580008029937744,0.2104921042919159,0.00481414794921875,-0.0561290979385376,-1.0387348150001592,-1.000964259944283,-0.2497310565589236,-0.4271516799926758,0.861763060092926,-0.2736895978450775,-0.7863014936447144,1.2043956518173218,-0.4501110315322876
5.600172996520996,0.2217404544353485,0.02194225788116455,-0.0789404809474945,-1.0396528811216785,-1.0060005411652233,-0.28194236516086985,-0.4278562664985657,0.8622284531593323,-0.2711113691329956,-0.6500153541564941,1.076952338218689,-0.3597419261932373
5.620055913925171,0.2069905400276184,0.031614840030670166,-0.08428516983985901,-1.0406505150899867,-1.0081455783356466,-0.3089324774604178,-0.4277089238166809,0.8627333641052246,-0.2697339355945587,-0.5895715951919556,1.0382379293441772,-0.29285168647766113
5.6396660804748535,0.18488502502441406,0.030520737171173096,-0.09020155668258667,-1.0419709066227012,-1.0092500430677604,-0.3342595165314766,-0.42704203724861145,0.8634002804756165,-0.26865458488464355,-0.5500099658966064,1.0276367664337158,-0.2663930654525757
5.660124778747559,0.18684905767440796,0.034216463565826416,-0.07063376903533936,-1.0437517347246017,-1.0081715008113978,-0.3571253305567145,-0.42545077204704285,0.8642973303794861,-0.26829442381858826,-0.5410223007202148,1.0775399208068848,-0.20558413863182068
5.679456949234009,0.1936793029308319,0.04362601041793823,-0.07775649428367615,-1.0466816164532182,-1.006808236902696,-0.37980421881594756,-0.422942578792572,0.8657673001289368,-0.2675192952156067,-0.5796277523040771,1.0129035711288452,-0.17840968072414398
5.700001955032349,0.17316105961799622,0.021469831466674805,-0.11955416202545166,-1.049831650943533,-1.007411035283051,-0.403168922178082,-0.4207959771156311,0.8673394322395325,-0.26580649614334106,-0.5578963756561279,0.9528409242630005,-0.1664644032716751
5.720064878463745,0.15996798872947693,0.016226351261138916,-0.151590496301651,-1.0524013978481024,-1.0044749149801757,-0.4214625402726595,-0.41813144087791443,0.8686155676841736,-0.2658441364765167,-0.3290427029132843,0.9286583065986633,-0.09847942739725113
5.740078926086426,0.17328977584838867,0.022225499153137207,-0.1575954556465149,-1.053351997926265,-0.9939671223097523,-0.43015597484607815,-0.41462278366088867,0.8690862059593201,-0.26977264881134033,-0.10041911154985428,0.8669978976249695,-0.06985094398260117
5.75998592376709,0.1693456470966339,-0.01805579662322998,-0.15311887860298157,-1.0522697561979488,-0.9811020059686073,-0.43396628476841725,-0.4118994474411011,0.8685503602027893,-0.27560728788375854,-0.018271328881382942,0.7669001817703247,-0.13096915185451508
5.780035972595215,0.18994131684303284,-0.021856248378753662,-0.13387534022331238,-1.0501819715773857,-0.9712477884272828,-0.4391135366531258,-0.4106597900390625,0.8675137758255005,-0.28067538142204285,-0.08985678851604462,0.6692296862602234,-0.18549616634845734
5.800048828125,0.22371113300323486,-0.0029761195182800293,-0.12755098938941956,-1.048181434872169,-0.9666738627621245,-0.4475065341856056,-0.41079920530319214,0.8665169477462769,-0.28353604674339294,-0.13803933560848236,0.5227372646331787,-0.21174480020999908
5.820013999938965,0.2492789924144745,0.03500169515609741,-0.14340004324913025,-1.04595644659323,-0.9653191881468068,-0.456147127223179,-0.4119987189769745,0.8654041886329651,-0.2851887345314026,-0.08021774888038635,0.36008840799331665,-0.2252369225025177
5.840015888214111,0.28123608231544495,0.05318659543991089,-0.1624133586883545,-1.042653830238706,-0.9654505007045694,-0.462414519086767,-0.41438430547714233,0.8637446165084839,-0.2867595851421356,-0.0017579072155058384,0.1581961065530777,-0.21127507090568542
5.860006809234619,0.31500497460365295,0.07546877861022949,-0.1753126084804535,-1.038331151181177,-0.9661969634508921,-0.4648994840626134,-0.41766607761383057,0.861558198928833,-0.28856977820396423,0.14679135382175446,-0.006321286782622337,-0.23298119008541107
5.880044937133789,0.3420065939426422,0.11108291149139404,-0.1889372169971466,-1.032647451036228,-0.9666679858062518,-0.46339906787408897,-0.4218253195285797,0.8586589694023132,-0.2911500036716461,0.19776298105716705,-0.16184651851654053,-0.17146869003772736
5.900017976760864,0.3545980453491211,0.137700617313385,-0.1797409951686859,-1.0291324565490003,-0.9686286321947342,-0.46120050231988013,-0.4248799979686737,0.8568520545959473,-0.2920301556587219,0.08108115196228027,-0.19892188906669617,-0.055719342082738876
5.920016765594482,0.364078164100647,0.1876658797264099,-0.17835578322410583,-1.029206049037069,-0.9713875173341396,-0.45973694058910997,-0.42563220858573914,0.8568899631500244,-0.2908214032649994,-0.016055753454566002,-0.1972961276769638,0.10692805051803589
5.940006971359253,0.3990963101387024,0.20575106143951416,-0.19912540912628174,-1.0324935471341805,-0.9727889325690602,-0.45473234069301627,-0.4237087368965149,0.8585800528526306,-0.2886369824409485,0.07954545319080353,-0.3755864202976227,0.2957751154899597
5.96005392074585,0.37673574686050415,0.240472674369812,-0.24843624234199524,-1.0355813964997111,-0.968355906898446,-0.4391743249537947,-0.4202384948730469,0.8601590394973755,-0.2890087068080902,0.4281967878341675,-0.4941650927066803,0.39252448081970215
5.9801530838012695,0.2650447189807892,0.3705669045448303,-0.2684415578842163,-1.035765382641366,-0.9535038685516921,-0.41075645164023694,-0.4157710671424866,0.860252857208252,-0.2951265275478363,0.7310733199119568,-0.44928762316703796,0.4562360644340515
6.0000081062316895,0.24497124552726746,0.3235967755317688,-0.20259684324264526,-1.0349649204565605,-0.9248377371117352,-0.3687138625245982,-0.40769097208976746,0.859844446182251,-0.30733659863471985,1.0422139167785645,-0.33570602536201477,0.8450323343276978
6.019951820373535,0.3257026970386505,0.1755509376525879,-0.08597961068153381,-1.0395351212923762,-0.8820463330401916,-0.3114964900985327,-0.3911323845386505,0.8621687889099121,-0.3219945430755615,0.9396742582321167,-0.3501169979572296,1.2299762964248657
6.039954900741577,0.2781968414783478,0.037645041942596436,-0.0031675994396209717,-1.046924629724245,-0.8377593953057109,-0.2512266435346738,-0.3717484772205353,0.8658888936042786,-0.3347229063510895,0.8961400389671326,-0.43253013491630554,1.2989087104797363
6.060009002685547,0.2251623570919037,-0.021746814250946045,0.028417468070983887,-1.0526666996483443,-0.7940009665424155,-0.18956039909737338,-0.3531988561153412,0.8687469959259033,-0.3471735417842865,0.9439189434051514,-0.565875768661499,1.1923916339874268
6.080018997192383,0.15110164880752563,0.026210904121398926,0.020345300436019897,-1.054581395579914,-0.7557580990229219,-0.13016364597046437,-0.33852535486221313,0.8696936964988708,-0.35921239852905273,0.9862467050552368,-0.76228928565979,1.041589379310608
6.100011825561523,0.03542780876159668,0.17875581979751587,-0.038038671016693115,-1.0521080819464803,-0.7233664885267798,-0.07373431689237216,-0.3281371593475342,0.8684701919555664,-0.3715987205505371,1.0522003173828125,-0.9095064401626587,0.8558998703956604
6.1200127601623535,-0.04713606834411621,0.33939146995544434,-0.06769025325775146,-1.0462465232021372,-0.6961976821118034,-0.02086842043879079,-0.32118064165115356,0.8655495047569275,-0.38427504897117615,1.1231122016906738,-0.9193565249443054,0.818880558013916
6.140017986297607,-0.09103929996490479,0.3420488238334656,-0.010551393032073975,-1.038403655961806,-0.6649487429226414,0.035392212404029295,-0.3131965696811676,0.8615950345993042,-0.39945223927497864,1.2448760271072388,-0.8181532025337219,0.8761386275291443
6.16001296043396,-0.12037122249603271,0.2871496081352234,0.042501747608184814,-1.029716179211792,-0.63108926235452,0.09133258102725857,-0.3038994073867798,0.8571528196334839,-0.41585373878479004,1.1310185194015503,-0.648029625415802,0.8586810827255249
6.180098056793213,-0.08564943075180054,0.06638306379318237,0.08784186840057373,-1.0238539480204096,-0.6030493286999716,0.13831716589210016,-0.29496583342552185,0.8541187047958374,-0.42834168672561646,0.7237119078636169,-0.5847285985946655,0.796543538570404
6.20000696182251,-0.012703359127044678,-0.12058043479919434,0.14698243141174316,-1.024524397165291,-0.5842646256979468,0.17422319029164524,-0.28655198216438293,0.8544672131538391,-0.433328777551651,0.31271710991859436,-0.6296901702880859,0.7897629737854004
6.220004081726074,-0.009340941905975342,-0.21932852268218994,0.1463184952735901,-1.0278687515366443,-0.571457313830638,0.20523097143053678,-0.27943164110183716,0.8561998605728149,-0.4345569312572479,0.3205494284629822,-0.7337363958358765,0.7166494727134705
6.2400078773498535,-0.08706355094909668,-0.2547147870063782,0.17130008339881897,-1.0279891931565532,-0.5614457400905766,0.2337383582297073,-0.27501222491264343,0.8562620282173157,-0.4372454285621643,0.4361315369606018,-0.7212101221084595,0.4969482123851776
6.260005950927734,-0.10494723916053772,-0.3065420985221863,0.19175985455513,-1.0243535423247214,-0.5574431549557175,0.2548779170938005,-0.2749049961566925,0.8543784618377686,-0.44098159670829773,0.3987054228782654,-0.7048572897911072,0.25190645456314087
6.280005931854248,-0.13579171895980835,-0.3325321078300476,0.19317469000816345,-1.0211694685676904,-0.5634561408769261,0.26464319864136726,-0.27900317311286926,0.8527194857597351,-0.4416182041168213,0.10780669003725052,-0.7295005321502686,-0.010773167945444584
6.30009388923645,-0.2743684947490692,-0.2768831253051758,0.16613417863845825,-1.0202644006129118,-0.5831846151333642,0.2575043725696131,-0.2880857288837433,0.8522463440895081,-0.4366724491119385,-0.2347021996974945,-0.5772214531898499,-0.3522324562072754
6.320006847381592,-0.3584716022014618,-0.1847219467163086,0.1864580512046814,-1.0211144667975034,-0.6111018372467891,0.23384548258748403,-0.2997467815876007,0.8526907563209534,-0.4278672933578491,-0.5072042346000671,-0.17635968327522278,-0.563209593296051
6.3400068283081055,-0.24745634198188782,-0.15464270114898682,0.1954132318496704,-1.025474228988045,-0.6350640425426438,0.20534442373732298,-0.30770424008369446,0.8549602627754211,-0.4175659716129303,-0.7104189991950989,0.18228574097156525,-0.33367592096328735
6.3600077629089355,-0.1806633472442627,-0.12601244449615479,0.09020966291427612,-1.0349227850006082,-0.64681981538333,0.18504722293920547,-0.3077094554901123,0.8598229289054871,-0.40745511651039124,-0.5930065512657166,0.3721112310886383,0.06933418661355972
6.380005836486816,-0.23614907264709473,-0.10116273164749146,-0.06266918778419495,-1.0406115500069657,-0.6345948675015356,0.18768970533078644,-0.2998006045818329,0.862713634967804,-0.4072403907775879,0.4111236035823822,0.6318278312683105,0.3509247899055481
6.40000581741333,-0.48670580983161926,-0.02771824598312378,-0.09437310695648193,-1.0254116135233373,-0.5909511159835302,0.22129281375638835,-0.28902050852775574,0.8549277782440186,-0.4307733476161957,1.6598001718521118,0.8895204663276672,-0.00470083300024271
6.420005798339844,-0.7720394134521484,0.006468653678894043,0.20045790076255798,-0.9926548811171501,-0.5565125782912025,0.2351735451577677,-0.28866004943847656,0.8374797105789185,-0.4640076458454132,1.1886327266693115,1.3552405834197998,-1.1124634742736816
6.440074920654297,-0.5904703140258789,-0.12795758247375488,0.3049880564212799,-0.9761581770220206,-0.5605799446059502,0.19691427680587514,-0.2978505492210388,0.8283512592315674,-0.47446733713150024,-1.0538069009780884,1.3426828384399414,-1.4919711351394653
6.460006952285767,-0.5523256063461304,0.08426570892333984,0.030727535486221313,-0.9911345863801829,-0.6090727457198603,0.10939336199940634,-0.31336653232574463,0.8366479873657227,-0.44924554228782654,-2.5904369354248047,1.1202315092086792,-1.7137902975082397
6.480094909667969,-0.5635987520217896,0.5426473617553711,-0.26327377557754517,-1.0094867714298739,-0.6677418552535085,0.01116988087829371,-0.3296050429344177,0.8465587496757507,-0.41797012090682983,-1.7395788431167603,1.287674069404602,-1.3727771043777466
6.500010967254639,-0.3890478312969208,0.6655599474906921,-0.3807687759399414,-1.0094522119039022,-0.6905892307458616,-0.04675795397427206,-0.3390863537788391,0.8465403914451599,-0.4103536009788513,-0.32846447825431824,1.3083252906799316,-1.0630098581314087
6.520005941390991,-0.1856062412261963,0.3488466739654541,-0.28872984647750854,-0.9983456031891567,-0.6881297262180526,-0.07433478087600565,-0.3440263569355011,0.8405759334564209,-0.4184234142303467,0.11400983482599258,1.2863324880599976,-0.7989795207977295
6.540018081665039,0.011633038520812988,-0.03712761402130127,-0.08525454998016357,-0.9875684098479353,-0.6771507138458069,-0.09255107285960526,-0.3450681269168854,0.8346893191337585,-0.42921075224876404,0.06122424453496933,1.3420495986938477,-0.6764429211616516
6.560009002685547,0.17963624000549316,-0.25647419691085815,0.040395498275756836,-0.9790642032584155,-0.6665117566817804,-0.11189917785333378,-0.34485840797424316,0.8299757242202759,-0.4384208917617798,-0.08458808064460754,1.3201732635498047,-0.7127227783203125
6.580053806304932,0.26871657371520996,-0.3788151144981384,0.08043640851974487,-0.9728488486825181,-0.6608818666622781,-0.1357559589222216,-0.34554457664489746,0.8264928460121155,-0.4444195330142975,-0.2602645456790924,1.2337384223937988,-0.7343177795410156
6.600007057189941,0.27401629090309143,-0.38178759813308716,0.07277458906173706,-0.9684127052109794,-0.6623515084196616,-0.1658275545324197,-0.34844866394996643,0.8239873647689819,-0.4467979669570923,-0.3756633698940277,1.1354113817214966,-0.8653168678283691
6.62001895904541,0.2559562623500824,-0.2732357978820801,0.029317259788513184,-0.9610716025292281,-0.6633400694225554,-0.1946141403073432,-0.3526054322719574,0.8198056817054749,-0.4512074589729309,0.00584742845967412,1.16993248462677,-0.8887810707092285
6.640007019042969,0.2544231712818146,-0.1639055609703064,0.02037602663040161,-0.9466167005880575,-0.6554040556753452,-0.2147689991266746,-0.35619932413101196,0.8114428520202637,-0.46333858370780945,0.3719085454940796,1.254643201828003,-0.9459024667739868
6.660015106201172,0.2761005759239197,-0.16688817739486694,0.04077202081680298,-0.9289599250386797,-0.6460193907858962,-0.2343562286482347,-0.3604053854942322,0.8009977340698242,-0.4780278503894806,0.21802687644958496,1.256558895111084,-1.034842610359192
6.680006980895996,0.2946989834308624,-0.14964616298675537,0.06499934196472168,-0.9177030490938073,-0.6445617621285679,-0.26379954759039514,-0.3651030659675598,0.7942079901695251,-0.4857299029827118,-0.39214766025543213,1.259317398071289,-1.0634427070617676
6.700006008148193,0.3099973797798157,-0.09812504053115845,0.06773009896278381,-0.9160853337178767,-0.6507213948448263,-0.30443134223921897,-0.3688657879829407,0.7932239174842834,-0.48449334502220154,-0.9586715698242188,1.3632171154022217,-0.9739998579025269
6.720006942749023,0.3639092445373535,-0.0754857063293457,0.043341487646102905,-0.923926329538377,-0.6593676711213504,-0.3501180423721495,-0.3692193031311035,0.7979741096496582,-0.47635531425476074,-1.2925318479537964,1.3827178478240967,-0.750837504863739
6.740043878555298,0.4037512540817261,-0.030370056629180908,-0.05847334861755371,-0.9357489811601075,-0.6663357023932137,-0.39180796239169446,-0.36667242646217346,0.805043637752533,-0.466322124004364,-1.0938478708267212,1.253466010093689,-0.47994014620780945
6.760008811950684,0.40075555443763733,0.040178120136260986,-0.15058723092079163,-0.9448479104160483,-0.6645277814352815,-0.4185054192987931,-0.36129632592201233,0.810407817363739,-0.4611985683441162,-0.5808389782905579,1.0777947902679443,-0.2263123244047165
6.779376029968262,0.3774969279766083,0.0782918930053711,-0.18348658084869385,-0.9484557839819416,-0.6533720900813901,-0.42902503248457585,-0.3543493449687958,0.8125162720680237,-0.4628756642341614,-0.1270962506532669,0.9098551273345947,-0.03157094866037369
6.800017833709717,0.34975865483283997,0.09194749593734741,-0.17762041091918945,-0.948221955097223,-0.6353564657224757,-0.4269635140568737,-0.34606605768203735,0.8123799562454224,-0.46933692693710327,0.16904069483280182,0.6758586764335632,0.09992523491382599
6.820007801055908,0.29736271500587463,0.12297224998474121,-0.2150428593158722,-0.9496562440019102,-0.6199537967007049,-0.42118367458017636,-0.33811891078948975,0.8132154941558838,-0.47366252541542053,-0.010823920369148254,0.30072957277297974,0.2987029552459717
6.840054035186768,0.10634863376617432,0.22122174501419067,-0.30120038986206055,-0.9512344360965629,-0.6035701237129585,-0.40721562668256894,-0.3295847773551941,0.8141329288482666,-0.47808119654655457,0.4257495403289795,0.2811373770236969,0.362443745136261
6.8600099086761475,-0.04598832130432129,0.3885601758956909,-0.28348928689956665,-0.9369843514874637,-0.5827848900851544,-0.39312034507351407,-0.3259294331073761,0.8057758212089539,-0.49446478486061096,0.9769606590270996,0.49664369225502014,-0.3702487349510193
6.880007982254028,0.09839877486228943,0.3305147886276245,-0.18959128856658936,-0.9214581284263695,-0.576839694571934,-0.3939405829312856,-0.3297678232192993,0.796484112739563,-0.5068197846412659,0.19055761396884918,0.09591978043317795,-0.5153185129165649
6.900007963180542,0.15028837323188782,0.3132755756378174,-0.15728652477264404,-0.9211501483862301,-0.5946963799703581,-0.41136804678051175,-0.3389022648334503,0.7962978482246399,-0.5010538697242737,-0.6495272517204285,-0.44025683403015137,-0.4493654668331146
6.920008897781372,0.09338808059692383,0.524547278881073,-0.16625884175300598,-0.9291914956757434,-0.6273766302811488,-0.4347129638341687,-0.35132265090942383,0.801136314868927,-0.48451316356658936,-0.6563129425048828,-0.9396665692329407,-0.10720552504062653
6.940005779266357,0.09673014283180237,0.5790765881538391,-0.20380812883377075,-0.9368121048274219,-0.6534162896143673,-0.4384488376201638,-0.36009687185287476,0.8056738376617432,-0.47034040093421936,-0.07188411802053452,-1.4195561408996582,0.3055202066898346
6.960007905960083,0.09369295835494995,0.49464744329452515,-0.15077131986618042,-0.9380534701738691,-0.6710462083577695,-0.4193891500045431,-0.36771032214164734,0.8064085245132446,-0.4631354808807373,0.6764395833015442,-1.875329613685608,0.641994297504425
6.980071067810059,0.10772636532783508,0.3412613272666931,-0.05705446004867554,-0.9309485177668332,-0.6772884516348949,-0.3766539290703815,-0.37417539954185486,0.8021866083145142,-0.4652843773365021,1.4548892974853516,-2.1619935035705566,0.9020724296569824
7.000085830688477,0.1206868588924408,0.19532465934753418,0.04033514857292175,-0.9166738857679374,-0.6717529532918063,-0.31422863329504835,-0.3786824643611908,0.7935822010040283,-0.4762634038925171,1.965957522392273,-2.253305435180664,1.1295515298843384
7.019978046417236,0.12859517335891724,0.02234470844268799,0.13127198815345764,-0.8993743614087506,-0.6587547898266851,-0.24157747830537582,-0.38080766797065735,0.7829378247261047,-0.49192866683006287,2.1071789264678955,-2.1440603733062744,1.3371473550796509
7.040043830871582,0.11864060163497925,-0.13925832509994507,0.2439008355140686,-0.8838477217561282,-0.6396036806172507,-0.16604525290396077,-0.37852832674980164,0.7731847763061523,-0.5088238716125488,1.9964251518249512,-1.8194857835769653,1.4815821647644043
7.060009002685547,0.11835002899169922,-0.24373853206634521,0.3036491870880127,-0.8705347810262933,-0.6164139834657693,-0.0932307521129992,-0.3725461959838867,0.76467365026474,-0.5258170962333679,1.8090108633041382,-1.4740016460418701,1.4867217540740967
7.080043792724609,0.12403291463851929,-0.32626020908355713,0.34200048446655273,-0.8587105388849117,-0.5919417375589084,-0.026568643489165985,-0.3645877540111542,0.7570006251335144,-0.5422415137290955,1.6247060298919678,-1.1713292598724365,1.4001613855361938
7.100017070770264,0.1154603660106659,-0.39729195833206177,0.3926318883895874,-0.8487296727183252,-0.5677956342624468,0.03272157376830207,-0.3554353415966034,0.7504414319992065,-0.5572283864021301,1.3203703165054321,-0.9196746349334717,1.3047475814819336
7.120007038116455,0.05871650576591492,-0.3757810592651367,0.38461196422576904,-0.8414473650039246,-0.546382366576073,0.0831097696796214,-0.3462531268596649,0.745608389377594,-0.569365382194519,1.1085964441299438,-0.7132428288459778,1.1399668455123901
7.140016078948975,-0.039638251066207886,-0.24289387464523315,0.33360010385513306,-0.8328356833483335,-0.5244787499150442,0.12759059953973392,-0.3369028568267822,0.7398421168327332,-0.5823488235473633,1.1864017248153687,-0.40158721804618835,0.993215799331665
7.160008907318115,-0.12584662437438965,-0.14606314897537231,0.3028531074523926,-0.8206718196037778,-0.498491096296865,0.1694330196968187,-0.32593560218811035,0.7316039800643921,-0.5987667441368103,1.2347614765167236,-0.0768037959933281,0.884544849395752
7.180139064788818,-0.26121610403060913,-0.08548450469970703,0.27671897411346436,-0.8075562081109656,-0.47022051799993614,0.20566591309801818,-0.313200980424881,0.7226000428199768,-0.6162421703338623,1.048299789428711,0.26702940464019775,0.6873466372489929
7.200000762939453,-0.44591405987739563,0.02257472276687622,0.2806869149208069,-0.7966525774275425,-0.44339277385171305,0.2294386582438279,-0.29992032051086426,0.7150198817253113,-0.6315017342567444,0.6304391622543335,0.7303257584571838,0.30302566289901733
7.220004081726074,-0.515430212020874,0.06667119264602661,0.32280707359313965,-0.7925599024367768,-0.4199898028019023,0.23558989652108922,-0.28625133633613586,0.7121527194976807,-0.6410138607025146,-0.150908961892128,1.1506975889205933,-0.06818976253271103
7.240052938461304,-0.4207073748111725,0.0026994943618774414,0.2935839295387268,-0.8018730711702735,-0.4033436612624464,0.22423354242668503,-0.2729266583919525,0.7186598181724548,-0.639561653137207,-0.9315615892410278,1.2416483163833618,-0.27679479122161865
7.260007858276367,-0.49347952008247375,0.07254129648208618,0.21506935358047485,-0.8186045470073384,-0.3976102545835951,0.19909315042853165,-0.26456189155578613,0.7301931381225586,-0.6299405097961426,-1.1949213743209839,1.1989758014678955,-0.7097788453102112
7.279184818267822,-0.4696422219276428,0.23065370321273804,0.02348613739013672,-0.8328262964205071,-0.40215243592247923,0.16292138498643358,-0.2633289694786072,0.739835798740387,-0.6191129088401794,-1.1079822778701782,0.9922396540641785,-0.9019501805305481
7.3000168800354,-0.40800899267196655,0.2842700481414795,-0.058972835540771484,-0.8468190968357873,-0.40612172599014285,0.12972172851403221,-0.26166877150535583,0.7491772770881653,-0.6084923148155212,-1.0073515176773071,1.1301466226577759,-0.5672928094863892
7.320013999938965,-0.3745940923690796,0.19805532693862915,-0.051879703998565674,-0.8594687056705257,-0.39970873964532794,0.10627058976636836,-0.2540527284145355,0.7574958205223083,-0.6013795137405396,-0.7902371287345886,1.2577245235443115,-0.3929436206817627
7.340014934539795,-0.28545039892196655,0.1195669174194336,-0.029181718826293945,-0.8699055077466497,-0.38937084803046,0.08725367431301308,-0.24480776488780975,0.7642679810523987,-0.5966269969940186,-0.6588594317436218,1.2148503065109253,-0.3700870871543884
7.360067844390869,-0.26406094431877136,-0.04188215732574463,-0.04203766584396362,-0.8774808975244694,-0.38177651056786166,0.06741296574914964,-0.23810580372810364,0.7691313624382019,-0.5930788516998291,-0.5200848579406738,1.0626177787780762,-0.5577872395515442
7.379961967468262,-0.23497611284255981,-0.025438904762268066,-0.08496725559234619,-0.8805755867736648,-0.38116440281738106,0.04277417870416452,-0.23685616254806519,0.7711054682731628,-0.5910122990608215,-0.3518962860107422,0.9422815442085266,-0.7755997180938721
7.4000067710876465,-0.2437567114830017,0.042009592056274414,-0.09551727771759033,-0.8798495919889494,-0.38260705545164286,0.015437653417750243,-0.23791749775409698,0.7706430554389954,-0.5911892056465149,-0.26780253648757935,1.0534740686416626,-0.8698934316635132
7.420022964477539,-0.21605893969535828,0.034326374530792236,-0.05240088701248169,-0.8796227887239813,-0.38234714255867164,-0.014262108631910105,-0.23782899975776672,0.7704984545707703,-0.5914130806922913,-0.4991123378276825,1.282912015914917,-0.883604884147644
7.440025806427002,-0.13427677750587463,-0.06121295690536499,0.010459721088409424,-0.8869868392693049,-0.3821085299469908,-0.04921521644463576,-0.23556573688983917,0.77517169713974,-0.5861890316009521,-1.0155270099639893,1.4037641286849976,-0.9298548102378845
7.4600090980529785,-0.032465457916259766,-0.17891061305999756,0.025463581085205078,-0.9010556636306082,-0.3875271958808536,-0.09187456209191248,-0.23459386825561523,0.7839826941490173,-0.5747494101524353,-1.2455260753631592,1.3743393421173096,-1.0054380893707275
7.48009991645813,0.047898828983306885,-0.25565892457962036,0.024228930473327637,-0.9155628244590537,-0.396823042212112,-0.13729157477132475,-0.23550565540790558,0.7929056882858276,-0.5619944334030151,-1.114331603050232,1.2577656507492065,-1.0429725646972656
7.5000410079956055,0.11283762753009796,-0.2825203537940979,0.024691402912139893,-0.9247679106537088,-0.4090385482723671,-0.18184239945504455,-0.23943981528282166,0.7984810471534729,-0.5523554682731628,-0.7839077115058899,1.0798956155776978,-1.0573396682739258
7.52001690864563,0.15565484762191772,-0.28583431243896484,0.016581714153289795,-0.9273114725722827,-0.41929129894008926,-0.21952939180221084,-0.24426262080669403,0.8000097274780273,-0.5480147004127502,-0.3919830322265625,0.9180713295936584,-0.9172958135604858
7.540024757385254,0.16420182585716248,-0.24214410781860352,0.012076497077941895,-0.9256024259205407,-0.42640540486470946,-0.25011905357313674,-0.24872027337551117,0.7989831566810608,-0.5475073456764221,-0.2351449429988861,0.8223692178726196,-0.844887912273407
7.560007095336914,0.16427338123321533,-0.21566039323806763,0.013122081756591797,-0.9221180878690465,-0.432553991583234,-0.27804406586910346,-0.25324738025665283,0.7968829870223999,-0.548491895198822,-0.17745734751224518,0.789983332157135,-0.8451453447341919
7.580009937286377,0.20589083433151245,-0.18684083223342896,0.025960683822631836,-0.9186978750589186,-0.4374799773019782,-0.30388710424356,-0.25709933042526245,0.7948120832443237,-0.5497032999992371,-0.18353985249996185,0.7848675847053528,-0.7027292847633362
7.6000449657440186,0.24416989088058472,-0.19262325763702393,0.013216376304626465,-0.9178172644560475,-0.4395945513008321,-0.3254392059771797,-0.2585589289665222,0.7942773699760437,-0.5497916340827942,-0.3009495735168457,0.7041067481040955,-0.5152794718742371
7.6200079917907715,0.2542799115180969,-0.1867603063583374,-0.00920802354812622,-0.9200750076069822,-0.4411993272237334,-0.34375361061659704,-0.25867441296577454,0.7956470847129822,-0.5477529764175415,-0.3386154770851135,0.5851946473121643,-0.40267083048820496
7.640007972717285,0.24898028373718262,-0.13482022285461426,-0.060585618019104004,-0.9213874292560323,-0.4404996645763647,-0.35583242573791873,-0.2578456401824951,0.796441376209259,-0.5469887852668762,-0.06106260046362877,0.4630974233150482,-0.2094116508960724
7.660013914108276,0.20864829421043396,-0.05123037099838257,-0.07345867156982422,-0.919594339582266,-0.4346333229960366,-0.35876423740958197,-0.25523337721824646,0.7953557968139648,-0.5497865080833435,0.09405329078435898,0.353533536195755,-0.03864652290940285
7.680028915405273,0.16013619303703308,-0.010367095470428467,-0.07772183418273926,-0.9177082913070486,-0.4259945719059325,-0.35654872064069937,-0.25109386444091797,0.7942111492156982,-0.5533359050750732,0.1036674752831459,0.3512561321258545,0.08383893221616745
7.700016975402832,0.12393617630004883,0.09581029415130615,-0.06283807754516602,-0.9175967247695057,-0.4151630224836854,-0.3516970736498445,-0.24512149393558502,0.7941433787345886,-0.5561041831970215,-0.08670728653669357,0.4176207482814789,0.10101687908172607
7.72000789642334,0.10321357846260071,0.15577232837677002,-0.14008235931396484,-0.9224916125266287,-0.4178949454358884,-0.3608556381971441,-0.2450593113899231,0.7971085906028748,-0.5518731474876404,-0.5935534238815308,-0.00651285657659173,-0.38214683532714844
7.740035057067871,-0.024581164121627808,0.2822980284690857,-0.2691916227340698,-0.9322585768613173,-0.4421083254806331,-0.38152231354707417,-0.2550056278705597,0.8029681444168091,-0.5387154221534729,-0.5633434057235718,-0.7027333378791809,-0.039849117398262024
7.7600109577178955,-0.2705845832824707,0.7247859835624695,-0.4002634286880493,-0.9271586888156924,-0.43618967452976887,-0.3673583040189149,-0.2535395622253418,0.7999180555343628,-0.5439199209213257,1.3349148035049438,0.20149856805801392,0.19072961807250977
7.7800068855285645,-0.3754071593284607,0.7508852481842041,-0.2398129105567932,-0.8996778459693109,-0.41920189268744057,-0.3530062074889314,-0.2531175911426544,0.7831265926361084,-0.5680177807807922,1.411744475364685,0.4286041557788849,-0.23501244187355042
7.800013065338135,-0.13783136010169983,0.40701931715011597,-0.06299680471420288,-0.8807052864636143,-0.4012826749133564,-0.3418619260549321,-0.24865847826004028,0.7711880803108215,-0.5860357284545898,0.44375911355018616,0.3434915840625763,0.03676638752222061
7.820067882537842,-0.12002895772457123,0.30038928985595703,0.030905961990356445,-0.8820993237075211,-0.39925533211210495,-0.3433756215587732,-0.24705174565315247,0.7720747590065002,-0.5855476260185242,-0.42593929171562195,0.030718578025698662,-0.04625442996621132
7.840008974075317,-0.18206734955310822,0.365200400352478,-0.09650111198425293,-0.889734717377923,-0.4053631987685732,-0.3496788625680515,-0.24829155206680298,0.7769047617912292,-0.5785934925079346,-0.316143274307251,-0.14247947931289673,-0.025300199165940285
7.860006809234619,-0.10006244480609894,0.3649153709411621,-0.11433792114257812,-0.8912794392265364,-0.40804157616684034,-0.3483169537754605,-0.24936385452747345,0.7778763771057129,-0.5768241286277771,0.2026103436946869,-0.21794645488262177,0.19796645641326904
7.880026817321777,-0.033132463693618774,0.18755954504013062,-0.02293950319290161,-0.8865629672295505,-0.40237028441387984,-0.33478236201582845,-0.24752244353294373,0.7749038338661194,-0.5815983414649963,0.5289232730865479,-0.2695311903953552,0.3838137984275818
7.90001106262207,0.032978758215904236,-0.0018481016159057617,0.08378976583480835,-0.8790181774675242,-0.3924107845072181,-0.3140527551706141,-0.24394679069519043,0.770112931728363,-0.5894202589988708,0.6470586061477661,-0.3538946211338043,0.536056399345398
7.920012950897217,0.1059855967760086,-0.1708340048789978,0.15998482704162598,-0.8710588987297635,-0.3820851954023576,-0.2895920604831676,-0.2401256263256073,0.7650113105773926,-0.5975763201713562,0.6793502569198608,-0.5000726580619812,0.6095229983329773
7.940088987350464,0.1520857959985733,-0.28754717111587524,0.21522748470306396,-0.8625699297981069,-0.37350712026202276,-0.26330065404411995,-0.2373518943786621,0.7595167756080627,-0.6056388020515442,0.7534539699554443,-0.6450395584106445,0.6659901738166809
7.960007905960083,0.16545656323432922,-0.3452611565589905,0.25160157680511475,-0.8525265830962683,-0.36539245943049753,-0.23407285625612506,-0.23514345288276672,0.7529454827308655,-0.61463862657547,0.8925321102142334,-0.748081386089325,0.7512944340705872
7.980027914047241,0.13770581781864166,-0.36647528409957886,0.25866085290908813,-0.8390493681888571,-0.3572410751124341,-0.2025130902481147,-0.23365306854248047,0.7440082430839539,-0.6259856224060059,1.1152124404907227,-0.7926391959190369,0.7191019058227539
8.000009059906006,0.07988530397415161,-0.31171804666519165,0.28479671478271484,-0.8220013654282341,-0.34874281818956765,-0.17117518664419154,-0.232625812292099,0.7325097322463989,-0.6397771239280701,1.167298674583435,-0.6588934063911438,0.6633836030960083
8.020036935806274,0.017296120524406433,-0.2897707223892212,0.3157142996788025,-0.8050013370431606,-0.34070786008296133,-0.14464569678022118,-0.23160582780838013,0.720831573009491,-0.6532692313194275,1.0430083274841309,-0.47332966327667236,0.46993598341941833
8.040019035339355,-0.030487164855003357,-0.2620928883552551,0.3256334066390991,-0.7900826627982802,-0.3349782908133411,-0.12572778861117392,-0.23136891424655914,0.7104114294052124,-0.6646683812141418,0.7864758968353271,-0.3188283145427704,0.2849213480949402
8.060013771057129,-0.0908249020576477,-0.18076395988464355,0.28690850734710693,-0.7790653120987716,-0.3320734422640211,-0.11487703752538463,-0.231974795460701,0.7026146054267883,-0.6726964116096497,0.5327896475791931,-0.13954077661037445,0.07245971262454987
8.079892873764038,-0.14820140600204468,-0.062320053577423096,0.2467278242111206,-0.7700061860557503,-0.3290490301223337,-0.11037598845979454,-0.23198658227920532,0.6961396932601929,-0.6793907880783081,0.440492182970047,0.12591610848903656,-0.04008754715323448
8.100059986114502,-0.19254645705223083,0.039161086082458496,0.21237677335739136,-0.7614617557401252,-0.323027190426762,-0.1084435625696066,-0.22977106273174286,0.6899802684783936,-0.6863909959793091,0.43187934160232544,0.3195103406906128,-0.11983910948038101
8.120016098022461,-0.262286901473999,0.09852474927902222,0.15735721588134766,-0.7515068361408033,-0.31667699566735913,-0.11041627631091469,-0.22753550112247467,0.6827405095100403,-0.6943291425704956,0.47512808442115784,0.4556925892829895,-0.34807008504867554
8.140016078948975,-0.30202817916870117,0.13876217603683472,0.09410560131072998,-0.7388218717726329,-0.31166300250878864,-0.11838194428255898,-0.22668887674808502,0.6734174489974976,-0.7036484479904175,0.5323804616928101,0.5846034288406372,-0.6039995551109314
8.160009860992432,-0.2919273376464844,0.16187018156051636,0.038466811180114746,-0.7246419965851364,-0.30814441162256645,-0.13232341505580758,-0.22708512842655182,0.6628674268722534,-0.7134698629379272,0.5123926401138306,0.7055567502975464,-0.8118768930435181
8.18000602722168,-0.26830583810806274,0.16660159826278687,-0.028185129165649414,-0.7098999129062453,-0.3046931424175411,-0.1505228546714425,-0.22752849757671356,0.6517578363418579,-0.7234932780265808,0.4967150092124939,0.8253767490386963,-0.9387667775154114
8.200037956237793,-0.23450449109077454,0.16085106134414673,-0.1406990885734558,-0.6931373518322679,-0.2996964235361331,-0.17066004579430852,-0.22710441052913666,0.6389537453651428,-0.7349570393562317,0.664371907711029,0.9600094556808472,-1.0354634523391724
8.220005989074707,-0.23189595341682434,0.18243908882141113,-0.21030449867248535,-0.6720796487725642,-0.294393250956669,-0.19278548538809145,-0.22705791890621185,0.6226147413253784,-0.7488629221916199,0.8203263878822327,0.9484202265739441,-1.2457704544067383
8.240015983581543,-0.26204752922058105,0.2688863277435303,-0.3112903833389282,-0.6494782231862127,-0.29221607925459114,-0.21968017634471368,-0.22942283749580383,0.6047709584236145,-0.7626383900642395,0.6674026250839233,0.9657331705093384,-1.425419569015503
8.260008811950684,-0.2982943654060364,0.2797517776489258,-0.3010867238044739,-0.6340850015457089,-0.2885502590629917,-0.2509728067503322,-0.22924774885177612,0.5924406051635742,-0.7723079919815063,0.02204836905002594,1.3180207014083862,-1.401049017906189
8.280080795288086,-0.17679545283317566,0.12371140718460083,-0.1044154167175293,-0.6350563234939132,-0.278231160033646,-0.2850380968259743,-0.22110801935195923,0.5932228565216064,-0.7740787863731384,-0.9220982193946838,1.7074806690216064,-1.19796621799469
8.30004596710205,-0.016856178641319275,-0.061707913875579834,0.05008608102798462,-0.6559475496023425,-0.26352326355953953,-0.32026521271163666,-0.20642568171024323,0.6099104285240173,-0.7651128768920898,-1.8269598484039307,1.8209266662597656,-0.9848837852478027
8.320010900497437,0.02835536003112793,-0.21571844816207886,0.13447260856628418,-0.692599088553314,-0.252953644257167,-0.35827352679649466,-0.19260098040103912,0.6385395526885986,-0.7450987696647644,-2.372345447540283,1.5820949077606201,-0.9750084280967712
8.340049982070923,0.030657976865768433,-0.2654228210449219,0.10420036315917969,-0.7313478986748012,-0.25062696844190635,-0.3972271744024856,-0.18458867073059082,0.6678734421730042,-0.7210216522216797,-1.9788990020751953,1.1974269151687622,-0.9099284410476685
8.360011100769043,-0.0036110132932662964,-0.1408059000968933,0.040836215019226074,-0.7545973595848182,-0.25122754787507523,-0.429043624149562,-0.1811119168996811,0.6849953532218933,-0.7056769132614136,-0.7980449199676514,0.9199735522270203,-0.783639669418335
8.380046844482422,-0.07747738063335419,-0.01777946949005127,0.013492107391357422,-0.7539554589083073,-0.24902252917409376,-0.4498444766815204,-0.1796637624502182,0.684527575969696,-0.7065004706382751,0.41733619570732117,0.7570102214813232,-0.7120063900947571
