timestamp,acceleration_x,acceleration_y,acceleration_z,attitude_pitch,attitude_roll,attitude_yaw,gravity_x,gravity_y,gravity_z,rotation_x,rotation_y,rotation_z
0.0,0.06051868200302124,0.28504055738449097,-0.05571359395980835,-0.6434816991150971,-1.0954596947543307,-0.35941057578653285,-0.7113214135169983,0.5999844670295715,-0.36611559987068176,0.16865313053131104,-0.5671611428260803,0.025208257138729095
0.018599987030029297,-0.3742254376411438,0.1734246015548706,-0.11104834079742432,-0.6478731369557252,-1.0826796097032867,-0.3577038875586814,-0.7042505741119385,0.6034919023513794,-0.3739369809627533,-0.11646533757448196,0.6870235204696655,-0.04231244698166847
0.0352020263671875,0.09887963533401489,-0.01329648494720459,-0.042359113693237305,-0.6556262268947167,-1.0694872479272635,-0.34999534219374406,-0.6951321959495544,0.6096557378768921,-0.38093486428260803,0.46098920702934265,-0.0754043310880661,0.4994714558124542
0.052098989486694336,-0.08719515800476074,-0.032600998878479004,0.036300480365753174,-0.6528021970615524,-1.0568284465336375,-0.33038567429612414,-0.6917508840560913,0.6074147820472717,-0.3905484974384308,0.10375481843948364,0.14412935078144073,-0.08823040127754211
0.0693199634552002,0.05159372091293335,-0.1354769468307495,0.01153874397277832,-0.6538221618193154,-1.0572215331118668,-0.33427509295667807,-0.6913643479347229,0.6082247495651245,-0.38997194170951843,-0.15450389683246613,0.0308114942163229,0.0069115422666072845
0.0913090705871582,0.15872681140899658,0.039704859256744385,0.020575612783432007,-0.642362863168366,-1.0560284506364759,-0.3358834663777483,-0.6969196200370789,0.5990890264511108,-0.39420223236083984,0.2866784930229187,-0.15322892367839813,-0.18897975981235504
0.10799884796142578,0.08038312196731567,0.08381259441375732,0.02567809820175171,-0.637746784248799,-1.0562369611723057,-0.3250785859781302,-0.6994017362594604,0.5953866243362427,-0.39541375637054443,0.17172366380691528,-0.1616286039352417,0.13006781041622162
0.13498783111572266,-0.032017409801483154,0.027246415615081787,0.010600626468658447,-0.6469154276117007,-1.053642122018491,-0.3143923707802453,-0.6935991644859314,0.6027279496192932,-0.39451172947883606,0.03189057484269142,-0.035611025989055634,0.18848077952861786
0.15192198753356934,-0.019837558269500732,-0.07919257879257202,0.002629101276397705,-0.6475960554524633,-1.0508472837703924,-0.3054282300063222,-0.6921376585960388,0.6032708883285522,-0.39624476432800293,0.13861358165740967,-0.0880221277475357,0.00709897093474865
0.1685190200805664,0.0134047269821167,-0.009909451007843018,0.03469574451446533,-0.6477195618299989,-1.0534260362588623,-0.30379354638175654,-0.6930922269821167,0.603369414806366,-0.39442163705825806,-0.005670861341059208,-0.10047515481710434,0.017049221321940422
0.19216108322143555,0.020899415016174316,0.03654491901397705,-0.02388852834701538,-0.6464683613081909,-1.059964670621916,-0.2991669547139973,-0.6963145732879639,0.6023711562156677,-0.3902502655982971,0.33733388781547546,-0.19800330698490143,-0.06340398639440536
0.21041202545166016,0.009957313537597656,-0.0454522967338562,0.007460594177246094,-0.6428939861542373,-1.0651004362240184,-0.2960670963652705,-0.7001887559890747,0.5995141863822937,-0.38770952820777893,-0.01062290370464325,-0.10784856230020523,-0.04291137307882309
0.23537588119506836,0.020508646965026855,-0.013762474060058594,-0.021708309650421143,-0.6455882080221808,-1.0737759251664634,-0.3108442701075856,-0.7021035552024841,0.6016683578491211,-0.3808490037918091,-0.09204058349132538,0.048870835453271866,-0.22712896764278412
0.25032711029052734,0.054720938205718994,-0.056011974811553955,0.013793468475341797,-0.6346459899480911,-1.0749952106840088,-0.31806678319837434,-0.7083160281181335,0.5928924679756165,-0.3831018805503845,-0.1409047245979309,0.13851912319660187,-0.3338974118232727
0.26992082595825195,0.04307520389556885,-0.020140230655670166,0.059960007667541504,-0.6312227254576668,-1.0899035574712665,-0.36610866083718097,-0.7157437205314636,0.5901322960853577,-0.37343651056289673,-1.2446640729904175,0.34706366062164307,-0.3679753541946411
0.2874159812927246,0.060956716537475586,-0.14536237716674805,0.0730595588684082,-0.6519559841418174,-1.1367513035944683,-0.467666492983896,-0.7211893796920776,0.6067423820495605,-0.3342899978160858,-2.4121906757354736,0.18707221746444702,-0.5052945613861084
0.4541919231414795,0.005743741989135742,-0.023721814155578613,-0.03453594446182251,-0.6605487745665674,-1.1659470257133584,-0.5180056421480564,-0.7258213758468628,0.6135503053665161,-0.3110297918319702,-1.397615671157837,-0.010991968214511871,-0.3397901654243469
0.5072169303894043,-0.12412786483764648,0.3367677927017212,-0.017634660005569458,-0.6536869593385657,-1.1742876545430856,-0.5204953586397237,-0.7322564721107483,0.608117401599884,-0.306583970785141,0.7700945138931274,-0.30309367179870605,-0.07360678911209106
0.5292949676513672,-0.06726479530334473,0.16503089666366577,0.18406501412391663,-0.640223155932213,-1.1850681016274807,-0.5028334537990434,-0.7430379986763,0.597374439239502,-0.30172550678253174,0.4550293982028961,0.013519588857889175,0.004185534082353115
0.551239013671875,-0.0790022611618042,0.06881093978881836,0.06688112020492554,-0.6235419908177235,-1.1763437275006148,-0.41893170358197435,-0.7494738101959229,0.5839142799377441,-0.31198304891586304,0.3600723147392273,-0.045431964099407196,0.04894568398594856
0.5687370300292969,0.015515327453613281,-0.007530510425567627,-0.05120217800140381,-0.6217221453481228,-1.1755188113853918,-0.40382216267513327,-0.7501956224441528,0.5824359059333801,-0.3130098283290863,0.11541693657636642,-0.22133465111255646,0.040193188935518265
0.5901198387145996,-0.007943928241729736,0.009109079837799072,0.02937406301498413,-0.6197620638441288,-1.183065380310346,-0.4047514897592681,-0.7535918354988098,0.5808414816856384,-0.30777060985565186,0.04431724548339844,-0.0056836665607988834,-0.032289132475852966
0.6101689338684082,-0.0028982162475585938,-0.05468952655792236,-0.02700793743133545,-0.6209454977916825,-1.1958400781374476,-0.4280859408416027,-0.7568216919898987,0.5818043947219849,-0.2978668808937073,-0.3709793984889984,-0.00774406548589468,-0.028415175154805183
0.6280028820037842,-0.0005209445953369141,0.0025401711463928223,0.02427610754966736,-0.6282702072694927,-1.2119284359245452,-0.45430156228719004,-0.7575053572654724,0.5877461433410645,-0.28414851427078247,-0.02239665947854519,-0.050327301025390625,0.019157905131578445
0.6493840217590332,-0.009473919868469238,-0.0006608963012695312,0.0004997849464416504,-0.6343146703564901,-1.2150241755376883,-0.46371756843783174,-0.7550373077392578,0.592625617980957,-0.2805595099925995,-0.016148576512932777,0.023523131385445595,0.012760606594383717
0.6701087951660156,-0.0041626691818237305,-0.007273375988006592,-0.0026794075965881348,-0.6357428937641944,-1.2098403016820223,-0.46687382638687325,-0.7527801394462585,0.5937754511833191,-0.284170538187027,-0.032032985240221024,0.03396885097026825,-0.02943592332303524
0.6897878646850586,-0.02838677167892456,0.01567023992538452,-0.004087597131729126,-0.6382173039704436,-1.209662081742139,-0.47764778328412066,-0.7513526082038879,0.5957645773887634,-0.2837846279144287,-0.06438884139060974,0.09996943920850754,0.005378879606723785
0.708305835723877,0.0012493133544921875,0.04465639591217041,0.0007149279117584229,-0.6445848047035989,-1.2171818719297423,-0.5107638292080405,-0.7498913407325745,0.6008666157722473,-0.27680739760398865,-0.10285192728042603,0.04878712072968483,0.010352464392781258
0.730402946472168,0.01835453510284424,-0.020446360111236572,0.00702020525932312,-0.6512556952106326,-1.2090999306018801,-0.5138432650747194,-0.7438643574714661,0.6061855554580688,-0.28143423795700073,-0.052205462008714676,0.0583304688334465,0.004498099442571402
0.7477779388427734,0.0386958122253418,0.034205615520477295,-0.01628667116165161,-0.6516264900865244,-1.2093097109867708,-0.5222016284388079,-0.7437130212783813,0.6064804196357727,-0.281198650598526,0.11271542310714722,-0.04808509722352028,-0.009069964289665222
0.7691168785095215,0.00748896598815918,0.02575695514678955,-0.07253092527389526,-0.6400036092564878,-1.1835587186960943,-0.4639356482220978,-0.7427032589912415,0.5971983075141907,-0.30289626121520996,0.5754114389419556,-0.06625895202159882,0.0385914146900177
0.7890238761901855,-0.04899001121520996,-0.057701170444488525,0.02719879150390625,-0.6232995483616646,-1.1598631454596764,-0.40491329802791093,-0.7443603277206421,0.583717405796051,-0.3243483901023865,-0.05951070785522461,-0.003523754421621561,-0.028570065274834633
0.8097259998321533,0.019822657108306885,0.008135557174682617,-0.0251198410987854,-0.6281248940901074,-1.1810325687199805,-0.4466739180167919,-0.7484452128410339,0.5876286029815674,-0.3074454069137573,-0.1434766799211502,-0.0040067629888653755,0.03860703110694885
0.8282558917999268,0.0051354169845581055,0.014104068279266357,-0.0014265179634094238,-0.6385525921093108,-1.195832264786385,-0.48446091413523645,-0.7471704483032227,0.5960338711738586,-0.2940751314163208,-0.22473719716072083,0.05577028542757034,-0.006005699280649424
0.8483757972717285,-0.035265982151031494,0.007437944412231445,-0.018914520740509033,-0.641117994318053,-1.2011532892210501,-0.49289030098274805,-0.7472963333129883,0.5980917811393738,-0.2895418703556061,0.04851234704256058,-0.058068666607141495,0.030850665643811226
0.8690528869628906,0.004012584686279297,0.08547323942184448,0.016218364238739014,-0.6409253496295154,-1.2032198699177015,-0.4953782976572,-0.7480007410049438,0.5979374051094055,-0.28803834319114685,-0.32605502009391785,-0.021630408242344856,0.0005877013318240643
0.8877739906311035,0.05524289608001709,-0.026670873165130615,-0.0017046928405761719,-0.6774578723844559,-1.244324165953998,-0.5790177272756701,-0.7380127906799316,0.6268143057823181,-0.24988217651844025,-0.6890134215354919,0.11478149890899658,0.11071296036243439
0.9083380699157715,0.01730036735534668,0.07335799932479858,-0.01230892539024353,-0.7187822444231787,-1.3412169130226486,-0.7298609634151841,-0.7328612804412842,0.6584686636924744,-0.1712695062160492,-0.303732305765152,-0.03503108024597168,-0.02103581838309765
0.9300088882446289,0.061271727085113525,-0.06814181804656982,0.06863260269165039,-0.7362583936915217,-1.4739030151967005,-0.9416887397198459,-0.7375109195709229,0.6715201139450073,-0.0716843456029892,-1.663406252861023,0.045064643025398254,-0.6325567960739136
0.9493279457092285,-0.09781116247177124,0.30630040168762207,0.08572006225585938,-0.5786506178827029,-1.5855645097738755,-1.1114482551501723,-0.837110161781311,0.5468947291374207,0.012363494373857975,-0.31420060992240906,1.1512980461120605,-0.5892049074172974
0.9684491157531738,-0.23313850164413452,-0.036504268646240234,-0.09266852587461472,-0.5855749316134958,-1.6412007902661454,-1.125163714683382,-0.8313300609588623,0.552678644657135,0.05862624570727348,0.3438301980495453,-0.30885446071624756,0.28462696075439453
0.9882419109344482,0.07163339853286743,0.2525160312652588,0.09308147430419922,-0.5871459827408083,-1.6492451618056359,-1.1579882238393104,-0.8299647569656372,0.5539872646331787,0.065243661403656,-0.034365154802799225,0.14881403744220734,-0.25250348448753357
1.0102338790893555,0.008401632308959961,-0.0015096068382263184,-0.09243297576904297,-0.6112570283737988,-1.6266242984713766,-1.1594859972848057,-0.817651629447937,0.5738973021507263,0.045695316046476364,-0.6540303826332092,0.34186214208602905,0.12998200953006744
1.0291790962219238,0.0002613067626953125,-0.07192528247833252,-0.10979413986206055,-0.6340377408092938,-1.6217187850635535,-1.2299007142423926,-0.8045979142189026,0.5924025774002075,0.04100755602121353,-0.4852629601955414,0.28415223956108093,0.22630448639392853
1.0479378700256348,-0.049137890338897705,0.05281412601470947,0.05109107121825218,-0.6436951380018072,-1.6086086664812869,-1.258107741722756,-0.7993118166923523,0.600155234336853,0.030238263309001923,0.3955863416194916,0.10196982324123383,0.08666861057281494
1.0690178871154785,-0.01730746030807495,-0.470636785030365,0.09948134422302246,-0.6551114522504307,-1.398327796446526,-0.8672965933610643,-0.7812155485153198,0.609247624874115,-0.136087104678154,0.350983202457428,-0.016704626381397247,0.2632398307323456
1.087845802307129,0.024852275848388672,-0.13244342803955078,0.00042212754487991333,-0.6865368843571613,-1.468530768923365,-1.03525407274582,-0.769404947757721,0.6338624358177185,-0.07895907014608383,-4.197997570037842,0.6318573951721191,-0.06467590481042862
1.1078457832336426,0.04852956533432007,0.17766529321670532,0.005543828010559082,-0.5892996892900012,-1.8719902998265343,-1.8650145412290413,-0.7939062118530273,0.555778980255127,0.2466229647397995,-0.10681882500648499,0.011534824036061764,-0.032108619809150696
1.1300468444824219,0.036810457706451416,0.0034127235412597656,0.04917549341917038,-0.6501503957538614,-1.7242213327956424,-1.534319796925515,-0.7866426110267639,0.6053061485290527,0.12164664268493652,2.2659828662872314,-0.21960820257663727,0.23804187774658203
1.1497619152069092,-0.16063982248306274,-0.545280933380127,0.0032046474516391754,-0.7064832029021563,-1.5035637058368654,-1.1679411606907266,-0.7589311599731445,0.649162769317627,-0.05110195279121399,-1.0962417125701904,0.48708420991897583,-0.25182291865348816
1.1697709560394287,-0.04849350452423096,-0.12146323919296265,0.04772401228547096,-0.7232476751897815,-1.6237291450934244,-1.3776411615983915,-0.7486105561256409,0.6618227958679199,0.03966311737895012,-3.8118512630462646,0.741432785987854,-0.19609521329402924
1.1904289722442627,0.0692482590675354,0.13197940587997437,0.01692485809326172,-0.6574022941296495,-1.8031328357944596,-1.744977346799076,-0.7703133821487427,0.6110626459121704,0.1822633296251297,1.0306038856506348,-0.15999644994735718,-0.1458771675825119
1.2081990242004395,-0.128923237323761,-0.04895031452178955,0.44767946004867554,-0.7118814100149682,-1.4900525856454494,-1.164132382453131,-0.7546675801277161,0.6532593965530396,-0.061067450791597366,4.703517436981201,-0.25114089250564575,0.1107148826122284
1.2286629676818848,-0.017033934593200684,-0.1804894208908081,-0.01905912160873413,-0.6585584963142644,-1.1488856568721446,-0.5719277003659182,-0.7215220928192139,0.6119774580001831,-0.32386690378189087,-0.17640161514282227,0.0026367586106061935,-0.14895673096179962
1.2498397827148438,0.028504908084869385,0.059192657470703125,0.05082976818084717,-0.7578255237731133,-1.5864442150453577,-1.306221278116766,-0.7262436747550964,0.6873436570167542,0.01136510819196701,-3.1851823329925537,0.6442452073097229,-0.4269985556602478
1.2697649002075195,-0.02767324447631836,-0.061741530895233154,-0.15187299251556396,-0.7189625056390058,-1.7627489127820397,-1.59978146076006,-0.7386689782142639,0.6586043238639832,0.14355692267417908,-1.9469836950302124,0.2272806167602539,-0.1971854716539383
1.2895450592041016,-0.02544379234313965,-0.15308845043182373,-0.11267445981502533,-0.6407994017224409,-1.7931487123666687,-1.645499715577992,-0.781883716583252,0.597836434841156,0.17677666246891022,-0.2646118402481079,-0.19705095887184143,-0.4835525155067444
1.31032395362854,0.003719031810760498,0.2896649241447449,0.06905904412269592,-0.5785818979670592,-1.8059877304891256,-1.619194045427496,-0.8141898512840271,0.5468372106552124,0.19510112702846527,0.218791663646698,-0.5144721865653992,-0.18628723919391632
1.3298039436340332,-0.06587326526641846,-0.1797581911087036,-0.021720290184020996,-0.5785292086620737,-1.751683692276524,-1.4395668361080545,-0.8236074447631836,0.5467931032180786,0.15062662959098816,-0.7776167988777161,0.04103616997599602,0.09076685458421707
1.349897861480713,0.06803739070892334,-0.01656198501586914,0.0057970136404037476,-0.6129250195020256,-1.7756168430358379,-1.586999724996395,-0.8008713126182556,0.5752624869346619,0.16636785864830017,-0.14598630368709564,-0.0597832091152668,0.6056308746337891
1.3695569038391113,-0.0061789751052856445,-0.0703004002571106,0.003671996295452118,-0.6555454900918957,-1.7220780718274202,-1.474187849560399,-0.7836617827415466,0.6095917820930481,0.11946649104356766,0.2746354341506958,0.045325543731451035,0.002799485344439745
1.3899598121643066,0.0493585467338562,0.02605259418487549,0.01979660987854004,-0.6879741158016434,-1.7146613609116075,-1.4398107775766857,-0.7645533680915833,0.634973406791687,0.11075767129659653,-0.05797412246465683,-0.07752767205238342,0.2870522439479828
1.4098811149597168,0.005446314811706543,0.035900890827178955,0.005777120590209961,-0.6959122100842038,-1.7479228261481865,-1.48034506133543,-0.7554616332054138,0.6410858035087585,0.1352294683456421,0.026412906125187874,0.00041603733552619815,0.08410664647817612
1.4293580055236816,-0.017322003841400146,-0.025617897510528564,0.024240583181381226,-0.703025009556882,-1.7731345957041016,-1.5263230843681328,-0.7473263740539551,0.6465283632278442,0.15331068634986877,-0.8228465914726257,0.09746783971786499,0.15270084142684937
1.4481511116027832,-0.01632791757583618,0.012942075729370117,-0.14083823561668396,-0.6905884159780592,-1.8569917082459095,-1.723340423942726,-0.7395163774490356,0.6369909048080444,0.21762047708034515,-0.2067728191614151,-0.06612712889909744,-0.11618448793888092
1.470235824584961,-0.03069913387298584,-0.01962149143218994,-0.05289645493030548,-0.6872496305893446,-1.826084907643928,-1.6315691525532363,-0.7479418516159058,0.6344135403633118,0.1952001005411148,0.42851588129997253,0.017689654603600502,-0.29721546173095703
1.4896979331970215,-0.05712038278579712,-0.03657054901123047,-0.010468482971191406,-0.6829885253197778,-1.7987497983097127,-1.595735415853791,-0.7556238174438477,0.6311140060424805,0.1752939075231552,-0.17394304275512695,0.06026463583111763,0.039920419454574585
1.5095200538635254,0.17345035076141357,0.23110324144363403,-0.16171398758888245,-0.6297965152166631,-1.867843417241905,-1.7824564524072368,-0.7727545499801636,0.5889803171157837,0.23654304444789886,-0.6269750595092773,0.33146363496780396,-0.13313381373882294
1.5282011032104492,0.09597498178482056,-0.09596335887908936,0.018503278493881226,-0.6036956634868917,-1.801567674273707,-1.6437134811178118,-0.8014193177223206,0.5676887631416321,0.18829919397830963,-0.9796962738037109,-0.6554389595985413,0.20791028439998627
1.5488238334655762,0.06887763738632202,-0.06025439500808716,-0.05361604690551758,-0.5902783155505914,-1.7311401404797782,-1.3726174385015022,-0.8201289772987366,0.5565922856330872,0.13264130055904388,1.2799016237258911,-0.6137253046035767,0.07952231913805008
1.5690197944641113,-0.0025786757469177246,0.28150469064712524,-0.07440875470638275,-0.6309468593161839,-1.7323776194939482,-1.4292525382970827,-0.7969515919685364,0.589909553527832,0.12990498542785645,-0.13941562175750732,0.45078107714653015,0.5679158568382263
1.5890638828277588,-0.08966213464736938,-0.12213879823684692,0.024355046451091766,-0.7139888989658436,-1.658024547138197,-1.291365446865851,-0.7528824210166931,0.6548535823822021,0.06583966314792633,1.460463047027588,-0.13498368859291077,-0.05088686943054199
1.6091480255126953,0.008696019649505615,0.014351725578308105,-0.024553947150707245,-0.7350173043470145,-1.4679360704160864,-0.9810599745468114,-0.7378982901573181,0.6705999970436096,-0.07616923004388809,0.5774921178817749,0.02394222468137741,0.28063347935676575
1.6286349296569824,0.0020419955253601074,-0.07728660106658936,-0.10888063907623291,-0.7975152042776398,-1.5572211912726601,-1.173022784845776,-0.6984226703643799,0.7156227231025696,-0.009481764398515224,-2.0812366008758545,0.5677947402000427,0.04833228886127472
1.6482338905334473,0.03152698278427124,-0.20176100730895996,-0.09259317815303802,-0.7700998373269571,-1.7961294307938644,-1.583606427662408,-0.6996942758560181,0.6962069272994995,0.16038808226585388,-0.994831383228302,0.14255310595035553,-0.4607100784778595
1.669118881225586,0.018030226230621338,0.12375813722610474,-0.034056782722473145,-0.7369513992973306,-1.6417583706836794,-1.354791890558504,-0.7386571168899536,0.6720334887504578,0.052504777908325195,4.39985466003418,0.0027935300022363663,0.17022603750228882
1.68986177444458,-0.12709778547286987,-0.1078183650970459,0.5916007161140442,-0.69461629528219,-1.1902653623517836,-0.6485902846651976,-0.7133411765098572,0.6400907039642334,-0.2853568196296692,1.0687812566757202,0.31143027544021606,0.47289663553237915
1.7100958824157715,-0.0544164776802063,-0.19145232439041138,0.09966990351676941,-0.7392334658967206,-1.2145162514809646,-0.6527467637410159,-0.6925777196884155,0.6737216711044312,-0.2577509582042694,-3.3725857734680176,0.3885240852832794,-0.21701812744140625
1.7296888828277588,-0.07295691967010498,-0.006760358810424805,-0.09824202954769135,-0.7771906926316833,-1.7136712707231112,-1.4685152752453097,-0.7056229710578918,0.7012794613838196,0.10150747746229172,-2.7888193130493164,0.6141317486763,-0.21024249494075775
1.749912977218628,0.04851078987121582,0.1771003007888794,0.04953658580780029,-0.65826918850741,-1.8958744337669053,-1.8321128036248122,-0.7496217489242554,0.6117486357688904,0.25264856219291687,-0.03333749622106552,0.44647783041000366,-0.583246111869812
1.7701311111450195,0.026839852333068848,-0.13609236478805542,-0.14266061782836914,-0.6328877160208009,-1.6683411644098898,-1.3858560645272273,-0.8024899363517761,0.5914756655693054,0.07852797210216522,0.7449800968170166,-0.15894699096679688,0.2804652452468872
1.7901849746704102,0.05285966396331787,-0.09037196636199951,-0.0257720910012722,-0.6583281603359928,-1.5265110821816528,-1.018551006172011,-0.7902407050132751,0.6117952466011047,-0.03501889854669571,0.9789257049560547,-0.19824211299419403,0.4338645040988922
1.8079659938812256,-0.0676007866859436,-0.20220232009887695,-0.02873516082763672,-0.7273321674588912,-1.5842832117452923,-1.1514615709026614,-0.7468829154968262,0.6648792624473572,0.010073734447360039,-2.1311464309692383,0.6444091200828552,0.38283637166023254
1.8280558586120605,0.01564735174179077,-0.05559450387954712,0.05071401596069336,-0.7502411750569659,-1.6088606305252175,-1.202032660770106,-0.730994701385498,0.6818152070045471,0.027838250622153282,0.19708964228630066,0.024081330746412277,0.1611407846212387
1.8479599952697754,-0.011337816715240479,0.0147017240524292,0.00661921501159668,-0.76511428949888,-1.5979028793270327,-1.2042046163855327,-0.7210384011268616,0.6926194429397583,0.019549652934074402,0.12915612757205963,0.02565028890967369,0.013515656813979149
1.8703761100769043,0.03258544206619263,-0.07051968574523926,-0.04213237762451172,-0.7737829994392349,-1.6530673998643797,-1.328857018700823,-0.7128528356552124,0.6988461017608643,0.058779846876859665,-1.8927197456359863,0.4043380320072174,-0.15205098688602448
1.8879218101501465,0.05228590965270996,0.2046794295310974,0.05267234146595001,-0.7166699603131941,-1.875104454500754,-1.744914901371077,-0.7193543910980225,0.6568774580955505,0.22592255473136902,-3.693336009979248,0.5379224419593811,-0.0402468703687191
1.9084877967834473,-0.0002129673957824707,-0.0527612566947937,-0.05512440204620361,-0.7000262018076222,-1.8357096040926641,-1.6721961589683274,-0.7381446361541748,0.644237756729126,0.20025084912776947,2.1109845638275146,-0.20204083621501923,-0.3646863102912903
1.9284679889678955,-0.15495753288269043,-0.19253194332122803,-0.0704575851559639,-0.7633021700731952,-1.6392187134581098,-1.3295346992551762,-0.7208665013313293,0.691311240196228,0.04940051957964897,-1.888492226600647,0.4512704610824585,-0.05079277977347374
1.9488909244537354,-0.016270935535430908,0.3667450547218323,-0.12524151802062988,-0.7008491048523787,-1.71023742149671,-1.4544680808234864,-0.7568767070770264,0.6448668837547302,0.10622911155223846,2.697690963745117,-0.4098993241786957,0.027468493208289146
1.9694609642028809,-0.03163951635360718,-0.16676777601242065,0.10065466165542603,-0.6686838014194425,-1.3448004625716177,-0.7645317874461753,-0.7646862268447876,0.6199538111686707,-0.17581944167613983,3.947493076324463,-0.0692412480711937,-0.6301688551902771
1.9896020889282227,0.019925594329833984,0.1427515745162964,-0.08086729049682617,-0.6266510774439004,-1.2411585633359392,-0.45370562967093975,-0.7663856148719788,0.5864354372024536,-0.26219600439071655,0.8542951941490173,0.8238307237625122,0.26292598247528076
2.0091757774353027,0.30570918321609497,-0.08908319473266602,0.3398098647594452,-0.6411105345937791,-1.2092416910924573,-0.4791916123761979,-0.749617874622345,0.5980858206748962,-0.2834895849227905,-0.441066712141037,-0.6199899911880493,-0.13936524093151093
2.0295989513397217,0.033946871757507324,0.15650847554206848,0.4256437420845032,-0.4491555527209009,-1.0998747419938573,-0.02825108375418411,-0.8027610778808594,0.43420499563217163,-0.4087063670158386,3.546022891998291,-2.045632839202881,0.32343828678131104
2.047712802886963,-0.7198922038078308,0.2119806706905365,-0.079059898853302,-0.45058862827232865,-0.9553167676749463,0.09092086182798112,-0.735002875328064,0.4354954957962036,-0.5197253823280334,-1.0189235210418701,2.42625093460083,0.4655245542526245
2.070596933364868,0.1331375539302826,0.09038329124450684,-0.08675879240036011,-0.7760480492003056,-0.7101015021740257,-0.195253276202828,-0.46526041626930237,0.7004644274711609,-0.5411860346794128,-1.9163672924041748,2.574741840362549,0.9136249423027039
2.0883378982543945,0.084116131067276,-0.9682112336158752,0.10859954357147217,-0.9943498374143429,-0.8847867940447506,-0.5330363325730894,-0.42174744606018066,0.8384047746658325,-0.3452633023262024,-2.9081993103027344,-0.4453314244747162,-1.114797592163086
2.108222007751465,-0.3123297095298767,0.40916216373443604,0.46704745292663574,-0.719324665670244,-0.9378343467615523,-0.5642660259947246,-0.6065241098403931,0.6588767766952515,-0.44498318433761597,5.311225414276123,0.005696020554751158,-2.123684883117676
2.1286189556121826,0.17773908376693726,0.4866373538970947,-0.029313087463378906,-0.5497656007062767,-0.9644024014880263,-0.5756850464996357,-0.700627326965332,0.5224874019622803,-0.4859304130077362,-0.2396426796913147,-0.0659632533788681,-0.42377352714538574
2.147243022918701,0.000525355339050293,-0.036211371421813965,-0.017358839511871338,-0.5143055387283202,-0.9945366694771617,-0.6780504701243157,-0.7300329208374023,0.4919303357601166,-0.4744013845920563,-0.5310114026069641,0.22459916770458221,-0.6270594000816345
2.1684298515319824,0.07419556379318237,0.2431848645210266,0.06448128819465637,-0.6274990053272278,-1.026301161491749,-0.8282668147930119,-0.6924359798431396,0.5871220231056213,-0.4193091094493866,0.3563005030155182,0.49692460894584656,1.4411423206329346
2.188530921936035,-0.06927376985549927,0.17220836877822876,0.18533748388290405,-0.6816018058891827,-0.898902923130567,-0.6763226749725213,-0.6077740788459778,0.6300377249717712,-0.48338741064071655,1.2343318462371826,-0.39880168437957764,0.1179950162768364
2.208251953125,-0.17780351638793945,0.07576274871826172,-0.46345043182373047,-0.5743465298452816,-0.7632550346767486,-0.39802640832973696,-0.5803600549697876,0.5432862639427185,-0.6066484451293945,3.416353940963745,0.19456970691680908,0.5696549415588379
2.227975845336914,0.06454172730445862,-0.12062978744506836,0.14464735984802246,-0.45885955222284835,-0.5832927537012647,-0.24590180161083938,-0.4938020408153534,0.44292593002319336,-0.7483155131340027,0.02081090770661831,0.8315324783325195,-0.3833605647087097
2.2500369548797607,-0.005016118288040161,-0.02403208613395691,-0.16716426610946655,-0.44139340844970715,-0.5747670718068368,-0.24445724107290762,-0.4915354251861572,0.42719975113868713,-0.7588763236999512,0.18831391632556915,-0.16150690615177155,-0.34399303793907166
2.2690539360046387,-0.4217461347579956,-0.15211021900177002,0.0696534514427185,-0.41073933337275126,-0.5490189892909271,-0.28353851476577996,-0.47844618558883667,0.39928728342056274,-0.7820863127708435,-0.15389084815979004,0.4814382493495941,-0.8456209301948547
2.2889668941497803,-0.031681954860687256,0.08742138743400574,0.05340522527694702,-0.3988543517375961,-0.5505564534503649,-0.46935004007810893,-0.482096791267395,0.3883628845214844,-0.785338819026947,-0.8865978121757507,0.7508366107940674,-1.5075984001159668
2.307734966278076,-0.060166388750076294,-0.0584164559841156,-0.043677330017089844,-0.3983183883426911,-0.5588549598161923,-0.6710446644994971,-0.4887075424194336,0.3878689110279083,-0.7814875245094299,-0.2840355336666107,0.4294220805168152,-0.9296582937240601
2.3297789096832275,0.030979424715042114,0.013089746236801147,-0.016173958778381348,-0.3187578943016004,-0.5253241061364139,-0.6797702397207797,-0.4762309193611145,0.31338727474212646,-0.8215793371200562,0.3216452896595001,0.22671203315258026,-0.5411887764930725
2.349299907684326,-0.2513778805732727,0.014963388442993164,0.04180032014846802,-0.32202487604281804,-0.5316805645165861,-0.7617340806264649,-0.4809219539165497,0.31648799777030945,-0.817648708820343,-1.4281163215637207,0.6102050542831421,-1.2085318565368652
2.3705267906188965,0.41265058517456055,0.19831925630569458,0.024132847785949707,-0.4445006667422182,-0.5560247444446746,-1.0087677453087869,-0.47652390599250793,0.43000712990760803,-0.7668238878250122,-1.2484469413757324,0.023955807089805603,-0.3054577708244324
2.3878488540649414,0.014780819416046143,-0.0899481475353241,-0.09033304452896118,-0.4699569393649869,-0.5867265770533302,-1.0677339491987865,-0.49361690878868103,0.4528478980064392,-0.7424763441085815,-1.2187117338180542,0.03438350185751915,-0.31934860348701477
2.408207893371582,0.783210277557373,0.18143725395202637,0.30956143140792847,-0.6079886743897365,-0.8145328168667122,-1.5241089498550622,-0.597053050994873,0.5712177157402039,-0.563238799571991,-1.1980403661727905,-1.0587711334228516,-1.1861457824707031
2.4286699295043945,-0.7542622685432434,0.14208203554153442,-0.42105790972709656,-0.5823771574635367,-1.1605670354816722,-1.6613237373492376,-0.7658640742301941,0.5500108003616333,-0.33307722210884094,-2.0171334743499756,-0.0837109163403511,-0.5367215871810913
2.4502310752868652,-0.07297259569168091,-0.2346777319908142,0.26133474707603455,-0.5756198018762935,-1.1142911895271614,-1.5191026005463648,-0.7529551386833191,0.5443547964096069,-0.36977893114089966,-1.0965512990951538,-0.19878725707530975,-0.06473099440336227
2.470122814178467,0.09779870510101318,0.2877006530761719,0.13577361404895782,-0.6285855116191529,-1.3076256648569728,-1.7322176837795442,-0.7810110449790955,0.5880012512207031,-0.21041956543922424,1.185850977897644,-1.350469708442688,0.33789944648742676
2.49021577835083,-0.21634405851364136,-0.12244606018066406,-0.028735727071762085,-0.6434062918520206,-1.309051462011158,-1.331746096406208,-0.7728071212768555,0.5999241471290588,-0.2070278823375702,0.8999544978141785,-1.60419762134552,0.8839244842529297
2.5102338790893555,0.15147483348846436,-0.2155163288116455,-0.010047003626823425,-0.8453228708684052,-1.379472837805044,-1.326115431205112,-0.6513832807540894,0.748185396194458,-0.1261681467294693,2.4494822025299072,-0.03083624690771103,0.9094208478927612
2.528679847717285,0.06854742765426636,0.4029409885406494,-0.15645454823970795,-0.8444673337750895,-1.394311203939294,-1.2712632173770635,-0.6538136005401611,0.7476174831390381,-0.11660148948431015,1.2426695823669434,-0.437757670879364,0.011052477173507214
2.5496578216552734,-0.1849033236503601,0.015547871589660645,0.2953086495399475,-0.788512712132391,-1.2733020374815849,-0.9434165901102269,-0.6739376783370972,0.7093056440353394,-0.20662450790405273,1.164002537727356,-1.009785771369934,-0.1808110624551773
2.570035934448242,0.06464982032775879,-0.2835921049118042,0.29583805799484253,-0.7471594416406458,-1.3169478692782024,-0.8603549085420726,-0.7101119160652161,0.6795576214790344,-0.18423523008823395,-0.8273671269416809,-0.759886622428894,0.04054711386561394
2.587963104248047,0.007419884204864502,0.08591622114181519,0.17143213748931885,-0.7698613909442432,-1.7156864673716734,-1.343510242688943,-0.710483968257904,0.6960357427597046,0.10366858541965485,-4.068437576293945,-0.4773001968860626,0.426617294549942
2.6084418296813965,0.12450802326202393,0.1656208634376526,0.2426975965499878,-0.720333711757133,-1.8757187827322521,-1.578399012179294,-0.7169153690338135,0.6596355438232422,0.22564052045345306,-0.32667332887649536,-0.047261204570531845,-0.6320807933807373
2.6301798820495605,-0.016580581665039062,0.3842374086380005,0.38993823528289795,-0.7677430921944213,-1.6580724239719706,-1.22358669470978,-0.716741681098938,0.694513201713562,0.06271372735500336,4.94541597366333,-0.8224439024925232,-0.31001755595207214
2.6480870246887207,-0.26785606145858765,-0.1847711205482483,0.03829526901245117,-0.7902915973753732,-1.4327260198684881,-0.73771405462686,-0.6969419717788696,0.7105584740638733,-0.0968431681394577,1.3189692497253418,-0.12046661972999573,0.5849593877792358
2.668757915496826,0.034114718437194824,-0.25438612699508667,-0.07241116464138031,-0.8397146252782517,-1.2740852030207648,-0.5983057366114299,-0.6385000944137573,0.7444525957107544,-0.19521267712116241,-0.318087100982666,0.9907457232475281,0.13190104067325592
2.689729928970337,-0.061187922954559326,-0.12318271398544312,-0.05069398880004883,-0.8512723349991317,-1.1826385284592131,-0.6929284924774445,-0.6100005507469177,0.7521195411682129,-0.24943110346794128,-0.21280957758426666,1.056100845336914,-0.256135493516922
2.710397958755493,0.003367304801940918,0.10319393873214722,0.023643553256988525,-0.7586940799429162,-1.0220889589343016,-0.6588683658110516,-0.619196891784668,0.6879742741584778,-0.37853243947029114,1.8751139640808105,0.542574405670166,-0.7139759063720703
2.7304000854492188,0.2097686529159546,0.22472631931304932,0.39018750190734863,-0.580511546899268,-0.8888364881731847,-0.5683375165009668,-0.6491608023643494,0.5484517812728882,-0.5270588397979736,1.5507200956344604,-0.38365644216537476,-0.2360222339630127
2.748389959335327,0.044527411460876465,0.4865487515926361,0.1781604290008545,-0.4462183913758835,-0.8376093226403899,-0.33110271727087576,-0.670290470123291,0.431557297706604,-0.603712797164917,1.707675814628601,0.24563270807266235,1.4171186685562134
2.768800973892212,-0.12477108836174011,0.35969120264053345,0.3624744415283203,-0.7008347925838702,-0.5934443779734032,-0.13061293321974413,-0.42741405963897705,0.6448559761047363,-0.6336230635643005,-2.185875654220581,0.57846599817276,2.6706364154815674
2.7881078720092773,-0.1103440523147583,0.19792479276657104,0.08370101451873779,-1.0976385487646168,-0.5481386493251641,-0.023065575829664866,-0.23746484518051147,0.8901337385177612,-0.3889378011226654,-0.8530048131942749,-1.5426347255706787,2.9457473754882812
2.811126947402954,-0.2554378807544708,0.1575307846069336,-0.14092499017715454,-1.3426689699785856,-0.27275489874107256,0.4463646745606314,-0.06092267483472824,0.9740915894508362,-0.21779386699199677,-0.6702798008918762,-1.0917025804519653,1.3070530891418457
2.8305320739746094,-0.36032232642173767,-0.13027030229568481,-0.2283375859260559,-1.3781300197766153,0.1451528163967949,0.9539462902836872,0.0276959128677845,0.9814971685409546,-0.189463272690773,-0.435912549495697,-0.6716674566268921,0.8981422185897827
2.8499250411987305,-0.06187490373849869,-0.22944319248199463,0.11573320627212524,-1.4182339633407375,-0.9101283134441526,-0.1503560487513857,-0.11999467760324478,0.9883849024772644,-0.09325696527957916,-0.6421969532966614,1.43471097946167,-5.472750186920166
2.8695409297943115,0.048042237758636475,-0.11132258176803589,0.13714753091335297,-1.2228006976096606,-1.2031734946414017,-0.45501618371624014,-0.3182297348976135,0.9400581121444702,-0.12256010621786118,-0.21172618865966797,-1.45849609375,0.23057417571544647
2.888422966003418,0.1571468710899353,-0.08471435308456421,-0.006714228540658951,-1.3402373168183233,-1.7694799107372263,-0.8830825727564043,-0.22402620315551758,0.9735388159751892,0.04510541260242462,-0.5168075561523438,-2.592618942260742,-0.16374222934246063
2.9105119705200195,0.011050313711166382,0.28284430503845215,-0.11583399772644043,-1.3151756054492911,-1.6717068799071695,-0.5649699628778019,-0.25155937671661377,0.9675065279006958,0.025471512228250504,1.0556496381759644,-2.2119650840759277,-0.2857711613178253
2.9300317764282227,0.34479454159736633,0.06846779584884644,0.10498178005218506,-1.1499251454830564,-1.6304737500375783,-0.44524349998103135,-0.4078286588191986,0.9127333760261536,0.02436709776520729,-0.8839258551597595,-0.9517620801925659,-1.5793942213058472
2.9487037658691406,-0.15161675214767456,-0.1063041090965271,-0.08842242509126663,-1.0420900750701434,-1.75509024976048,-0.4411795328653257,-0.4958747327327728,0.86346036195755,0.09243558347225189,0.5233986377716064,-1.6461520195007324,-0.37163591384887695
2.9682199954986572,-0.2979104816913605,0.19823026657104492,-0.0920526310801506,-1.07750626200413,-1.3740199949871912,0.1328890273704178,-0.4643881320953369,0.8807796835899353,-0.09257860481739044,3.109281539916992,-1.6919503211975098,0.441392719745636
2.9916090965270996,0.17131590843200684,0.13819372653961182,0.32755276560783386,-0.7552359262134117,-0.8633173808604041,0.8654365590520696,-0.5533655285835266,0.6854604482650757,-0.4732130467891693,4.304277420043945,-1.4459093809127808,-0.49191489815711975
3.0099539756774902,-0.037814319133758545,0.25740984082221985,0.1074521541595459,-0.47945358972209934,-0.8356898370457406,1.1753152428562625,-0.6581238508224487,0.4612944424152374,-0.5950466394424438,3.4460909366607666,-1.2387275695800781,-0.13181880116462708
3.02821683883667,-0.0969133973121643,0.12541261315345764,-0.03283894062042236,-0.370002198403498,-0.8354577282376587,1.328188854828099,-0.6914168000221252,0.36161747574806213,-0.6254403591156006,1.2707719802856445,-0.17783218622207642,0.27691251039505005
3.049828052520752,-0.01577126979827881,0.027916669845581055,0.045598387718200684,-0.3322423819192949,-0.8173403774628235,1.4135976685417293,-0.6894443035125732,0.3261635899543762,-0.6467487812042236,0.557532548904419,-0.07837048172950745,0.267820805311203
3.0671439170837402,0.00875389575958252,0.023380756378173828,0.03368973731994629,-0.3090452118372457,-0.8052861256116596,1.4839967583675304,-0.6868698000907898,0.30414921045303345,-0.660078227519989,0.7679280638694763,-0.17689572274684906,0.3017711937427521
3.090756893157959,-0.0670093297958374,-0.05982625484466553,0.01415330171585083,-0.27784984222321113,-0.8131366104095491,1.5500050521492028,-0.6985852122306824,0.2742885947227478,-0.6608664989471436,0.08396948873996735,-0.13588713109493256,0.020271776244044304
3.108159065246582,-0.010761797428131104,-0.04937976598739624,0.036393821239471436,-0.28963361961647244,-0.8295980088465537,1.5183054190491678,-0.706935465335846,0.28560110926628113,-0.6470504999160767,-0.2673821747303009,-0.13740432262420654,-0.2216813862323761
3.130314826965332,-0.0109061598777771,0.021296679973602295,-0.009917140007019043,-0.26183635158163077,-0.8515209464564107,1.5280133963510518,-0.7266427278518677,0.2588547468185425,-0.6363840103149414,0.07397003471851349,-0.08529602736234665,-0.09261488169431686
3.1484718322753906,0.06288725137710571,-0.08435243368148804,0.05542576313018799,-0.28503483891213227,-0.8655584108525816,1.46589796897389,-0.7307339906692505,0.2811908721923828,-0.6220607757568359,-1.532839059829712,0.13355135917663574,-0.39660462737083435
3.169092893600464,0.10375916957855225,0.023008108139038086,0.05170774459838867,-0.5837597332529545,-1.0706862333416516,0.9432819724486464,-0.732207715511322,0.5511649250984192,-0.400111585855484,-6.0836663246154785,0.21776212751865387,-0.0817866399884224
3.1891229152679443,0.09163886308670044,0.10523360967636108,-0.014240503311157227,-0.7310743931023057,-1.334118273845259,0.4961066210938774,-0.7237037420272827,0.6676698327064514,-0.17455638945102692,-1.3349392414093018,-0.08843082934617996,0.15421053767204285
3.2078018188476562,0.014780879020690918,-0.20959019660949707,0.02232111245393753,-0.7689968985060932,-1.4605218971487364,0.3298829800226178,-0.7142438292503357,0.6954147219657898,-0.079083651304245,-1.2738556861877441,-0.15736515820026398,-0.17516231536865234
3.231503963470459,-0.36143922805786133,-0.27738916873931885,-0.4911321997642517,-0.7454654505201326,-1.5481762912871657,0.22428736278560515,-0.7345844507217407,0.6783139109611511,-0.016619160771369934,-5.592593669891357,0.5103961229324341,0.8959047198295593
3.251171112060547,0.21327602863311768,0.4207872152328491,-0.9050845503807068,-0.6676146889544221,-2.1239967373809847,-0.5619738538499334,-0.6681711673736572,0.6191145777702332,0.4126072824001312,1.853460669517517,-0.023928983137011528,-0.03716633841395378
3.2702560424804688,0.3120464086532593,0.2935630679130554,0.35757434368133545,-0.8052355796586461,-1.716825313413158,0.009481816985203234,-0.6855664849281311,0.7209938764572144,0.1008303165435791,8.483945846557617,-0.08481834083795547,-0.895706057548523
3.289909839630127,-0.36093902587890625,-0.015954554080963135,-0.1032787561416626,-0.7303609810024807,-1.5137290163037238,0.250705991552097,-0.7437210083007812,0.6671385765075684,-0.04248829185962677,-2.855771064758301,0.4255872070789337,-0.06631874293088913
3.3107070922851562,0.0599367618560791,0.5783474445343018,-0.012790441513061523,-0.6823539496012032,-2.0129305537018944,-0.4680828634443765,-0.7014621496200562,0.6306216716766357,0.3320654332637787,-3.4503607749938965,-0.7254133820533752,0.6705671548843384
3.3304200172424316,0.45857053995132446,0.31002193689346313,-0.1651841700077057,-0.7621123427177269,-1.8749872150201938,-0.2471677257107244,-0.6901684999465942,0.6904510259628296,0.21666744351387024,5.2026543617248535,0.40007084608078003,-0.3403090536594391
3.34959077835083,-0.5573017597198486,-0.6993813514709473,0.5628421902656555,-0.7072081453009995,-1.4417241322139673,0.3661558357563718,-0.7538555860519409,0.6497139930725098,-0.09784575551748276,-3.057133913040161,0.061452317982912064,-0.29661014676094055
3.3689870834350586,-0.2010120153427124,0.19935369491577148,0.2772486209869385,-0.6868002300656525,-1.9025388392418394,-0.35177195442563985,-0.7311169505119324,0.634066104888916,0.25185003876686096,-6.298402309417725,-0.16890420019626617,0.37656792998313904
3.387784957885742,0.41196346282958984,-0.039876699447631836,-0.1230548620223999,-0.6135212800254898,-2.081546604726108,-0.6338179382385439,-0.7132788300514221,0.5757501125335693,0.39968162775039673,-0.4957368075847626,0.1067114919424057,-0.09890509396791458
3.410853862762451,0.08678406476974487,0.28006410598754883,0.02143743634223938,-0.6686727374024206,-2.032623592763066,-0.509463378801686,-0.7024458050727844,0.6199451088905334,0.34962600469589233,2.094492197036743,-0.4230494499206543,0.2949732840061188
3.4299798011779785,0.09095966815948486,0.14180022478103638,0.04960501194000244,-0.7542649379965392,-1.7177642823936514,-0.029534241122877582,-0.7209188938140869,0.6847531795501709,0.10672146081924438,3.8139636516571045,-0.07194498181343079,-0.8922744393348694
3.449772834777832,-0.3012765049934387,-0.26008081436157227,0.15387225151062012,-0.7317149711924397,-1.5988520923690408,0.10969192949597784,-0.743736982345581,0.6681466102600098,0.020871587097644806,-1.2944355010986328,0.06075296923518181,0.9082408547401428
3.4694528579711914,0.38947248458862305,0.3971233367919922,-0.6527055501937866,-0.6574895319762627,-2.036926477402352,-0.47136810275367585,-0.7070842981338501,0.6111316680908203,0.3557390868663788,0.7752856016159058,0.2103099673986435,-0.05546744912862778
3.4882497787475586,0.14748996496200562,-0.044929444789886475,0.09926068782806396,-0.7378813284999747,-1.6368967105649315,0.09492409258076426,-0.7382798194885254,0.672721803188324,0.04887177795171738,8.319212913513184,-0.017869403585791588,-1.432803988456726
3.507722854614258,-0.1613425612449646,0.24114787578582764,0.18882334232330322,-0.6926150315074896,-1.686954327877921,-0.025089135674829975,-0.7643930315971375,0.6385518312454224,0.08919187635183334,-4.773107528686523,0.15586420893669128,0.32693350315093994
3.5309979915618896,0.19060122966766357,0.521380603313446,0.21974822878837585,-0.6333769772705231,-2.0280176140674775,-0.5676841107408354,-0.7232397794723511,0.5918700695037842,0.3558287024497986,-0.6799978017807007,-0.2587665021419525,0.10718916356563568
3.5514678955078125,0.08156615495681763,-0.039983153343200684,0.24020826816558838,-0.6807215014403009,-1.9835348188035955,-0.478104552243836,-0.7118610739707947,0.6293538808822632,0.3117174804210663,0.10902383178472519,-0.39966991543769836,-0.03155473992228508
3.5701937675476074,0.08516663312911987,-0.15082353353500366,0.17417706549167633,-0.752306849819186,-1.811750741045624,-0.1561069887247313,-0.7090223431587219,0.6833248138427734,0.17422699928283691,3.863546371459961,-0.4232214391231537,-0.4413238763809204
3.589059829711914,-0.3439634442329407,-0.3241882920265198,-0.20595228672027588,-0.7153730289272244,-1.6448952194691289,0.07139521131875601,-0.7527772188186646,0.6558990478515625,0.05588227137923241,1.1431255340576172,0.10194825381040573,-0.7489968538284302
3.6082730293273926,-0.17035287618637085,0.03571593761444092,0.27123820781707764,-0.6735749971066064,-1.8975949183343517,-0.3619060628221604,-0.7402306795120239,0.6237841844558716,0.2509025037288666,-5.162535667419434,-0.00817097071558237,0.44528433680534363
3.6278998851776123,0.12307816743850708,0.0033509135246276855,-0.056850820779800415,-0.5812611193455673,-2.0438868119947,-0.6467470598995716,-0.7439738512039185,0.5490784049034119,0.380810409784317,-1.1965324878692627,0.4394586384296417,0.2191096693277359
3.649730920791626,0.1268128752708435,-0.0009937286376953125,0.07851436734199524,-0.6067771712682187,-2.008192928637294,-0.646014191453739,-0.7441531419754028,0.5702229142189026,0.3479689955711365,0.3528245687484741,0.015648253262043,0.09996470808982849
3.6716270446777344,-0.058646440505981445,-0.09605693817138672,-0.019899994134902954,-0.6513363672533952,-1.9596783493205419,-0.5784087964050834,-0.7358940243721008,0.6062497496604919,0.301531583070755,0.3541395664215088,0.06842109560966492,0.03387860953807831
3.690253973007202,-0.04811602830886841,-0.1078525185585022,0.039828985929489136,-0.6658463318278147,-1.9017917054516684,-0.5084955565971666,-0.7437083125114441,0.6177248954772949,0.2555660009384155,0.17586854100227356,0.14939141273498535,-0.11441096663475037
3.708953857421875,0.030225932598114014,0.009406507015228271,0.015736788511276245,-0.6720962838767878,-1.851573615199133,-0.4463438411602815,-0.751875102519989,0.6226277351379395,0.2168378233909607,0.40952467918395996,0.043163854628801346,-0.12014605104923248
3.7308011054992676,-0.007610619068145752,0.02121347188949585,-0.03352069854736328,-0.6828521060481487,-1.8009003807173456,-0.36119139705552666,-0.7553289532661438,0.6310082077980042,0.17693816125392914,0.7798669934272766,-0.1173902302980423,0.10940135270357132
3.748692035675049,-0.03693276643753052,-0.01423102617263794,0.005444154143333435,-0.7202071876775595,-1.7439704070204274,-0.2462694365209176,-0.740426242351532,0.6595404148101807,0.1295199692249298,1.2506338357925415,-0.23545782268047333,0.1964288055896759
3.768515110015869,-0.023556292057037354,-0.002003312110900879,0.05084359645843506,-0.7590769958311372,-1.6614654992758513,-0.0846787845960386,-0.7224918007850647,0.6882521510124207,0.06568783521652222,0.9319291710853577,-0.1717631071805954,0.13273005187511444
3.7913818359375,0.04790550470352173,-0.001717686653137207,0.042128317058086395,-0.7768806527454403,-1.643786402331646,-0.014247940883343095,-0.7112050652503967,0.7010583877563477,0.052003294229507446,0.06904902309179306,-0.32426032423973083,0.06265391409397125
3.808419942855835,0.010890841484069824,0.08370810747146606,-0.014404766261577606,-0.778005606160155,-1.6764943442373854,-0.024185292176239676,-0.7083397507667542,0.7018601894378662,0.07515017688274384,0.059415146708488464,-0.16463568806648254,0.020451005548238754
3.8299338817596436,0.015383005142211914,0.06839531660079956,-0.026114948093891144,-0.7854562613065449,-1.699979268204144,-0.04599442444812401,-0.7011740207672119,0.7071478366851807,0.0910869836807251,-0.07201861590147018,0.0074624065309762955,0.07887014746665955
3.848890781402588,0.032177507877349854,0.02660733461380005,-0.004317045211791992,-0.8043596885337694,-1.707845054233326,-0.055733472909363715,-0.6870695352554321,0.7203866839408875,0.09475599974393845,-0.0016901679337024689,-0.01908700168132782,0.2051645815372467
3.8698740005493164,0.035898029804229736,0.027968883514404297,0.023443810641765594,-0.8380155019300504,-1.7198340776233376,-0.0707882772064979,-0.661523699760437,0.7433170676231384,0.09932852536439896,-0.042407650500535965,-0.021468933671712875,0.24787786602973938
3.8882827758789062,0.12242352962493896,0.13032490015029907,0.05680382251739502,-0.8701885692949021,-1.7262937835730539,-0.08009722390070204,-0.636904239654541,0.7644504904747009,0.09984300285577774,0.12558670341968536,-0.002753568347543478,0.44612693786621094
3.910599946975708,0.06653881072998047,-0.031085669994354248,0.20647931098937988,-0.9137958703821436,-1.6508097343070443,0.03489666597022478,-0.6087903380393982,0.7918277382850647,0.04881560802459717,2.101337432861328,-0.2855697274208069,-0.23959341645240784
3.928898811340332,-0.4233362674713135,-0.0971454381942749,0.15687429904937744,-0.7872033313097577,-1.3298739430098603,0.5041457571930734,-0.6854437589645386,0.7083820700645447,-0.1684097945690155,2.0103886127471924,-0.3918614685535431,-1.3443706035614014
3.948361873626709,-0.3024003505706787,0.5172068476676941,-0.16345548629760742,-0.7633350872206728,-1.958982631991039,-0.34662942951998443,-0.6687758564949036,0.6913350224494934,0.27348676323890686,-8.871736526489258,0.22498425841331482,1.2362974882125854
3.9679439067840576,0.42931467294692993,0.019563794136047363,-0.16213911771774292,-0.6769675975398388,-2.191819177847148,-0.6968146253113371,-0.6339350342750549,0.6264322400093079,0.4535515606403351,0.7360515594482422,0.10790423303842545,-0.019563695415854454
3.990950107574463,-0.1257094144821167,-0.09977340698242188,0.2676275968551636,-0.8530069185130412,-1.879369009599904,-0.25547229193412413,-0.6266556978225708,0.7532615065574646,0.19974929094314575,2.6772141456604004,-0.08300571143627167,-0.013942976482212543
4.010318994522095,-0.14703935384750366,-0.05274754762649536,-0.12481427192687988,-0.8842672345744281,-1.5935914620834233,0.10410977070495535,-0.6336919665336609,0.7734507322311401,0.014447595924139023,1.2309974431991577,0.38967546820640564,-0.27129635214805603
4.0290679931640625,-0.25230956077575684,0.1117965579032898,0.16371577978134155,-0.8501015464293966,-1.3904988526090019,0.3638201660652544,-0.6492103338241577,0.7513474225997925,-0.1183360293507576,2.6523678302764893,-0.06196212023496628,-0.2707848846912384
4.048703908920288,-0.1649545431137085,-0.05990791320800781,0.09931525588035583,-0.8153539320062703,-1.2332407411935662,0.5451823129076981,-0.6469199657440186,0.7279682755470276,-0.22706177830696106,0.6187402009963989,0.371104896068573,0.03476680815219879
4.071286916732788,0.0527682900428772,-0.01818084716796875,0.10130223631858826,-0.7658123961259103,-1.1992438895928226,0.5741743382332836,-0.671634316444397,0.6931228041648865,-0.26170244812965393,0.5057065486907959,0.043265409767627716,-0.5682032108306885
4.090351104736328,-0.016930341720581055,0.21099424362182617,-0.020357251167297363,-0.716855358869915,-1.1388149042855418,0.6232635689757479,-0.684623122215271,0.6570172309875488,-0.3156259059906006,0.1901366263628006,0.5659091472625732,0.3385867476463318
4.109127044677734,0.1126890778541565,0.03538030385971069,0.10118132829666138,-0.7188616450151373,-0.971480925148806,0.7775719610339014,-0.6214019060134888,0.6585284471511841,-0.4244996905326843,0.7725089192390442,0.6222724914550781,0.6941204071044922
4.130208969116211,0.19392108917236328,-0.1066693663597107,0.0638694167137146,-0.7718033522970191,-0.8779571689770485,0.8466265323906643,-0.5514193773269653,0.6974287629127502,-0.4577445387840271,-0.2868821620941162,0.2615882456302643,0.2845487594604492
4.149697780609131,0.48318415880203247,-0.16294515132904053,-0.09660851955413818,-0.6792192251936877,-0.9746672700817807,0.786480097156663,-0.6438593864440918,0.6281857490539551,-0.43683868646621704,1.6060590744018555,-1.4322177171707153,-2.4741456508636475
4.168844938278198,-0.918372631072998,0.2690276801586151,-0.10220518708229065,-0.5188656706959538,-1.0452948909604738,0.7913936881415372,-0.7512136101722717,0.4958954155445099,-0.4356212019920349,1.3353865146636963,1.2002665996551514,1.3520808219909668
4.188427925109863,-0.031036198139190674,0.16292089223861694,-0.17930257320404053,-0.6483779855459185,-0.8772217104187331,0.9141423813322442,-0.6129152774810791,0.6038943529129028,-0.5095553994178772,2.062479019165039,0.8687711954116821,1.2564294338226318
4.20777702331543,-0.041590094566345215,0.033910155296325684,0.013541102409362793,-0.6979910515809962,-0.6383751934987334,1.1162435176325969,-0.45653316378593445,0.6426798701286316,-0.615256130695343,1.2137596607208252,1.273686408996582,1.278767466545105
4.230766773223877,-0.009453833103179932,-0.27807509899139404,0.2856121063232422,-0.7945678682391543,-0.4227565445384195,1.234174848667036,-0.28743648529052734,0.713560938835144,-0.6389139890670776,-1.310701847076416,0.9594613313674927,0.5070608258247375
4.250043869018555,1.0782445669174194,-1.1649638414382935,0.09635329246520996,-0.8195460736228684,-0.6097940820960894,1.0191990488344607,-0.3908971846103668,0.7308360934257507,-0.5595337152481079,2.6604816913604736,-3.2524006366729736,-5.742863655090332
4.26992392539978,-2.4571518898010254,1.375433087348938,-0.6870591640472412,-0.49652560990870637,-0.9372664173447874,0.8991667757453506,-0.7086196541786194,0.4763735830783844,-0.5205060243606567,-0.16083449125289917,1.8567944765090942,1.3176860809326172
4.289283990859985,0.3917276859283447,-0.261557936668396,-0.2663624882698059,-0.6144752519514856,-0.7347164307934765,1.0418242197201346,-0.5477488040924072,0.576529860496521,-0.6062875390052795,1.708730936050415,0.8490833640098572,0.7417119145393372
4.30849289894104,-0.4157520532608032,0.2899787425994873,-0.1304803490638733,-0.6139803666105332,-0.5108833389250654,1.2077492144615523,-0.39964717626571655,0.5761253833770752,-0.7129948735237122,1.4051522016525269,1.7944165468215942,1.673734188079834
4.330813884735107,-0.23088222742080688,0.03475046157836914,0.19924181699752808,-0.5743063319667657,-0.06915300179560477,1.558474995395275,-0.05801248177886009,0.5432525277137756,-0.8375627398490906,0.7734171748161316,2.247673988342285,2.346592903137207
4.350237846374512,-0.20679759979248047,-0.33963239192962646,0.5777083039283752,-0.5687106192346477,0.2448251527266004,1.7827033407828174,0.2042340785264969,0.538546085357666,-0.8174696564674377,-0.9740061163902283,1.5031445026397705,1.1471822261810303
4.369543075561523,-0.24937748908996582,-0.5370086431503296,0.7003375887870789,-0.7172222538226094,0.34860829866495907,1.833481545315403,0.2574341297149658,0.6572937965393066,-0.7083026766777039,-2.026695966720581,0.06409789621829987,-1.5447123050689697
4.388912916183472,-0.1763458251953125,-1.9552801847457886,1.281354546546936,-0.5597374848449411,-0.7366529948117182,0.98942148574272,-0.5692902207374573,0.5309637784957886,-0.627683162689209,-2.2468011379241943,-10.969440460205078,-9.901680946350098
4.4084179401397705,-0.048947274684906006,0.5125368237495422,-0.9491247534751892,-0.5889851183852246,-0.9241938463891148,0.7935324712950084,-0.663653552532196,0.5555174350738525,-0.5009636878967285,1.353517770767212,0.8768417239189148,1.2520710229873657
4.431632995605469,0.06199371814727783,0.33725911378860474,-0.017236292362213135,-0.577632080046853,-0.8827691391659479,0.8027865588480537,-0.6471683382987976,0.54604172706604,-0.5319884419441223,0.9375543594360352,0.08519528806209564,-0.1863352507352829
4.451272010803223,-0.10054045915603638,0.047216951847076416,0.14038008451461792,-0.644168624886692,-0.8682912910501915,0.7431576457294105,-0.6102750301361084,0.6005339026451111,-0.5166464447975159,-0.9155519008636475,0.430147260427475,0.4444214403629303
4.4689109325408936,-0.014705538749694824,-0.03866010904312134,-0.0781935453414917,-0.6886263844024932,-0.8439793177227253,0.7379574510706999,-0.576999843120575,0.6354771852493286,-0.513069212436676,1.1301438808441162,-0.08459339290857315,-0.008220704272389412
4.488162994384766,-0.19592934846878052,-0.6377752423286438,0.04226970672607422,-0.7832919332861356,-0.8278386912449642,0.5849197774252088,-0.5218594670295715,0.7056158781051636,-0.47934237122535706,-2.102975845336914,1.9974992275238037,-0.016197847202420235
4.507724761962891,-0.6040513515472412,-0.0045847296714782715,-0.351120263338089,-1.0085240343050332,-0.3639840145157621,0.6734841574656263,-0.18978720903396606,0.8460459113121033,-0.49818387627601624,-0.48292267322540283,4.373592853546143,1.5972094535827637
4.530892848968506,-0.187208890914917,-0.0732576847076416,0.18999695777893066,-1.0221691543099989,0.3939827375875266,0.9171939481020814,0.2001940757036209,0.8532412648200989,-0.48156189918518066,-0.6289784908294678,4.46312141418457,0.6629074811935425
4.550014019012451,0.038987159729003906,-0.15821117162704468,0.395493745803833,-1.0353465936085224,0.8279973242112248,1.0060321902054385,0.3758229911327362,0.860039234161377,-0.3450939655303955,-0.3232738971710205,2.3250677585601807,-0.04193707928061485
4.56951379776001,-0.171863853931427,-0.137786865234375,0.40389081835746765,-1.0844540964652651,0.9552588907544495,0.9854568621363435,0.3816111087799072,0.8840484023094177,-0.26987284421920776,-0.020657267421483994,0.6740589737892151,-0.7738391160964966
4.588192939758301,-0.05172914266586304,-0.043631672859191895,0.2678229510784149,-1.1581253549632957,0.8961163099345794,0.9141141598779752,0.31318843364715576,0.9160528779029846,-0.25051945447921753,0.5763162970542908,-0.207274928689003,-0.5767521262168884
4.61110782623291,-0.061476677656173706,-0.02698129415512085,-0.047487080097198486,-1.2483392375087552,1.0805336953086928,1.1059009244897327,0.2795705199241638,0.9484596252441406,-0.14921392500400543,-1.4864932298660278,0.20122531056404114,-0.27093860507011414
4.629377841949463,-0.3291461169719696,0.09778636693954468,0.045526325702667236,-1.2556529521810635,1.187079148887214,1.2371840458747199,0.2874133288860321,0.9507519602775574,-0.11603718996047974,0.8916401267051697,-0.4429990351200104,0.8286539316177368
4.649056911468506,-0.3761347234249115,0.20719027519226074,-0.03252994269132614,-1.1657686509119412,1.403226325878122,1.535659230177479,0.3885248303413391,0.9190914630889893,-0.06572140753269196,-0.09364495426416397,-0.47376689314842224,1.327723503112793
4.670690059661865,0.06502300500869751,0.10719400644302368,-0.14145612716674805,-1.1124917475100216,1.4770383993188168,1.6617127329361572,0.440485417842865,0.8968039155006409,-0.04142044112086296,0.5181624293327332,0.21982277929782867,0.15582038462162018
4.690128803253174,0.6538981199264526,0.08724653720855713,-0.19605553150177002,-1.0697141462777466,1.4499150849913602,1.6130865484049808,0.47686970233917236,0.8770632147789001,-0.057927023619413376,0.44638940691947937,0.39199820160865784,0.33502277731895447
4.709848880767822,0.07231855392456055,-0.11236226558685303,0.026224970817565918,-1.0767978482311276,1.6470860127336293,1.8291419789481218,0.47277116775512695,0.8804440498352051,0.03613770008087158,-2.2980594635009766,0.08655882626771927,-0.30540579557418823
4.729488849639893,-0.12013435363769531,-0.03021979331970215,-0.02333737164735794,-1.0920332695783204,1.7130865878225754,1.9029753281658603,0.45602601766586304,0.8875654339790344,0.06532955914735794,1.0643835067749023,-0.04461712762713432,-0.23130950331687927
4.749117851257324,-0.19675609469413757,0.08851313591003418,-0.20562958717346191,-1.1054125889862323,1.9217523098120162,2.1312719941097202,0.4214112162590027,0.8936493992805481,0.154283806681633,0.4579088091850281,0.2575525641441345,-0.3140619099140167
4.7684009075164795,-0.029916584491729736,-0.13414829969406128,-0.13843676447868347,-1.1053224332920357,2.1236469017539927,2.3303857497027294,0.381982684135437,0.8936089873313904,0.23569637537002563,-1.3184703588485718,0.6209486722946167,-0.5028896331787109
4.79105806350708,-0.33489128947257996,-0.3134569525718689,0.05049028992652893,-1.117301878691114,2.145567973916086,2.3485052908689945,0.36771297454833984,0.8989216685295105,0.23817552626132965,-0.4719669222831726,-0.17550039291381836,0.07550366222858429
4.8104939460754395,-0.4548308849334717,-0.17200720310211182,0.05733408033847809,-1.0980698596759388,1.9515341551966356,2.196450336788708,0.42271116375923157,0.8903301954269409,0.1691979616880417,0.21744167804718018,-0.46616631746292114,0.6341794729232788
4.8293538093566895,-0.12606486678123474,-0.028579652309417725,-0.058840036392211914,-1.050784137685284,1.8406445461175518,2.1375635639670065,0.47890910506248474,0.8678131103515625,0.132463738322258,-0.23874737322330475,-0.09329074621200562,0.31698402762413025
4.848576068878174,0.19203096628189087,0.05436992645263672,0.00680328905582428,-1.052193169240173,1.8498990223197134,2.1557020759615866,0.4764871597290039,0.8685123920440674,0.13655315339565277,0.44018030166625977,-0.10743115842342377,-0.2823008596897125
4.870589971542358,0.29993435740470886,0.24248754978179932,-0.12214195728302002,-1.1134031461635963,1.7970968611325528,2.10761472398921,0.43035128712654114,0.897206723690033,0.0990859866142273,0.8013275265693665,0.16897033154964447,0.023720955476164818
4.889451026916504,0.1984235942363739,0.17450541257858276,-0.06626319885253906,-1.1125151681568854,1.7572474548742465,2.0565218653226656,0.4347398281097412,0.896814227104187,0.08201027661561966,0.8891695141792297,-0.0870833620429039,0.28761231899261475
4.90827488899231,-0.04229336977005005,0.290587842464447,0.03431551903486252,-1.0667627068426033,1.4556370613413905,1.7487059893218386,0.47976288199424744,0.8756415843963623,-0.055494677275419235,3.0283150672912598,-0.44506776332855225,0.8041611909866333
4.931073904037476,0.30271726846694946,-0.12827742099761963,0.4162731170654297,-0.9477161265490998,1.175124440702216,1.5015187637231773,0.538453996181488,0.8120849132537842,-0.224912628531456,-2.117633104324341,-0.9007577300071716,0.8771853446960449
4.949801921844482,0.0005505681037902832,-0.09192860126495361,0.04790949821472168,-0.9902737070966067,1.8481888348309032,2.490817828008293,0.5274950861930847,0.8361761569976807,0.1501954346895218,-9.183588981628418,-2.568514108657837,-0.6408483386039734
4.96891188621521,-0.6666570901870728,0.2878273129463196,-0.31624606251716614,-0.8685552106970438,2.2822701554863083,2.950440428919922,0.4892278015613556,0.7633965015411377,0.4217606484889984,-0.7834779620170593,1.5483959913253784,-0.3027399182319641
4.9880900382995605,-0.19266587495803833,0.15827864408493042,-0.38700252771377563,-0.7065338568726326,2.3912259957553945,3.120942811413014,0.518669843673706,0.6492012739181519,0.5563446283340454,-2.1246378421783447,0.1591670662164688,-0.3571319878101349
5.0106201171875,-0.16008922457695007,0.06344997882843018,-0.16264790296554565,-0.7695502309785675,2.393559841154718,-3.0780860583675977,0.48853471875190735,0.6958122849464417,0.5264787077903748,1.2050215005874634,-0.18465083837509155,-0.7971431612968445
5.029037952423096,-0.13453400135040283,0.24562722444534302,0.08748379349708557,-1.0410579729598766,2.213435131942093,2.9847324752956896,0.4045077860355377,0.8629392981529236,0.30283617973327637,5.837396144866943,-0.04553884640336037,-1.13665771484375
5.048309803009033,0.3523674011230469,0.11821973323822021,0.39322924613952637,-1.0617089043035577,0.7332304102607143,1.434613995627079,0.32619091868400574,0.8731896281242371,-0.3621317744255066,8.059396743774414,-1.3228343725204468,-0.4601472318172455
5.07137393951416,-0.10178714990615845,0.3505284786224365,0.046514153480529785,-0.6690432026767013,0.31847682688586093,0.9583618462324478,0.24561645090579987,0.6202357411384583,-0.7449699640274048,2.600771903991699,-0.09331560879945755,-0.46241965889930725
5.089678764343262,0.14435166120529175,-0.41412103176116943,0.0577734112739563,-0.6350825121900182,0.33465022274602707,0.8483772973848623,0.2644007205963135,0.5932439565658569,-0.760364294052124,-1.4733330011367798,1.5052533149719238,-1.6097047328948975
5.109041929244995,-0.36461585760116577,-0.1798076033592224,0.024746209383010864,-1.1183532585122382,0.6339132127687491,1.0173182901651248,0.2589334547519684,0.8993817567825317,-0.3522303104400635,-7.479448318481445,1.6880778074264526,-0.6725866794586182
5.130906105041504,0.09167438745498657,-0.1640508770942688,0.6371973752975464,-1.2580127259831744,2.2662246868165252,2.684487458931792,0.23625218868255615,0.9514807462692261,0.197153240442276,-2.9953532218933105,-1.747848629951477,-0.698273241519928
5.150341033935547,0.08021041750907898,0.5539728999137878,0.16947364807128906,-0.9462282680035452,2.6190682423235248,-2.829035994231655,0.29182934761047363,0.8112157583236694,0.506719708442688,-6.452966690063477,-4.19294548034668,0.4111504852771759
5.1695709228515625,-0.43501847982406616,-0.5455425381660461,0.36796993017196655,-0.8140316729669691,2.4967789583535365,-3.01506304902458,0.4126642942428589,0.7270610928535461,0.5487170815467834,1.8089238405227661,-0.1258596032857895,0.2351163923740387
5.188521862030029,-0.004175275564193726,0.15738815069198608,-0.04121178388595581,-0.8149819004872805,2.3774207885303267,3.051451473721485,0.47458839416503906,0.7277131676673889,0.4951760172843933,2.5168306827545166,0.814199686050415,1.8527307510375977
5.207634925842285,-0.028713464736938477,0.15935289859771729,-0.11448931694030762,-0.9640053640288647,2.0257988273316085,2.500845594555477,0.512218713760376,0.8214821219444275,0.2505978047847748,8.712640762329102,0.8316237330436707,0.37384888529777527
5.230435848236084,0.09938114881515503,0.46086573600769043,0.2326594591140747,-0.7958706931587036,0.7518105545864553,1.1761235809977197,0.4778435528278351,0.7144730687141418,-0.5110713243484497,14.289629936218262,-3.401621103286743,-0.30953866243362427
5.24996280670166,0.13420310616493225,1.2507225275039673,0.5396593809127808,-0.5070209168156775,0.3566941276786824,0.8425706324794694,0.305249959230423,0.4855751097202301,-0.8191698789596558,1.5584895610809326,-1.6700745820999146,1.3408763408660889
5.26917290687561,0.18312445282936096,0.019011959433555603,-0.024471282958984375,0.17531955963126716,0.00594685325714104,-0.6417086588276569,0.005855658557265997,-0.17442280054092407,-0.9846534132957458,1.6331003904342651,-3.399688482284546,-0.9738423824310303
5.28850793838501,-0.7459172606468201,0.20245283842086792,-0.018083930015563965,0.19839603236494255,-0.2561049147898535,-0.7504128417925399,-0.24834541976451874,-0.1970970779657364,-0.948407769203186,-1.1923726797103882,1.859440803527832,-0.16392146050930023
5.307982921600342,0.37291887402534485,-0.1421937644481659,-0.16984498500823975,0.14511933749674424,-0.10380866874765866,-0.8728813495539803,-0.10253311693668365,-0.14461050927639008,-0.9841619729995728,-0.33298441767692566,-0.3468135595321655,-1.2234714031219482
5.330918788909912,0.08140507340431213,0.04848521947860718,-0.011264026165008545,0.1564376541273772,-0.10312371803078882,-1.0377083273416736,-0.10168398171663284,-0.15580035746097565,-0.9825409054756165,0.5108829736709595,-0.07159139961004257,-1.428033709526062
5.34975790977478,0.015935998409986496,0.027561143040657043,0.1664334535598755,0.22809661115219132,-0.057400936918224954,-1.2085650317614265,-0.05588347092270851,-0.2261238396167755,-0.9724942445755005,0.6884268522262573,0.18664103746414185,-1.9496774673461914
5.368985891342163,0.03725266456604004,0.04212719202041626,0.11829471588134766,0.2903931422193977,0.010616383779376766,-1.3303405598440887,0.010171699337661266,-0.2863289415836334,-0.9580773711204529,-0.1358315348625183,-0.26725295186042786,-0.8478829264640808
5.390240907669067,0.08878312259912491,-0.14908452332019806,0.06502234935760498,0.23147127899399197,-0.007611004795600596,-1.38582618633615,-0.007407946977764368,-0.2294098138809204,-0.9733017086982727,-0.13590574264526367,-0.05615074560046196,-0.4974980354309082
5.408801078796387,0.048347145318984985,-0.1311715543270111,-0.043429017066955566,0.21322933917765932,-0.030065758233649847,-1.4358771949883524,-0.029380420222878456,-0.21161720156669617,-0.9769109487533569,-0.38196104764938354,-0.6339609026908875,-0.29145488142967224
5.430972099304199,-0.13383269309997559,-0.0968654602766037,-0.03466808795928955,0.13466612150502102,-0.10917654835728959,-1.51826881311791,-0.10797329246997833,-0.13425946235656738,-0.9850462675094604,-1.0326933860778809,-0.7194114327430725,-0.8267014622688293
5.450823783874512,-0.27351468801498413,0.13958685100078583,-0.0775720477104187,0.047960983042606,-0.17844048732924853,-1.6671581040485022,-0.1772909313440323,-0.047942597419023514,-0.982990026473999,-0.9990319609642029,-0.5280640125274658,-1.808436393737793
5.470127105712891,0.027505293488502502,0.09433488547801971,0.13933581113815308,0.04665285863295477,-0.16676338591329373,-1.8281105190344666,-0.16581089794635773,-0.046635936945676804,-0.9850542545318604,0.6078683733940125,0.8676356673240662,-1.510339379310608
5.489421844482422,0.19683735072612762,-0.19471481442451477,0.04369997978210449,0.07453450132977496,-0.10705203683868815,-1.9420122345290263,-0.10655102878808975,-0.07446550577878952,-0.9915148615837097,0.9607572555541992,0.17409329116344452,-0.5226180553436279
5.508601903915405,0.1955888420343399,-0.13678383827209473,0.11723393201828003,0.13212443570919652,-0.08076385552590448,-1.9834351034755995,-0.07997293025255203,-0.13174036145210266,-0.988053023815155,0.5253612995147705,0.31137320399284363,1.2819095849990845
5.530632972717285,-0.03781192749738693,-0.25043827295303345,-0.020938754081726074,0.12464008620187796,-0.12332092914942151,-2.043278565105934,-0.12205434590578079,-0.12431761622428894,-0.9847069978713989,-0.5487680435180664,-0.7354902625083923,-1.0458678007125854
5.551898002624512,0.04959362745285034,-0.028473731130361557,0.34992659091949463,0.05300250254151285,-0.2235298849946098,-2.2049203237537656,-0.22136177122592926,-0.05297768861055374,-0.9737516641616821,-1.1961607933044434,-1.9079463481903076,-2.062398672103882
5.570601940155029,-0.25293979048728943,0.07499511539936066,0.3028292655944824,-0.02631104390993161,-0.44014560007282527,-2.4929595821598114,-0.42592373490333557,0.026308007538318634,-0.9043765068054199,-2.6113758087158203,-2.1675374507904053,-3.004904270172119
5.58869194984436,-0.31689053773880005,0.2846919894218445,0.39077138900756836,-0.2183825403329366,-0.6647447623189635,-2.986551141862831,-0.602207362651825,0.2166508585214615,-0.7683806419372559,-5.525631427764893,-1.1765806674957275,-2.5672760009765625
5.607737064361572,-0.13073360919952393,0.16308653354644775,0.13247287273406982,-0.4052084044775242,-0.8965436063818355,2.8231270739434495,-0.7179145216941833,0.3942103087902069,-0.573756992816925,-2.19195556640625,-1.2504019737243652,-1.1146694421768188
5.63105583190918,-0.6495553851127625,0.41997799277305603,-0.20458275079727173,-0.22618711423050342,-1.2114677209800735,2.6416055199269097,-0.9122885465621948,0.22426339983940125,-0.3426888883113861,-0.26508408784866333,-2.408647298812866,-2.7313249111175537
5.64979887008667,-0.056712806224823,0.48952656984329224,-0.4983752965927124,-0.09660697752241901,-1.3357801196102346,2.375756538925763,-0.9679759740829468,0.09645677357912064,-0.23177297413349152,-1.801225185394287,-0.07663604617118835,-0.9446550011634827
5.668770790100098,0.17858874797821045,0.19664883613586426,-0.2020145058631897,-0.11472949462516675,-1.3222782565233437,2.2769654747357615,-0.9629058241844177,0.1144779622554779,-0.24435080587863922,-1.117296576499939,0.6180683374404907,0.1952398419380188
5.690855026245117,0.32039517164230347,0.11073130369186401,-0.47766929864883423,-0.1311452486529722,-1.3308256123205195,2.33243131686234,-0.9630038738250732,0.13076964020729065,-0.2356332391500473,1.3419090509414673,-0.44147270917892456,0.16074691712856293
5.71014404296875,0.12770909070968628,0.14565137028694153,-0.5418539047241211,-0.11265878916769241,-1.3140233878055863,2.5552140512044943,-0.9610831141471863,0.11242062598466873,-0.25235068798065186,2.6739323139190674,0.2535330653190613,0.490890234708786
5.730588912963867,-0.5240749716758728,0.7614772319793701,-0.6521176695823669,-0.0918011385821103,-1.2088246634741604,2.8139342646028735,-0.9312626123428345,0.09167224913835526,-0.3526277244091034,3.1553564071655273,1.7146939039230347,0.9445262551307678
5.750202894210815,-0.8491854071617126,0.8055705428123474,-0.25741201639175415,-0.032860104585304716,-0.8730779641750561,-2.935228685341533,-0.7658964395523071,0.032854191958904266,-0.6421241164207458,3.515336036682129,4.204041481018066,2.2657623291015625
5.768322944641113,-0.6743462085723877,0.664857029914856,0.15896207094192505,0.013352892250713544,-0.4214617811328273,-2.621496483037216,-0.4090583026409149,-0.01335249561816454,-0.91241055727005,1.9557162523269653,4.42408561706543,2.2383947372436523
5.789981842041016,-0.7216413617134094,0.3946497440338135,0.6248561143875122,0.02268817733522573,0.015194537626242446,-2.35935415842725,0.015190042555332184,-0.022686230018734932,-0.9996272325515747,-2.699159622192383,2.9344077110290527,1.5825761556625366
5.809075832366943,-0.6598954200744629,-0.18931487202644348,0.5776301622390747,-0.4325009641403985,0.2607868605083572,-2.1934604620728857,0.23409898579120636,0.41914278268814087,-0.8772211670875549,-3.574202060699463,1.1110135316848755,0.18169043958187103
5.8278748989105225,-0.6334336996078491,-0.06170654296875,0.2505950927734375,-0.6031017106943338,0.31918523427778556,-2.064980879649398,0.2584337592124939,0.56719970703125,-0.781982421875,-2.966993570327759,-0.8548930883407593,-0.2982451021671295
5.850806951522827,-0.35088059306144714,-0.45018064975738525,0.02925962209701538,-0.7016489009798008,0.28551996454580414,-1.9712544254791977,0.2151232212781906,0.6454779505729675,-0.7328575849533081,-2.556781530380249,0.28851789236068726,0.2614341378211975
5.869801998138428,-0.2665904760360718,0.14183861017227173,0.09320676326751709,-0.7908622139276191,0.29363819463075036,-1.9481061198793383,0.20354126393795013,0.7109598517417908,-0.6731323003768921,0.22837525606155396,-0.3711851239204407,0.0005083678988739848
5.889842987060547,0.11664441227912903,0.31449055671691895,-0.598888099193573,-0.9424209685918156,0.19907407502576321,-2.0116667575841922,0.11625055968761444,0.808983564376831,-0.5762216448783875,3.1485986709594727,-0.9369444847106934,1.1198296546936035
5.909393787384033,-0.22985903918743134,-0.14105135202407837,0.12000095844268799,-0.9124160118275928,0.2294559552845166,-1.9011114963120956,0.1391608715057373,0.7909842729568481,-0.595800518989563,-2.9349875450134277,-0.3001998960971832,0.5826648473739624
5.928280830383301,-0.21939462423324585,-0.21514320373535156,-0.2067408561706543,-0.9071389407842503,0.3028536595426107,-1.7877485786711902,0.18371964991092682,0.7877445220947266,-0.5879673361778259,0.7729337811470032,-0.4516346752643585,1.0342077016830444
5.947755813598633,-0.00034023821353912354,-0.042393505573272705,0.03939628601074219,-0.8353341892124413,0.3813204695652469,-1.7088406379908785,0.2496841996908188,0.7415207624435425,-0.6227397918701172,-0.2505135238170624,0.40043017268180847,0.6559762954711914
5.969764947891235,0.1771743893623352,-0.33546721935272217,-0.12612920999526978,-0.8276315276590803,0.4262164771129719,-1.7455326963868447,0.27973484992980957,0.7363308668136597,-0.6160887479782104,-1.058423399925232,0.5107403993606567,-0.47973477840423584
5.9888389110565186,-0.011556029319763184,0.10621190071105957,0.19312840700149536,-0.865874575507648,0.46367734553633055,-1.8292437499112049,0.28980013728141785,0.7616622447967529,-0.5795571804046631,0.4920242726802826,1.337697982788086,-1.060207724571228
6.010890960693359,-0.40853843092918396,-0.4862987995147705,0.22094309329986572,-0.8919395234867972,0.43020368426881567,-2.2310592178449773,0.26187101006507874,0.7782910466194153,-0.5706897377967834,3.4913582801818848,3.3926753997802734,-4.109795093536377
6.029692888259888,-0.5988225936889648,-0.2583789825439453,1.2919518947601318,-0.6217523613507285,-0.024641540830638173,-3.1250134664124163,-0.020028071478009224,0.5824604630470276,-0.8126122951507568,2.051496982574463,-1.1432950496673584,-7.642242908477783
6.048617839813232,-1.9353057146072388,1.2332502603530884,0.1788996458053589,-0.2132320272664367,-0.8308799092911439,2.3981068982874136,-0.721798837184906,0.21161982417106628,-0.6589563488960266,4.381683826446533,-6.8617143630981445,-8.025175094604492
6.068181991577148,-0.7150692343711853,0.5334151983261108,0.0077321529388427734,0.2347850131703933,-1.4224805356125547,2.703205842408032,-0.9618870615959167,-0.23263390362262726,-0.1437184065580368,1.920828938484192,-2.967254400253296,0.949855387210846
6.09118390083313,0.05712705850601196,0.6095897555351257,-0.9928025007247925,0.12854386929855288,-1.6232597331723797,2.730178221211307,-0.9903850555419922,-0.12819015979766846,0.05200669541954994,1.2519794702529907,-1.3411537408828735,1.1066417694091797
6.110451936721802,0.004700720310211182,0.2177790105342865,-0.6362920999526978,-0.03601302605667998,-1.56417037050819,2.832668293526657,-0.9993297457695007,0.03600524365901947,-0.00662161223590374,0.17611059546470642,1.10738205909729,2.4111242294311523
6.128833770751953,-0.8944926857948303,0.2495163381099701,0.4460567831993103,-0.26949642272323904,-1.3724962886471743,3.1228240111254406,-0.9450154304504395,0.26624608039855957,-0.18989217281341553,2.202420234680176,3.0503921508789062,3.5725202560424805
6.1513447761535645,-0.8073961138725281,0.4539654850959778,0.7698254585266113,-0.4769018591316784,-0.7670854857102399,-2.3708974235174916,-0.6165998578071594,0.4590289294719696,-0.6396069526672363,5.162323474884033,1.9025667905807495,4.643153667449951
6.169596910476685,-0.5511453747749329,0.27677446603775024,0.7987521290779114,-0.2363450097291527,-0.2924403932402157,-1.6311399852252153,-0.28027549386024475,0.23415081202983856,-0.9309237599372864,4.890697479248047,2.2839550971984863,4.834805965423584
6.188824892044067,-0.19946971535682678,0.38855651021003723,0.29308152198791504,-0.058513554600190115,-0.016073583310658956,-1.1545317325542601,-0.016045384109020233,0.058480169624090195,-0.9981595873832703,1.8870837688446045,1.4060845375061035,3.7625396251678467
6.211275100708008,-0.23706047236919403,0.34857553243637085,-0.062184274196624756,0.15666499516193302,0.08089650896056966,-0.7450766478772672,0.07981865108013153,-0.15602491796016693,-0.984522819519043,0.7806879281997681,1.0304161310195923,3.1781907081604004
6.229593992233276,-0.03626570850610733,0.17277488112449646,-0.005147874355316162,0.27090997286025326,0.08409060436193404,-0.44239018345758924,0.08092817664146423,-0.2676083445549011,-0.9601231217384338,0.602755069732666,0.3045176863670349,2.689284086227417
6.251235008239746,0.00697978213429451,0.15162265300750732,0.1861029863357544,0.3347985571548535,0.03673965726480942,-0.14550062529275493,0.034691937267780304,-0.328578919172287,-0.9438391923904419,0.21997205913066864,0.40990349650382996,1.9549946784973145
6.269877910614014,0.14847251772880554,0.07898801565170288,0.10010188817977905,0.3302755033716084,0.016755668536914122,0.02030712013665781,0.015849333256483078,-0.32430365681648254,-0.9458202719688416,-0.10251916199922562,0.15061387419700623,1.2109551429748535
6.288540840148926,0.0011350689455866814,0.0007161498069763184,0.012478411197662354,0.32504373309553714,-0.004176706153664581,0.12434715719902832,-0.003957988694310188,-0.3193502426147461,-0.9476284980773926,-0.15759114921092987,0.0931929349899292,0.6896071434020996
6.309948921203613,-0.11059074848890305,-0.2085210680961609,-0.01517033576965332,0.30836683837666506,-0.04559737532701763,0.1597372908706115,-0.043431516736745834,-0.3035029172897339,-0.9518401622772217,-0.42379599809646606,-0.3422798216342926,0.16278263926506042
6.328545093536377,-0.10604817420244217,0.1386803388595581,-0.08273142576217651,0.362494270455588,-0.06952772295140242,0.12465335356605935,-0.06495711952447891,-0.3546075224876404,-0.9327561855316162,0.5272506475448608,0.06827551126480103,-0.7162790894508362
6.351212978363037,0.22306564450263977,0.11634954810142517,-0.006560921669006348,0.3587684206874924,-0.02814484507813835,0.07040753508127795,-0.0263493824750185,-0.35112133622169495,-0.9359591603279114,0.14256344735622406,0.34658363461494446,1.287559986114502
6.369616985321045,0.10309933871030807,0.006396561861038208,0.07180666923522949,0.3928092252564742,-0.01694239277140379,0.1616071552934862,-0.015651267021894455,-0.38278520107269287,-0.9237048029899597,-0.38784274458885193,0.4970354735851288,0.9361754059791565
6.390524864196777,0.033751554787158966,0.01476508378982544,-0.017747044563293457,0.40747889841468243,-0.013112286885671216,0.21781039241535402,-0.012038345448672771,-0.3962959051132202,-0.9180439114570618,0.6996884346008301,0.19299446046352386,0.5512900948524475
6.409614086151123,0.06907857209444046,-0.1112612783908844,0.008237779140472412,0.4120827342484648,-0.027083083215222,0.31456478032747626,-0.024812888354063034,-0.4005185663700104,-0.9159526228904724,-0.38302329182624817,0.01886526308953762,0.9402111172676086
6.427889823913574,0.09402474015951157,0.07179149985313416,-0.11003285646438599,0.44211870662996117,-0.041761591003054925,0.4093906550791458,-0.03773512691259384,-0.42785540223121643,-0.903059184551239,-1.4307236671447754,0.34802353382110596,1.714986801147461
6.451862812042236,0.05179748311638832,0.06569385528564453,0.04181307554244995,0.3795674243259438,-0.038970705473911176,0.5876710161420685,-0.036187805235385895,-0.3705187141895294,-0.9281197786331177,0.09012950956821442,0.3100144565105438,0.5458246469497681
6.467905044555664,0.13508296012878418,0.02212199568748474,0.13833534717559814,0.3396986409984125,-0.02956853355153538,0.6297673388716627,-0.02787478081882,-0.33320295810699463,-0.9424430131912231,-0.5109867453575134,0.2660526931285858,0.6375234127044678
6.487982988357544,0.08546504378318787,-0.10037478804588318,0.35444706678390503,0.30131997967815904,-0.05990868019111559,0.6921782190136093,-0.05717531591653824,-0.2967809736728668,-0.9532324075698853,-1.0090758800506592,-0.4545970857143402,0.4305834174156189
6.509468078613281,-0.1074044406414032,-0.27717918157577515,0.5576715469360352,0.08962473006333206,-0.17869765468072163,0.6006743004727003,-0.17703470587730408,-0.08950479328632355,-0.9801263213157654,-3.407017946243286,-1.622773289680481,-1.9165455102920532
6.527976989746094,-0.8564947843551636,0.3175315856933594,0.47810614109039307,-0.1917902117256754,-0.4672579401176854,0.17992384778909032,-0.4421808421611786,0.19061659276485443,-0.8764367699623108,-4.633181571960449,-3.273702621459961,-5.008602142333984
6.5508317947387695,-0.9618251919746399,0.8041950464248657,0.3146772086620331,-0.48900292060513656,-1.188040660997035,-1.1746297256455094,-0.8189212083816528,0.4697459042072296,-0.3297071158885956,-10.978080749511719,0.657875120639801,-5.139946937561035
6.570458889007568,-0.01690918207168579,0.7884927988052368,0.13885825872421265,-0.17563509199678987,-1.3536801232652698,-1.472464763945355,-0.9614996910095215,0.1747334897518158,-0.21210046112537384,2.4943888187408447,-1.5059494972229004,-1.557892084121704
6.589669942855835,0.20191234350204468,0.6020735502243042,-0.1586037427186966,-0.08294274805744536,-1.4354632557403424,-1.5534428344470443,-0.9874502420425415,0.08284767717123032,-0.1344565451145172,-1.722747564315796,-0.2777346968650818,-1.1706770658493042
6.608305931091309,0.2345154881477356,0.8869413733482361,-0.306190550327301,0.03272969331519283,-1.450331317959916,-1.7549326188958392,-0.9922212958335876,-0.03272385150194168,-0.12010951340198517,-1.707443356513977,0.3036669194698334,-1.2540944814682007
6.630845069885254,0.00757753849029541,0.8731527328491211,-0.29016250371932983,-0.046908360174763554,-1.4547484824544932,-1.7464245385577004,-0.9921814799308777,0.04689116030931473,-0.11566019058227539,1.7218929529190063,-0.659846305847168,2.146866798400879
6.649822950363159,-0.36482691764831543,0.6434029340744019,-0.12303869426250458,-0.257425816191179,-1.428584548242166,-1.4910013762498238,-0.9572860598564148,0.25459203124046326,-0.13706259429454803,3.482083559036255,0.06745827198028564,2.7471132278442383
6.668852806091309,-0.5513708591461182,0.05089128017425537,0.34928011894226074,-0.47298759171572347,-1.2104221520994574,-1.0784942810841558,-0.8330286145210266,0.45554789900779724,-0.31391024589538574,2.071171760559082,1.681073546409607,2.9840121269226074
6.69051194190979,-0.33711183071136475,-0.21296995878219604,0.5442633032798767,-0.7258963188480971,-0.8164228877532697,-0.7039714009566801,-0.5449987649917603,0.6638060808181763,-0.5121892690658569,1.0228652954101562,1.092612862586975,3.0479629039764404
6.708980083465576,-0.48095428943634033,-0.39966219663619995,0.6594380736351013,-0.8207134505427405,-0.485656091394418,-0.354507173859351,-0.31820955872535706,0.7316323518753052,-0.6028737425804138,0.24189607799053192,0.8641973733901978,1.8663114309310913
6.727972984313965,-0.36285459995269775,-0.6007950901985168,0.5335713624954224,-0.8854438375242406,-0.3865479273729208,-0.26272369817493824,-0.23861642181873322,0.7741959691047668,-0.5862447619438171,-0.5474624633789062,-0.7364717125892639,-0.5292805433273315
6.750866889953613,-0.8731532692909241,-0.2128860354423523,0.35041993856430054,-0.7968960525662683,-0.8803862993951922,-0.7033055195997432,-0.5388646125793457,0.7151901125907898,-0.4451160132884979,-1.9899823665618896,-0.984001874923706,-4.2705535888671875
6.769514083862305,-0.7754520177841187,0.4298322796821594,-0.1549662947654724,-0.4873312842999382,-1.3588552718344449,-1.2645831102574698,-0.8638150095939636,0.4682695269584656,-0.1858692616224289,-2.308215856552124,-0.8295077085494995,-4.48921012878418
6.787962913513184,0.04880458116531372,0.6678273677825928,-0.2902372479438782,-0.18812342913557908,-1.4789612865120578,-1.50318948837789,-0.9782174825668335,0.18701575696468353,-0.09008803963661194,-1.1595370769500732,-0.2910783886909485,-2.118542194366455
6.810532093048096,0.3919394612312317,0.8189727067947388,-0.3970775008201599,0.054916511132982564,-1.5238619189565539,-1.5110723194676767,-0.9973930716514587,-0.05488891154527664,-0.046846456825733185,0.493316113948822,-0.0770367681980133,-1.564571738243103
6.829436779022217,0.2398625612258911,0.8093128204345703,-0.27601224184036255,0.0749163425731813,-1.5364486085721312,-1.4075767942088975,-0.9966069459915161,-0.0748462826013565,-0.03424464166164398,1.9282628297805786,-0.20277835428714752,1.1463520526885986
6.848496913909912,-0.1390000581741333,0.5854334831237793,-0.027645645663142204,-0.016343311843234728,-1.551853260461123,-1.18587786687285,-0.999687135219574,0.016342584043741226,-0.01893940567970276,2.96272611618042,0.2693081200122833,0.8482304811477661
6.867887020111084,-0.214674174785614,0.09675668179988861,0.531154990196228,-0.14321906812040824,-1.467029416416016,-0.9990213226302381,-0.9844378232955933,0.1427299529314041,-0.10252030193805695,2.671837568283081,0.7273057103157043,1.4550986289978027
6.890460014343262,0.1434345841407776,-0.41832029819488525,0.44863444566726685,-0.2100687733507337,-1.4262785091354984,-0.6702273198603549,-0.9678214192390442,0.20852716267108917,-0.14084936678409576,1.260256290435791,0.5493800640106201,0.22156085073947906
6.909052848815918,-0.03697860240936279,-0.109892338514328,0.4691196084022522,-0.2620195323573598,-1.3826041594222032,-0.5618157493365618,-0.9488154649734497,0.2590316832065582,-0.18069791793823242,0.638609766960144,0.7810288667678833,0.6416967511177063
6.930452823638916,-0.4076131582260132,-0.10989797115325928,0.4260362982749939,-0.2854028358119433,-1.37981937658435,-0.4613041123104804,-0.9421030879020691,0.2815439999103546,-0.18213972449302673,-0.4120379388332367,0.14224977791309357,0.06445802003145218
6.948898792266846,-0.2971397638320923,-0.12042844295501709,0.2134322077035904,-0.29247271168261635,-1.3904909212145944,-0.4578495823517823,-0.942011296749115,0.2883208096027374,-0.17171458899974823,0.10677146166563034,-0.33792757987976074,-0.0028690272010862827
6.971340894699097,-0.5241125822067261,-0.006455898284912109,0.009932994842529297,-0.284541408731494,-1.4383288994631058,-0.41207022380439795,-0.9513819217681885,0.2807173430919647,-0.12676948308944702,0.07058928906917572,-0.36868226528167725,0.027256999164819717
6.989799976348877,-0.5684540867805481,0.04405292868614197,0.013822317123413086,-0.3084561540564934,-1.4519952038926096,-0.40011136245338147,-0.9460875988006592,0.30358800292015076,-0.11292804777622223,0.7236251831054688,-0.6251626014709473,0.4901871681213379
7.009829044342041,-0.44767630100250244,0.12717995047569275,0.02272653579711914,-0.4245524814763913,-1.467740374969027,-0.4122460379551146,-0.9063887596130371,0.41191303730010986,-0.09374085068702698,-0.010133959352970123,0.09013616293668747,1.4009690284729004
7.028317928314209,-0.10830259323120117,-0.12322878837585449,0.02275991439819336,-0.5495721565489747,-1.4291856721139296,-0.3397194695512421,-0.8442121148109436,0.522322416305542,-0.120355024933815,0.11043757200241089,0.09738200157880783,1.1552824974060059
7.049047946929932,-0.049599647521972656,0.06177043914794922,-0.007444605231285095,-0.6566933166972383,-1.430075503721738,-0.37119373264950767,-0.7841863632202148,0.610501229763031,-0.11108557134866714,-0.2664262056350708,0.2761538624763489,0.6665549874305725
7.067831039428711,0.19159722328186035,-0.048065245151519775,-0.05960339307785034,-0.7078375507752281,-1.3985574494887354,-0.3536855232386254,-0.7485278844833374,0.6501923203468323,-0.1302158385515213,0.38267630338668823,0.2921660244464874,0.3413838744163513
7.090322017669678,0.41090041399002075,-0.20068234205245972,0.05257345736026764,-0.7096245056374249,-1.2965233891695545,-0.27595358614926246,-0.730251669883728,0.6515489816665649,-0.20546641945838928,0.6828737854957581,0.4579492509365082,-0.019109105691313744
7.108643054962158,0.2568320631980896,-0.10083866119384766,-0.015365898609161377,-0.6632748936457026,-1.237887353600635,-0.17689727415447098,-0.7447167038917542,0.6157007217407227,-0.25750693678855896,0.5647413730621338,-0.9327268600463867,-0.33768266439437866
7.131284952163696,0.4429436922073364,0.27359795570373535,0.02502933144569397,-0.6630216406522186,-1.18892359901215,-0.24303602341642547,-0.7313653230667114,0.6155011057853699,-0.2937059700489044,2.4630649089813232,-0.24400435388088226,0.9843152165412903
7.151721954345703,0.09693461656570435,-0.15150725841522217,0.10339763760566711,-0.6776395220803059,-1.0892367152219322,-0.10920973037952686,-0.6904557943344116,0.6269558072090149,-0.36082857847213745,0.590844452381134,0.06805695593357086,0.24573898315429688
7.170398950576782,-0.07735121250152588,-0.11590373516082764,0.05226176977157593,-0.6543267777893137,-1.0535148041444102,-0.10788661934893916,-0.6896471381187439,0.6086252331733704,-0.39238008856773376,0.23911525309085846,0.37549740076065063,-0.5163071155548096
7.188277959823608,-0.05799371004104614,-0.2223767638206482,0.17287695407867432,-0.5975666442241001,-1.0456811749729236,-0.14121939596018096,-0.7153217196464539,0.5626324415206909,-0.41443872451782227,-0.2612367272377014,0.4326809048652649,-1.1261889934539795
7.2111430168151855,-0.1237802505493164,-0.1457008421421051,0.25965091586112976,-0.46978252864283526,-1.0820593870018214,-0.3570768173079536,-0.7872763276100159,0.4526923894882202,-0.418647438287735,-1.5437352657318115,0.6597596406936646,-2.176551580429077
7.230499982833862,-0.10552018880844116,0.11958551406860352,0.18849992752075195,-0.367104981516018,-1.1638807293544933,-0.7179928725731198,-0.8571569323539734,0.3589148223400116,-0.36940810084342957,-3.1185789108276367,0.34878209233283997,-2.286557674407959
7.249663829803467,0.05306059122085571,0.3093503713607788,0.08721104264259338,-0.2474896166627229,-1.2796087277930346,-1.1025447777819015,-0.928716778755188,0.24497084319591522,-0.2783425450325012,-2.5021748542785645,-0.5381599068641663,-2.4418301582336426
7.270289897918701,0.10252654552459717,0.6086465716362,-0.169272780418396,-0.06054929858932081,-1.3847618514313644,-1.3145442457108472,-0.9809445738792419,0.06051230803132057,-0.1846243143081665,-1.0763659477233887,-0.8167642951011658,-1.7367178201675415
7.289757966995239,0.23262161016464233,0.6105601191520691,-0.3649280071258545,-0.0008289793662627526,-1.4333695124702817,-1.45670820591337,-0.9905714988708496,0.000828979245852679,-0.1369946002960205,-1.3096253871917725,-0.07226145267486572,0.029477979987859726
7.30858588218689,0.3305690288543701,0.5308650732040405,-0.38931238651275635,-0.05393889359722383,-1.4320890599522766,-1.564955286687658,-0.9889553785324097,0.05391274392604828,-0.13806185126304626,-0.47703588008880615,-0.0709717720746994,0.5760697722434998
7.329598903656006,-0.14645475149154663,0.5624939203262329,-0.355282723903656,-0.16396299437406148,-1.442052917341311,-1.526570483385743,-0.9784232378005981,0.1632293164730072,-0.1266661435365677,1.1498297452926636,0.012234880588948727,1.3635590076446533
7.347969055175781,-0.8590182065963745,0.43856698274612427,0.028238937258720398,-0.34205086756238295,-1.4082289425987393,-1.3621934863837417,-0.9296477437019348,0.3354198634624481,-0.1524759978055954,2.0836172103881836,0.41308367252349854,2.284548044204712
7.369822978973389,0.01044684648513794,-0.08816146850585938,0.2990461587905884,-0.5409846537007781,-1.1685011275185087,-0.9823005938540805,-0.7887672185897827,0.5149803161621094,-0.33562150597572327,1.409126877784729,1.0626875162124634,2.3088107109069824
7.388394832611084,-0.024022459983825684,-0.2868198752403259,0.4310342073440552,-0.647846015355439,-0.9375943693132425,-0.7061548582742707,-0.6428019404411316,0.6034702658653259,-0.4718361794948578,1.4608486890792847,0.7437371015548706,1.5596123933792114
7.409855842590332,-0.2698916792869568,-0.39404040575027466,0.5417497158050537,-0.6430477738247846,-0.7760584217546306,-0.5222045756050984,-0.5605679154396057,0.5996372699737549,-0.5711380839347839,0.1850920021533966,0.07918435335159302,0.03714827448129654
7.428590774536133,-0.34247350692749023,-0.3965141773223877,0.3690553307533264,-0.6503153605629091,-0.8617314972334192,-0.6433795829542065,-0.6040597558021545,0.6054374575614929,-0.5182252526283264,-1.2081820964813232,-0.48321789503097534,-1.3268483877182007
7.447897911071777,-0.4834964871406555,-0.02849256992340088,0.1166384220123291,-0.5795620740374977,-1.1105215815543477,-0.9326584285871401,-0.749627411365509,0.5476575493812561,-0.3716585338115692,-2.0128769874572754,-1.1572608947753906,-2.3402957916259766
7.470495939254761,-0.036268413066864014,0.05090358853340149,-0.013416111469268799,-0.3772958924353151,-1.3052597032700635,-1.1960496062463546,-0.8970813155174255,0.3684079051017761,-0.2439691424369812,-2.8492391109466553,-0.010845760814845562,-1.9804844856262207
7.488867998123169,0.08885210752487183,0.4418962001800537,-0.07771432399749756,-0.22661870510098547,-1.420768794482572,-1.5028362414842527,-0.9634859561920166,0.2246839702129364,-0.14564378559589386,-1.563950777053833,-0.41930994391441345,-2.50846791267395
7.507862091064453,0.19023370742797852,0.7404692769050598,-0.42400050163269043,0.010214367383241683,-1.5081803866412575,-1.5629166554723632,-0.997988224029541,-0.010214189998805523,-0.06257177144289017,0.41035377979278564,-0.8012255430221558,-1.9506068229675293
7.53029990196228,0.04956537485122681,0.7850366830825806,-0.47823578119277954,0.059531761635521374,-1.5469582121700187,-1.5356248057855522,-0.9979449510574341,-0.05949660390615463,-0.02379363402724266,-0.18003344535827637,0.4466124176979065,1.0019451379776
7.548746109008789,-0.31233644485473633,0.6285152435302734,-0.2799752354621887,-0.10636538205626248,-1.5018320445195905,-1.431558653944906,-0.991985023021698,0.10616493225097656,-0.0685201957821846,1.7333247661590576,0.37715762853622437,2.3554258346557617
7.5685179233551025,-0.4385489821434021,0.3000330924987793,0.04147657752037048,-0.3423255177892475,-1.3202090738416092,-1.2523108567391168,-0.9125559329986572,0.3356785774230957,-0.2335847169160843,1.4802780151367188,1.7200826406478882,3.1824355125427246
7.590516090393066,-0.43114590644836426,-0.1408718228340149,0.49303191900253296,-0.6269626974844413,-0.9012669406659254,-0.8249346688756248,-0.6349856853485107,0.5866878032684326,-0.5025838613510132,1.756369709968567,1.6709039211273193,3.229151964187622
7.608558893203735,-0.46559563279151917,-0.3996800184249878,0.7408974170684814,-0.7004186376202355,-0.5474369358607112,-0.522276302276583,-0.3979603350162506,0.6445378065109253,-0.652838945388794,0.35434868931770325,1.3973337411880493,1.3005470037460327
7.627957820892334,-0.5466558933258057,-0.587649941444397,0.7148028016090393,-0.6901211678672731,-0.47243822936564334,-0.49575604612178414,-0.3509271740913391,0.636630654335022,-0.6866961121559143,-0.7586364150047302,0.449585497379303,-1.1786110401153564
7.651177883148193,-0.627135157585144,-0.23838168382644653,0.6072242856025696,-0.5750331990758317,-0.8081580335334726,-0.7482035337447063,-0.6067363619804382,0.5438626408576965,-0.5797279477119446,-1.9149185419082642,-2.0614097118377686,-2.7295851707458496
7.670340061187744,-0.30638760328292847,0.16732221841812134,0.0902632474899292,-0.4386175189321974,-1.1757978436774086,-1.0964613339248688,-0.8356260657310486,0.4246882498264313,-0.3483808934688568,-1.646229863166809,-1.9178588390350342,-2.484067440032959
7.68851900100708,-0.14156317710876465,0.43120449781417847,-0.19945502281188965,-0.2818317014260237,-1.445825389465465,-1.345292314784724,-0.9530566334724426,0.27811554074287415,-0.11972832679748535,-1.649493932723999,-1.8708900213241577,-2.0974745750427246
7.710207939147949,0.2800651788711548,1.0382179021835327,-1.1012495756149292,-0.017004389368454696,-1.6413835873236138,-1.4413774469952731,-0.9973655939102173,0.01700356975197792,0.07051846385002136,1.680075764656067,-1.1806182861328125,-1.511334776878357
7.728972911834717,-0.05374652147293091,0.7210142612457275,-0.7396506071090698,-0.0035645788646118588,-1.6708746166316162,-1.2925400365028064,-0.9949901700019836,0.00356457126326859,0.09991069883108139,0.8746198415756226,1.1849409341812134,0.5395658612251282
7.751346111297607,-0.4121755361557007,0.5038403272628784,-0.1262061595916748,-0.18425795759252803,-1.431507033998264,-1.197874837290211,-0.9735514521598816,0.1832171082496643,-0.136489138007164,0.6995396614074707,2.1978111267089844,2.377474546432495
7.769786834716797,-0.5637617111206055,0.1639212965965271,0.3068302571773529,-0.4398968133427464,-1.1552507678892523,-1.0629383959384722,-0.8277941346168518,0.4258460998535156,-0.3652561604976654,0.3676929175853729,2.3221254348754883,3.320638418197632
7.787941932678223,-0.5697042346000671,-0.17936694622039795,0.5128970742225647,-0.6826601451811328,-0.7754642396667464,-0.7149311215986391,-0.5431651473045349,0.6308592557907104,-0.5540652871131897,1.2874510288238525,1.6847221851348877,3.8026325702667236
7.808499813079834,-0.4590798020362854,-0.5672183632850647,0.7036810517311096,-0.7937903928770416,-0.32997322362181847,-0.291323581109267,-0.2271842658519745,0.7130160331726074,-0.6633214950561523,0.15695291757583618,1.4548267126083374,2.294863224029541
7.829433917999268,-0.34251517057418823,-0.6481964588165283,0.601657509803772,-0.8360599795348839,-0.17559002536910942,-0.15009746771072255,-0.11711012572050095,0.7420075535774231,-0.6600834727287292,-0.11128177493810654,-0.6404443979263306,-0.34844303131103516
7.850500106811523,-0.5634713172912598,-0.2840511202812195,0.24499303102493286,-0.8186858495463485,-0.5110289464223031,-0.4366470810259381,-0.3341269791126251,0.7302486300468445,-0.5958994030952454,0.23908545076847076,-2.54268217086792,-3.3344812393188477
7.871365070343018,-0.8482034206390381,0.023083388805389404,0.050145089626312256,-0.5775923232956893,-1.0669616105339879,-0.9459369173314602,-0.7336753010749817,0.5460084080696106,-0.40446943044662476,-2.8129208087921143,-2.0407135486602783,-4.530261516571045
7.888885974884033,-0.43552887439727783,0.41734400391578674,-0.11368942260742188,-0.3343655073106377,-1.333324930373217,-1.2199795379499068,-0.9181088805198669,0.32816988229751587,-0.22221754491329193,-1.29637610912323,-1.4754365682601929,-2.8596041202545166
7.908339977264404,-0.022393763065338135,0.6053861975669861,-0.29221975803375244,-0.14922583282762472,-1.486290876566824,-1.3941274759671243,-0.9853577017784119,0.14867261052131653,-0.08346687257289886,-0.3289852440357208,-1.1104958057403564,-1.7293033599853516
7.931014060974121,0.31865179538726807,0.7847784161567688,-0.5762920379638672,0.06156604967113556,-1.6014206151957502,-1.4322456172779725,-0.9976375699043274,-0.06152716279029846,0.03056149370968342,-0.11831195652484894,-0.539948046207428,-1.207826852798462
7.949423789978027,0.036628663539886475,0.8243141174316406,-0.5923665761947632,0.057163936414199645,-1.623677375731811,-1.3866533913474937,-0.9969711303710938,-0.05713281035423279,0.05277007818222046,1.2186429500579834,0.1985861212015152,1.2364420890808105
7.967879772186279,-0.3068438768386841,0.6054872274398804,-0.38353753089904785,-0.14079656646489153,-1.5247390647842172,-1.3385422252843868,-0.9890546202659607,0.14033184945583344,-0.04558538645505905,0.7795067429542542,1.2137054204940796,2.6201224327087402
7.990636825561523,-0.6725109219551086,0.11777091026306152,0.11740261316299438,-0.4648622102827612,-1.249477844500874,-1.0985460578048414,-0.8481343388557434,0.4482996463775635,-0.2823043167591095,1.3832813501358032,2.165623426437378,3.3262009620666504
8.010118007659912,-0.556492030620575,-0.25658881664276123,0.4622499346733093,-0.7145608212119718,-0.8487417352790095,-0.7479480820436133,-0.5668753385543823,0.6552857160568237,-0.4992524981498718,1.01820969581604,1.9777206182479858,3.468808650970459
8.028714895248413,-0.3118537664413452,-0.53397536277771,0.6336045265197754,-0.8368205552242344,-0.4244846009895942,-0.41455739198855424,-0.2758690416812897,0.7425171732902527,-0.6103805899620056,-0.1240013986825943,1.448479413986206,1.701268196105957
8.050943851470947,-0.4121606945991516,-0.43864530324935913,0.49211859703063965,-0.8608678760390926,-0.3887064661135542,-0.3957296798003512,-0.24701902270317078,0.7584084868431091,-0.6031568050384521,0.16034823656082153,-1.026113748550415,-1.4170618057250977
8.070314884185791,-0.7875195145606995,-0.2308465838432312,0.47921252250671387,-0.7075715899822185,-0.7653699600153783,-0.6683942902078228,-0.526491105556488,0.6499902606010437,-0.5480144023895264,-0.8503720760345459,-1.6245896816253662,-3.4053900241851807
8.08946704864502,-0.7522805333137512,0.13623294234275818,0.05902862548828125,-0.49722369141516254,-1.175016618245546,-1.049840703402301,-0.8109672665596008,0.47698724269866943,-0.33884429931640625,-1.2325425148010254,-1.186246633529663,-3.247714042663574
8.108285903930664,-0.11391419172286987,0.33757728338241577,-0.1629435420036316,-0.33401972211219966,-1.3753769267285083,-1.3590117728506899,-0.9267505407333374,0.32784321904182434,-0.18344619870185852,-2.1426453590393066,-0.6458966732025146,-1.9268561601638794
8.130951881408691,0.11019325256347656,0.5796204209327698,-0.3756831884384155,-0.12242155455980695,-1.5056693105403245,-1.545671268044496,-0.9904118180274963,0.12211599200963974,-0.06459391862154007,-0.21313759684562683,-0.8155150413513184,-1.8467357158660889
8.148854970932007,0.2877228260040283,0.5979958772659302,-0.44901180267333984,-0.006557349830112265,-1.579332960776854,-1.5188032341544484,-0.9999420046806335,0.006557303015142679,0.00853634625673294,0.48746418952941895,-0.3695337176322937,-0.2027435302734375
8.167694091796875,-0.03021407127380371,0.4766927659511566,-0.31906449794769287,-0.07701796488726027,-1.5599640097895768,-1.5562430868772148,-0.9969772100448608,0.0769418478012085,-0.010799995623528957,-1.1402101516723633,0.7399588227272034,1.3727285861968994
