timestamp,acceleration_x,acceleration_y,acceleration_z,attitude_pitch,attitude_roll,attitude_yaw,gravity_x,gravity_y,gravity_z,rotation_x,rotation_y,rotation_z
0.0,-0.02163141965866089,-0.016996920108795166,-0.0436955988407135,-0.4604994213617922,-1.1585787864541865,-1.6561220257499125,-0.8207910060882568,0.4443955719470978,-0.35890746116638184,0.3946320116519928,0.029419399797916412,0.32936879992485046
0.02006387710571289,-0.014795184135437012,-0.031439393758773804,-0.0321616530418396,-0.46328638070267747,-1.1529777858676036,-1.6448933156844936,-0.8176328539848328,0.4468904733657837,-0.36299511790275574,0.4342310130596161,0.04449271410703659,0.3411569595336914
0.03915977478027344,-0.024431884288787842,-0.036669641733169556,-0.03145870566368103,-0.4657913266863301,-1.1462799895555467,-1.6331869043751752,-0.8141606450080872,0.44912996888160706,-0.3680010437965393,0.33699533343315125,0.054210856556892395,0.3190290331840515
0.05995798110961914,-0.026271283626556396,-0.04897734522819519,-0.014905720949172974,-0.4688950884143882,-1.1407061737072604,-1.6247510242213676,-0.8108258247375488,0.4519008994102478,-0.3719502389431,0.20582164824008942,0.10878746211528778,0.27257460355758667
0.0796818733215332,-0.03235548734664917,-0.04068577289581299,0.009560763835906982,-0.472089512858784,-1.1360263206342451,-1.6199550184822271,-0.807762861251831,0.4547482430934906,-0.3751307427883148,0.04649413749575615,0.1468283087015152,0.2111770212650299
0.09958600997924805,-0.015404760837554932,-0.042938560247421265,0.014773696660995483,-0.4756502099686896,-1.1325131615050263,-1.6186590706442305,-0.8049687743186951,0.45791658759117126,-0.3772766888141632,-0.07845915853977203,0.1399347335100174,0.15895801782608032
0.1200108528137207,-0.005781948566436768,-0.0394173264503479,0.009117096662521362,-0.4790385018852818,-1.1300890967351038,-1.619038859975008,-0.8026439547538757,0.4609261155128479,-0.3785628378391266,-0.09759148210287094,0.11937715858221054,0.13860905170440674
0.1435248851776123,-0.005037844181060791,-0.02513393759727478,0.017651855945587158,-0.48179019073841756,-1.1282819179524817,-1.6199673854939083,-0.8008092641830444,0.4633663296699524,-0.37946817278862,-0.09030380100011826,0.14635862410068512,0.06253181397914886
0.16127681732177734,-0.01260310411453247,-0.024188607931137085,0.03526151180267334,-0.4834792587692467,-1.1254180967784542,-1.6214822633942734,-0.7990119457244873,0.4648624658584595,-0.38142234086990356,-0.09385182708501816,0.22721920907497406,0.07718367129564285
0.17995977401733398,-0.027610719203948975,-0.039112985134124756,0.043501198291778564,-0.4867234899627841,-1.1189670072197768,-1.6213774996815038,-0.7951737642288208,0.46773239970207214,-0.3859083652496338,-0.02664962410926819,0.4026688039302826,0.24852052330970764
0.1999378204345703,-0.0377689003944397,-0.0032173097133636475,0.03231000900268555,-0.4914863380645775,-1.107302343229361,-1.6169457758951682,-0.7886166572570801,0.47193682193756104,-0.39415690302848816,0.1868956834077835,0.547256350517273,0.33221542835235596
0.21996784210205078,-0.06331324577331543,0.05287390947341919,0.029936403036117554,-0.4954019966052189,-1.0914404569188019,-1.609308350295903,-0.7806198596954346,0.4753853678703308,-0.405760258436203,0.2527114450931549,0.6785832047462463,0.36435312032699585
0.24000167846679688,-0.06128591299057007,-0.0035220086574554443,-0.008475571870803833,-0.49988153480915654,-1.0731833598576572,-1.60004890915287,-0.7712031006813049,0.47932156920433044,-0.4189229905605316,0.2550249397754669,0.6806977987289429,0.40815094113349915
0.2600088119506836,-0.036451101303100586,0.060970306396484375,-0.03263348340988159,-0.5041885281824149,-1.0554335903486365,-1.5903132894764078,-0.7618430256843567,0.483097106218338,-0.4315235912799835,0.31071150302886963,0.6243468523025513,0.3864215910434723
0.27999401092529297,-0.0370296835899353,0.045360565185546875,-0.028965353965759277,-0.5096865000881933,-1.0402882281964219,-1.581545390949869,-0.7529178857803345,0.4879036247730255,-0.44166144728660583,0.09478247910737991,0.49273309111595154,0.44236472249031067
0.3000798225402832,-0.034562647342681885,0.005492061376571655,-0.0318942666053772,-0.5178832158622265,-1.0274609361929827,-1.5737792226560228,-0.7437424659729004,0.49504202604293823,-0.4492000341415405,0.15943673253059387,0.3993211090564728,0.6199808716773987
0.3199896812438965,0.010754764080047607,0.10608625411987305,-0.10015809535980225,-0.5274887805014468,-1.0143138346203544,-1.5603961869481366,-0.7337009906768799,0.5033650398254395,-0.4564061760902405,0.30142754316329956,0.24820953607559204,0.7921122908592224
0.3400096893310547,0.017578601837158203,0.07163971662521362,-0.05725550651550293,-0.5387659471042151,-1.0029457791101315,-1.5454443749049644,-0.723633348941803,0.5130771398544312,-0.4616348147392273,0.21250101923942566,0.17539294064044952,0.8562865853309631
0.360044002532959,-0.011155247688293457,0.08846086263656616,-0.016070067882537842,-0.5526296161520001,-0.9927749010793623,-1.5320054346125171,-0.7128743529319763,0.5249272584915161,-0.46503946185112,0.034517303109169006,0.15000110864639282,0.9112498164176941
0.3799898624420166,-0.0040343403816223145,0.05624181032180786,-0.02107912302017212,-0.5682939011557792,-0.9829320625773313,-1.5191571051034847,-0.70133376121521,0.5381948947906494,-0.4674156904220581,0.02370978146791458,0.15183116495609283,0.9711037278175354
0.3992187976837158,-0.0020922422409057617,0.024731338024139404,-0.004413187503814697,-0.5835415075570446,-0.9724352977749355,-1.5053643733619235,-0.689527690410614,0.5509828329086304,-0.4700740575790405,0.10399335622787476,0.13614486157894135,0.9592782258987427
0.4200139045715332,0.016958653926849365,0.011267304420471191,-0.013107359409332275,-0.5973065034921656,-0.9604345904250269,-1.4883652536881296,-0.6775574088096619,0.5624173879623413,-0.47392258048057556,0.2963094711303711,0.11786094307899475,0.962125837802887
0.43999290466308594,0.009905099868774414,0.012057662010192871,0.019505351781845093,-0.6085551332126148,-0.9469140133235119,-1.4682494849197674,-0.6659109592437744,0.5716825723648071,-0.47931361198425293,0.3839482069015503,0.08792132884263992,0.9049537777900696
0.46000099182128906,0.024656295776367188,-0.017066478729248047,0.061086028814315796,-0.6186460369690929,-0.9338482679308989,-1.4487814319019738,-0.6549205780029297,0.579932689666748,-0.48451733589172363,0.2801932990550995,0.09702019393444061,0.8433104753494263
0.48000192642211914,0.022501468658447266,-0.0536310076713562,0.0799291729927063,-0.6287272835227984,-0.9228579688367382,-1.4332285360943549,-0.6448617577552795,0.5881158709526062,-0.4881322383880615,0.14577773213386536,0.08649831265211105,0.7186957597732544
0.49998998641967773,0.022963523864746094,-0.05676156282424927,0.07866328954696655,-0.6374556726964838,-0.9140099921174666,-1.420884200370188,-0.6364279389381409,0.595152735710144,-0.4906657934188843,0.1272168606519699,0.06720468401908875,0.573807418346405
0.5199899673461914,0.023766934871673584,-0.07722961902618408,0.09517747163772583,-0.6431906563932338,-0.9064420725667925,-1.409870511244672,-0.6299986839294434,0.5997515916824341,-0.49335551261901855,0.24785396456718445,0.014567217789590359,0.4188748002052307
0.5392448902130127,0.04024273157119751,-0.06411182880401611,0.08331489562988281,-0.6441885984638716,-0.8992526766185888,-1.3970043876134564,-0.6259666681289673,0.6005498766899109,-0.49749940633773804,0.48637673258781433,-0.0661347284913063,0.31111207604408264
0.5599908828735352,0.023388326168060303,-0.057932257652282715,0.08973497152328491,-0.641557940267581,-0.8922890527961729,-1.3824568422039416,-0.623714804649353,0.5984443426132202,-0.5028361082077026,0.5633085370063782,-0.10486242175102234,0.2114626169204712
0.5801839828491211,0.006198108196258545,-0.044398367404937744,0.08190184831619263,-0.6380589618390282,-0.8865238408330789,-1.3695450341944526,-0.6224243640899658,0.5956374406814575,-0.5077440738677979,0.46938493847846985,-0.08382894843816757,0.16771019995212555
0.5999948978424072,-0.02700936794281006,-0.04075205326080322,0.06432348489761353,-0.6354786414596221,-0.8817327566804263,-1.3593561461086539,-0.6211687922477722,0.5935627818107605,-0.5116958618164062,0.35840848088264465,-0.04857597500085831,0.16447247564792633
0.6199908256530762,-0.04109549522399902,-0.02146732807159424,0.017223834991455078,-0.6335111463878429,-0.8768002279401725,-1.3492441635719283,-0.6195337772369385,0.5919782519340515,-0.5154995322227478,0.4089137613773346,-0.07493443787097931,0.21669791638851166
0.6399908065795898,-0.05403637886047363,-0.012006223201751709,-0.0020982027053833008,-0.6314671520497608,-0.8713513251454521,-1.3372901615576103,-0.6176402568817139,0.590329647064209,-0.5196455121040344,0.4505316913127899,-0.09535741806030273,0.25483882427215576
0.6600499153137207,-0.054353177547454834,-0.040939271450042725,-0.0010758638381958008,-0.6302796410661589,-0.8662941037642762,-1.3247661528657624,-0.6155381798744202,0.5893706679344177,-0.5232161283493042,0.3935109078884125,-0.13316676020622253,0.29885903000831604
0.6797528266906738,-0.06629455089569092,-0.03776305913925171,0.012789607048034668,-0.6301256406730426,-0.8622760055453849,-1.3131282585456099,-0.6134998202323914,0.5892462730407715,-0.5257442593574524,0.3546938896179199,-0.141837477684021,0.31148889660835266
0.7000038623809814,-0.05335777997970581,-0.048636674880981445,0.011260688304901123,-0.6303071069474343,-0.858804091428699,-1.3022733373192465,-0.6115896701812744,0.589392900466919,-0.5278010964393616,0.33229219913482666,-0.15041853487491608,0.29499244689941406
0.7199897766113281,-0.03252130746841431,-0.0504002571105957,0.004062175750732422,-0.6297137806936756,-0.8543996684127624,-1.2900593517227397,-0.609522819519043,0.5889134407043457,-0.5307192802429199,0.45202988386154175,-0.1416301131248474,0.29698920249938965
0.7399897575378418,-0.0365983247756958,-0.04596322774887085,0.008073210716247559,-0.6277558034622446,-0.8497579178501364,-1.2774967621398658,-0.6079177856445312,0.5873299241065979,-0.5343030691146851,0.41160348057746887,-0.1261875033378601,0.23197203874588013
0.7599887847900391,-0.02944248914718628,-0.040851891040802,0.015212535858154297,-0.6266443193455983,-0.8460234269368478,-1.2677643064446438,-0.6064065098762512,0.5864299535751343,-0.5370020270347595,0.2500433027744293,-0.07154538482427597,0.20506760478019714
0.7800388336181641,-0.017268061637878418,-0.01982879638671875,-0.0013558268547058105,-0.6268746349044461,-0.8432000078589302,-1.2611319840651483,-0.6047869920730591,0.5866165161132812,-0.5386221408843994,0.1598147451877594,-0.0325261689722538,0.17594048380851746
0.7999897003173828,-0.01171785593032837,-0.017374515533447266,-0.02000027894973755,-0.6273298704513334,-0.840224107951549,-1.2553043056259718,-0.6029824614524841,0.5869851112365723,-0.5402413010597229,0.14797550439834595,-0.014544949866831303,0.18097886443138123
0.8218250274658203,0.0002924799919128418,-0.013599038124084473,-0.017078936100006104,-0.6284719369533048,-0.8375667965803,-1.250264291343834,-0.6010462641716003,0.5879093408584595,-0.5413926839828491,0.07123064249753952,-0.013334277085959911,0.17403261363506317
0.8399858474731445,-0.002874910831451416,-0.021210014820098877,0.0036513805389404297,-0.6309224199958072,-0.8361192947180757,-1.2473192388979075,-0.5991911888122559,0.5898898243904114,-0.5412948131561279,-0.048202995210886,-0.019161272794008255,0.1752779185771942
0.8600597381591797,0.004658520221710205,-0.031915485858917236,0.0055915117263793945,-0.6352679166738229,-0.8356313192297102,-1.2455565999128566,-0.5970200300216675,0.5933932065963745,-0.5398626923561096,-0.04918039217591286,-0.054315440356731415,0.2310008704662323
0.8800938129425049,0.003066122531890869,0.021852552890777588,-0.006819784641265869,-0.6392025904399695,-0.8356437315448001,-1.2428891463083516,-0.5952902436256409,0.5965556502342224,-0.5382851362228394,-0.001330389641225338,-0.12571825087070465,0.20908838510513306
0.9001288414001465,0.006373763084411621,0.0006740093231201172,0.0036203861236572266,-0.6418660946593967,-0.836358219075834,-1.2390367708141425,-0.5944932699203491,0.5986911654472351,-0.5367928743362427,0.03456634283065796,-0.19311931729316711,0.20080918073654175
0.9199767112731934,0.0013442039489746094,0.01562190055847168,0.006245255470275879,-0.6433982083925152,-0.8388389168511442,-1.235025826955042,-0.5951400399208069,0.5999176502227783,-0.5347028374671936,0.059150610119104385,-0.29363635182380676,0.1591821014881134
0.9400908946990967,0.01592397689819336,-0.019850850105285645,0.015679538249969482,-0.6444618356112607,-0.8432372005932924,-1.2314704530724643,-0.5970092415809631,0.6007683277130127,-0.531655490398407,0.07685182988643646,-0.356448233127594,0.13695140182971954
0.9599778652191162,0.0012529492378234863,-0.004558563232421875,0.029749631881713867,-0.6447252546550443,-0.8476766979176561,-1.227040848356901,-0.5992449522018433,0.6009788513183594,-0.5288950204849243,0.1637991964817047,-0.3508220314979553,0.11839545518159866
0.9799318313598633,-0.0075722336769104,-0.0045664310455322266,0.02140486240386963,-0.6436473550418436,-0.8510797685537481,-1.221530336583242,-0.6015281677246094,0.6001169681549072,-0.5272794365882874,0.23000450432300568,-0.3212881088256836,0.08502862602472305
0.9999408721923828,-0.019237160682678223,0.02601069211959839,0.01417475938796997,-0.6412858738678856,-0.853330089368591,-1.2155254023733866,-0.6037791967391968,0.5982263684272766,-0.5268546938896179,0.260654091835022,-0.26444000005722046,0.06507090479135513
1.0192627906799316,-0.008369624614715576,0.018744051456451416,-0.008685827255249023,-0.639007216338553,-0.8548639095093129,-1.2100018371445942,-0.6056135892868042,0.5963988304138184,-0.5268213748931885,0.23584401607513428,-0.22033166885375977,0.06548848003149033
1.0399558544158936,-0.010378837585449219,0.013338863849639893,-0.024141013622283936,-0.6368651894817041,-0.8555364694350419,-1.204356880775552,-0.6069307327270508,0.5946781039237976,-0.5272504687309265,0.2574060261249542,-0.19231991469860077,0.06921800971031189
1.060013771057129,-0.005895137786865234,0.0023458003997802734,-0.028638899326324463,-0.63446530022087,-0.8556621984961357,-1.1981695415053046,-0.6080727577209473,0.5927469730377197,-0.5281084179878235,0.2729867994785309,-0.1915482133626938,0.07121952623128891
1.0799360275268555,-0.003932595252990723,-0.010080814361572266,-0.012724697589874268,-0.6320497662340145,-0.8557743544694874,-1.192165663032628,-0.6092113256454468,0.5907998085021973,-0.5289774537086487,0.2513679563999176,-0.1738160103559494,0.05796846002340317
1.10005784034729,-0.0069446563720703125,-0.009147047996520996,-7.450580596923828e-05,-0.629797419571539,-0.8560004927152108,-1.1870294725639357,-0.6103344559669495,0.588981032371521,-0.529710590839386,0.2013845294713974,-0.15216921269893646,0.04069859907031059
1.1199407577514648,-0.008035600185394287,-0.012838661670684814,0.00908362865447998,-0.6278150797548705,-0.8567716175091062,-1.1834602294262953,-0.6116238832473755,0.5873779058456421,-0.5300033688545227,0.14771249890327454,-0.13357989490032196,0.004827206488698721
1.1399388313293457,-0.005752265453338623,-0.012499511241912842,0.006816267967224121,-0.6262279678759043,-0.8577072031848436,-1.1811336552520848,-0.6128238439559937,0.5860926508903503,-0.5300400853157043,0.10963120311498642,-0.09899751842021942,0.004289128817617893
1.159989833831787,0.003495335578918457,-0.016057312488555908,-0.004475235939025879,-0.6251580779283856,-0.8585991870153269,-1.1793365396979485,-0.6137706637382507,0.5852254629135132,-0.5299026966094971,0.08379146456718445,-0.09654874354600906,0.014981896616518497
1.1800537109375,0.007953941822052002,-0.01033782958984375,0.0024822354316711426,-0.62454038564008,-0.859903292473931,-1.1779163776034443,-0.6147350072860718,0.584724485874176,-0.5293376445770264,0.04495135694742203,-0.11727017909288406,0.01778392679989338
1.2000048160552979,0.015446484088897705,-0.006997644901275635,0.001974344253540039,-0.6244857944785367,-0.8622253749319624,-1.1772280043328829,-0.615986704826355,0.5846801996231079,-0.5279294848442078,0.0018974810373038054,-0.15355467796325684,0.028684422373771667
1.2199749946594238,0.022870898246765137,-0.016082048416137695,0.0057260990142822266,-0.6247557971740533,-0.8652784816562006,-1.1765361178814155,-0.6174754500389099,0.5848991870880127,-0.52594393491745,0.03200044110417366,-0.17995014786720276,0.04651771858334541
1.2400269508361816,0.01063072681427002,-0.005102574825286865,0.017705321311950684,-0.6248771470128732,-0.8679918533893098,-1.1750806050760891,-0.6188461184501648,0.5849976539611816,-0.5242207050323486,0.04105592519044876,-0.18988996744155884,0.03587482497096062
1.2599897384643555,-0.00462573766708374,-0.004885733127593994,0.021878957748413086,-0.6242712659881028,-0.8710066568657439,-1.1738626521446933,-0.6206947565078735,0.5845061540603638,-0.5225808620452881,0.06486128270626068,-0.20134413242340088,-0.01874038390815258
1.2799997329711914,-0.01783353090286255,-0.0059937238693237305,0.017749786376953125,-0.622516079769058,-0.874778350286687,-1.1732234696244965,-0.623447597026825,0.5830811262130737,-0.5208929777145386,0.09232313185930252,-0.23496350646018982,-0.08184413611888885
1.3000569343566895,0.008535563945770264,-0.009282171726226807,-0.014620721340179443,-0.6197300312793307,-0.87883984574645,-1.1718496778460108,-0.6268064975738525,0.5808154344558716,-0.5193910598754883,0.17171935737133026,-0.26970162987709045,-0.07338284701108932
1.319990873336792,0.011983752250671387,0.01601564884185791,-0.029304444789886475,-0.6160249520110297,-0.8822358893302376,-1.1683281614084913,-0.6302241086959839,0.5777953863143921,-0.5186232924461365,0.29551729559898376,-0.27046266198158264,-0.03790285810828209
1.3400077819824219,0.00915825366973877,0.017202913761138916,-0.01915562152862549,-0.612201222821066,-0.8843020956326405,-1.163012102138756,-0.6329986453056335,0.5746703147888184,-0.5187166333198547,0.2853218615055084,-0.23877592384815216,-0.005580377299338579
1.360015869140625,0.00614398717880249,0.004809319972991943,-0.005225777626037598,-0.6089648733991035,-0.885988484213475,-1.1581377083277262,-0.6353096961975098,0.5720187425613403,-0.5188220739364624,0.2173723727464676,-0.20873840153217316,-0.0052012186497449875
1.3800458908081055,0.008339345455169678,0.001725912094116211,0.017347633838653564,-0.6064755760558777,-0.8884209410784681,-1.1552139759170095,-0.6376728415489197,0.5699751377105713,-0.5181714296340942,0.1352657675743103,-0.2116977870464325,-0.03083861619234085
1.3999919891357422,0.02989596128463745,-0.014435291290283203,0.011373341083526611,-0.6043813103338936,-0.8921377529422184,-1.15346744613064,-0.6405221819877625,0.5682530999183655,-0.5165460109710693,0.12878817319869995,-0.2702041566371918,-0.04958093538880348
1.4200139045715332,0.03579074144363403,-0.006375372409820557,0.0008872747421264648,-0.6013208146829304,-0.896802782284489,-1.1511851382714315,-0.6442807912826538,0.5657321214675903,-0.5146353840827942,0.21443484723567963,-0.32189878821372986,-0.06972411274909973
1.4400038719177246,0.04631221294403076,-0.009356677532196045,0.0037007927894592285,-0.5969673230528979,-0.9019876612590315,-1.1478555820744811,-0.648866593837738,0.5621368885040283,-0.512810230255127,0.28149619698524475,-0.3913051187992096,-0.10718123614788055
1.4599909782409668,0.05010044574737549,0.0007791519165039062,0.009935975074768066,-0.5909233290164808,-0.9077085218463555,-1.1432102644393405,-0.6544553637504578,0.5571280121803284,-0.5111718773841858,0.36901387572288513,-0.44713640213012695,-0.13297022879123688
1.4799919128417969,0.06277972459793091,-0.02189236879348755,0.023534178733825684,-0.5834049004698543,-0.9141153402938931,-1.1380026438940398,-0.6610158085823059,0.550868809223175,-0.5095112323760986,0.43719086050987244,-0.4811473786830902,-0.19385957717895508
1.499997854232788,0.07269030809402466,-0.03461098670959473,0.048641085624694824,-0.574136745350288,-0.9208531358905939,-1.1326581881098239,-0.6684697866439819,0.5431101322174072,-0.5081137418746948,0.47579655051231384,-0.49330586194992065,-0.28023675084114075
1.5199918746948242,0.05966728925704956,-0.03804558515548706,0.05257308483123779,-0.5629841512749428,-0.9285018450034473,-1.128326762309264,-0.6771448254585266,0.5337121486663818,-0.5065830945968628,0.49032753705978394,-0.5008712410926819,-0.3889155685901642
1.539999008178711,0.07133454084396362,-0.016842901706695557,0.02278316020965576,-0.5509308233297155,-0.93780597338555,-1.1253982529232842,-0.6869657039642334,0.5234805345535278,-0.5040300488471985,0.4389367699623108,-0.6017131209373474,-0.4175538122653961
1.5600318908691406,0.10517430305480957,-0.023846864700317383,0.03210204839706421,-0.5400785562498062,-0.9488730319993413,-1.1234057956499137,-0.6970780491828918,0.5142033696174622,-0.4996770918369293,0.3713799715042114,-0.6122674942016602,-0.4053228199481964
1.5800080299377441,0.09463012218475342,0.030503273010253906,-0.013719499111175537,-0.5281495070789011,-0.9601051383685377,-1.1197208177376707,-0.7076215147972107,0.5039358735084534,-0.4952983856201172,0.5378831028938293,-0.7017972469329834,-0.3798621594905853
1.59999680519104,0.1276887059211731,-0.012849688529968262,0.010434269905090332,-0.516023458829145,-0.9729454852716339,-1.115619519700206,-0.7189210653305054,0.49342530965805054,-0.48957544565200806,0.39146631956100464,-0.7874711155891418,-0.43014925718307495
1.619992733001709,0.1315893530845642,-0.02002096176147461,-0.005939900875091553,-0.504116190113844,-0.9889780315104011,-1.1141678980370946,-0.7315345406532288,0.48303377628326416,-0.48118171095848083,0.4019533693790436,-0.8849659562110901,-0.4553259015083313
1.6399917602539062,0.15135127305984497,-0.0008013546466827393,0.00042110681533813477,-0.49281376414645744,-1.0063295552981653,-1.1130010157569674,-0.7443383932113647,0.47310671210289,-0.47130730748176575,0.3004782795906067,-0.9022108912467957,-0.43742889165878296
1.65999174118042,0.15250098705291748,-0.027975022792816162,-0.028943032026290894,-0.48232744103057495,-1.0226494998150426,-1.1110298919686579,-0.756123423576355,0.46384236216545105,-0.46165746450424194,0.4333709478378296,-0.8339614272117615,-0.3463432490825653
1.6799907684326172,0.167311429977417,0.028717726469039917,-0.04233890771865845,-0.47196233114974123,-1.0361924702937644,-1.1054312789822651,-0.7664020657539368,0.45463496446609497,-0.4538005590438843,0.48410654067993164,-0.7939324975013733,-0.3022015392780304
1.7000107765197754,0.18830764293670654,-0.01642414927482605,0.023594260215759277,-0.46279115007877447,-1.0502835099343133,-1.1016784877278891,-0.7763051390647888,0.4464474022388458,-0.4450114667415619,0.2416125386953354,-0.7916748523712158,-0.33018937706947327
1.7200138568878174,0.1943669319152832,-0.03650236129760742,0.046676695346832275,-0.4552483508103803,-1.066679872034428,-1.103013949590616,-0.7864232659339905,0.4396853744983673,-0.4338379204273224,0.06446075439453125,-0.8010197281837463,-0.39278942346572876
1.7399907112121582,0.2186550498008728,-0.021180778741836548,0.027524590492248535,-0.44759853980136405,-1.084642936367277,-1.106085781482842,-0.7970395088195801,0.43280190229415894,-0.42120131850242615,0.04642404243350029,-0.872644305229187,-0.42836976051330566
1.7599918842315674,0.2433575987815857,-0.03684237599372864,0.0508686900138855,-0.4398167924232484,-1.1049709032075858,-1.1109187847889934,-0.8084211349487305,0.4257737100124359,-0.4064137041568756,-0.07349887490272522,-0.9451411962509155,-0.47713470458984375
1.7799909114837646,0.2689617872238159,-0.08184179663658142,0.08279505372047424,-0.43178921316826724,-1.1271404319675757,-1.1178636255159855,-0.8202923536300659,0.4184964597225189,-0.3898475766181946,-0.13316775858402252,-0.9801504611968994,-0.5240362286567688
1.8000438213348389,0.28463214635849,-0.07665491104125977,0.06731283664703369,-0.4226865893371873,-1.1500576628502237,-1.125464580956523,-0.8324532508850098,0.41021206974983215,-0.37248852849006653,-0.09777043014764786,-1.0137825012207031,-0.6073724627494812
1.8199896812438965,0.30070555210113525,-0.06257325410842896,0.06450429558753967,-0.4113237517770287,-1.1720418739969793,-1.1317737905268295,-0.8446813821792603,0.39982300996780396,-0.3558860719203949,0.002641168888658285,-0.9213030934333801,-0.6375845670700073
1.8400917053222656,0.3007797598838806,-0.07042977213859558,0.09575420618057251,-0.39976423325514476,-1.1909146686319128,-1.1371909299093839,-0.8554825782775879,0.38920116424560547,-0.34157323837280273,-0.05070037767291069,-0.7669471502304077,-0.6346736550331116
1.8600239753723145,0.28387415409088135,-0.07752063870429993,0.07853323221206665,-0.38898341483453336,-1.2073971883255075,-1.1436345212431853,-0.8648678660392761,0.3792479634284973,-0.3288993537425995,-0.02442907728254795,-0.666275143623352,-0.6079070568084717
1.879992961883545,0.24101901054382324,-0.018327027559280396,0.034981369972229004,-0.37685444108372235,-1.2218385828078566,-1.1461953047358575,-0.8737857937812805,0.3679974675178528,-0.31792503595352173,0.24200104176998138,-0.6943244338035583,-0.6227529048919678
1.8999919891357422,0.2143998146057129,-0.020206689834594727,0.04029396176338196,-0.363240310594695,-1.2342858990165688,-1.143120530819787,-0.8823227882385254,0.3553049862384796,-0.3086501657962799,0.4481618404388428,-0.6449068784713745,-0.5770223736763
1.9199919700622559,0.22542303800582886,-0.043868809938430786,0.07532456517219543,-0.34986739346835843,-1.2440476852177036,-1.137777913726511,-0.8897144198417664,0.3427732288837433,-0.3015207350254059,0.40160703659057617,-0.5066505670547485,-0.4950259029865265
1.9400198459625244,0.27835649251937866,-0.04330986738204956,0.13463523983955383,-0.33917384101609066,-1.251895958183217,-1.1360597893461495,-0.895483136177063,0.33270812034606934,-0.29566118121147156,0.11858870089054108,-0.3426436483860016,-0.4621189534664154
1.960019826889038,0.28549903631210327,-0.07147940993309021,0.1542782187461853,-0.33085483259246495,-1.2586485936406495,-1.1390497254113732,-0.900062084197998,0.3248516321182251,-0.29044756293296814,-0.11753644794225693,-0.2583819329738617,-0.4198455810546875
1.980109691619873,0.2661658525466919,-0.09798797965049744,0.14757040143013,-0.3242677904361198,-1.2659010752164015,-1.1445292186292382,-0.9041663408279419,0.31861481070518494,-0.28454846143722534,-0.0995541512966156,-0.3055107593536377,-0.3549095392227173
1.9999918937683105,0.22384440898895264,-0.08896562457084656,0.08973902463912964,-0.3180076905071912,-1.2731498646784625,-1.1448629378840134,-0.9080943465232849,0.31267476081848145,-0.2785664498806,0.28847378492355347,-0.4014047086238861,-0.2631493806838989
2.01999568939209,0.21713662147521973,-0.07551497220993042,0.08460971713066101,-0.31146842336182806,-1.2791983213092615,-1.1371741761275456,-0.9117014408111572,0.3064567446708679,-0.27365076541900635,0.5296440720558167,-0.4295588433742523,-0.17333117127418518
2.0400428771972656,0.20152783393859863,-0.09999546408653259,0.12775132060050964,-0.3055965754320788,-1.2847109469012272,-1.1289350478450422,-0.9149066805839539,0.3008621633052826,-0.26912394165992737,0.3788270950317383,-0.3472810983657837,-0.15339858829975128
2.0600028038024902,0.09030497074127197,-0.07795202732086182,0.16644442081451416,-0.3005982930453239,-1.28905104615186,-1.125009795671181,-0.9174992442131042,0.2960917353630066,-0.2655654549598694,0.12328800559043884,-0.21116505563259125,-0.23643089830875397
2.079998016357422,0.06633490324020386,-0.054728567600250244,0.13879019021987915,-0.2955863747634097,-1.2925391937797095,-1.1251028530695906,-0.9198353290557861,0.29130083322525024,-0.2627677619457245,0.04655503109097481,-0.16170403361320496,-0.24940598011016846
2.100001811981201,0.09980505704879761,-0.06608480215072632,0.09323814511299133,-0.2904103456809498,-1.2957047456268713,-1.124533613090064,-0.9221011996269226,0.2863454222679138,-0.26026076078414917,0.14964786171913147,-0.171413391828537,-0.21502111852169037
2.1200098991394043,0.08152425289154053,-0.11790883541107178,0.13788411021232605,-0.2847351001976473,-1.2993824835302898,-1.122647314448219,-0.9246028661727905,0.2809032201766968,-0.2572992742061615,0.17943531274795532,-0.2670042812824249,-0.31259584426879883
2.139988899230957,0.0018833279609680176,-0.13113650679588318,0.10275977849960327,-0.27647579572891834,-1.3064072765704937,-1.1209988773195985,-0.9285954236984253,0.27296698093414307,-0.251395583152771,0.17550703883171082,-0.4854917824268341,-0.4478119909763336
2.159989833831787,-0.122763991355896,-0.10325288772583008,0.07271844148635864,-0.26566880602371334,-1.3169649880703613,-1.1203019618607626,-0.9339987635612488,0.26255467534065247,-0.24230457842350006,0.18481922149658203,-0.5522903800010681,-0.5705788731575012
2.1800026893615723,-0.18462210893630981,-0.03289332985877991,0.08757448196411133,-0.2529119166684465,-1.3269204027410988,-1.1195116737289892,-0.9395387172698975,0.2502242922782898,-0.23378415405750275,0.2085965871810913,-0.44776812195777893,-0.6290398836135864
2.200078010559082,-0.13154393434524536,-0.0098036527633667,0.05889540910720825,-0.2400850633760327,-1.33508804685594,-1.1183262902383806,-0.9444601535797119,0.2377852499485016,-0.2268335521221161,0.16130147874355316,-0.4372112452983856,-0.5777004361152649
2.2200217247009277,-0.09457778930664062,-0.0020094215869903564,0.07754302024841309,-0.2292158072304522,-1.3444333846310164,-1.1207505731713212,-0.9490013718605042,0.22721390426158905,-0.21856464445590973,-0.12869825959205627,-0.43597617745399475,-0.5600331425666809
2.23999285697937,-0.15832579135894775,-0.004381552338600159,0.060090065002441406,-0.21908157105844192,-1.3540627234271914,-1.1254257774715544,-0.9532618522644043,0.21733324229717255,-0.20990079641342163,0.002121412893757224,-0.4239245653152466,-0.4828759431838989
2.2599918842315674,-0.23207944631576538,0.02931596338748932,-0.014261811971664429,-0.2109068663864073,-1.3615074392000095,-1.1233618769528377,-0.9565038681030273,0.20934675633907318,-0.2031605988740921,0.32887253165245056,-0.38142797350883484,-0.27972567081451416
2.2799997329711914,-0.27760159969329834,0.046727269887924194,0.03710514307022095,-0.20494864993660172,-1.3666567116572035,-1.1171300348562545,-0.9587418437004089,0.203516885638237,-0.1984819918870926,0.3994975984096527,-0.23156408965587616,-0.19856660068035126
2.3000106811523438,-0.3433912992477417,0.022202417254447937,0.035552382469177246,-0.2002639193452917,-1.3683463350302454,-1.1092533557891229,-0.9599992632865906,0.19892798364162445,-0.19705134630203247,0.4383642077445984,-0.15129835903644562,-0.10855783522129059
2.3200109004974365,-0.35109448432922363,0.030270233750343323,0.030601143836975098,-0.19631487846945297,-1.3700730056398984,-1.102193279761159,-0.9611003994941711,0.19505631923675537,-0.19554854929447174,0.30527833104133606,-0.17519401013851166,-0.16030071675777435
2.3400518894195557,-0.4236195683479309,0.012466922402381897,0.011189103126525879,-0.1920501234114835,-1.3737033389952995,-1.0967325696735841,-0.9626109600067139,0.1908717304468155,-0.1922193020582199,0.28918007016181946,-0.2633361220359802,-0.16455811262130737
2.360010862350464,-0.45381200313568115,0.05922529101371765,0.04830005764961243,-0.1874299095989351,-1.3780579963282762,-1.091603352218309,-0.9642942547798157,0.18633443117141724,-0.18819259107112885,0.32657086849212646,-0.2485923320055008,-0.19048728048801422
2.3799867630004883,-0.4692782163619995,0.03414882719516754,0.06921839714050293,-0.18304288548083045,-1.3814441769901897,-1.085602172055529,-0.9657194018363953,0.18202246725559235,-0.18507829308509827,0.33552154898643494,-0.19715657830238342,-0.11359525471925735
2.4000158309936523,-0.43483197689056396,0.0013646185398101807,0.05917723476886749,-0.18036738170817643,-1.3835445012573018,-1.0770691318136554,-0.9665809273719788,0.179391011595726,-0.18313954770565033,0.5450118780136108,-0.2020280361175537,-0.01861218735575676
2.420055866241455,-0.38625097274780273,0.04262262582778931,-0.007999598979949951,-0.1776710406307026,-1.3866419002798032,-1.0646951727118343,-0.9676156640052795,0.17673775553703308,-0.18023273348808289,0.6920303106307983,-0.31470510363578796,-0.04295564815402031
2.4399948120117188,-0.3658994436264038,0.03246769309043884,-0.020451173186302185,-0.17289063944326305,-1.3902335404615864,-1.048591107202657,-0.9690767526626587,0.17203061282634735,-0.17690594494342804,0.969153642654419,-0.34123456478118896,-0.12095983326435089
2.460014820098877,-0.2737545371055603,0.032595619559288025,-0.0751209408044815,-0.16611966987803667,-1.3946084530385567,-1.0290151765197035,-0.970966100692749,0.16535669565200806,-0.1728648692369461,0.9780879020690918,-0.4263348877429962,-0.22397536039352417
2.479991912841797,-0.238572359085083,-0.03774966299533844,-0.05539827048778534,-0.15757206294620235,-1.400964984796613,-1.0145050503825512,-0.9734027981758118,0.15692082047462463,-0.16692222654819489,0.5816850662231445,-0.42752543091773987,-0.34711670875549316
2.500063896179199,-0.251431405544281,-0.026345133781433105,-0.012463152408599854,-0.14995337716417118,-1.4061472694527366,-1.0073339175962621,-0.9754058122634888,0.1493920385837555,-0.16206680238246918,0.28780391812324524,-0.22136744856834412,-0.27217188477516174
2.520047903060913,-0.24420124292373657,0.061280280351638794,-0.08896929025650024,-0.1433267762019047,-1.4094955935859421,-1.0041195545485202,-0.976898729801178,0.1428365707397461,-0.1589554399251938,0.1698085516691208,-0.1888258457183838,-0.38452020287513733
2.5400867462158203,-0.2566332221031189,0.150013729929924,-0.135991632938385,-0.13280121952799642,-1.4139219760710786,-1.0000153839466686,-0.9790235757827759,0.13241121172904968,-0.15485608577728271,0.4706498086452484,-0.289788156747818,-0.5329619646072388
2.560256004333496,-0.3000190854072571,0.13606904447078705,-0.1352074295282364,-0.12104705574647906,-1.4193640085274168,-0.9891499134050851,-0.9813226461410522,0.12075166404247284,-0.14975039660930634,0.665520191192627,-0.42624184489250183,-0.4614553451538086
2.5800068378448486,-0.3912479877471924,-0.08900774270296097,0.050091877579689026,-0.1192585106543039,-1.4184832009110684,-0.9855546435887792,-0.9814021587371826,0.11897601932287216,-0.15064720809459686,-0.3214699923992157,0.414776474237442,0.4271102845668793
2.60001802444458,-0.46931225061416626,-0.052184656262397766,-0.1538132280111313,-0.1261272056288049,-1.4126570683561375,-1.0013704970961008,-0.9796776175498962,0.12579306960105896,-0.15623000264167786,-1.2642079591751099,0.26645076274871826,0.062175676226615906
2.6201868057250977,-0.23035436868667603,0.25509917736053467,-0.2352575659751892,-0.13251059349051833,-1.4120341418644928,-1.0124385126912474,-0.978767454624176,0.13212314248085022,-0.15671011805534363,0.10154905170202255,0.02108139917254448,0.4221494495868683
2.6400790214538574,-0.377998411655426,0.23959745466709137,-0.0721166729927063,-0.14068798415649125,-1.409237600303957,-1.0042694551425422,-0.9772262573242188,0.14022433757781982,-0.15926754474639893,0.38007867336273193,0.24771134555339813,0.5774524807929993
2.660024881362915,-0.44003528356552124,-0.036954715847969055,-0.05494755506515503,-0.1547129318849447,-1.4008927327956782,-1.000785607491169,-0.973828911781311,0.15409646928310394,-0.1670677214860916,-0.3077546954154968,0.5089688301086426,0.8298060297966003
2.6800289154052734,-0.37524765729904175,0.08189253509044647,-0.059644877910614014,-0.1733692024840941,-1.391503052322975,-1.01180239588057,-0.9692195653915405,0.17250201106071472,-0.1756608635187149,-1.0181043148040771,0.5998039841651917,0.7591423392295837
2.6993937492370605,-0.3796048164367676,0.0759819895029068,-0.05131065845489502,-0.19202643979344808,-1.3814969174120393,-1.030901299071153,-0.9640842080116272,0.1908484846353531,-0.18471220135688782,-1.088523507118225,0.7334147691726685,0.7960835695266724
2.725416898727417,-0.38465750217437744,0.04442194104194641,-0.09835696220397949,-0.23424956847524284,-1.3588782424996295,-1.0563018089563874,-0.9509291052818298,0.23211310803890228,-0.20459096133708954,-0.5283764004707336,0.6898348331451416,1.001765489578247
2.7481439113616943,-0.41152453422546387,0.008259296417236328,-0.021248728036880493,-0.2556397435842566,-1.345891550993552,-1.0608180405101326,-0.943135678768158,0.25286442041397095,-0.2157660275697708,-0.39841678738594055,0.7147894501686096,0.940925657749176
2.76824688911438,-0.4474526643753052,-0.05880466103553772,0.029621317982673645,-0.27375914878172414,-1.3327818131952538,-1.0646731434166354,-0.9356192350387573,0.2703525125980377,-0.22699369490146637,-0.3734208941459656,0.6539641618728638,0.7832161784172058
2.791292905807495,-0.352872371673584,-0.16841766238212585,-0.016255468130111694,-0.29033852948099514,-1.3241083260771382,-1.0699588731131702,-0.9291407465934753,0.28627660870552063,-0.23397338390350342,-0.45926016569137573,0.3916313350200653,0.6838563084602356
2.799543857574463,-0.352872371673584,-0.16841766238212585,-0.016255468130111694,-0.29033852948099514,-1.3241083260771382,-1.0699588731131702,-0.9291407465934753,0.28627660870552063,-0.23397338390350342,-0.45926016569137573,0.3916313350200653,0.6838563084602356
2.824209690093994,-0.29871511459350586,-0.2175787091255188,0.06840634346008301,-0.3209776056546853,-1.317553966351371,-1.093926493470662,-0.9186616539955139,0.3154943883419037,-0.23774830996990204,-1.185115933418274,0.3149645924568176,0.36372536420822144
2.843695878982544,-0.27626097202301025,-0.0982668399810791,0.0026591122150421143,-0.3332847089212857,-1.3197196184308186,-1.1181315977760935,-0.9153438210487366,0.3271487355232239,-0.23477575182914734,-1.2857210636138916,0.2378048300743103,0.2650764584541321
2.8676156997680664,-0.2259817123413086,-0.07014855742454529,-0.033860787749290466,-0.34480866063789845,-1.3250213027353053,-1.1431169306439635,-0.9128580093383789,0.3380165994167328,-0.22898705303668976,-1.2560478448867798,0.08745332062244415,0.2901639938354492
2.8893537521362305,-0.2188711166381836,-0.01609957218170166,0.021669745445251465,-0.3562764859054732,-1.3294998927504837,-1.1635288111362756,-0.9100504517555237,0.34878697991371155,-0.2239554226398468,-0.8684279322624207,0.1686520278453827,0.36267027258872986
2.9068679809570312,-0.1842382550239563,0.04271736741065979,-0.035541340708732605,-0.36662494852710736,-1.3302249064228613,-1.1765302873137191,-0.9066583514213562,0.3584667146205902,-0.22242362797260284,-0.5840122699737549,0.22627246379852295,0.3588256239891052
2.927769899368286,-0.1483204960823059,0.014414221048355103,-0.05107143521308899,-0.3766291549129858,-1.3285866070524588,-1.1858635780330988,-0.9027661085128784,0.3677879869937897,-0.22303742170333862,-0.5619235634803772,0.26687440276145935,0.37810176610946655
2.947842836380005,-0.11882877349853516,0.011988550424575806,-0.043455109000205994,-0.3867074984561943,-1.327599619770511,-1.197304396361459,-0.8989019393920898,0.3771410882472992,-0.22302432358264923,-0.693778932094574,0.2577388286590576,0.3638332784175873
2.968094825744629,-0.11342215538024902,0.04423883557319641,-0.02361290156841278,-0.39723242313957075,-1.3273979814280503,-1.2095773408506643,-0.8949549198150635,0.3868677616119385,-0.22223661839962006,-0.6253430843353271,0.2215755134820938,0.3990670144557953
2.98683500289917,-0.056411802768707275,0.06190571188926697,-0.0037750601768493652,-0.40804902479599325,-1.3262153199912483,-1.217109639759096,-0.8905792236328125,0.3968192934989929,-0.22226856648921967,-0.28220152854919434,0.21684041619300842,0.4712924659252167
3.0065369606018066,-0.022044599056243896,0.061917394399642944,-0.012796938419342041,-0.4184830483291777,-1.3210097284558953,-1.2157408050243745,-0.8853498697280884,0.40637487173080444,-0.2258656919002533,0.10424802452325821,0.250953733921051,0.5576499104499817
3.027735710144043,-0.005877017974853516,0.02390742301940918,0.011652648448944092,-0.42860981740986803,-1.3138394701751512,-1.2109822699237809,-0.8796821236610413,0.4156067669391632,-0.23115025460720062,-0.021081645041704178,0.28516295552253723,0.5306658744812012
3.047445774078369,-0.0206640362739563,-0.014075785875320435,0.05866283178329468,-0.4392598078496161,-1.3079179057762815,-1.2112290827831385,-0.873974084854126,0.4252696633338928,-0.2351916879415512,-0.19583635032176971,0.3193412125110626,0.49902069568634033
3.066419839859009,0.04842543601989746,0.020251721143722534,0.05902963876724243,-0.4499133339943355,-1.3000643879105622,-1.2091290167591622,-0.8676851391792297,0.43488749861717224,-0.24082279205322266,0.1446801871061325,0.35637161135673523,0.6013431549072266
3.0863687992095947,0.12195736169815063,0.024060696363449097,0.06950110197067261,-0.4610148105905177,-1.2894600629702933,-1.1996228120949484,-0.8603912591934204,0.4448572099208832,-0.24865446984767914,0.32886046171188354,0.25763967633247375,0.7195519208908081
3.1072440147399902,0.08421027660369873,-0.02546137571334839,0.08402794599533081,-0.4736708114457959,-1.2796333928756534,-1.1866848558953658,-0.852444589138031,0.45615601539611816,-0.25546035170555115,0.459393709897995,0.14446574449539185,0.8182345628738403
3.127030849456787,0.04757112264633179,0.011891871690750122,0.09260010719299316,-0.4867122020769258,-1.269288294630055,-1.170581435949902,-0.8440036773681641,0.46772241592407227,-0.2624761462211609,0.5225383043289185,0.16959665715694427,0.8393953442573547
3.146091938018799,0.03702181577682495,-0.07723656296730042,0.08504816889762878,-0.4994289035676549,-1.2565164920386134,-1.1538802300233775,-0.8348582983016968,0.4789242744445801,-0.2713732123374939,0.44072550535202026,0.33060577511787415,0.7926447987556458
3.167034864425659,0.06905001401901245,-0.12497252225875854,0.11014288663864136,-0.5117670258974653,-1.2432253803556108,-1.1424463197361305,-0.8255198001861572,0.48971864581108093,-0.2805224359035492,0.07880568504333496,0.419366717338562,0.6936210989952087
3.1861698627471924,0.07727408409118652,-0.15465229749679565,0.14609366655349731,-0.5247143882099208,-1.2337635988029874,-1.1404206826688599,-0.8167760968208313,0.5009658336639404,-0.28619980812072754,-0.3124276399612427,0.4158099889755249,0.6041126847267151
3.2061519622802734,0.03497791290283203,-0.09143495559692383,0.16181418299674988,-0.5382017287747634,-1.226836924214507,-1.1437411947328313,-0.8083390593528748,0.5125927925109863,-0.2895454168319702,-0.31427207589149475,0.4473075270652771,0.5774080753326416
3.2270216941833496,0.07649582624435425,-0.04068565368652344,0.11057278513908386,-0.5501350059507957,-1.215913531065338,-1.1410484146404156,-0.7993351817131042,0.5228022933006287,-0.2962110936641693,0.162868469953537,0.5093038082122803,0.6333755254745483
3.246006965637207,0.14735853672027588,-0.07469731569290161,0.06331664323806763,-0.5597937277606975,-1.1989808103353963,-1.1287303352450972,-0.7894636392593384,0.5310114026069641,-0.30785393714904785,0.34910035133361816,0.5420135855674744,0.6313620209693909
3.2667438983917236,0.16291958093643188,-0.16222494840621948,0.11420899629592896,-0.5697508139657101,-1.1845431799721655,-1.123268906071123,-0.7800003290176392,0.5394222140312195,-0.3172118365764618,-0.32508403062820435,0.6243195533752441,0.4426414668560028
3.2866158485412598,0.1657634973526001,-0.20787328481674194,0.08561089634895325,-0.581129328618245,-1.1762583751481932,-1.1319358278167662,-0.7716289162635803,0.5489682555198669,-0.3212828040122986,-0.6785750389099121,0.6713123917579651,0.34071433544158936
3.3065357208251953,0.20075160264968872,-0.14191120862960815,0.021132200956344604,-0.590874671019008,-1.1676029438856734,-1.1409271994446124,-0.763861894607544,0.5570876002311707,-0.32583487033843994,-0.3465421199798584,0.7030037641525269,0.298566609621048
3.3265018463134766,0.278861939907074,-0.14815187454223633,0.032198697328567505,-0.5983900805989621,-1.154202320875997,-1.1423819859303352,-0.7555769681930542,0.5633130073547363,-0.33433789014816284,-0.11714925616979599,0.7056397199630737,0.31207534670829773
3.34566593170166,0.29267042875289917,-0.20637398958206177,0.032508015632629395,-0.6037490135912652,-1.1401594960076384,-1.1411709020688716,-0.748053789138794,0.5677326917648315,-0.3436499536037445,-0.012053394690155983,0.6575155854225159,0.2576664686203003
3.366407871246338,0.27228766679763794,-0.18193739652633667,0.05183562636375427,-0.6089579968848878,-1.1274116357885553,-1.1404841154697367,-0.7409308552742004,0.5720130801200867,-0.3518843650817871,-0.19044432044029236,0.5454316139221191,0.2252890020608902
3.386420726776123,0.233862042427063,-0.18619757890701294,0.026372164487838745,-0.6140680662336477,-1.119445322612872,-1.144429190304197,-0.735464334487915,0.57619708776474,-0.35649603605270386,-0.3151845932006836,0.4761025309562683,0.1376204639673233
3.406843900680542,0.20574182271957397,-0.12160050868988037,0.0011986196041107178,-0.6185475737095826,-1.1131659281918576,-1.1488572881966264,-0.730888307094574,0.5798524618148804,-0.35996317863464355,-0.1762041449546814,0.4115934669971466,0.11349032819271088
3.4267618656158447,0.24209511280059814,-0.09271198511123657,-0.006919980049133301,-0.6217682138395608,-1.1063089544735742,-1.1499159741935923,-0.7267295122146606,0.5824733376502991,-0.3641279339790344,-0.023545200005173683,0.35501137375831604,0.12837453186511993
3.4454028606414795,0.21386194229125977,-0.09027445316314697,-0.00022342801094055176,-0.6241590065327111,-1.0986209812285102,-1.1485323895480792,-0.7226662635803223,0.584415078163147,-0.3690696954727173,-0.026376858353614807,0.3279934227466583,0.12376541644334793
3.46610689163208,0.16908586025238037,-0.08452051877975464,-0.010181307792663574,-0.6266794548276133,-1.0931690080108505,-1.1495283486920636,-0.7193331122398376,0.5864584445953369,-0.37232592701911926,-0.16913796961307526,0.2882744073867798,0.07507073134183884
3.4862608909606934,0.15717220306396484,-0.06560087203979492,-0.03308683633804321,-0.6305861292132208,-1.0898887080620037,-1.1537957874337441,-0.7160711288452148,0.5896182656288147,-0.373620867729187,-0.2802261710166931,0.30597925186157227,0.1303015649318695
3.50508189201355,0.1693485975265503,-0.029463469982147217,-0.035883963108062744,-0.6365254598031793,-1.085082516141601,-1.1578091242441793,-0.7111576795578003,0.594404935836792,-0.37541663646698,-0.280277281999588,0.41874054074287415,0.24486003816127777
3.5258898735046387,0.21048235893249512,-0.045424461364746094,-0.04529249668121338,-0.6445379853619099,-1.0779047443166756,-1.1605777765919068,-0.7042263150215149,0.6008291840553284,-0.37824568152427673,-0.2952702045440674,0.4475850462913513,0.35801970958709717
3.545008897781372,0.23173308372497559,-0.09875404834747314,-0.027853190898895264,-0.6541168865720997,-1.0700416311499574,-1.1622306592779426,-0.6961496472358704,0.6084586381912231,-0.38099074363708496,-0.27658841013908386,0.44981151819229126,0.40301448106765747
3.5660948753356934,0.21121978759765625,-0.12042111158370972,0.018402099609375,-0.6636111364845353,-1.0616256511268,-1.163314674194227,-0.687843382358551,0.6159656047821045,-0.38400259613990784,-0.2628730237483978,0.47923076152801514,0.362405925989151
3.586026906967163,0.1752055287361145,-0.12551599740982056,0.05728822946548462,-0.6719654320325652,-1.0522959759699346,-1.1649321558228416,-0.6797374486923218,0.6225253343582153,-0.38783934712409973,-0.2719855308532715,0.5502700209617615,0.3150785565376282
3.6045889854431152,0.1458025574684143,-0.1293872594833374,0.048267662525177,-0.6795672913994296,-1.0433686376099738,-1.168078437376142,-0.6721392869949341,0.6284564733505249,-0.3914988338947296,-0.2993558645248413,0.5443581938743591,0.21137578785419464
3.624818801879883,0.11492764949798584,-0.06646567583084106,0.07212376594543457,-0.6854737290084012,-1.0342582473395894,-1.1722203634663164,-0.6653427481651306,0.6330398321151733,-0.3957016170024872,-0.2984718084335327,0.6394951939582825,0.15373410284519196
3.6457056999206543,0.08737391233444214,-0.044774770736694336,0.0881495475769043,-0.6919456451359469,-1.0248698472388147,-1.17939028699633,-0.6580832004547119,0.6380365490913391,-0.3997950255870819,-0.5437091588973999,0.7530273199081421,0.12274732440710068
3.665597915649414,0.06424903869628906,-0.06958955526351929,0.1210695207118988,-0.7015405811921809,-1.0173507218209332,-1.1931718403402247,-0.6498203277587891,0.6453952193260193,-0.40149542689323425,-0.8455911874771118,0.8912197351455688,0.1482791155576706
3.684691905975342,0.028761684894561768,-0.03372675180435181,0.11972740292549133,-0.7137835767766474,-1.010020938481135,-1.2117862897260614,-0.6401203274726868,0.6546984314918518,-0.40201491117477417,-0.9603043794631958,1.0668442249298096,0.11046485602855682
3.7046267986297607,0.03121107816696167,-0.02124541997909546,0.03941512107849121,-0.7247166130729652,-1.0013160294242194,-1.2333729239282227,-0.630530595779419,0.662923276424408,-0.40368813276290894,-1.110759973526001,1.394578218460083,-0.18020978569984436
3.7253007888793945,0.04757922887802124,0.029479384422302246,-0.07239776849746704,-0.7319690623879714,-0.9945099137789175,-1.264966384873609,-0.623720645904541,0.6683356165885925,-0.40533965826034546,-1.1414587497711182,1.3006240129470825,-0.31700199842453003
3.7452878952026367,0.008840203285217285,0.16403281688690186,-0.2062288522720337,-0.740657699224869,-0.9843761569310144,-1.2891714813216566,-0.6147210001945496,0.6747734546661377,-0.4084104001522064,-0.7291380763053894,1.243673324584961,0.07623995840549469
3.765256881713867,-0.0021477937698364258,0.1344107985496521,-0.1626327633857727,-0.749861917010722,-0.9670651521011588,-1.2975820910697404,-0.6024207472801208,0.6815377473831177,-0.4154464304447174,-0.3175426125526428,1.1527957916259766,0.28257519006729126
3.785151958465576,0.010344088077545166,0.06501781940460205,-0.04594096541404724,-0.7591338202800618,-0.9485029226585332,-1.2968315566131796,-0.5894456505775452,0.6882933378219604,-0.4228547215461731,-0.21915990114212036,0.7163158655166626,0.4613509178161621
3.8040928840637207,0.006331384181976318,-0.03297239542007446,0.051016539335250854,-0.769489150838911,-0.9341279621750286,-1.2931207141256844,-0.5775441527366638,0.695768415927887,-0.4270235002040863,-0.1858154535293579,0.5260013937950134,0.420707106590271
3.824979782104492,-0.003827512264251709,-0.09037846326828003,0.13673627376556396,-0.7757146988322113,-0.923746863466715,-1.2888076325760196,-0.5696130394935608,0.7002264857292175,-0.4303763210773468,0.027181891724467278,0.2856096625328064,0.303713858127594
3.844082832336426,0.010625302791595459,-0.06504970788955688,0.14006978273391724,-0.7786911860167767,-0.9157993284288038,-1.2818499435467268,-0.5645194053649902,0.7023483514785767,-0.4336182773113251,0.21098829805850983,0.012066598050296307,0.21347825229167938
3.863907814025879,-0.007910490036010742,-0.07446563243865967,0.10496833920478821,-0.7778143406143986,-0.9109013889822114,-1.2721427595246113,-0.5628750324249268,0.7017239332199097,-0.43675532937049866,0.3020750880241394,-0.19320009648799896,0.09381727129220963
3.883882999420166,-0.04216498136520386,-0.06948190927505493,0.08070030808448792,-0.774615063922823,-0.9108332339150671,-1.2652389620106346,-0.5646160244941711,0.6994410157203674,-0.43816787004470825,0.2670288383960724,-0.2752848267555237,-0.01270722970366478
3.9038267135620117,-0.025167107582092285,-0.026152849197387695,0.047819674015045166,-0.7714045320650748,-0.9129851285965926,-1.2603228751738256,-0.5673317313194275,0.6971428990364075,-0.4383225739002228,0.21787601709365845,-0.2758741080760956,-0.021947039291262627
3.9242868423461914,-0.04613173007965088,0.0059316158294677734,-0.001368701457977295,-0.7685631970772082,-0.9150182406034177,-1.2562738309492465,-0.5697894096374512,0.6951030492782593,-0.4383743107318878,0.20269657671451569,-0.19679845869541168,-0.016021400690078735
3.944699764251709,-0.06448304653167725,0.03413957357406616,-0.028592348098754883,-0.7657094008511947,-0.9149990402556906,-1.252013511161759,-0.5713506937026978,0.6930485963821411,-0.43959301710128784,0.22482822835445404,-0.10095422714948654,-0.028064139187335968
3.9644758701324463,-0.05347716808319092,0.03917008638381958,-0.0033988654613494873,-0.762757020103779,-0.9130686850388068,-1.2477625720652306,-0.5721179246902466,0.6909171938896179,-0.44194406270980835,0.17596858739852905,0.0012961531756445765,-0.01155878510326147
3.984562873840332,-0.04217410087585449,-0.0015601515769958496,0.024450957775115967,-0.7614133810457189,-0.9105090268208473,-1.2449921851312615,-0.5717175006866455,0.6899452209472656,-0.4439760446548462,0.06264655292034149,0.051723819226026535,0.02831616997718811
4.004441738128662,-0.014047503471374512,-0.0177190899848938,0.04174131155014038,-0.7615607377067829,-0.9083658191243614,-1.2436410249764842,-0.570684552192688,0.6900519132614136,-0.4451378285884857,0.003464618232101202,0.060873109847307205,0.021316397935152054
4.021763801574707,-0.012960195541381836,-0.01834207773208618,0.040414631366729736,-0.7617680023204441,-0.907942585242754,-1.2442841022895288,-0.5703833699226379,0.6902018785476685,-0.44529128074645996,-0.05473785847425461,0.034186460077762604,-0.02205536887049675
4.041555881500244,-0.031496524810791016,-0.01751655340194702,0.041317105293273926,-0.761997772036138,-0.9084363525439039,-1.2456846804328183,-0.5704779624938965,0.690368115901947,-0.4449119567871094,0.006435094401240349,0.03283428028225899,0.008217714726924896
4.064519882202148,-0.018140435218811035,0.013210773468017578,0.027452588081359863,-0.7617080279967856,-0.9073044347602085,-1.244074457272117,-0.570131778717041,0.690158486366272,-0.44568073749542236,0.12411957234144211,0.03854499012231827,0.062368251383304596
4.082371711730957,-0.02373504638671875,-0.013030529022216797,0.01402541995048523,-0.7609016503315261,-0.904048593481986,-1.239836889017348,-0.569114625453949,0.6895747184753418,-0.44787850975990295,0.167806476354599,0.04135000705718994,0.07801013439893723
4.103151798248291,-0.04932749271392822,-0.015234708786010742,0.007787495851516724,-0.7597109492303443,-0.9008058020232789,-1.2362397879708873,-0.5683025121688843,0.6887118816375732,-0.45023128390312195,0.142645463347435,0.09377548843622208,0.009619376622140408
4.122342824935913,-0.0525776743888855,-0.024797439575195312,-0.002093076705932617,-0.7577913598615924,-0.8983452627540284,-1.2359764864409257,-0.5682262182235718,0.6873188614845276,-0.4524509310722351,0.01501232385635376,0.21372835338115692,-0.08746887743473053
4.143233776092529,-0.04721391201019287,-0.03731811046600342,0.0012751221656799316,-0.7569840161459965,-0.8957910078650181,-1.2402437458553894,-0.5675017237663269,0.6867322325706482,-0.45424747467041016,-0.15937440097332,0.3905962407588959,-0.14013922214508057
4.164055824279785,-0.040161073207855225,-0.019727766513824463,0.01516711711883545,-0.7576391401810575,-0.8930476125847555,-1.2487817574456082,-0.565902829170227,0.6872082948684692,-0.4555204510688782,-0.3303176164627075,0.49442294239997864,-0.1601364016532898
4.1821608543396,-0.0377960205078125,0.0025120973587036133,0.017662078142166138,-0.7597728899260562,-0.8901306374175562,-1.2591789396468773,-0.5634307265281677,0.6887568235397339,-0.4562453627586365,-0.36237412691116333,0.5193766355514526,-0.12087448686361313
4.203001022338867,-0.039162278175354004,0.013054966926574707,0.010276436805725098,-0.7621341622129427,-0.8868656039348088,-1.2683142838763304,-0.5606759786605835,0.6904668211936951,-0.45705369114875793,-0.29656222462654114,0.43385788798332214,-0.11481747031211853
4.2240729331970215,-0.01699209213256836,0.017117083072662354,0.034710586071014404,-0.7637974603052906,-0.8841392269908938,-1.2756820180311217,-0.5585389733314514,0.6916689872741699,-0.45785200595855713,-0.21654677391052246,0.3462032973766327,-0.0821838229894638
4.245934963226318,-0.0017008185386657715,0.00676959753036499,0.04506370425224304,-0.7649839625934717,-0.8814661759421539,-1.2804501986135035,-0.5566792488098145,0.6925254464149475,-0.4588209390640259,-0.11196295917034149,0.254938542842865,-0.048819418996572495
4.263733863830566,0.00032824277877807617,0.00548863410949707,0.04181760549545288,-0.7651310902179937,-0.878515437473272,-1.2820328239319057,-0.5552446842193604,0.6926315426826477,-0.4603966474533081,-0.000497712753713131,0.15755322575569153,-0.016361501067876816
4.283870697021484,-0.007171750068664551,-0.010114550590515137,0.03154599666595459,-0.7644453078088221,-0.8754912459705446,-1.2812460102996375,-0.5542144179344177,0.6921367645263672,-0.4623779058456421,0.07414750009775162,0.0971580520272255,-0.0042659565806388855
4.302604675292969,-0.0066024065017700195,-0.031788527965545654,0.042027175426483154,-0.7633343420839434,-0.8727479012050378,-1.2794784778829402,-0.5535325407981873,0.6913344860076904,-0.4643903970718384,0.0984356552362442,0.05327635258436203,0.0035204291343688965
4.32162880897522,0.011535108089447021,-0.0412943959236145,0.04492545127868652,-0.7617300584579807,-0.8700954077300189,-1.2770945325945557,-0.5531458854675293,0.690174400806427,-0.46657150983810425,0.12851572036743164,0.04549992084503174,-0.03229110687971115
4.343483924865723,0.018491744995117188,-0.06474828720092773,0.051413118839263916,-0.7599408434655374,-0.8688266755110367,-1.2759737077078663,-0.553495466709137,0.6888785362243652,-0.46806955337524414,0.028001252561807632,-0.0075151813216507435,-0.04670381173491478
4.362444877624512,0.024691879749298096,-0.0778687596321106,0.04068410396575928,-0.7600853747626787,-0.8717435821058611,-1.278939801385081,-0.5547822117805481,0.6889833211898804,-0.466389000415802,-0.1915636509656906,-0.06193741038441658,-0.09174089133739471
4.382399797439575,0.00671696662902832,-0.0754934549331665,0.022125244140625,-0.761672530159577,-0.8790791143323767,-1.2872984683375686,-0.5573456883430481,0.6901327967643738,-0.4616088271141052,-0.3704717755317688,-0.0851157009601593,-0.17865394055843353
4.40307879447937,0.001728355884552002,-0.04609096050262451,0.009449034929275513,-0.7642496439950391,-0.8902879006128948,-1.3009996624678264,-0.5611002445220947,0.6919955015182495,-0.45421212911605835,-0.5558898448944092,-0.08680912107229233,-0.22232505679130554
4.424160003662109,-0.010926306247711182,-0.007490098476409912,-0.020490407943725586,-0.7677061626021324,-0.9048358604794274,-1.3200027797424303,-0.5657644271850586,0.6944866180419922,-0.4445211887359619,-0.725062370300293,-0.05314400792121887,-0.34083372354507446
4.4420390129089355,-0.02556586265563965,0.030238986015319824,-0.04362243413925171,-0.771709102840656,-0.9212783921472533,-1.343101844586208,-0.5707781910896301,0.6973612308502197,-0.4334740936756134,-0.8167738914489746,0.021952517330646515,-0.34390005469322205
4.463271856307983,-0.02491217851638794,0.07971805334091187,-0.06187140941619873,-0.7760900623319332,-0.9357934863383228,-1.3658051194195662,-0.5745446681976318,0.7004944086074829,-0.4233275055885315,-0.7159444093704224,0.12175430357456207,-0.2624554932117462
4.48322868347168,-0.008996725082397461,0.14127153158187866,-0.07170921564102173,-0.7794316654636888,-0.9433817330176095,-1.3815393079513105,-0.5758422017097473,0.7028752565383911,-0.4175790846347809,-0.3824543058872223,0.20611923933029175,-0.12937192618846893
4.501972675323486,0.020535945892333984,0.14259231090545654,-0.06461071968078613,-0.7806001762696926,-0.9432007474381012,-1.3867221387828335,-0.5751014351844788,0.7037059664726257,-0.4172007441520691,0.019521402195096016,0.15924717485904694,-0.003323586191982031
4.522918701171875,0.048669517040252686,0.10067552328109741,-0.01441928744316101,-0.7792492358511984,-0.9372847500998582,-1.381369504319985,-0.5733887553215027,0.7027454972267151,-0.4211580157279968,0.3329083025455475,0.05557164177298546,0.10788372159004211
4.542858839035034,0.06769007444381714,0.02595609426498413,0.032089412212371826,-0.776974366115551,-0.9298819277749483,-1.3699959149461303,-0.5715353488922119,0.7011252641677856,-0.42634597420692444,0.4034532904624939,-0.11222472786903381,0.1944139450788498
4.563004970550537,0.08659154176712036,-0.04230839014053345,0.062349796295166016,-0.775750684180867,-0.9253800794207148,-1.3580890451000345,-0.5702952146530151,0.7002521753311157,-0.42943042516708374,0.3447297215461731,-0.26071256399154663,0.21013373136520386
4.5830607414245605,0.06333988904953003,-0.05330413579940796,0.047297894954681396,-0.7750800643532939,-0.9246563761063743,-1.34842861114487,-0.5703589916229248,0.6997732520103455,-0.4301256239414215,0.24552501738071442,-0.3553626537322998,0.15140065550804138
4.60442590713501,0.04697871208190918,-0.03880119323730469,0.024879097938537598,-0.774920669861941,-0.928066223267302,-1.3419498171797124,-0.571911633014679,0.6996594071388245,-0.4282451272010803,0.13471850752830505,-0.4304388165473938,0.1168016567826271
4.622731685638428,0.01379472017288208,-0.023266315460205078,-0.002273380756378174,-0.7754527641884826,-0.9341078365965959,-1.338078566253046,-0.5741890668869019,0.7000394463539124,-0.42456069588661194,0.06779825687408447,-0.4403453469276428,0.09014976024627686
4.6424360275268555,-0.004295647144317627,0.01128464937210083,-0.02158445119857788,-0.7761295930709884,-0.9400806339764963,-1.334710237338216,-0.5763317942619324,0.7005226612091064,-0.42084410786628723,0.10485135018825531,-0.3898962736129761,0.11222896724939346
4.662847995758057,-0.014872133731842041,0.03520292043685913,-0.0366729199886322,-0.7767603617586037,-0.9431438406992991,-1.3292662318292132,-0.577260434627533,0.7009726166725159,-0.41881710290908813,0.1841331273317337,-0.30306950211524963,0.1596638560295105
4.680840015411377,-0.03127795457839966,0.03583705425262451,-0.037820637226104736,-0.776705647524191,-0.9428449848857513,-1.321425743941622,-0.5771663188934326,0.7009336352348328,-0.4190121591091156,0.2710581421852112,-0.22435294091701508,0.16735221445560455
4.700678825378418,-0.032814860343933105,0.03059983253479004,-0.014423847198486328,-0.7759406875208366,-0.9399704965251291,-1.3118848910152527,-0.576392412185669,0.7003878355026245,-0.42098569869995117,0.3145829737186432,-0.16796450316905975,0.16623908281326294
4.722531795501709,-0.02499210834503174,0.010352134704589844,0.007112324237823486,-0.7749140197933202,-0.9362732250004947,-1.3022961858614945,-0.5754107236862183,0.6996546387672424,-0.4235399067401886,0.29685062170028687,-0.13612118363380432,0.16178269684314728
4.742653846740723,-0.01353687047958374,-0.017184555530548096,0.012347161769866943,-0.7741592050379607,-0.9325699980142726,-1.2934416481276885,-0.574262261390686,0.6991151571273804,-0.4259823262691498,0.24535319209098816,-0.11923149973154068,0.14661046862602234
4.760690689086914,-0.012140989303588867,-0.034514009952545166,0.012580633163452148,-0.773747456735443,-0.9298298150068949,-1.2862961118363798,-0.5733235478401184,0.6988207101821899,-0.4277264177799225,0.19135408103466034,-0.10225438326597214,0.13233697414398193
4.781157970428467,-0.0031708478927612305,-0.03650563955307007,0.011802613735198975,-0.7740146984708535,-0.9279295286299358,-1.2806530334345194,-0.5723602175712585,0.6990118026733398,-0.4287031590938568,0.13267332315444946,-0.10969889163970947,0.11777067184448242
4.799993991851807,-0.004881560802459717,-0.030740857124328613,0.005429118871688843,-0.7746805075772376,-0.9270862486086442,-1.2762355325418384,-0.5716260075569153,0.6994878053665161,-0.4289062023162842,0.08726844936609268,-0.11126013100147247,0.12123125046491623
4.821127891540527,-0.01484006643295288,-0.023012638092041016,0.0016168057918548584,-0.7756530129820521,-0.9264467548849591,-1.2724579470447244,-0.5708075165748596,0.7001824378967285,-0.4288628399372101,0.08057853579521179,-0.08630000799894333,0.12391053140163422
4.842253684997559,-0.03156501054763794,-0.0036545991897583008,-0.014993995428085327,-0.7763660023452098,-0.9250268449084037,-1.2685184925219548,-0.5697991251945496,0.7006913423538208,-0.4293723404407501,0.09811541438102722,-0.048702120780944824,0.10620331764221191
4.861077785491943,-0.03674471378326416,0.001924276351928711,-0.01079469919204712,-0.7762246110127801,-0.922875091887044,-1.2645750718101276,-0.5689529776573181,0.7005904316902161,-0.4306572675704956,0.12222238630056381,0.007555380463600159,0.09670448303222656
4.881866931915283,-0.03207576274871826,-0.006489157676696777,0.0016673803329467773,-0.7757411066231842,-0.9194577236896936,-1.2602219674757478,-0.5677473545074463,0.7002453207969666,-0.4328044354915619,0.137786865234375,0.03838040307164192,0.08949530869722366
4.899993896484375,-0.027291953563690186,-0.009090423583984375,0.003305375576019287,-0.774982105695642,-0.9159015138021231,-1.256180156821041,-0.5666259527206421,0.6997032761573792,-0.435144305229187,0.1233644187450409,0.04848461598157883,0.07180958241224289
4.920948028564453,-0.019701659679412842,-0.021203339099884033,0.010984957218170166,-0.7744447257049177,-0.9124710017866853,-1.25281876461478,-0.5654272437095642,0.6993192434310913,-0.43731555342674255,0.08670270442962646,0.0785183236002922,0.07143119722604752
4.94004487991333,-0.01968449354171753,-0.025382518768310547,0.013087630271911621,-0.7743781855542512,-0.9095011076602991,-1.250734629753837,-0.5641626119613647,0.6992716789245605,-0.43902140855789185,0.04196997359395027,0.09667966514825821,0.05229547619819641
4.960734844207764,-0.007679879665374756,-0.019563615322113037,0.008346974849700928,-0.7744774802002953,-0.9076031166128926,-1.2502167987253372,-0.5632734894752502,0.699342668056488,-0.44004854559898376,-0.015128200873732567,0.08779971301555634,0.021916022524237633
4.980001926422119,0.008627176284790039,-0.021441102027893066,0.008506178855895996,-0.7749268605020956,-0.9069764882222195,-1.2512474071455233,-0.5627501010894775,0.6996638178825378,-0.4402078092098236,-0.06505721062421799,0.07808689028024673,0.013363199308514595
5.000741004943848,0.015468597412109375,-0.013120412826538086,0.0008386075496673584,-0.7758603958208855,-0.9069796599152097,-1.2530988168042994,-0.5622367858886719,0.7003304958343506,-0.4398033618927002,-0.09282030165195465,0.08066243678331375,0.019300978630781174
5.019989967346191,0.01798248291015625,0.0046076178550720215,-0.01028028130531311,-0.7768693089440019,-0.9070922244464299,-1.25515222137425,-0.5617294311523438,0.701050341129303,-0.4393045902252197,-0.08530239760875702,0.07947724312543869,0.02118549309670925
5.04000186920166,0.020732462406158447,0.012807130813598633,-0.010428845882415771,-0.7779748743050015,-0.9066143399603357,-1.2564663139980368,-0.5609089136123657,0.7018383145332336,-0.43909505009651184,-0.06307948380708694,0.07819652557373047,0.03936289995908737
5.059785842895508,0.02497231960296631,0.013267099857330322,-0.011602699756622314,-0.7792149304608423,-0.9055992493910956,-1.2568570454801051,-0.5597776174545288,0.7027210593223572,-0.4391266405582428,-0.04543912783265114,0.05450611189007759,0.05678635090589523
5.079991817474365,0.019980192184448242,0.014573872089385986,-0.00763094425201416,-0.7804888671557263,-0.9043833848602167,-1.25652328500134,-0.5585391521453857,0.7036268711090088,-0.43925315141677856,-0.01741793379187584,0.03716928884387016,0.06361030042171478
5.100019931793213,0.018184423446655273,0.019103586673736572,-0.00795358419418335,-0.7815446110053013,-0.9026328490184681,-1.254934906776043,-0.5571858882904053,0.7043766379356384,-0.4397697150707245,0.03714961186051369,0.00793523620814085,0.07684221863746643
5.119994878768921,0.017103731632232666,0.02685028314590454,-0.008390545845031738,-0.782174965557145,-0.9003455369903927,-1.2519248575900381,-0.5558305978775024,0.7048239707946777,-0.4407670795917511,0.08146385103464127,-0.009059193544089794,0.08650939166545868
5.140350818634033,0.01698201894760132,0.0214688777923584,-0.0042601823806762695,-0.7825551954537329,-0.8976071176777054,-1.247758871745704,-0.5544118881225586,0.7050936222076416,-0.44212034344673157,0.12476012110710144,-0.028478074818849564,0.1030837893486023
5.160512924194336,0.012305676937103271,0.01652085781097412,-0.0063284337520599365,-0.7826686665669844,-0.8945281362437265,-1.2426115045759123,-0.5529856085777283,0.7051740884780884,-0.4437752366065979,0.14941373467445374,-0.04500840604305267,0.10521188378334045
5.180011749267578,0.011525630950927734,0.010454297065734863,-0.0038619637489318848,-0.7825950837612752,-0.8914474776000072,-1.2371587078513042,-0.5516563057899475,0.7051219344139099,-0.44550931453704834,0.16338194906711578,-0.04701749235391617,0.1067441776394844
5.199991703033447,0.012692570686340332,0.004317760467529297,-0.005663573741912842,-0.7825556075803002,-0.8884071471112133,-1.2316096698715835,-0.5503208041191101,0.7050939202308655,-0.44720199704170227,0.15437215566635132,-0.048985037952661514,0.10401354730129242
5.2199907302856445,0.008850574493408203,-0.001774430274963379,-0.0007703006267547607,-0.7826470861838949,-0.8857324963164563,-1.2266754472588792,-0.5490727424621582,0.7051588296890259,-0.4486314654350281,0.1232706755399704,-0.03777117654681206,0.09554127603769302
5.240056991577148,0.011090874671936035,-0.00823366641998291,0.00228959321975708,-0.7829982218643103,-0.8837069117374955,-1.2228055711834163,-0.5479713678359985,0.7054077386856079,-0.44958561658859253,0.08459897339344025,-0.030233630910515785,0.08989278972148895
5.260534763336182,0.016041219234466553,0.0010710358619689941,-0.004134416580200195,-0.7836057564216301,-0.8821508875255499,-1.2195934733116836,-0.546940267086029,0.7058382034301758,-0.45016542077064514,0.06452344357967377,-0.0469478964805603,0.08273102343082428
5.2799928188323975,0.019579291343688965,-0.004226744174957275,-0.0024814605712890625,-0.7841486356081047,-0.881109409259134,-1.2167830798040966,-0.546175479888916,0.706222653388977,-0.45049092173576355,0.05919765681028366,-0.057378966361284256,0.08381839096546173
5.299991846084595,0.01583784818649292,0.0011791586875915527,0.003322809934616089,-0.7847029371098698,-0.8804182515658351,-1.214097416256839,-0.5455619692802429,0.7066150307655334,-0.4506188631057739,0.061329517513513565,-0.06628404557704926,0.07859379798173904
5.319991827011108,0.010116398334503174,0.0010489225387573242,0.011376917362213135,-0.7851459899316398,-0.8799732386964904,-1.211384531146882,-0.545120120048523,0.7069284319877625,-0.45066213607788086,0.05155598372220993,-0.0891033411026001,0.07712186872959137
5.340017795562744,0.006500840187072754,-0.004562795162200928,0.009397447109222412,-0.7857236556255879,-0.8801319738556934,-1.208893995303977,-0.544876754283905,0.7073369026184082,-0.45031535625457764,0.04704858362674713,-0.1128198578953743,0.07081763446331024
5.361111879348755,0.0016269683837890625,0.012147128582000732,0.0013860464096069336,-0.7861533332789128,-0.8801977189092153,-1.2060795580521375,-0.5446721315383911,0.7076405882835388,-0.45008599758148193,0.0831759050488472,-0.10972188413143158,0.08004937320947647
5.380659818649292,-0.0027145743370056152,0.02148956060409546,-0.0023665428161621094,-0.7861475050559709,-0.879359661487771,-1.2019805160699948,-0.5442977547645569,0.7076364755630493,-0.4505448043346405,0.13443027436733246,-0.10542754083871841,0.09556636214256287
5.399992942810059,-0.006057679653167725,0.013593316078186035,-0.00023317337036132812,-0.7858989311038501,-0.8778043880113953,-1.1968884115391445,-0.5437318086624146,0.7074607610702515,-0.4515032172203064,0.1670459359884262,-0.10255114734172821,0.10465969890356064
5.420003890991211,-0.006651699542999268,0.00425952672958374,0.008680254220962524,-0.7854606688308687,-0.8760309390271482,-1.1914241663017786,-0.5431682467460632,0.7071509957313538,-0.45266515016555786,0.16357579827308655,-0.10258931666612625,0.10625161230564117
5.439996719360352,-0.002594172954559326,-0.009455859661102295,0.01365053653717041,-0.7851554905083974,-0.8747193469746687,-1.1864288646578975,-0.5427396893501282,0.7069351673126221,-0.45351558923721313,0.13451102375984192,-0.11428876966238022,0.09208549559116364
5.4600019454956055,-0.00845402479171753,-0.013151824474334717,0.013435661792755127,-0.7850954372507497,-0.8742094321045485,-1.1823699129771688,-0.5425408482551575,0.7068926692008972,-0.4538194537162781,0.10882332921028137,-0.11832460761070251,0.07261349260807037
5.4799768924713135,-0.012396395206451416,-0.010518550872802734,0.01204630732536316,-0.7849751521089234,-0.8742550941791767,-1.1792171453566431,-0.5426267981529236,0.7068076133728027,-0.4538492262363434,0.08667179197072983,-0.11056548357009888,0.054773960262537
5.499992847442627,-0.0065534114837646484,-0.010695397853851318,0.012896239757537842,-0.7849233176488474,-0.874728612272983,-1.1767834951980731,-0.5428698658943176,0.7067709565162659,-0.45361584424972534,0.05726783722639084,-0.09563323110342026,0.055271949619054794
5.519999027252197,-0.003772258758544922,-0.014053821563720703,0.009806811809539795,-0.7852273347378853,-0.8753031983210665,-1.1751471693604643,-0.5429654717445374,0.7069859504699707,-0.4531661570072174,0.021073903888463974,-0.06756094098091125,0.04790719971060753
5.539997816085815,-0.00327146053314209,-0.009658396244049072,0.005504131317138672,-0.7857441021604,-0.8762203707385618,-1.174529788532722,-0.5431000590324402,0.7073513269424438,-0.4524340331554413,-0.013562369160354137,-0.05899301916360855,0.029696239158511162
5.559262752532959,-0.004417598247528076,-0.004906773567199707,0.005110114812850952,-0.7863830642573811,-0.8774245658739935,-1.1746594163670336,-0.5432966351509094,0.7078028917312622,-0.4514906406402588,-0.02476399764418602,-0.04256335645914078,0.028734076768159866
5.579991817474365,-0.004143416881561279,-9.000301361083984e-06,0.008504629135131836,-0.7870101477898277,-0.878349906304612,-1.1747209424542304,-0.5433724522590637,0.7082456946372986,-0.4507042467594147,-0.023151345551013947,-0.037407297641038895,0.03113887459039688
5.599992752075195,0.00014251470565795898,-0.002983570098876953,0.0075972676277160645,-0.7877440597728937,-0.8792688002086692,-1.1746589081045413,-0.543385922908783,0.7087636590003967,-0.4498732388019562,-0.02084699273109436,-0.057048290967941284,0.04116908833384514
5.620019912719727,-0.00018996000289916992,-0.0009130239486694336,0.010073155164718628,-0.7885945148604517,-0.8805479526629719,-1.1742625265374693,-0.5434958934783936,0.7093633413314819,-0.44879379868507385,-0.01791439950466156,-0.09904420375823975,0.05634190887212753
5.640013694763184,-0.006697654724121094,-0.0030059814453125,0.008731812238693237,-0.7895511058213452,-0.8821088092396271,-1.1735383996636193,-0.5436715483665466,0.7100372314453125,-0.4475134611129761,-0.009395759552717209,-0.10652041435241699,0.05308356136083603
5.659993886947632,-0.014425575733184814,-0.010671079158782959,0.013789623975753784,-0.7904689703730592,-0.8839720257445572,-1.1730919874232797,-0.5440003275871277,0.710683286190033,-0.4460862874984741,-0.02573128417134285,-0.11183492839336395,0.04137643426656723
5.679994821548462,-0.014648854732513428,-0.013418853282928467,0.010042011737823486,-0.7915558441688042,-0.8867344605840898,-1.173888356891844,-0.5446315407752991,0.7114474773406982,-0.4440934658050537,-0.08672253042459488,-0.10598565638065338,0.011313831433653831
5.699992895126343,-0.017632722854614258,-0.008517980575561523,-0.004634082317352295,-0.7927467258392917,-0.8901994301740239,-1.176195772103121,-0.5455081462860107,0.7122838497161865,-0.44167014956474304,-0.11336861550807953,-0.06983022391796112,-0.021115988492965698
5.7199907302856445,-0.013630092144012451,0.010960221290588379,-0.017412960529327393,-0.7936270571437447,-0.8932921879297211,-1.179300885760043,-0.5463827252388,0.7129014730453491,-0.43958768248558044,-0.1032523363828659,-0.013312705792486668,-0.036322928965091705
5.740010738372803,-0.003322601318359375,0.02240973711013794,-0.021305978298187256,-0.7939675811227263,-0.8947485354335717,-1.1817531377753923,-0.5468330383300781,0.7131402492523193,-0.43863967061042786,-0.05231839045882225,0.05041513964533806,-0.02613634243607521
5.760032892227173,0.007021129131317139,0.02202361822128296,-0.019520729780197144,-0.793778251456316,-0.8942612920110231,-1.1827868505887669,-0.5467244982719421,0.7130075097084045,-0.4389905333518982,0.004365872126072645,0.07466153800487518,-0.011419828981161118
5.779994964599609,0.01902461051940918,0.018610477447509766,-0.01290583610534668,-0.7931840488452773,-0.8925269611257961,-1.1822577988161835,-0.5462921261787415,0.712590754032135,-0.44020384550094604,0.05108316242694855,0.06067141890525818,0.007852045819163322
5.799992799758911,0.024870455265045166,0.007638752460479736,-0.0015837550163269043,-0.7924457887840554,-0.8902535946040162,-1.1803698502805875,-0.5456987619400024,0.7120726108551025,-0.4417755901813507,0.0867280438542366,0.028992939740419388,0.023685110732913017
5.820034027099609,0.02488642930984497,0.0022194385528564453,0.0034798383712768555,-0.7917757966920382,-0.888039046553383,-1.1775669355111338,-0.545089066028595,0.7116020321846008,-0.4432838559150696,0.101918525993824,-0.013433169573545456,0.04071580991148949
5.840065956115723,0.022543251514434814,-0.0028409957885742188,0.003833562135696411,-0.7913770829911123,-0.8864583599943451,-1.1743916337357576,-0.544607400894165,0.7113218307495117,-0.44432416558265686,0.09209051728248596,-0.060848355293273926,0.05292045325040817
5.860013008117676,0.012715339660644531,-0.006474614143371582,0.0033558905124664307,-0.7913364621120947,-0.8855473613785964,-1.1713987188941342,-0.544224739074707,0.7112932801246643,-0.44483837485313416,0.07781095802783966,-0.06513649225234985,0.05440875515341759
5.880023956298828,-0.002877175807952881,-0.00010883808135986328,-0.0032941699028015137,-0.7914193223113409,-0.884351635527847,-1.168441991298231,-0.5436469316482544,0.7113515138626099,-0.4454514682292938,0.0868593081831932,-0.03839772939682007,0.05754784494638443
5.900003910064697,-0.013445913791656494,0.006718575954437256,-0.004940390586853027,-0.7912578444494367,-0.8824885097785125,-1.165381022399445,-0.5429048538208008,0.7112380266189575,-0.4465366303920746,0.08525212109088898,0.000342830375302583,0.04816652834415436
5.919961929321289,-0.01825094223022461,-0.0017597079277038574,-0.004185914993286133,-0.7909460096335563,-0.8802327078887924,-1.162704337967745,-0.5420671105384827,0.7110188007354736,-0.4479014277458191,0.07787740975618362,0.02892218716442585,0.03422397002577782
5.939551830291748,-0.012045443058013916,-0.008287668228149414,-0.004904210567474365,-0.7907033630804712,-0.8779868949881192,-1.1607059808576787,-0.5411925315856934,0.7108481526374817,-0.44922783970832825,0.05099930241703987,0.050338443368673325,0.025145482271909714
5.959932804107666,-0.012977540493011475,-0.016115963459014893,0.0031319856643676758,-0.7905739280393426,-0.8761303198875414,-1.15988248205578,-0.5404282808303833,0.7107571363449097,-0.4502907395362854,-1.3430137187242508e-05,0.07992526888847351,0.00756478076800704
5.979930877685547,-0.015217244625091553,-0.014025390148162842,-0.0005179643630981445,-0.7907039036663515,-0.8745006567072481,-1.1603527090746097,-0.5396229028701782,0.7108485102653503,-0.45111164450645447,-0.030168762430548668,0.12243020534515381,-0.011756960302591324
5.999934911727905,-0.008353948593139648,-0.004965662956237793,-0.004155904054641724,-0.7907746002571217,-0.8727544915222364,-1.1617331804079694,-0.5387957096099854,0.7108982801437378,-0.4520207643508911,-0.04640645533800125,0.15530630946159363,-0.024588992819190025
6.019949913024902,0.0062767863273620605,-0.00532454252243042,-0.006280362606048584,-0.7909161298425946,-0.8709969489963685,-1.1634702357890694,-0.5379235148429871,0.7109977602958679,-0.45290228724479675,-0.060935236513614655,0.1479949653148651,-0.02816353365778923
6.039944887161255,0.013604462146759033,-0.007113337516784668,-0.0006385445594787598,-0.7911599910301008,-0.8699165092486669,-1.165542924783466,-0.5373014807701111,0.7111692428588867,-0.45337146520614624,-0.06633749604225159,0.11634692549705505,-0.024958811700344086
6.059026718139648,0.013293981552124023,0.003307342529296875,0.0007872283458709717,-0.7913567231633137,-0.8693666588634551,-1.1673347395897253,-0.5369450449943542,0.7113075256347656,-0.4535764455795288,-0.042667098343372345,0.07809266448020935,-0.018792452290654182
6.0799946784973145,0.009601116180419922,0.012673258781433105,0.0010390281677246094,-0.7913175676837535,-0.8686467815410478,-1.1679639660653434,-0.5366396903991699,0.7112800478935242,-0.45398086309432983,0.009839121252298355,0.04347503185272217,-0.0020348785910755396
6.10001277923584,0.007757008075714111,0.011644899845123291,0.003252267837524414,-0.7909572051377599,-0.867247593064889,-1.16701754407387,-0.5361994504928589,0.711026668548584,-0.45489710569381714,0.056725598871707916,0.02486974559724331,0.017496149986982346
6.119969844818115,0.003816545009613037,0.006806015968322754,0.0020086169242858887,-0.7903957578517236,-0.8654664881247253,-1.1649401894648468,-0.5356922149658203,0.710631787776947,-0.4561101198196411,0.08512236922979355,0.004968297202140093,0.029321597889065742
6.140058994293213,0.0006821751594543457,-0.0031676888465881348,0.00451970100402832,-0.7898675099066541,-0.8638248957681031,-1.1627059710021872,-0.5352281332015991,0.7102600336074829,-0.45723268389701843,0.06771477311849594,0.0017890154849737883,0.02310905233025551
6.160034894943237,-0.002797722816467285,-0.012005150318145752,0.003753185272216797,-0.789632883929431,-0.8627792035359337,-1.1613399481669298,-0.5348762273788452,0.7100948095321655,-0.4579004645347595,0.02934906631708145,0.006255225278437138,0.008019101805984974
6.17999792098999,-0.006736576557159424,-0.010202288627624512,-0.001188427209854126,-0.7896728083958648,-0.8624551656649811,-1.1611770488536062,-0.5347062349319458,0.7101229429244995,-0.4580552577972412,-0.00818890891969204,0.012343212030827999,-0.01204668078571558
6.200000762939453,-0.001982748508453369,-0.008735239505767822,0.002867281436920166,-0.7898648091427486,-0.862666172410244,-1.16196406181369,-0.5346994400024414,0.7102581262588501,-0.4578538239002228,-0.039010189473629,0.025674285367131233,-0.014541849493980408
6.219996929168701,-0.004172682762145996,-0.009626448154449463,0.0038156509399414062,-0.7902855707730682,-0.8630117375786284,-1.1633698066555145,-0.5346304178237915,0.7105542421340942,-0.45747464895248413,-0.05624312162399292,0.03632000461220741,-0.020518604665994644
6.239991903305054,-0.001567065715789795,0.0018990039825439453,0.0032219290733337402,-0.7906254063391475,-0.8635719028281779,-1.165001827053106,-0.5347031354904175,0.7107933163642883,-0.4570182263851166,-0.05585365742444992,0.02509939856827259,-0.02057858370244503
6.259994029998779,0.0023395419120788574,-0.00015413761138916016,0.0034897029399871826,-0.7908976857756803,-0.8642625547692528,-1.1665621570491367,-0.5348712801933289,0.7109848260879517,-0.456523060798645,-0.050491999834775925,0.018886331468820572,-0.01807013899087906
6.279994010925293,0.004494011402130127,-7.43865966796875e-05,0.002720952033996582,-0.7911749968966487,-0.8650326222353346,-1.1678999436658792,-0.5350726842880249,0.711179792881012,-0.4559832215309143,-0.04128368943929672,0.001568417064845562,-0.013452181592583656
6.299993991851807,0.0044158101081848145,0.003162562847137451,-0.0013756155967712402,-0.7913673865961833,-0.8657927070759412,-1.1689502051578993,-0.5353149175643921,0.7113150358200073,-0.4554877281188965,-0.03198305517435074,-0.000374358962289989,-0.010432682000100613
6.319993019104004,0.003062903881072998,0.0035224556922912598,-0.004956066608428955,-0.7915066535287248,-0.8662042871094967,-1.1695593346348379,-0.5354267954826355,0.7114129066467285,-0.45520317554473877,-0.012495560571551323,0.004343874752521515,-0.007861882448196411
6.340040683746338,0.002906978130340576,0.0082131028175354,-0.0053969621658325195,-0.7914760849198174,-0.8662275444416991,-1.1696553463045667,-0.5354539752006531,0.7113914489746094,-0.4552048146724701,0.010189898312091827,0.002582371234893799,-0.0034230370074510574
6.36000394821167,0.003840148448944092,-0.0012139081954956055,-0.0028870999813079834,-0.7913416422775384,-0.8660728371875814,-1.169483478246108,-0.5354563593864441,0.7112969160079956,-0.45534953474998474,0.005586252082139254,-0.006372330244630575,-0.001539325574412942
6.379994869232178,0.0025694966316223145,-0.0047512054443359375,-0.0047255754470825195,-0.7911641217721661,-0.8661540685860556,-1.169435911248509,-0.5355895757675171,0.7111721634864807,-0.4553878903388977,0.012278309091925621,-0.013493001461029053,-0.011925880797207355
6.400000810623169,0.0039283037185668945,0.0010749101638793945,-0.005077660083770752,-0.7909076198349623,-0.8663196834585327,-1.169367856144294,-0.5358039736747742,0.7109917998313904,-0.45541730523109436,0.010456427931785583,-0.006377656944096088,-0.009001143276691437
6.419973850250244,0.0012940764427185059,-0.002283632755279541,-0.009325951337814331,-0.7906711235937349,-0.866050629828452,-1.1691060263025859,-0.5358094573020935,0.710825502872467,-0.4556702971458435,0.02205643802881241,0.011004352010786533,-0.0044250041246414185
6.440047740936279,-0.0031740665435791016,0.009054839611053467,-0.0076958537101745605,-0.790257475306297,-0.8649300349409442,-1.168362103216847,-0.5355222821235657,0.7105344533920288,-0.45646122097969055,0.03842523694038391,0.045834679156541824,0.0053580026142299175
6.459997892379761,-0.012667834758758545,-0.0029717683792114258,0.00034427642822265625,-0.789806015960831,-0.8629550681228054,-1.1675819304168062,-0.5348633527755737,0.7102167010307312,-0.45772644877433777,0.024201082065701485,0.09066233783960342,-0.0024604115169495344
6.480004787445068,-0.012044012546539307,-0.008700907230377197,0.002258896827697754,-0.7895559979163044,-0.8607595357142825,-1.1673115595996633,-0.533991813659668,0.7100406885147095,-0.4590153992176056,0.002055220538750291,0.10404267907142639,-0.006984043400734663
6.500022888183594,-0.006923556327819824,-0.018934667110443115,0.01130715012550354,-0.7895706496385079,-0.8590026151458596,-1.1678051852511109,-0.5331765413284302,0.7100510001182556,-0.45994600653648376,-0.0345129519701004,0.1029161661863327,-0.01480245403945446
6.5200018882751465,-0.007242143154144287,-0.016185998916625977,0.007094442844390869,-0.7899795893932134,-0.8581908222415029,-1.1693039100741873,-0.5325832962989807,0.7103388905525208,-0.4601888656616211,-0.07240745425224304,0.08465016633272171,-0.029316836968064308
6.539996862411499,-0.008072972297668457,-0.012242376804351807,0.00046187639236450195,-0.7905119443020739,-0.8584333568962418,-1.1717414053282575,-0.532408595085144,0.7107135057449341,-0.4598124325275421,-0.08898921310901642,0.07364962249994278,-0.035380519926548004
6.559561729431152,-0.005021512508392334,-0.0052915215492248535,-0.0041432976722717285,-0.7910210894920606,-0.8589293445601089,-1.174327953875643,-0.5323625802993774,0.7110716104507446,-0.4593118727207184,-0.09095674753189087,0.0705166757106781,-0.03395600616931915
6.5800158977508545,-0.0015757083892822266,-0.002667665481567383,0.0009247362613677979,-0.7916081018542419,-0.8596457184102572,-1.1770720757801276,-0.5323750972747803,0.7114841938018799,-0.45865780115127563,-0.09950102120637894,0.05958511680364609,-0.03592579439282417
6.600040912628174,0.000547945499420166,-0.006993293762207031,1.195073127746582e-05,-0.7922050931599001,-0.8609540090136791,-1.1802180035943168,-0.5326524376869202,0.7119035720825195,-0.4576840102672577,-0.10833527147769928,0.03947913646697998,-0.04955369234085083
6.619997024536133,0.007954895496368408,0.004422187805175781,-0.0052127838134765625,-0.792571814646017,-0.8627368220026096,-1.1835203533125962,-0.5332692861557007,0.7121610641479492,-0.45656391978263855,-0.09612222015857697,0.027100231498479843,-0.052780281752347946
6.639994859695435,0.01861792802810669,0.010378658771514893,-0.009012401103973389,-0.7927595675123036,-0.8638898871945125,-1.1856773460736352,-0.5336936116218567,0.7122928500175476,-0.45586180686950684,-0.04214444011449814,0.014644892886281013,-0.027387406677007675
6.6600048542022705,0.011818349361419678,0.02057749032974243,-0.002735316753387451,-0.7927946060496781,-0.8638773993427324,-1.1862392226654972,-0.5336689352989197,0.7123174667358398,-0.4558522701263428,0.00893031619489193,0.024406887590885162,-0.0011452602921053767
6.679994821548462,0.0034058094024658203,0.013761043548583984,0.005239307880401611,-0.792527700982533,-0.8625465654658367,-1.185442886230812,-0.5332062840461731,0.7121301293373108,-0.4566858112812042,0.04807059466838837,0.05067098140716553,0.019589928910136223
6.7000508308410645,-0.0026850104331970215,0.017404019832611084,0.009778201580047607,-0.7920334958453885,-0.8599562827973749,-1.1834398158467376,-0.532288134098053,0.7117830514907837,-0.45829498767852783,0.0868629440665245,0.059881791472435,0.029290931299328804
6.719998836517334,-0.0030686259269714355,0.0037810206413269043,0.015220701694488525,-0.7914210024193536,-0.8567418771503948,-1.1806530193058602,-0.5311416387557983,0.7113527059555054,-0.46028903126716614,0.09621488302946091,0.05516089126467705,0.03444391489028931
6.740042686462402,-0.00919950008392334,-0.005832970142364502,0.013375818729400635,-0.7908363554298359,-0.8539175794403561,-1.1781607926257358,-0.5301529169082642,0.7109416723251343,-0.46206045150756836,0.07676436007022858,0.04807262495160103,0.020298901945352554
6.76000189781189,-0.008437693119049072,-0.01311635971069336,0.009152352809906006,-0.7904528617228703,-0.8521188925536318,-1.1768108892231095,-0.5295262336730957,0.7106719613075256,-0.46319282054901123,0.022440731525421143,0.04767102003097534,0.006734439171850681
6.7799928188323975,-0.013369202613830566,-0.019814670085906982,0.0026741623878479004,-0.7905826331335767,-0.8512416508674445,-1.1770740697536706,-0.529050350189209,0.7107632160186768,-0.4635964035987854,-0.02671010233461857,0.06825627386569977,-0.01583271659910679
6.800005912780762,-0.008848071098327637,-0.008681416511535645,-0.0015032291412353516,-0.7910245577262159,-0.8508723311884162,-1.1787176494743807,-0.5286428332328796,0.7110740542411804,-0.4635845720767975,-0.07073047757148743,0.09604796022176743,-0.027420921251177788
6.820027828216553,-0.00295865535736084,-0.009524822235107422,-0.00103837251663208,-0.7915732742812209,-0.8507471619979853,-1.1812405046816645,-0.5282914638519287,0.711459755897522,-0.4633934199810028,-0.08878698945045471,0.10623615235090256,-0.04048764705657959
6.840000867843628,-0.0029979944229125977,0.0007489919662475586,0.0023880600929260254,-0.7920227127481257,-0.8508519656952283,-1.184258137680392,-0.5280994772911072,0.7117754817008972,-0.46312713623046875,-0.09962683916091919,0.10168036818504333,-0.05155393108725548
6.8599958419799805,0.005873620510101318,0.0004271864891052246,0.005013704299926758,-0.7923722693051712,-0.8512037275030994,-1.1873792528691882,-0.5280752182006836,0.712020993232727,-0.462777316570282,-0.08852638304233551,0.09239774942398071,-0.048296764492988586
6.879994869232178,0.006837010383605957,0.010181427001953125,0.0016292929649353027,-0.7925405812123963,-0.8511061665694415,-1.1896853331255508,-0.5279399752616882,0.7121391296386719,-0.4627498686313629,-0.047693416476249695,0.08324401080608368,-0.02811628021299839
6.90008282661438,0.007033109664916992,0.011749684810638428,-0.002523183822631836,-0.7924368124040334,-0.8501905106942178,-1.1905277053774752,-0.5275714993476868,0.7120662927627563,-0.4632818102836609,0.008684307336807251,0.06910129636526108,-0.009913390502333641
6.919996738433838,0.00497889518737793,0.009084045886993408,-0.0016780197620391846,-0.7919738320278229,-0.8486822121241293,-1.1901408597516168,-0.5271193981170654,0.7117411494255066,-0.46429479122161865,0.03809552267193794,0.054589468985795975,-0.006004852708429098
6.939997911453247,0.003554999828338623,-0.0046280622482299805,0.003598451614379883,-0.7913796386277862,-0.8473656801621118,-1.1895687104765242,-0.5268246531486511,0.711323618888855,-0.4652683138847351,0.029406363144516945,0.036506958305835724,-0.012492640875279903
6.96002197265625,0.005552768707275391,-0.014960646629333496,0.008277297019958496,-0.7910791516099005,-0.8469208514138082,-1.1897432249827709,-0.5267778038978577,0.7111124396324158,-0.4656441807746887,-0.017228076234459877,0.02436436526477337,-0.024567389860749245
6.979994773864746,0.006167769432067871,-0.016091883182525635,0.0054804980754852295,-0.7912991383129849,-0.8475434775541499,-1.1910645317174091,-0.5269501805305481,0.7112670540809631,-0.4652124345302582,-0.05717891454696655,0.007852145470678806,-0.03048398531973362
6.999995708465576,0.005255937576293945,-0.004994511604309082,-0.0014464259147644043,-0.7917274436155678,-0.8488969104043277,-1.1930507111095936,-0.5273507237434387,0.7115680575370789,-0.4642975330352783,-0.06935988366603851,0.004073208663612604,-0.03677406907081604
7.01999568939209,-0.004388868808746338,0.004385769367218018,-0.0004819035530090332,-0.792123955091543,-0.850041697951454,-1.195173334800312,-0.5276698470115662,0.7118465900421143,-0.4635072648525238,-0.06108332425355911,0.030213112011551857,-0.029982684180140495
7.039993762969971,-0.0034949183464050293,0.011726677417755127,-0.0009624361991882324,-0.7924043951227099,-0.8503846930414543,-1.1966473129137978,-0.5276788473129272,0.7120435237884521,-0.4631946086883545,-0.03790794685482979,0.038389015942811966,-0.019736716523766518
7.060003757476807,-0.0036844611167907715,0.010183870792388916,7.611513137817383e-05,-0.7925371234173997,-0.850293581689169,-1.1975380977948658,-0.5275655388832092,0.7121367454528809,-0.463180273771286,-0.01945655792951584,0.03368835896253586,-0.011412343010306358
7.07999587059021,-0.004652917385101318,-0.0001952648162841797,0.00414806604385376,-0.7926286061740961,-0.8499556931485384,-1.1979033906810783,-0.5273600816726685,0.712200939655304,-0.46331551671028137,-0.011026186868548393,0.022088516503572464,-0.0014719725586473942
7.099993705749512,-0.0029807686805725098,-0.0002658367156982422,0.004251033067703247,-0.7927290770161454,-0.849728720675615,-1.1979835621608017,-0.5272010564804077,0.7122714519500732,-0.4633878767490387,-0.0008894368074834347,0.008332845754921436,0.002874957863241434
7.12001371383667,-0.0028441548347473145,-0.00714111328125,0.0015507936477661133,-0.7927633919148562,-0.8496681034965838,-1.1980503841529204,-0.5271546840667725,0.7122955322265625,-0.46340373158454895,-0.0058918120339512825,0.0009394672233611345,-0.004775828681886196
7.140031814575195,0.0013483762741088867,-0.01205754280090332,0.004366576671600342,-0.7929199746616264,-0.8502364552926871,-1.1987310679951015,-0.5273340940475464,0.7124054431915283,-0.4630304276943207,-0.03886384889483452,-0.007103723008185625,-0.01545863226056099
7.159993886947632,0.009580254554748535,-0.014302492141723633,-0.00040161609649658203,-0.7933576895341731,-0.8516830501738883,-1.2004203574028105,-0.5277687907218933,0.7127125859260559,-0.46206170320510864,-0.07507728040218353,-0.011576058343052864,-0.02618338353931904
7.18002986907959,0.01430821418762207,-0.007938385009765625,-0.003941535949707031,-0.7941394463783658,-0.8538780544630757,-1.2030067497140406,-0.5283616185188293,0.7132607102394104,-0.4605359733104706,-0.11056046187877655,-0.019605133682489395,-0.03345290571451187
7.200004816055298,0.010203838348388672,-0.0016344785690307617,0.0027095377445220947,-0.7951820225779735,-0.856594521986475,-1.206303544413296,-0.5290483832359314,0.7139910459518433,-0.45861154794692993,-0.13137339055538177,-0.01915159821510315,-0.03941714018583298
7.220043897628784,0.0112382173538208,0.0075304508209228516,-0.0013098418712615967,-0.7961711685838923,-0.8594227574780489,-1.209687868826615,-0.5298081040382385,0.7146832942962646,-0.45665213465690613,-0.11147677898406982,-0.024899497628211975,-0.03440151736140251
7.239996910095215,0.016207218170166016,0.020775794982910156,-0.007603943347930908,-0.796803073450984,-0.8615006898511658,-1.2118384198227576,-0.5304132103919983,0.7151250839233398,-0.4552561342716217,-0.05324389412999153,-0.03451821580529213,-0.010279729962348938
7.260046005249023,0.01385575532913208,0.022961676120758057,-0.008422613143920898,-0.7971032026083611,-0.8622914399277124,-1.2122317956716437,-0.5306099653244019,0.7153348922729492,-0.4546968340873718,0.002980442252010107,-0.03506096825003624,0.013357860967516899
7.280004978179932,0.010534822940826416,0.024421095848083496,-0.007732808589935303,-0.7971546423228609,-0.8622978347378858,-1.2111495481972072,-0.5305849313735962,0.7153708338737488,-0.4546694755554199,0.04582778736948967,-0.05087703838944435,0.034018099308013916
7.300001859664917,0.009860992431640625,0.016507446765899658,-0.0008733272552490234,-0.7970155422932433,-0.8618578607164928,-1.2090539935621583,-0.5304604172706604,0.7152736186981201,-0.4549677073955536,0.07558892667293549,-0.06437402963638306,0.04638535901904106
7.319998741149902,0.011309146881103516,0.01101386547088623,-9.378790855407715e-05,-0.7967977820572987,-0.8611258890108945,-1.205987555136237,-0.530245304107666,0.7151213884353638,-0.45545727014541626,0.10286561399698257,-0.09214289486408234,0.06023925915360451
7.340025901794434,0.006336569786071777,0.007097184658050537,0.0015534162521362305,-0.796332571903068,-0.8604424949858651,-1.2022278660340253,-0.5301860570907593,0.7147961258888245,-0.45603641867637634,0.1293025016784668,-0.11219196766614914,0.05873547121882439
7.360110759735107,0.001454770565032959,-0.0004934072494506836,0.0018344521522521973,-0.7956664425781835,-0.8597211829893439,-1.198137570577241,-0.5302176475524902,0.7143301367759705,-0.45672938227653503,0.1333128660917282,-0.11168587952852249,0.06072274595499039
7.379995822906494,-0.0009227395057678223,-0.004292130470275879,0.0003935694694519043,-0.79501138630377,-0.8589857027482095,-1.1941890950119933,-0.5302357077598572,0.7138715982437134,-0.45742473006248474,0.12423069775104523,-0.0986674576997757,0.05479343235492706
7.400003910064697,-0.0033141374588012695,-0.007415175437927246,-0.0007154345512390137,-0.7944597458028738,-0.8583105251544656,-1.1907578749086243,-0.5302246809005737,0.7134851813316345,-0.4580400288105011,0.09743230044841766,-0.08356688916683197,0.0468185655772686
7.420026779174805,-0.00877535343170166,-0.012567102909088135,0.0007377564907073975,-0.7941686934142725,-0.8580706037297985,-1.1884153903364236,-0.5302718877792358,0.7132812142372131,-0.4583030045032501,0.05261344090104103,-0.05621001496911049,0.03128136321902275
7.440034866333008,-0.007043778896331787,-0.012855768203735352,0.007710099220275879,-0.7941669829641063,-0.85821774759224,-1.1872737065222825,-0.5303402543067932,0.7132800221443176,-0.4582257866859436,0.015106027945876122,-0.03857136517763138,0.01807047612965107
7.460089683532715,-0.010570883750915527,-0.007044672966003418,0.004969418048858643,-0.7943230315730561,-0.8585298001304138,-1.1869068855753528,-0.5303990840911865,0.7133893966674805,-0.45798757672309875,-0.0019462723284959793,-0.022282054647803307,0.008222588337957859
7.480074882507324,-0.005585074424743652,-0.0016169548034667969,0.002917766571044922,-0.7943945976500425,-0.858738990281731,-1.1867642216263932,-0.5304561853408813,0.7134395241737366,-0.45784327387809753,0.008059277199208736,-0.008385236375033855,0.008061337284743786
7.500003814697266,-0.005588710308074951,0.0002830624580383301,0.001095503568649292,-0.7942960892801643,-0.8583485517951467,-1.186167761080817,-0.5303304195404053,0.7133705019950867,-0.45809614658355713,0.025978395715355873,0.007389909587800503,0.016741791740059853
7.52000093460083,-0.013704538345336914,0.0033292770385742188,0.0008969604969024658,-0.7939774312828886,-0.8574782074285475,-1.1852148133721303,-0.5301034450531006,0.7131471633911133,-0.4587063193321228,0.04180154204368591,0.019670188426971436,0.015829723328351974
7.540027856826782,-0.020619750022888184,-0.008740782737731934,0.005403339862823486,-0.7935428344568055,-0.85629681350492,-1.1843124910257248,-0.5297953486442566,0.7128424048423767,-0.4595353901386261,0.030099689960479736,0.03759734705090523,0.003093185368925333
7.559997797012329,-0.02193373441696167,-0.01946282386779785,0.008589565753936768,-0.7932747534530703,-0.8554151361814707,-1.184322020465366,-0.5295342206954956,0.7126543521881104,-0.4601276218891144,-0.013219194486737251,0.05225289985537529,-0.0184270441532135
7.579996824264526,-0.013251662254333496,-0.03149169683456421,0.010675609111785889,-0.7934776219134575,-0.8556189873087758,-1.1860294264254836,-0.5295187830924988,0.712796688079834,-0.4599248170852661,-0.09039633721113205,0.05236271023750305,-0.04371248930692673
7.599994897842407,-0.0079384446144104,-0.03279519081115723,0.005929857492446899,-0.7942921281790775,-0.8573785749457769,-1.1898024611412643,-0.5298880934715271,0.7133677005767822,-0.4586122930049896,-0.1633882075548172,0.04340143874287605,-0.06580004841089249
7.620009899139404,-0.007146596908569336,-0.01777750253677368,0.001079261302947998,-0.7953988969864468,-0.8605168059312277,-1.1952287977142526,-0.5307257771492004,0.714142918586731,-0.4564320147037506,-0.19240081310272217,0.04123060777783394,-0.08285193145275116
7.640032768249512,-0.007441997528076172,-9.500980377197266e-05,-0.001962125301361084,-0.7962965181620404,-0.8638191724280593,-1.2008999129874793,-0.5317425727844238,0.7147709131240845,-0.45426034927368164,-0.16741947829723358,0.04261971265077591,-0.08239014446735382
7.660029888153076,-0.0031121373176574707,0.016180336475372314,-0.008244872093200684,-0.7967413451665755,-0.8662628308264044,-1.2053277879849482,-0.5326088070869446,0.7150819301605225,-0.4527536630630493,-0.10463663190603256,0.037347275763750076,-0.06263044476509094
7.679996013641357,-0.0012105107307434082,0.020451784133911133,-0.012449651956558228,-0.7966117176386002,-0.8673078879570523,-1.207838416635496,-0.5331522226333618,0.7149913311004639,-0.4522566795349121,-0.037057507783174515,0.04103309288620949,-0.045411765575408936
7.699994802474976,0.005023062229156494,0.01301717758178711,-0.007369041442871094,-0.796093197508586,-0.867071904578588,-1.2088393680391063,-0.5333281755447388,0.7146287560462952,-0.45262235403060913,0.006162293720990419,0.05642767250537872,-0.032206159085035324
7.7200398445129395,0.007591187953948975,0.0014662742614746094,-0.008923739194869995,-0.7955043467107843,-0.8662059247241297,-1.209285150082602,-0.5332564115524292,0.7142167091369629,-0.45335647463798523,-0.00365149462595582,0.06590772420167923,-0.03060656599700451
7.7399938106536865,0.008961260318756104,-0.01273965835571289,-0.003838956356048584,-0.7952428321732073,-0.8654817255967359,-1.2103106077940111,-0.5330702066421509,0.7140336632728577,-0.45386365056037903,-0.04244540259242058,0.07571402192115784,-0.043460313230752945
7.759995937347412,0.010579884052276611,-0.015648365020751953,0.0008979439735412598,-0.7955181149795713,-0.8655450410272892,-1.2127254917043784,-0.5329493284225464,0.7142263650894165,-0.45370253920555115,-0.09941526502370834,0.084705650806427,-0.053875766694545746
7.779996871948242,0.016281962394714355,-0.012882769107818604,-0.005443543195724487,-0.7962541393420461,-0.8661825973668845,-1.2162425488063464,-0.5328377485275269,0.7147412896156311,-0.45302194356918335,-0.12805742025375366,0.09671056270599365,-0.05511000007390976
7.800025939941406,0.014975368976593018,0.0015622973442077637,-0.0060111284255981445,-0.7971344573894297,-0.8668839680736351,-1.2200349309616787,-0.5326756238937378,0.715356707572937,-0.45224079489707947,-0.13983824849128723,0.09891095012426376,-0.05567597970366478
7.820004940032959,0.013123631477355957,0.006216824054718018,-0.0026482343673706055,-0.7981824461975568,-0.8677666445566037,-1.224074711188364,-0.5325023531913757,0.716088593006134,-0.4512854814529419,-0.15029293298721313,0.09900593757629395,-0.052038129419088364
7.839995861053467,0.011350691318511963,0.01683574914932251,-0.00723835825920105,-0.7991025497929274,-0.8685375447880133,-1.2279935236798216,-0.532346785068512,0.716730535030365,-0.4504489600658417,-0.1226237565279007,0.10450775921344757,-0.04731927439570427
7.860000848770142,0.01477813720703125,0.02248317003250122,-0.013837933540344238,-0.7996692512163192,-0.8682309205173504,-1.2306031348434754,-0.531898558139801,0.7171255946159363,-0.4503496289253235,-0.06362222135066986,0.10023551434278488,-0.02541956678032875
7.880023956298828,0.016395092010498047,0.02558159828186035,-0.008937239646911621,-0.7999526803419258,-0.867117643193763,-1.2317020520617972,-0.5312418937683105,0.7173231244087219,-0.4508100152015686,-0.024636471644043922,0.07710196822881699,-0.01067417673766613
7.900045871734619,0.018742501735687256,0.011667191982269287,-0.004405289888381958,-0.8001693490487854,-0.8661231973781782,-1.2320138772605183,-0.5306748747825623,0.7174740433692932,-0.45123735070228577,-0.003642505966126919,0.03530125692486763,0.00751281576231122
7.919997692108154,0.019587218761444092,0.01276087760925293,-0.00024563074111938477,-0.8003079106675546,-0.8653227645133676,-1.2315198950259658,-0.5302379131317139,0.7175706028938293,-0.45159757137298584,0.02797025255858898,0.002074240241199732,0.01998766139149666
7.939993858337402,0.018130242824554443,0.013014137744903564,-0.004958808422088623,-0.8001852754336141,-0.864246692017298,-1.2298392368399251,-0.5298185348510742,0.7174851894378662,-0.452224999666214,0.06628771871328354,-0.018656782805919647,0.03461989015340805
7.959994792938232,0.010290265083312988,0.007338464260101318,-0.0019484460353851318,-0.799877706956624,-0.8628379906781567,-1.2272806010347574,-0.5293484926223755,0.7172709107398987,-0.4531143009662628,0.08825701475143433,-0.031247586011886597,0.036036454141139984
7.980025768280029,0.0023874640464782715,-0.00012570619583129883,-0.0018850862979888916,-0.7993342115060325,-0.861381021831975,-1.2245440444058064,-0.5289835333824158,0.7168920636177063,-0.45413896441459656,0.09354500472545624,-0.02724449895322323,0.03223660588264465
7.99999475479126,-0.006528615951538086,-0.009434819221496582,0.006652534008026123,-0.7988546530007704,-0.8600583547292379,-1.222278412644905,-0.5286428928375244,0.7165576219558716,-0.45506250858306885,0.06216674670577049,-0.007040695287287235,0.017644349485635757
8.019994735717773,-0.004620194435119629,-0.015506446361541748,0.011501073837280273,-0.7987214651325396,-0.8594326290068819,-1.221340011858415,-0.5284303426742554,0.7164647579193115,-0.4554555118083954,0.0021753418259322643,-0.006068907678127289,0.0015723517863079906
8.039994716644287,0.0064542293548583984,-0.016890287399291992,0.008256137371063232,-0.7990866372905472,-0.8599947194122813,-1.2219131437586848,-0.5284879803657532,0.7167194485664368,-0.45498767495155334,-0.043021347373723984,-0.019865412265062332,-0.009017370641231537
8.060003757476807,0.008509695529937744,-0.006430506706237793,0.004348933696746826,-0.7995791833773702,-0.8615814468350829,-1.2233722381910137,-0.5289412140846252,0.7170628309249878,-0.4539185166358948,-0.060391515493392944,-0.0311262346804142,-0.017785703763365746
8.0800199508667,0.008453667163848877,0.01072019338607788,-0.0011059045791625977,-0.799951729005759,-0.8632852636034226,-1.2247433683577245,-0.5295107960700989,0.7173224687576294,-0.45284304022789,-0.030601486563682556,-0.03666161373257637,-0.006815871689468622
8.099995851516724,0.003992259502410889,0.025509357452392578,-0.005959928035736084,-0.7999468714010975,-0.8640418363984625,-1.2248011064341686,-0.5298559069633484,0.7173190712928772,-0.45244455337524414,0.0355699323117733,-0.029774947091937065,0.016055798158049583
8.11999797821045,-0.001947164535522461,0.0308912992477417,-0.002152174711227417,-0.799383851527842,-0.8630524524189175,-1.2227336262144846,-0.529714822769165,0.7169266939163208,-0.4532310366630554,0.10086409002542496,-0.023738713935017586,0.037568509578704834
8.140041828155518,-0.0006006360054016113,0.01140451431274414,0.005404144525527954,-0.7985106604562984,-0.8611067280017559,-1.2191570292635252,-0.5293065905570984,0.7163176536560059,-0.4546685516834259,0.1385156363248825,-0.03949859365820885,0.053326316177845
8.159998893737793,-0.0036136507987976074,-0.003043532371520996,0.01373898983001709,-0.7975679156907676,-0.8591637719253492,-1.2150723579009202,-0.5289334058761597,0.715659499168396,-0.4561370015144348,0.13827164471149445,-0.06272650510072708,0.052188485860824585
8.179996013641357,-0.005735814571380615,-0.022973954677581787,0.01590198278427124,-0.7968289338757083,-0.8581508100284571,-1.2116756567579803,-0.5288711786270142,0.7151432037353516,-0.45701828598976135,0.09491109848022461,-0.07909535616636276,0.03284250944852829
8.199994802474976,-0.011233508586883545,-0.02973991632461548,0.01084989309310913,-0.7964451307625392,-0.8585213407643651,-1.2099489475410512,-0.529248058795929,0.7148748636245728,-0.45700156688690186,0.03120945766568184,-0.0819430723786354,0.004744812846183777
8.220032691955566,-0.012131571769714355,-0.028321027755737305,0.008679032325744629,-0.7964236106088357,-0.860305441703344,-1.210166953311481,-0.5300742983818054,0.7148598432540894,-0.45606669783592224,-0.03268821910023689,-0.08147142827510834,-0.021375197917222977
8.239993810653687,-0.0066217780113220215,-0.02418440580368042,0.008216321468353271,-0.7967051404245814,-0.8636615903347081,-1.2121773854582707,-0.5314489006996155,0.7150566577911377,-0.4541543424129486,-0.08575120568275452,-0.11193790286779404,-0.04500370845198631
8.260003805160522,0.005516946315765381,-0.0174521803855896,0.00760042667388916,-0.797159160354574,-0.8686072578089354,-1.2153161663681828,-0.5334405899047852,0.7153739929199219,-0.4513106942176819,-0.10573377460241318,-0.15704751014709473,-0.05619756504893303
8.279999732971191,0.006932377815246582,0.001296401023864746,0.0066255927085876465,-0.7974058995755244,-0.8744984354880034,-1.218554179186824,-0.5359546542167664,0.7155463695526123,-0.44804710149765015,-0.08945884555578232,-0.1992492973804474,-0.055199142545461655
8.30005693435669,0.004898250102996826,0.013466238975524902,0.002651721239089966,-0.7973934834992724,-0.880145113583781,-1.220840591222971,-0.5384828448295593,0.7155376672744751,-0.4450191855430603,-0.03530094027519226,-0.20177236199378967,-0.03200896829366684
8.31999683380127,-0.006711602210998535,0.02411121129989624,-0.0029758214950561523,-0.7969211776296606,-0.8839603397509624,-1.22105138394218,-0.5404381155967712,0.7152076363563538,-0.4431758224964142,0.04196726903319359,-0.16020521521568298,-0.0025868043303489685
8.340089797973633,-0.021358847618103027,0.02777332067489624,-0.011152446269989014,-0.7960264676177431,-0.8850159508923446,-1.2188507440145138,-0.5414005517959595,0.7145820260047913,-0.4430100917816162,0.11886395514011383,-0.10774822533130646,0.028072984889149666
8.360020875930786,-0.0235903263092041,0.009121537208557129,-0.007949531078338623,-0.7949009506239942,-0.8841557829436034,-1.2153076135958372,-0.5416410565376282,0.7137942314147949,-0.4439852833747864,0.1294918954372406,-0.06646744906902313,0.031094934791326523
